time_s,timestamp_ms,wheel_vels__velocity_left,wheel_vels__velocity_right,odom__orient_x,odom__orient_y,odom__orient_z,odom__orient_w,odom__lin_x,odom__lin_y,odom__lin_z,odom__ang_x,odom__ang_y,odom__ang_z,imu__orient_x,imu__orient_y,imu__orient_z,imu__orient_w,imu__angvel_x,imu__angvel_y,imu__angvel_z,imu__acc_x,imu__acc_y,imu__acc_z,wheel_status__current_ma_left,wheel_status__current_ma_right,wheel_status__pwm_left,wheel_status__pwm_right
0.0,1788526754252,0.0,0.0,-0.0055938889272511,0.0029920719098299,-0.3898372650146484,0.9208618998527528,0.0,0.0,0.0,0.0,-9.666330846869188e-09,0.0,-0.0039559016004204,0.0046207839623093,-0.6764682531356812,0.736446738243103,-0.0001267915505352,0.0008616721625255,-0.0011529177032598,0.0007861852645874,-0.0234383940696716,0.0034408569335937,5,0,0,0
0.1,1788526754352,0.0,0.0,-0.0055938889272511,0.0029920719098299,-0.3898372650146484,0.9208618998527528,0.0,0.0,0.0,0.0,-9.666330846869188e-09,0.0,-0.0039559016004204,0.0046207839623093,-0.6764682531356812,0.736446738243103,-0.0001267915505352,0.0008616721625255,-0.0011529177032598,0.0007861852645874,-0.0234383940696716,0.0034408569335937,5,0,0,0
0.2,1788526754452,0.0,0.0,-0.0055938889272511,0.0029920719098299,-0.3898372650146484,0.9208618998527528,0.0,0.0,0.0,0.0,-9.666330846869188e-09,0.0,-0.0039559016004204,0.0046207839623093,-0.6764682531356812,0.736446738243103,-0.0001267915505352,0.0008616721625255,-0.0011529177032598,0.0007861852645874,-0.0234383940696716,0.0034408569335937,5,0,0,0
0.3,1788526754552,0.0,0.0,-0.0055938889272511,0.0029920719098299,-0.3898372650146484,0.9208618998527528,0.0,0.0,0.0,0.0,-9.666330846869188e-09,0.0,-0.0039559016004204,0.0046207839623093,-0.6764682531356812,0.736446738243103,-0.0001267915505352,0.0008616721625255,-0.0011529177032598,0.0007861852645874,-0.0234383940696716,0.0034408569335937,5,0,0,0
0.4,1788526754652,0.0,0.0,-0.0055938889272511,0.0029920719098299,-0.3898372650146484,0.9208618998527528,0.0,0.0,0.0,0.0,-9.707205705922206e-09,0.0,-0.0039392737671732,0.004621559754014,-0.676454484462738,0.7364594340324402,0.0004726436745076,0.0004725977041899,0.0007579958297008,-0.0205892920494079,0.0050066113471984,0.0124969482421875,2,0,0,0
0.5,1788526754752,0.0,0.0,-0.0055938889272511,0.0029920719098299,-0.3898372650146484,0.9208618998527528,0.0,0.0,0.0,0.0,-9.866857553220145e-09,0.0,-0.0039574690163135,0.004629679955542,-0.6764852404594421,0.7364310622215271,5.514617420762959e-05,0.0001581796919874,-0.0008090039005733,-0.0043252110481262,-0.0123064517974853,-0.0270442962646484,4,0,0,0
0.6,1788526754852,0.0,0.0,-0.0055938889272511,0.0029920719098299,-0.3898372650146484,0.9208618998527528,0.0,0.0,0.0,0.0,-7.355411835163751e-09,0.0,-0.0039666052907705,0.0046159215271472,-0.6764851212501526,0.7364311218261719,0.0003932198940143,-0.0013813785706528,-0.0006164943984427,0.0185997486114501,-0.028641402721405,-0.010848045349121,0,0,0,0
0.7,1788526754952,0.0,0.0,-0.0055938889272511,0.0029920719098299,-0.3898372650146484,0.9208618998527528,0.0,0.0,0.0,0.0,-9.808116097076436e-09,0.0,-0.0040262835100293,0.0045664841309189,-0.6764621734619141,0.7364522218704224,0.0002366107040119,-0.002830564958864,0.0011740757506658,-0.0045958161354064,0.003735065460205,0.0108146667480468,2,0,0,0
0.8,1788526755052,0.0,0.0,-0.0055938889272511,0.0029920719098299,-0.3898372650146484,0.9208618998527528,0.0,0.0,0.0,0.0,-9.690596769473814e-09,0.0,-0.0040001226589083,0.0045913560315966,-0.6764792799949646,0.7364364862442017,0.0007578599654116,0.0013836130960203,9.108434557060825e-05,0.0103651285171508,-0.0126179456710815,0.0287542343139648,1,0,0,0
0.9,1788526755152,0.0,0.0,-0.0055938889272511,0.0029920719098299,-0.3898372650146484,0.9208618998527528,0.0,0.0,0.0,0.0,-1.0068212930036681e-08,0.0,-0.0040016798302531,0.0045249881222844,-0.6764733195304871,0.7364423871040344,0.0007698997516177,0.0001493410251593,7.811517524590041e-05,-0.028139591217041,0.0083016157150268,-0.0054340362548828,1,0,0,0
1.0,1788526755252,0.0,0.0,-0.0055938889272511,0.0029920719098299,-0.3898372650146484,0.9208618998527528,0.0,0.0,0.0,0.0,-7.129716816933751e-09,0.0,-0.0040174489840865,0.0045197261497378,-0.6764943599700928,0.7364229559898376,-0.0001166941115189,-2.0615320980811403e-05,-0.0011708962874604,0.0020985603332519,-0.0418381690979003,-0.0055971145629882,5,0,0,0
1.1,1788526755352,0.0,0.0,-0.0055938889272511,0.0029920719098299,-0.3898372650146484,0.9208618998527528,0.0,0.0,0.0,0.0,-9.4998329203122e-09,0.0,-0.0040036588907241,0.0045166863128542,-0.6764888167381287,0.7364281415939331,0.0003874650395907,-3.470153121233218e-05,0.0009301092281896,0.0004619359970092,-0.0133167505264282,-0.0089921951293945,2,0,0,0
1.2,1788526755452,0.0,0.0,-0.0055938889272511,0.0029920719098299,-0.3898372650146484,0.9208618998527528,0.0,0.0,0.0,0.0,-1.0129629579580524e-08,0.0,-0.0040201283991336,0.0044457921758294,-0.676461398601532,0.736453652381897,0.0012916777220027,-0.0009308497032945,0.0018417615417372,-0.0134699344635009,0.0020099878311157,0.010812759399414,1,0,0,0
1.3,1788526755552,0.0,0.0,-0.0055938889272511,0.0029920719098299,-0.3898372650146484,0.9208618998527528,0.0,0.0,0.0,0.0,-9.7519432529225e-09,0.0,-0.0040557533502578,0.0044189980253577,-0.6764628887176514,0.7364523410797119,-0.0008100635750559,0.0008323724297095,-9.642668815743802e-05,-0.0303863286972045,-0.0156605839729309,-0.0073566436767578,0,0,0,0
1.4,1788526755652,0.0,0.0,-0.0055938889272511,0.0029920719098299,-0.3898372650146484,0.9208618998527528,0.0,0.0,0.0,0.0,-7.316764083498128e-09,0.0,-0.0040717041119933,0.0044035678729414,-0.6764298677444458,0.7364826202392578,0.0002440974431901,0.0001551871648735,0.0014582338829611,0.0015096068382263,-0.024627149105072,-0.0054254531860351,0,0,0,0
1.5,1788526755752,0.0,0.0,-0.0055938889272511,0.0029920719098299,-0.3898372650146484,0.9208618998527528,0.0,0.0,0.0,0.0,-9.674082868116331e-09,0.0,-0.0040328130125999,0.0044142007827758,-0.6764592528343201,0.7364557981491089,0.0012469037159959,0.0006577000156424,-9.363908011503647e-05,-0.003242015838623,0.0018410086631774,0.001927375793457,3,0,0,0
1.6,1788526755852,0.0,0.0,-0.0055938889272511,0.0029920719098299,-0.3898372650146484,0.9208618998527528,0.0,0.0,0.0,0.0,-9.701664360761695e-09,0.0,-0.0040791667997837,0.0043583717197179,-0.6764603853225708,0.7364548444747925,0.0005913829861846,0.0005143578887124,-0.0009853308198063,-0.02986741065979,-0.0144892334938049,0.0142440795898437,1,0,0,0
1.7,1788526755952,0.0,0.0,-0.0055938889272511,0.0029920719098299,-0.3898372650146484,0.9208618998527528,0.0,0.0,0.0,0.0,-9.838981185339437e-09,0.0,-0.0040862616151571,0.0043237805366516,-0.6764423251152039,0.7364716529846191,-0.0003395063042384,-0.0016256686226204,-0.0001347645104655,3.3795833587646484e-05,-0.0059424638748168,0.0234756469726562,0,0,0,0
1.8,1788526756052,0.0,0.0,-0.0055938889272511,0.0029920719098299,-0.3898372650146484,0.9208618998527528,0.0,0.0,0.0,0.0,-1.0081852686028014e-08,0.0,-0.0040977969765663,0.0043027456849813,-0.6764426231384277,0.7364713549613953,0.0004017096116608,-0.0009135090323085,0.0011309098839778,-0.0092275738716125,-0.0004854798316955,-0.0034751892089843,0,0,0,0
1.9,1788526756152,0.0,0.0,-0.0055938889272511,0.0029920719098299,-0.3898372650146484,0.9208618998527528,0.0,0.0,0.0,0.0,-9.741712325705976e-09,0.0,-0.004115967079997,0.0043096672743558,-0.676446795463562,0.7364674210548401,0.0004072133871837,-0.0012588405140286,0.0004246224394155,-0.0418283343315124,0.0032821893692016,0.0215129852294921,1,0,0,0
2.0,1788526756252,0.0,0.0,-0.0055938889272511,0.0029920719098299,-0.3898372650146484,0.9208618998527528,0.0,0.0,0.0,0.0,-9.891425456487468e-09,0.0,-0.0040852529928088,0.0043670553714036,-0.6764365434646606,0.736476719379425,0.0004210866084735,0.0019993012595178,9.045669772740244e-05,-0.0027413964271545,-0.0232192873954772,0.0035982131958007,0,0,0,0
2.1,1788526756352,0.0,0.0,-0.0055938889272511,0.0029920719098299,-0.3898372650146484,0.9208618998527528,0.0,0.0,0.0,0.0,-9.50314937853136e-09,0.0,-0.004080694168806,0.0043126698583364,-0.6764326095581055,0.7364806532859802,0.0002067311963954,-0.0017979840341135,-0.0001217652264681,0.0091057419776916,0.0082936882972717,0.0074949264526367,5,0,0,0
2.2,1788526756452,0.0,0.0,-0.0055938889272511,0.0029920719098299,-0.3898372650146484,0.9208618998527528,0.0,0.0,0.0,0.0,-9.56686108111171e-09,0.0,-0.0040502194315195,0.0043381592258811,-0.6764280200004578,0.7364848256111145,0.0003790911731936,0.0011382472067584,0.0005737225730075,-0.0474141240119934,-0.0077839493751525,-0.0198917388916015,2,0,0,0
2.3,1788526756552,0.0,0.0,-0.0055938889272511,0.0029920719098299,-0.3898372650146484,0.9208618998527528,0.0,0.0,0.0,0.0,-9.502513442782856e-09,0.0,-0.0040589496493339,0.0043311435729265,-0.6764307618141174,0.7364822626113892,-0.000118734274963,0.0001703811589002,7.151039683111013e-05,-0.0224014520645141,-0.0274311900138854,-0.030644416809082,4,0,0,0
2.4,1788526756652,0.0,0.0,-0.0055938889272511,0.0029920719098299,-0.3898372650146484,0.9208618998527528,0.0,0.0,0.0,0.0,-9.70064473193588e-09,0.0,-0.0040986118838191,0.0042842831462621,-0.6764243841171265,0.7364882826805115,-0.0006276147359313,-0.0018769181438691,-0.0009699686870784,0.0068144798278808,0.019061803817749,-0.0085687637329101,6,0,0,0
2.5,1788526756752,0.0,0.0,-0.0055938889272511,0.0029920719098299,-0.3898372650146484,0.9208618998527528,0.0,0.0,0.0,0.0,-9.65275415154565e-09,0.0,-0.0040901349857449,0.0043063638731837,-0.6764095425605774,0.7365018725395203,0.0004055059035189,0.0012226000833373,0.0009558981987189,-0.0358558893203735,-0.0005365014076232,-0.0071592330932617,7,0,0,0
2.6,1788526756852,0.0,0.0,-0.0055938889272511,0.0029920719098299,-0.3898372650146484,0.9208618998527528,0.0,0.0,0.0,0.0,-9.193485972502913e-09,0.0,-0.0040809735655784,0.0043230997398495,-0.6764023900032043,0.736508309841156,0.0005199065309457,0.0025032388441918,0.0001631921788597,-0.0246015191078186,0.0014593601226806,-0.0232295989990234,0,0,0,0
2.7,1788526756952,0.0,0.0,-0.0055938889272511,0.0029920719098299,-0.3898372650146484,0.9208618998527528,0.0,0.0,0.0,0.0,-1.0064333366699431e-08,0.0,-0.0040911501273512,0.0043155886232852,-0.6763945817947388,0.7365155220031738,6.815127450973839e-05,-0.000732413321056,-0.0004851690361003,0.0074010491371154,-0.0237572193145751,-0.0070362091064453,4,0,0,0
2.8,1788526757052,0.0,0.0,-0.0055938889272511,0.0029920719098299,-0.3898372650146484,0.9208618998527528,0.0,0.0,0.0,0.0,-9.715651394515136e-09,0.0,-0.0040639098733663,0.0043171308934688,-0.6763904094696045,0.736519455909729,0.0004111892002882,0.0008862601788599,0.0004416681302556,-0.0120865106582641,0.0062507987022399,0.0146284103393554,1,0,0,0
2.9,1788526757152,0.0,0.0,-0.0055938889272511,0.0029920719098299,-0.3898372650146484,0.9208618998527528,0.0,0.0,0.0,0.0,-9.432497449779476e-09,0.0,-0.0040402421727776,0.0043184868991374,-0.6764060258865356,0.7365052103996277,0.0009905062364199,-9.055704820840823e-05,0.0006984146224344,0.0044716596603393,-0.0065861344337463,0.0056705474853515,2,0,0,0
3.0,1788526757252,0.0,0.0,-0.0055938889272511,0.0029920719098299,-0.3898372650146484,0.9208618998527528,0.0,0.0,0.0,0.0,-7.2136443485248955e-09,0.0,-0.0040411483496427,0.0042786737903952,-0.6764110922813416,0.7365007400512695,5.9473611152469545e-05,-0.0011449557363209,-0.0006451814573209,0.0004562735557556,-0.0248788595199584,-0.0214099884033203,5,0,0,0
3.1,1788526757352,0.0,0.0,-0.0055938889272511,0.0029920719098299,-0.3898372650146484,0.9208618998527528,0.0,0.0,0.0,0.0,-9.83919878905226e-09,0.0,-0.0040312791243195,0.0042880019173026,-0.6763981580734253,0.7365126609802246,-0.00045332992821,0.0015452748774089,0.0005909726411255,0.0150268077850341,-0.0016477704048156,-0.0085687637329101,1,0,0,0
3.2,1788526757452,0.0,0.0,-0.0055938889272511,0.0029920719098299,-0.3898372650146484,0.9208618998527528,0.0,0.0,0.0,0.0,-9.91318760412696e-09,0.0,-0.0039861351251602,0.0043214652687311,-0.6764227151870728,0.7364901900291443,0.0004113533171951,0.002470497043053,0.0002707142457981,-0.0110099911689758,-0.0164452791213989,0.021712303161621,3,0,0,0
3.3,1788526757552,0.0,0.0,-0.0055938889272511,0.0029920719098299,-0.3898372650146484,0.9208618998527528,0.0,0.0,0.0,0.0,-9.634927522483851e-09,0.0,-0.0040036812424659,0.0043633673340082,-0.6764369606971741,0.736476719379425,-0.0008217960256661,0.001427231965871,-0.0002784903940032,-0.019507348537445,0.0024495720863342,0.0038604736328125,0,0,0,0
3.4,1788526757652,0.0,0.0,-0.0055938889272511,0.0029920719098299,-0.3898372650146484,0.9208618998527528,0.0,0.0,0.0,0.0,-9.701945025142322e-09,0.0,-0.003995862789452,0.0043456191197037,-0.676421582698822,0.7364910244941711,6.04942989573654e-05,-0.0019508650700713,0.000952689871682,0.000260591506958,0.0022888779640197,-0.022958755493164,0,0,0,0
3.5,1788526757752,0.0,0.0,-0.0055938889272511,0.0029920719098299,-0.3898372650146484,0.9208618998527528,0.0,0.0,0.0,0.0,-7.161228054997082e-09,0.0,-0.0039842762053012,0.0043439995497465,-0.6764265894889832,0.736486554145813,6.274350767505689e-05,-0.0010614728658627,0.000948337803143,-0.0195883512496948,-0.0107372403144836,0.0145778656005859,0,0,0,0
3.6,1788526757852,0.0,0.0,-0.0055938889272511,0.0029920719098299,-0.3898372650146484,0.9208618998527528,0.0,0.0,0.0,0.0,-9.892706209768676e-09,0.0,-0.0040129171684384,0.0043635135516524,-0.6764260530471802,0.7364867925643921,-0.0002867887403734,0.0003616337307404,-0.0002767802835847,-0.0196629762649536,-0.0172196626663208,0.0109586715698242,3,0,0,0
3.7,1788526757952,0.0,0.0,-0.0055938889272511,0.0029920719098299,-0.3898372650146484,0.9208618998527528,0.0,0.0,0.0,0.0,-9.892706209768676e-09,0.0,-0.0039853565394878,0.0043673440814018,-0.6764125823974609,0.7364991903305054,0.0002554716006955,0.0003885287002864,0.001449706114105,-0.0011263489723205,-0.0084102749824523,-0.0140085220336914,0,0,0,0
3.8,1788526758052,0.0,0.0,-0.0055938889272511,0.0029920719098299,-0.3898372650146484,0.9208618998527528,0.0,0.0,0.0,0.0,-9.892706209768676e-09,0.0,-0.0039853565394878,0.0043673440814018,-0.6764125823974609,0.7364991903305054,0.0002554716006955,0.0003885287002864,0.001449706114105,-0.0011263489723205,-0.0084102749824523,-0.0140085220336914,0,0,0,0
3.9,1788526758152,0.0,0.0,-0.0055938889272511,0.0029920719098299,-0.3898372650146484,0.9208618998527528,0.0,0.0,0.0,0.0,-9.892706209768676e-09,0.0,-0.0039993971586227,0.0043719010427594,-0.6764045357704163,0.7365065217018127,0.0002174111171455,0.001175387797416,-1.5366531010708317e-05,-0.0194085240364074,-0.0191588997840881,0.0199718475341796,2,0,0,0
4.0,1788526758252,0.0,0.0,-0.0055938889272511,0.0029920719098299,-0.3898372650146484,0.9208618998527528,0.0,0.0,0.0,0.0,-9.89956205899034e-09,0.0,-0.003990058787167,0.0043636271730065,-0.6764048337936401,0.7365063428878784,0.0004176293383077,0.0001888524727372,-0.0006280136371687,0.0240636467933654,-0.0099948644638061,-0.0407676696777343,5,0,0,0
4.1,1788526758352,0.0,0.0,-0.0055938889272511,0.0029920719098299,-0.3898372650146484,0.9208618998527528,0.0,0.0,0.0,0.0,-9.68406510537534e-09,0.0,-0.0040024584159255,0.0043469676747918,-0.6764205098152161,0.7364919185638428,0.0004766378566183,-0.0018425246344658,-0.0006622222115815,-0.010821521282196,-0.0230288505554199,0.0182275772094726,4,0,0,0
4.2,1788526758452,0.0,0.0,-0.0055938889272511,0.0029920719098299,-0.3898372650146484,0.9208618998527528,0.0,0.0,0.0,0.0,-7.158632797654718e-09,0.0,-0.0039729140698909,0.0043719448149204,-0.676429033279419,0.7364840507507324,0.0005576390311985,0.000844598983559,0.0004143991897114,-0.0332774519920349,-0.003203809261322,-0.0051126480102539,1,0,0,0
4.3,1788526758552,0.0,0.0,-0.0055938889272511,0.0029920719098299,-0.3898372650146484,0.9208618998527528,0.0,0.0,0.0,0.0,-9.711435211556818e-09,0.0,-0.0039501097053289,0.0044105872511863,-0.6764164566993713,0.7364956140518188,-0.0001096082933799,0.0023432158632635,8.05003926313249e-05,-0.0252704620361328,-0.0318098068237304,0.0019254684448242,1,0,0,0
4.4,1788526758652,0.0,0.0,-0.0055938889272511,0.0029920719098299,-0.3898372650146484,0.9208618998527528,0.0,0.0,0.0,0.0,-9.923587285243231e-09,0.0,-0.0039691664278507,0.0044442331418395,-0.6764025092124939,0.7365081310272217,-0.0017081823951031,-0.0001647556901599,-0.000638321776693,0.0090793371200561,-0.0293037295341491,0.0039539337158203,1,0,0,0
4.5,1788526758752,0.0,0.0,-0.0055938889272511,0.0029920719098299,-0.3898372650146484,0.9208618998527528,0.0,0.0,0.0,0.0,-9.392103095251514e-09,0.0,-0.0039346758276224,0.004433593712747,-0.6764046549797058,0.7365063428878784,0.0004911349384546,0.0008374099362064,0.0003418295441547,0.0037805438041687,0.012906789779663,0.0401477813720703,1,0,0,0
4.6,1788526758852,0.0,0.0,-0.0055938889272511,0.0029920719098299,-0.3898372650146484,0.9208618998527528,0.0,0.0,0.0,0.0,-7.251667266672257e-09,0.0,-0.003877236507833,0.0044643264263868,-0.6764256954193115,0.7364872097969055,0.0012510518674014,0.0011091557114722,-8.900768536329564e-05,-0.0253158807754516,-0.0375240445137023,0.000101089477539,3,0,0,0
4.7,1788526758952,0.0,0.0,-0.0055938889272511,0.0029920719098299,-0.3898372650146484,0.9208618998527528,0.0,0.0,0.0,0.0,-9.511933463102196e-09,0.0,-0.0038880826905369,0.0044602341949939,-0.6764156222343445,0.7364964485168457,-0.0003642090923672,0.001222872453929,-0.00069940634676,0.0102729797363281,-0.0106319785118103,0.0220708847045898,3,0,0,0
4.8,1788526759052,0.0,0.0,-0.0055938889272511,0.0029920719098299,-0.3898372650146484,0.9208618998527528,0.0,0.0,0.0,0.0,-9.502006292905207e-09,0.0,-0.0038927374407649,0.0044865263625979,-0.6764033436775208,0.7365075349807739,-0.0006206831392376,-0.0001638540915919,6.849239708655176e-05,-0.0070185661315917,0.0081681013107299,-0.0371580123901367,12,0,1532,314
4.9,1788526759152,2.4788732528686523,0.0,-0.0055938889272511,0.0029920719098299,-0.3898372650146484,0.9208618998527528,0.0,0.0,0.0,0.0,-9.709514081635008e-09,0.0,-0.0039703343063592,0.0043752333149313,-0.6787896752357483,0.7343090176582336,0.0001922986892671,-0.0049730594453935,-0.1777038014094104,1.3996206521987915,-0.4903298616409302,-0.0315227508544921,230,214,11670,5485
5.0,1788526759252,5.154929637908936,1.436619758605957,-0.005002696532756,0.0028806580230593,-0.4019546508789062,0.9156414270401,0.046823051554278,-0.0045459226772084,-1.2137973504038411e-05,0.0056841825135052,0.0074535300955176,-0.3631951212882995,-0.0032328721135854,0.004538856446743,-0.6948723793029785,0.7191116213798523,0.0133722470408959,0.0294722363958296,-0.4767774494972882,0.5733372569084167,0.0775249600410461,-0.1815681457519531,194,124,17741,6506
5.1,1788526759352,7.577464580535889,1.6056338548660278,-0.0040735034272074,0.0039120051078498,-0.4426588416099548,0.8966723680496216,0.1335184352086803,-0.0036478206702242,-6.30650060681506e-05,0.007871001958847,0.0256432574242353,-0.7941529750823975,-0.0025566313415765,0.0049039833247661,-0.7297532558441162,0.6836882829666138,0.0058450824792816,-0.0076739528057562,-0.926425686846911,0.4369670748710632,-0.4184349775314331,-1.0786209106445312,227,310,23445,9369
5.2,1788526759452,6.084506988525391,0.9577465057373048,-0.0038687116466462,0.0040380680002272,-0.4631738364696502,0.8862497806549072,0.1531166960822035,-0.0110527533655432,-1.2122074270917064e-05,0.0067455293610692,0.0133598297834396,-0.9370367527008056,-0.0024421494454145,0.0049226665869355,-0.7552585005760193,0.6554039716720581,-0.0010004918287612,-0.0157397725450472,-0.9325067996401016,-1.759592890739441,0.1483489274978637,-0.2272710800170898,75,280,9708,8690
5.3,1788526759552,3.4647886753082275,0.7323943376541138,-0.0040660728700459,0.0035550198517739,-0.4983654618263244,0.866950273513794,0.1101380883389673,-0.0032075538471481,3.31481328673169e-05,0.0024021274875849,-0.0206361915916204,-0.7214949131011963,-0.0024003889411687,0.0048198876902461,-0.76634681224823,0.6424044966697693,0.0055343907291507,0.0273892081112509,-0.4878147513486878,-0.511498212814331,-0.0413256883621215,-0.3038311004638672,11,295,7677,7659
5.4,1788526759652,0.0,0.2535211145877838,-0.0038597180973738,0.0038966257125139,-0.5192525386810303,0.8546031713485718,0.0192599800640615,0.0009765000395192,1.818737748284046e-06,-0.0022698361426591,-0.0026029276195913,-0.1040716543793678,-0.0022669080644845,0.0049911476671695,-0.7763829827308655,0.6302375793457031,0.0030313715520766,0.0013182921011242,-0.0440422141310739,-1.191820502281189,0.2304806113243103,0.0550813674926757,5,188,0,0
5.5,1788526759752,0.0,0.0,-0.0038735307753086,0.0038428893312811,-0.5183306336402893,0.8551628589630127,-0.0046641901156005,0.00294714806459,-4.427884143658101e-07,0.0005980111309327,-0.0023989651817828,0.0439652241766452,-0.0024029240012168,0.0048192059621214,-0.7744702100753784,0.6325873732566833,0.0020475913738764,-0.0058145244819044,0.0344355370715241,0.1465923190116882,0.0739245414733886,-0.0458459854125976,0,0,0,0
5.6,1788526759852,0.0,0.0,-0.0038889017887413,0.00374750001356,-0.5170950293540955,0.8559108972549438,0.0002246138749847,-0.0009055395573416,7.440907548526104e-07,0.0002052748750429,-0.0001101830494008,0.0169399697333574,-0.0023798188194632,0.0048699062317609,-0.7745561599731445,0.6324819326400757,0.000393777318942,0.0019209120228327,-0.0098666762616966,0.0140526890754699,-0.0412418842315673,0.0531349182128906,0,0,0,0
5.7,1788526759952,0.0,0.0,-0.0038889017887413,0.00374750001356,-0.5170950293540955,0.8559108972549438,0.0014633286090422,-0.0010092088119659,-9.484015505798644e-07,0.0,0.0,0.0,-0.0023666014894843,0.0048895850777626,-0.7746115326881409,0.6324140429496765,-0.0008866014454296,0.0008503379524725,0.0016161083080575,0.0200681686401367,0.014801025390625,0.0212354660034179,0,0,0,0
5.8,1788526760052,0.0,0.0,-0.0038889017887413,0.00374750001356,-0.5170950293540955,0.8559108972549438,0.0001588295994136,-0.0001551659256619,-3.2098598747331986e-07,0.0,0.0,0.0,-0.0023789042606949,0.0048552611842751,-0.7746295928955078,0.6323920488357544,-0.0004107512613778,-0.0004032689591408,0.0029441794407489,0.0265945792198181,-0.0017824172973632,0.0283432006835937,4,0,0,0
5.9,1788526760152,0.0,0.0,-0.0038889017887413,0.00374750001356,-0.5170950293540955,0.8559108972549438,0.0,0.0,0.0,0.0,0.0,0.0,-0.0023933006450533,0.0048456722870469,-0.7746699452400208,0.6323427557945251,0.0008353863449655,-0.0005727704313084,-0.0008167423068803,0.0046553015708923,-1.9073486328125e-06,0.035409927368164,5,0,0,0
6.0,1788526760252,0.0,0.0,-0.0038889017887413,0.00374750001356,-0.5170950293540955,0.8559108972549438,0.0,0.0,0.0,0.0,0.0,0.0,-0.0023993086069822,0.0048202937468886,-0.7746477127075195,0.6323699951171875,0.0002879515924283,0.0004655474861945,-0.0022247965349274,-0.0065033435821533,-0.0076247453689575,0.0514554977416992,4,0,0,0
6.1,1788526760352,0.0,0.0,-0.0038889017887413,0.00374750001356,-0.5170950293540955,0.8559108972549438,0.0,0.0,0.0,0.0,0.0,0.0,-0.0024191234260797,0.0048170713707804,-0.7746341824531555,0.6323865056037903,0.0002929006360893,-0.0029503849876671,0.0016784832380542,0.0505481362342834,-0.019952118396759,0.0463228225708007,2,0,0,0
6.2,1788526760452,1.4929577112197876,0.0,-0.0038889017887413,0.00374750001356,-0.5170950293540955,0.8559108972549438,0.0,0.0,0.0,0.0,0.0,0.0,-0.0024536317214369,0.0046245390549302,-0.775219202041626,0.6316705942153931,0.0060962909021249,-0.0079473948779785,-0.0478610892390137,2.0366971492767334,-0.3231551647186279,-0.0985078811645507,215,91,10987,2366
6.3,1788526760552,5.098591327667236,0.591549277305603,-0.0041612638160586,0.0035675661638379,-0.5378304719924927,0.8430352210998535,0.0739689212485361,-0.0029938191393181,6.245858147630058e-06,-0.0132878916338086,-0.0123107656836509,-0.5371423363685608,-0.0024796333163976,0.004770559258759,-0.7943353652954102,0.6074557304382324,0.0016455993510387,0.0019301683094641,-0.6174833349887562,0.2576077580451965,-0.4878173470497131,-0.2431259155273437,166,328,15819,9482
6.4,1788526760652,2.450704336166382,0.8169013857841492,-0.0033366698771715,0.0045049553737044,-0.5632996559143066,0.8262337446212769,0.0913381559353549,0.0010801841290426,-5.760454318105646e-05,0.0131766833364963,0.0503144450485706,-0.6523435711860657,-0.0012190844863653,0.0061798859387636,-0.8143249154090881,0.5803752541542053,-0.0300456914734641,0.0394408974911298,-0.5812420948721784,-1.0732831954956057,0.5101742744445801,-0.1883249282836914,144,374,2813,8455
6.5,1788526760752,1.154929518699646,0.2816901504993438,-0.0032376092858612,0.0054554399102926,-0.5727219581604004,0.8197251558303833,0.0571667003673606,0.0029529266137322,-2.989024474553301e-05,-0.0182771123945713,0.038083791732788,-0.4834003448486328,-0.0009129112586379,0.0065362928435206,-0.8172694444656372,0.5762180089950562,-0.0040806650574559,0.019424251281283,-0.2039601675871948,-0.9290663003921508,0.3556588292121887,-0.0807828903198242,33,287,0,6841
6.6,1788526760852,0.0,0.0,-0.003263107035309,0.0056546432897448,-0.5758529305458069,0.8175272345542908,-0.0002045408598416,0.0032617507433226,-1.2208370197535514e-06,-0.000270354328677,-0.004526553209871,0.0146568287163972,-0.001158632338047,0.0063526527956128,-0.816389799118042,0.5774652361869812,0.002878799024252,0.0024693846907691,0.0294159261267301,-0.0208461284637451,0.107353389263153,-0.053802490234375,1,60,0,0
6.7,1788526760952,0.0,0.0,-0.0032450901344418,0.0056407116353511,-0.5753997564315796,0.8178464770317078,-0.0010537530561556,0.0010162980175148,2.68025959665126e-10,0.0,-4.846950840686759e-09,0.0,-0.0012277504429221,0.006328335031867,-0.8164392709732056,0.5773952603340149,0.0013679609654696,0.001558790166514,-0.0013294564972829,-0.0389344096183776,0.0029458403587341,0.0351648330688476,1,0,0,0
6.8,1788526761052,0.0,0.0,-0.0032450901344418,0.0056407116353511,-0.5753997564315796,0.8178464770317078,0.0016916167892559,-0.0003927471665414,-3.871835269306738e-07,0.0,-4.925205132622068e-09,0.0,-0.0011823875829577,0.0063698645681142,-0.8167718648910522,0.5769243240356445,0.0005255641896396,0.0020756328021106,-0.002010194623515,-0.0234792232513427,0.0282208323478698,0.0426206588745117,0,0,0,0
6.9,1788526761152,0.0,0.0,-0.0032450901344418,0.0056407116353511,-0.5753997564315796,0.8178464770317078,0.0004139631887121,9.369238518630556e-06,-9.328743919082192e-08,0.0,-4.838526024286693e-09,0.0,-0.0011649811640381,0.0063556768000125,-0.8168237805366516,0.5768511891365051,0.0010274168374254,-0.0014425382527117,-0.0033074396739045,-0.0449879169464111,0.007969856262207,0.0531225204467773,5,0,0,0
7.0,1788526761252,0.0,0.0,-0.0032450901344418,0.0056407116353511,-0.5753997564315796,0.8178464770317078,0.0002172974796886,-0.000207705017901,1.4334739231564465e-08,0.0,-4.9675934477022565e-09,0.0,-0.0011397274211049,0.0063497889786958,-0.8168405294418335,0.5768274068832397,0.0009345196535144,0.0017497123953999,-0.0022261770011409,-0.0464921593666076,-0.0104196071624755,0.0601673126220703,0,0,0,0
7.1,1788526761352,0.0,0.0,-0.0032450901344418,0.0056407116353511,-0.5753997564315796,0.8178464770317078,0.0,0.0,0.0,0.0,-4.866934855130012e-09,0.0,-0.0011938475072383,0.0063099069520831,-0.8168076872825623,0.5768743753433228,-0.0003920063750635,-0.0015495782798227,0.0007185531617192,0.0242311358451843,0.0113290548324584,0.0284080505371093,2,0,0,0
7.2,1788526761452,0.0,0.0,-0.0032450901344418,0.0056407116353511,-0.5753997564315796,0.8178464770317078,0.0,0.0,0.0,0.0,-4.7575965389512476e-09,0.0,-0.0011438094079494,0.0062999399378895,-0.8168055415153503,0.5768775343894958,0.0006269677075966,-0.0005627875352215,0.0005789143112615,0.0088193416595458,0.0124764442443847,0.0175466537475585,6,0,0,0
7.3,1788526761552,0.0,0.0,-0.0032450901344418,0.0056407116353511,-0.5753997564315796,0.8178464770317078,0.0,0.0,0.0,0.0,-4.989240132147188e-09,0.0,-0.0011138394474983,0.0063103828579187,-0.8168238997459412,0.576851487159729,0.0010059613002829,-0.0014643536315232,5.764080477164692e-05,-0.0090804696083068,0.0114758610725402,0.0115995407104492,6,0,591,125
7.4,1788526761652,2.2253520488739014,0.0,-0.0032450901344418,0.0056407116353511,-0.5753997564315796,0.8178464770317078,0.0,0.0,0.0,0.0,-3.639770040919643e-09,0.0,-0.001091543585062,0.0062610451132059,-0.8176326751708984,0.5757050514221191,0.003559476276812,0.0018118352910517,-0.0697823630287283,1.7753041982650757,-0.4243096113204956,-0.0972089767456054,223,63,7355,1572
7.5,1788526761752,5.042253494262695,1.2394366264343262,-0.0026284512132406,0.0059355720877647,-0.5829154253005981,0.8125068545341492,0.0430107516687582,0.0001162685186502,-3.4232307953185176e-05,0.0106887072324752,0.0271123126149177,-0.3354327380657196,-0.0006177863106131,0.0062501588836312,-0.8297654390335083,0.5580769777297974,0.0042366635684193,-0.0075536497430127,-0.5662041829324411,0.7292556762695312,-0.2599560022354126,-0.3178119659423828,201,474,17345,9586
7.6,1788526761852,7.408450603485107,1.5774648189544678,-0.0017781497444957,0.0057232403196394,-0.604956865310669,0.7962356209754944,0.1032915632520881,0.0019305915110762,-3.5395369866822895e-05,0.029857013374567,0.023434380069375,-0.606751561164856,-0.0001024175435304,0.0051399543881416,-0.848529577255249,0.529123067855835,0.0215010287999499,-0.0420574947488482,-0.8434155340977663,0.8360511660575867,-0.3094361424446106,-0.983966827392578,199,437,23314,11871
7.7,1788526761952,8.112675666809082,1.8591549396514893,-0.0018018322298303,0.0049615418538451,-0.6191236972808838,0.7852757573127747,0.1284707535319347,-0.0012501753571515,2.1720006391241074e-05,0.0210118107497692,-0.0222374815493822,-0.7474454641342163,0.0002846773713827,0.0049322647973895,-0.8766191601753235,0.4811594188213348,0.002458834578812,-0.0025787505638575,-1.1100504563883322,0.2470676898956298,-0.1518717408180236,-1.040236473083496,197,381,25305,12238
7.8,1788526762052,8.422534942626953,1.6056338548660278,-0.0017374834278598,0.0051786904223263,-0.6811428666114807,0.7321301698684692,0.1830879429909134,-0.0141059028816831,-0.0001613927388579,-0.0129256891086697,0.0171994064003229,-1.1005268096923828,0.0004882682114839,0.0056703807786107,-0.9012174606323242,0.4333298802375793,0.0207163811499807,0.0597316757585041,-1.0703677820728,-0.4550079703330993,-0.0861998200416565,1.0432329177856443,73,535,21971,14148
7.9,1788526762152,7.943662166595459,1.94366192817688,-0.0019865711219608,0.0051472294144332,-0.7166947722434998,0.6973651051521301,0.1773139441595013,-0.0097799506250041,-2.19996279127884e-06,-0.002313423436135,-0.0065025370568037,-1.0031977891921997,0.0001691104844212,0.0054977051913738,-0.9190035462379456,0.394210934638977,0.0091591705796445,0.0450384810327077,-0.89675203456852,-0.1283528208732605,0.0953376293182373,-0.5108070373535156,52,642,21073,16519
8.0,1788526762252,8.14084529876709,1.94366192817688,-0.0017051937757059,0.0050499476492404,-0.7607681155204773,0.649001955986023,0.1695435746143091,-0.0087994041142762,4.514037613359123e-05,0.0085658095777034,0.0056101037189364,-0.914688527584076,0.0006397124379873,0.0055401399731636,-0.9375220537185668,0.3478811979293823,0.0057024895428372,0.0332095523820294,-1.0048813802452847,-0.0592120885848999,-0.1550649404525756,0.3158588409423828,53,639,21173,17143
8.1,1788526762352,7.605633735656738,2.422535181045532,-0.000358770834282,0.0072827097028493,-0.7900511026382446,0.6129976511001587,0.1716347986008551,-0.0082755202614581,-0.000154204530739,-0.0232403688132762,0.0679421350359916,-0.9400826692581176,0.003244967199862,0.0073943920433521,-0.9529770612716676,0.3029350638389587,-0.0049297782209309,0.1160151658896277,-0.8713680340596701,0.1888289451599121,-0.3406135439872741,-0.1346302032470703,67,648,20247,19332
8.2,1788526762452,7.154929637908936,2.563380241394043,-0.0009414791129529,0.0063169347122311,-0.8162521123886108,0.5776605010032654,0.1775939293029207,-0.0051601188803168,-0.000175663809234,0.023208936676383,-0.0869515910744667,-0.7583388090133667,-0.0005195336416363,0.0056305862963199,-0.9637972116470336,0.2665765285491943,0.0536400878047541,-0.4078605606071052,-0.7068909863685029,-0.0307262539863586,-0.4841691255569458,-5.597372055053711,90,810,19683,21233
8.3,1788526762552,7.014084339141846,3.380281686782837,-0.0020011821761727,0.005073394626379,-0.8248615264892578,0.5653086304664612,0.1618544595764975,-0.0040124008204672,0.000425607753988,0.0183887761086225,-0.0617785900831222,-0.6215598583221436,0.0002636890858411,0.0056633604690432,-0.9710747003555298,0.2387086749076843,-0.0019572365727919,0.0235993028177282,-0.6812095209475849,-0.1329867243766784,0.2501237988471985,-0.576141357421875,49,655,18605,20949
8.4,1788526762652,0.9577465057373048,-1.0985915660858154,-0.0017157406546175,0.0054622688330709,-0.8419414758682251,0.5395385026931763,0.1778383054187325,0.0003589855889394,6.203193050886668e-06,-0.0011702497722581,0.0078607285395264,-0.6270375847816467,-0.0004963679239153,0.0046038199216127,-0.9767877459526062,0.2141594141721725,0.0436637339310075,-0.0452931905243488,-0.3631923874396887,-1.5668435096740725,-0.0479212999343872,0.3993740081787109,45,668,0,-19074
8.5,1788526762752,-5.690140724182129,3.436619758605957,-0.0022593834437429,0.0040651611052453,-0.8508047461509705,0.5254614353179932,-0.0252274929946227,-0.0011126186038278,-8.512204664200937e-06,0.003859813325107,-0.0148211661726236,-0.2514762580394745,0.0001146253198385,0.0058835707604885,-0.9768335819244384,0.2139193564653396,-0.0624802563205803,0.0816791873068012,0.3691954736965224,-1.6887773275375366,0.9746516346931458,-0.3880167007446289,408,818,-22591,26091
8.6,1788526762852,-6.8450703620910645,4.676056385040283,-0.0016038322355598,0.0080932220444083,-0.8308678269386292,0.5564087629318237,-0.0652090025877116,0.0150474150243736,5.906737312186283e-05,-0.0814381837844848,0.0624228566884994,1.2805092334747314,0.0008323201909661,0.0088798217475414,-0.9574947953224182,0.2883126735687256,-0.0368402203557234,-0.0593570367500342,1.7341650176057015,-0.2041212320327758,0.1531597375869751,-0.3667631149291992,98,635,-19453,24970
8.7,1788526762952,-6.760563373565674,4.873239517211914,-0.0029885664116591,0.0082989744842052,-0.7727822065353394,0.6346100568771362,-0.0378727906280435,0.0026836597069056,-3.675468237333779e-05,-0.0182354524731636,-0.0434392727911472,1.773871660232544,4.691071808338165e-05,0.0090275518596172,-0.9177964329719543,0.3969485163688659,-0.0127794936760479,0.0303830616751642,1.776702555549002,-0.3604655265808105,0.0240278840065002,1.1419792175292969,80,542,-19049,23376
8.8,1788526763052,-6.873239517211914,5.042253494262695,-0.0031141072977334,0.0084508005529642,-0.7159759402275085,0.6980668902397156,-0.0337657330163976,0.0005507214862478,2.389777651367872e-06,-0.0135111659765243,-0.0046751508489251,1.772292137145996,0.0011075232177972,0.0096167800948023,-0.8781265020370483,0.47833052277565,-0.0110430004515678,0.065443422633074,1.894268666807324,0.2069268822669983,0.1230027675628662,-0.8745813369750977,66,466,-18513,21583
8.9,1788526763152,-6.535211086273193,5.830986022949219,-0.0010792068205773,0.0110037885606288,-0.6514836549758911,0.7585821747779846,-0.0349929098680632,-0.0014905003138519,6.68614086518718e-05,-0.0236895512789487,0.1205013468861579,1.787873387336731,0.0007799258455634,0.0118320155888795,-0.838070273399353,0.5454334020614624,-0.0707507062274952,-0.0202116909516551,1.815722689147369,0.2108978033065796,-0.1624766588211059,3.222796440124512,10,786,-16378,27908
9.0,1788526763252,-6.394366264343262,6.478873252868652,-0.0047324430197477,0.0101542249321937,-0.572130024433136,0.8200864195823669,-0.0172210397660668,0.0041798270772719,-3.366843407118436e-05,-0.041528932750225,-0.071913294494152,1.8704789876937864,-0.003067385405302,0.0091035943478345,-0.7803171873092651,0.6253101229667664,0.0118875023141335,-0.1565117024430982,2.165311840922892,-0.0133963227272033,-0.2163485288619995,-0.6177606582641602,57,265,-16576,21656
9.1,1788526763352,-6.084506988525391,6.619718074798584,-0.0056656999513506,0.0046329083852469,-0.4905828833580017,0.8713638186454773,0.0118764212759026,-0.0019733835908398,2.703914574147007e-05,0.0705376714468002,-0.135799303650856,1.9894784688949585,-0.0024566706269979,0.005783837288618,-0.7226213216781616,0.6912155151367188,0.0389205707614984,0.0721812102407084,1.797446599953712,-0.1417620778083801,-0.1842646598815918,1.1145305633544922,86,133,-17679,18974
9.2,1788526763452,-6.3380279541015625,6.169013977050781,-0.0044654216617345,0.0048288232646882,-0.3659719228744507,0.9306026101112366,0.0032305841656152,0.0030361716804219,-1.7026256786158557e-07,-0.0116955777630209,-0.0055487998761236,1.96274209022522,-0.0025950921699404,0.0060820607468485,-0.6528258323669434,0.7574792504310608,-0.0166738304627385,-0.0011908060631003,1.945275854294105,-0.0706729292869567,-0.1363834142684936,-0.4132528305053711,62,124,-17066,18380
9.3,1788526763552,-6.14084529876709,6.11267614364624,-0.0047718845307827,0.0046759126707911,-0.3229899406433105,0.946378767490387,0.0014757748346319,0.0014678896265326,-1.7437471224891893e-07,-0.0152203338220715,-0.021711217239499,1.9016352891922,-0.0032271360978484,0.0055208327248692,-0.5855951309204102,0.810578465461731,-0.0035441559451787,-0.0297718156979725,1.8286449972846044,-0.417077362537384,-0.3318756818771362,-0.8208427429199219,70,113,-17835,18264
9.4,1788526763652,-6.394366264343262,5.88732385635376,-0.0045093414373695,0.0025571435689926,-0.2369026243686676,0.9715195298194884,-0.0107764727215999,0.0029892891699156,-3.0810594059557126e-05,0.0223884992301464,-0.0571779012680053,1.845327377319336,-0.0037247398868203,0.00499561522156,-0.4860689342021942,0.8738982677459717,-0.02453087617091,0.0058127025968044,1.6920148893715397,-0.1709069013595581,-0.0987198948860168,0.162968635559082,54,300,-16848,20959
9.5,1788526763752,-6.2816901206970215,6.309859275817871,-0.0050635538063943,0.0035450872965157,-0.180318221449852,0.9835888743400574,-0.0134224012017557,0.0056468916013909,1.5292969848525147e-06,-0.0269807707518339,0.0169654246419668,1.8086905479431152,-0.0043394630774855,0.007270080037415,-0.4018223583698272,0.9156784415245056,-0.0579856695160875,0.0505591252843359,1.8800044275116676,-0.2008773684501648,0.0462590456008911,0.2915477752685547,53,217,-17239,19973
9.6,1788526763852,-6.3380279541015625,6.0,-0.0046486128121614,0.0032407818362116,-0.0007400750182569,0.9999836683273317,-0.0026312781976279,-0.0030880402635218,-1.436853602335833e-05,0.0241324789822101,-0.0498050153255462,1.911323428153992,-0.0032433597370982,0.0046643493697047,-0.3319795131683349,0.9432695508003236,0.0146570741684166,-0.0464505934867148,1.8453058995953424,0.0446786880493164,0.1143867969512939,0.5734167098999023,76,302,-17288,21038
9.7,1788526763952,-6.084506988525391,6.197183132171631,-0.0057459296658635,0.0030761780217289,0.0442473031580448,0.9989993572235109,-0.0043967061621411,0.0011518778705614,-6.5662956606024285e-06,-0.0520297288894653,-0.0154874837026,1.8759859800338743,-0.0047667752951383,0.0054991263896226,-0.2522030472755432,0.9676469564437866,-0.0186589588260973,0.0269360259499722,1.8506363573230349,0.1252509355545044,-0.2257448434829712,1.7301359176635742,96,320,-17718,21691
9.8,1788526764052,-6.197183132171631,6.394366264343262,-0.0079676248133182,0.0038854284211993,0.192286729812622,0.9812986850738524,0.0002275573759423,0.003569833377704,-2.334537353430222e-06,-0.0306266285479068,-0.0236497428268194,1.9165370464324951,-0.0057278089225292,0.0065588522702455,-0.1890201270580291,0.9819346070289612,-0.0316242698616395,0.015188057532461,1.843423897781772,-0.3659662008285522,-0.237264335155487,-0.0850067138671875,69,261,-17474,20764
9.9,1788526764152,-6.197183132171631,6.0,-0.0082182213664054,0.0043365526944398,0.2369159311056137,0.9714857935905457,0.000208116502478,0.0030612692534851,-3.8351448649998194e-07,-0.0170992761850357,0.0072189974598586,1.901782512664795,-0.006204143166542,0.0066702431067824,-0.0390930399298667,0.999194085597992,-0.0048769150987761,-0.0122045864876212,1.8612336493683763,0.015273630619049,0.1836421489715576,-0.2754774093627929,59,401,-17738,23052
10.0,1788526764252,-1.2676056623458862,0.3380281627178192,-0.0080466140061616,0.0041982037946581,0.322039395570755,0.9466828107833862,-0.0092078530416405,0.0036278457233453,-3.586396284234907e-07,-0.0078362114727497,-0.0113353608176112,1.865669846534729,-0.004994535818696,-0.0004188427701592,0.0168421436101198,0.999845564365387,-0.0155761418416038,-0.1552829617032863,0.5871292950059344,-0.2401768565177917,-1.2530629634857178,-1.047079086303711,54,189,0,5758
10.1,1788526764352,-2.901408433914185,2.929577350616455,-0.0058514019474387,0.0011159559944644,0.3522342145442962,0.935892939567566,0.0169790955823752,-0.0087894674754412,-2.630788619882244e-05,-0.0023095731157809,0.0951065048575401,0.2313289046287536,-0.0051122801378369,0.0026623420417308,0.0186517443507909,0.9998094439506532,0.0059208244442824,-0.0197401649528952,0.0522077391289791,-0.5063979625701904,1.0155822038650513,-0.1347370147705078,318,553,-13461,17160
10.2,1788526764452,-3.239436626434326,3.0985915660858154,-0.0056171850301325,0.0006704372353851,0.4083013534545898,0.912829577922821,-0.0135439093324625,0.0041840261411802,-8.499857035114473e-06,-0.00315981823951,-0.0171378552913665,1.0553756952285769,-0.0051041571423411,0.002499240450561,0.0816306993365287,0.9966464638710022,-0.0107064321403553,-0.0097748554704802,1.028717132273601,0.2430053353309631,-0.3322301506996155,-0.0212907791137695,32,496,-10516,17477
10.3,1788526764552,-1.6338027715682983,1.436619758605957,-0.0057511343620717,0.0004876563325524,0.4320164024829864,0.901847243309021,-0.0016041096008058,0.0016055052234106,2.2452622380025878e-07,-0.0111254286020994,-0.0096465721726417,1.0591070652008057,-0.0051041571423411,0.002499240450561,0.0816306993365287,0.9966464638710022,-0.0107064321403553,-0.0097748554704802,1.028717132273601,0.2430053353309631,-0.3322301506996155,-0.0212907791137695,9,166,-5468,10519
10.4,1788526764652,0.6760563254356384,0.0,-0.0061876694671809,0.0003201165236532,0.4583441317081451,0.8887532353401184,0.0118284945357622,-0.0090346858486135,1.1365915954177257e-06,-0.0051923939026892,0.002437277464196,0.3236684203147888,-0.0057392045855522,0.0024142656475305,0.1340414881706237,0.99095618724823,0.0006442777585903,0.0046758838748708,0.0048721011045194,-0.2852177023887634,-0.1429155468940735,-0.0607728958129882,185,0,5314,0
10.5,1788526764752,1.042253494262695,0.5352112650871277,-0.0061567053198814,0.0002810226287692,0.4572277367115021,0.8893282413482666,0.0130416179298816,-0.0032695683224237,1.2616556746909649e-06,0.0013083330122753,-0.0007146768621169,-0.0713065266609191,-0.0056826528161764,0.0024129375815391,0.1286787986755371,0.991667091846466,0.0010592680075471,0.0025012071357249,-0.0087790085217252,0.0646271705627441,0.070456326007843,-0.1164636611938476,44,255,4306,6900
10.6,1788526764852,-0.2535211145877838,1.97183096408844,-0.006259489338845,0.0005443815607577,0.4579382836818695,0.8889617919921875,0.0303689173492281,0.0037613726718992,-9.937604987980772e-07,-0.0005602694582194,0.0057603078894317,0.1582852602005005,-0.0056857615709304,0.0025235312059521,0.129133328795433,0.9916077852249146,0.0006484467905801,0.0071482155797158,0.0304840484787787,-0.2845070362091064,0.1155991554260253,0.0685844421386718,102,287,-7472,11590
10.7,1788526764952,-3.3521127700805664,3.633802890777588,-0.0057262070477008,0.0002522899303585,0.4877472221851349,0.8729661703109741,-0.002395075973041,0.0044923039226597,-1.6626105775261024e-06,0.0050566135905683,-0.0237887240946292,0.9097760915756226,-0.0052348291501402,0.0022090505808591,0.1769355833530426,0.9842060208320618,0.0043145443016923,-0.0042403402924665,1.0865307548464225,-0.2104891538619995,0.0610455274581909,0.1602096557617187,109,134,-11347,11518
10.8,1788526765052,-3.126760482788086,3.0985915660858154,-0.0052607231773436,-1.2703239917755129e-05,0.5330630540847778,0.8460592031478882,-0.0029334735322245,0.0020576166315715,-1.7219769571455052e-06,0.0039883577264845,-0.0168223828077316,1.0865224599838257,-0.0049468735232949,0.0016845371574163,0.2202825993299484,0.9754220843315125,0.0116857920900791,-0.0064045441587183,1.0846238761240248,0.2259573936462402,-0.269008994102478,-0.7520008087158203,57,46,-8486,9026
10.9,1788526765152,-3.014084577560425,3.7183098793029785,-0.0050123441033065,0.0002170144580304,0.5524283051490784,0.8335452675819397,0.0027111931566788,0.00139644833385,3.3656298407106216e-07,0.0111018810421228,-0.001666507916525,0.958634078502655,-0.0044263741001486,0.0015008235350251,0.2647863626480102,0.9642958045005798,0.0025696570450983,-0.0147966224365178,1.025071992888407,-0.0990839004516601,0.3681647777557373,-0.5267105102539062,64,137,-9175,11798
11.0,1788526765252,-2.816901445388794,3.6056337356567374,-0.004615344107151,-6.897095590829849e-05,0.589277982711792,0.8079171776771545,0.0115556545594308,0.0037385574881835,2.826522019395471e-06,0.0006953295669518,-0.0072823818773031,0.9644725322723388,-0.0043315812945365,0.0017116079106926,0.3132157921791076,0.9496705532073976,0.0023281090729354,0.0127580304973781,1.047153835440307,-0.1749502420425415,0.3666824698448181,0.1392040252685547,65,139,-9170,11750
11.1,1788526765352,-2.5352113246917725,3.239436626434326,-0.0046870200894773,-0.000181371346116,0.6514003276824951,0.7587196826934814,0.0065666278029154,-0.0026825462399791,1.922577653065576e-06,-0.0033944582100957,-0.014178030192852,0.9408188462257384,-0.0044884728267788,0.0014072181656956,0.3671078383922577,0.9301665425300598,-0.0032915908694798,0.0026094769265532,0.8845884682128234,0.1413490176200866,-0.036824345588684,0.0214729309082031,101,162,-9338,10614
11.2,1788526765452,-3.126760482788086,3.126760482788086,-0.0045170998200774,-0.0003364959266036,0.6670924425125122,0.744961142539978,0.0125931063535707,-0.0010454175070815,2.3358504450941863e-06,-0.0014087950112298,-0.0127010382711887,0.8706174492835999,-0.0050830701366066,0.0013400977477431,0.4021374583244324,0.9155642986297609,-0.0358654675348516,0.0220622068892947,0.9482553712601336,-0.6671606302261353,0.1691552400588989,-0.4093465805053711,128,248,-11193,12106
11.3,1788526765552,-3.2676055431365967,3.211267709732056,-0.0055469875223934,-0.0005956613458693,0.7156887054443359,0.698397159576416,-0.0048372299787275,0.0029795688405997,6.226398032196513e-07,-0.0156279485672712,0.0055373730137944,0.9889723658561708,-0.0054931147024035,0.0012989044189453,0.4427709579467773,0.8966169953346252,-0.0220410486424086,0.0023351849790582,1.0774892538700351,-0.0306922197341918,-0.1294335722923278,0.5568723678588867,62,202,-10725,12024
11.4,1788526765652,-2.873239517211914,2.901408433914185,-0.0057175168767571,-0.0008030089084059,0.7320709824562073,0.6812038421630859,-0.0026669633371816,-0.0001343849306766,1.0807093225881054e-06,-0.0147704379633069,-0.0051818341016769,0.9932665824890136,-0.0073927491903305,0.0007542539387941,0.494161993265152,0.8693380951881409,-0.0462406515050257,-0.0172058538000341,1.0637893540885195,-0.0052554011344909,-0.3592160940170288,0.4369888305664062,74,219,-9425,11345
11.5,1788526765752,-3.070422649383545,2.985915422439575,-0.0064115598797798,-0.0021307368297129,0.7817420959472656,0.6235652565956116,-0.0008767154634502,0.0034698199614518,-6.447764422861321e-07,0.0073286122642457,-0.0442034117877483,0.9130539894104004,-0.0063887238502502,-0.0003416864201426,0.5335589647293091,0.8457386493682861,0.0057200246851299,-0.0721575657299674,0.9102306638237744,-0.1626062393188476,-0.091015875339508,0.3265151977539062,38,204,-9344,11001
11.6,1788526765852,-2.8450703620910645,3.6056337356567374,-0.0052320398390293,-0.0029400165658444,0.7944499850273132,0.6072999835014343,-0.003915102977575,0.0048054914391837,-6.584767514530299e-06,0.001107751741074,-0.0666278526186943,0.8909774422645569,-0.0054958146065473,-0.0001954976469278,0.5707882642745972,0.8210789561271667,0.0265466353257116,0.0281761412794384,0.8828893350390773,-0.33492112159729,0.1655865311622619,0.7439565658569336,116,239,-10202,13998
11.7,1788526765952,-3.211267709732056,3.211267709732056,-0.0053030457347631,-0.001488080015406,0.8200289011001587,0.5722955465316772,0.018484850759142,-0.0019502673060043,-8.23485415363562e-06,0.0253272149711847,0.0308468993753194,0.9076789617538452,-0.0052330018952488,0.0009511644020676,0.6174685955047607,0.786577582359314,0.0233126064736056,0.0091629319397403,1.0632940538245812,0.121554434299469,-0.3034234642982483,-0.2283811569213867,73,252,-10731,13472
11.8,1788526766052,-3.521126747131348,3.014084577560425,-0.0046419482678174,-0.0010285845492035,0.862572968006134,0.5059102773666382,-0.0046115161912418,0.0022139224399888,-4.15026651578802e-06,-0.0053890482522547,-0.028195833787322,0.983595371246338,-0.0055548278614878,0.0007079904899001,0.6591339111328125,0.7520047426223755,-0.0316621101259655,0.0437978725497323,0.9541168457381832,0.1061236262321472,0.0214326977729797,0.0558338165283203,63,362,-9417,14564
11.9,1788526766152,-3.070422649383545,3.577464818954468,-0.0059673814103007,-0.0015713493339717,0.8852157592773438,0.4651397466659546,0.0023696995556787,0.00278601558267,-2.920096930889147e-06,-0.0252432748675346,0.0052772616036236,0.9634556770324708,-0.0062277819961309,0.0006696628406643,0.6877813935279846,0.7258908152580261,0.0001308620889727,0.0065098886296766,0.9953219022632116,0.4208400845527649,-0.4463511109352112,0.3741483688354492,21,265,-6543,12956
12.0,1788526766252,-2.6478872299194336,3.183098554611206,-0.0055830283090472,-0.0014599155401811,0.9053115844726562,0.4247089326381683,0.0160305009379179,-0.0020374037909672,5.21699687367638e-06,-0.0058798869140446,-0.0229183137416839,0.8987224102020264,-0.0056753316894173,0.0002761166542768,0.716852605342865,0.6972016096115112,-0.016209338813798,-0.0216321461079889,0.8541932397600359,0.0794857144355773,-0.4026927351951599,0.2233142852783203,49,261,-8374,13313
12.1,1788526766352,-2.197183132171631,2.901408433914185,-0.0052206558175385,-0.0016654559876769,0.9222840666770936,0.3864738643169403,0.011992779156453,0.0006448512562054,5.488686070042529e-07,-0.0045229373499751,0.0003490914532449,0.8508991599082947,-0.0053211590275168,-0.0003700843080878,0.7524851560592651,0.6585875749588013,-0.0192926278552622,-0.0318088856348153,0.9878072508136516,-0.2173405885696411,-0.1258898377418518,0.769526481628418,37,302,-7581,13653
12.2,1788526766452,-2.05633807182312,2.676056385040283,-0.0041412683203816,-0.0024083945900201,0.9394867420196532,0.3425517678260803,0.0032159556656021,-0.0006769236706389,4.218028172834928e-06,-0.0041529065929353,-0.0247134659439325,0.8127943873405457,-0.0047346549108624,-0.0010109832510352,0.7755808234214783,0.6312296390533447,-0.0130579932774758,-0.0079139253370417,0.7313827605759962,0.1191626787185669,-0.0188374519348144,0.0807447433471679,26,372,-7184,14658
12.3,1788526766552,-1.5774648189544678,3.94366192817688,-0.0043519223108887,-0.0027127377688884,0.9515272378921508,0.307521790266037,0.0133077599938351,-0.0002854094051902,-6.970244661179456e-08,-0.0078770611435174,0.0006331498152576,0.7752872109413147,-0.0050446260720491,-0.0010990621522068,0.7971298694610596,0.6037858128547668,-0.0097595126120221,0.0052577736804778,0.7730305567799698,0.5783584117889404,-0.1180140972137451,0.0414590835571289,16,551,-4202,20719
12.4,1788526766652,0.0,7.380281925201416,-0.0038189436309039,-0.0023610214702785,0.9634293913841248,0.2679245471954345,0.0769635355050711,0.0040081211148011,2.981634216447199e-05,0.0090828714892268,-0.0183721426874399,0.9075907468795776,-0.0044158669188618,-0.0011001480743288,0.8297867774963379,0.5580620765686035,-0.0145967000382682,-0.0042401870056755,1.0720874565247722,0.8547523617744446,0.0244816541671752,-0.0295429229736328,141,335,6325,26096
12.5,1788526766752,2.08450698852539,8.929577827453613,-0.002957209944725,-0.0021611109841614,0.9759302139282228,0.2180520147085189,0.1679212346307462,0.0040360998227193,8.045262280438186e-05,0.0179324205964803,-0.0418612658977508,1.086923122406006,-0.0039265491068363,-0.0006568161770701,0.8560417294502258,0.5168914794921875,0.0013263102778783,0.0440984940972548,1.0453730471194265,-0.1300795078277588,0.3079254031181335,-0.6332817077636719,51,83,5872,23413
12.6,1788526766852,1.6619718074798584,8.22535228729248,-0.0031066513620316,-0.0019941420760005,0.9868121147155762,0.161827951669693,0.1835620179043502,0.0033805723015954,2.0882057355911196e-05,-0.0036448151804506,-0.0039303582161664,1.0016652345657349,-0.0039578974246978,-0.00067650526762,0.8809309601783752,0.4732277989387512,-0.008044015303077,0.0578334112231094,0.9988542607376236,0.4667041301727295,0.1302754878997802,-0.2358360290527343,111,190,6988,24196
12.7,1788526766952,1.6901408433914185,8.197182655334473,-0.0033969758078455,-0.0023422299418598,0.9932693243026732,0.1157537624239921,0.176401117688869,0.0045075768164475,-3.4659540974125e-05,-0.0224078875035047,0.0298202130943536,0.94015234708786,-0.0042448155581951,-0.0010698297992348,0.9003204703330994,0.4352057576179504,-0.017316587434627,0.0490479589451575,0.8953141620112428,-0.0814595222473144,0.0448114871978759,-0.1570796966552734,33,234,6259,25306
12.8,1788526767052,1.8309859037399288,8.478873252868652,-0.0074272751808166,-0.0042869877070188,0.9975297451019288,0.0697202906012535,0.1818619093532776,0.0068803020477984,-0.0003894741326472,-0.0679198801517486,0.1005690917372703,0.9709439277648926,-0.0057898806408047,-0.0030631059780716,0.9253524541854858,0.3790514171123504,-0.0465319568926724,-0.213295491812912,0.8691310733274846,0.1976715922355651,1.2869765758514404,-3.550309658050537,47,255,5972,25891
12.9,1788526767152,1.6901408433914185,8.309859275817871,-0.0054039419628679,-0.0059055327437818,0.999619960784912,0.0263768155127763,0.1704027340182184,0.0105708479171474,0.000187690970411,-0.0448547452688217,0.0155302714556455,0.888379693031311,-0.0071934089064598,-0.004029281437397,0.9408196806907654,0.3388072550296783,-0.0129032238664724,-0.0498542996750737,1.1088167791993064,-0.3056224584579468,0.1700145006179809,-1.023029327392578,38,246,6233,26332
13.0,1788526767252,1.8309859037399288,8.36619758605957,0.0050935340113937,0.0064495685510337,-0.999485731124878,0.0309942159801721,0.1790947087974929,0.0064254280172361,4.253287762361687e-05,-0.010732646100223,-0.0187229719012975,1.019628405570984,-0.0066612176597118,-0.0047431020066142,0.9553039073944092,0.2955124974250793,-0.0314127772962379,-0.0405955879891457,0.9879190274364956,-0.1118777394294738,0.1463218331336975,0.285552978515625,57,265,6380,26082
13.1,1788526767352,2.1408450603485107,7.239436626434326,0.003889637067914,0.0068571846932172,-0.9969758987426758,0.0773110762238502,0.1778254090902436,0.0027367372428538,4.890441750346274e-05,-0.0062403539195656,-0.0251959972083568,0.949593722820282,-0.005603851750493,-0.0050738751888275,0.9670126438140868,0.2546164095401764,0.0126147970956038,-0.0419268540064153,0.906714805535563,0.4011572003364563,0.014649748802185,0.6647891998291016,118,336,9221,25997
13.2,1788526767452,2.3943662643432617,7.464788913726807,-0.0010850478429347,0.0027398930396884,-0.9934163093566896,0.114521712064743,0.1944663745405943,0.0035013450456927,0.0004397356452788,0.096796415746212,-0.1590504348278045,0.7713657021522522,0.0005856296047568,-0.0018616737797856,0.9784794449806212,0.2063351422548294,0.0459258361163938,0.1005960956341064,0.7503713320920687,0.4754559993743896,-0.3601839542388916,2.22183895111084,149,253,10945,23441
13.3,1788526767552,2.760563373565674,7.380281925201416,-0.0015334875788539,0.0013447548262774,-0.988663136959076,0.150136798620224,0.1890705869751837,0.0048163329570238,2.366493680238544e-05,0.0084121460095047,-0.0056667583994567,0.70975661277771,0.0012650303542613,-0.0018093883991241,0.9845033288002014,0.1753524839878082,0.0031189865330118,-0.0313316152814505,0.6835012259867121,-0.4389457106590271,-0.0439600348472595,2.0696802139282227,51,114,9113,20886
13.4,1788526767652,3.014084577560425,7.014084339141846,-0.0018943574978038,0.0014687167713418,-0.9823375940322876,0.1871020048856735,0.1778311732878898,0.0069093810169106,7.80487157911049e-05,-0.009258828125894,-0.0270636137574911,0.6473926901817322,0.0016730055212974,-0.0020885290578007,0.9892220497131348,0.1463987082242965,-0.0037245280037718,-0.026369840527135,0.6243184388105023,-0.1381941437721252,-0.2717998027801513,-0.2902545928955078,112,106,10226,19828
13.5,1788526767752,3.126760482788086,7.042253494262695,-0.0026790290139615,0.0007097126217558,-0.9764558672904968,0.2156992256641388,0.1742994846766343,0.0053754197907795,3.373389029724635e-05,0.0082635749131441,-0.011757206171751,0.5657512545585632,0.0021814042702317,-0.0015977090224623,0.9927108883857728,0.1204902008175849,-0.0127926232507914,0.0025812822207007,0.4499651350100545,-0.0070186257362365,-0.1589191555976867,1.416001319885254,65,237,10050,20781
13.6,1788526767852,3.183098554611206,7.126760482788086,-0.0015651152934879,0.0026744089554995,-0.9708040356636048,0.2398537993431091,0.1723765204023165,0.0036030187545248,-0.0002166486765803,-0.0818745493888855,0.0829306840896606,0.4972394108772278,1.0981224477291107e-05,-0.003741362132132,0.9954585433006288,0.0951220393180847,-0.083420534586772,0.0653428502647973,0.4824460280454037,0.1586652398109436,-0.5253764390945435,-0.5600271224975586,20,303,8506,24286
13.7,1788526767952,3.014084577560425,7.126760482788086,-0.0016588706057518,0.0025529535487294,-0.9676416516304016,0.2523101568222046,0.1906567171360763,0.0084046601007403,-4.529565232632807e-05,0.0044333790428936,-0.006596861872822,0.5351517200469971,0.0008330848067998,-0.0028939247131347,0.9962369203567504,0.0866194143891334,0.0593393826921173,-0.0502422130142202,0.5515437542514222,-0.5068345069885254,-0.0602408647537231,-0.0324993133544921,47,300,7908,24023
13.8,1788526768052,3.7183098793029785,6.732394218444824,-0.0005537326214835,0.005662809126079,-0.9582278728485109,0.2859490811824798,0.1743926727610459,0.0043511454573643,-5.710729173503735e-05,-0.0393753424286842,0.0230708699673414,0.6710136532783508,-0.0013801185414195,-0.0063689053058624,0.9995366930961608,0.0297332294285297,-0.027222079696555,-0.0211712463652342,0.6269280205294007,-0.1500670313835144,-0.290769100189209,-0.8978738784790039,64,221,9879,21250
13.9,1788526768152,3.88732385635376,6.2253522872924805,-0.0011109691113233,0.0064090257510542,-0.9494002461433412,0.3140015006065368,0.1726880794334822,0.0090778664069096,5.708212067609896e-05,-0.014893758110702,-0.0206053182482719,0.5525070428848267,-0.0019138576462864,-0.006999684497714,0.9999611973762512,0.0050063421949744,-0.0220430492425155,0.0172155601043902,0.3787282318327358,-0.2232016921043396,-0.3821231722831726,0.9888525009155272,58,238,12050,20558
14.0,1788526768252,4.0,6.056337833404541,-0.0005554538220167,0.0073412018828094,-0.940470576286316,0.3397952616214752,0.1732336299963476,-0.00024865084622,1.15844183558914e-06,-0.0068130586296319,0.0019511387217789,0.309339165687561,0.0019301166757941,0.0071194311603903,-0.999963402748108,0.0043296664953231,-0.0068322502326333,0.0008366689715587,0.276221589098714,0.0209863185882568,0.5070773363113403,-0.971994400024414,53,417,11376,23073
14.1,1788526768352,4.535211086273193,6.0,-0.0005026287399232,0.0071308705955743,-0.9378289580345154,0.347024142742157,0.1716271107702738,0.0037095781265366,-2.377971891593244e-05,0.0083447434008121,-0.0031784703023731,0.3205101490020752,-0.0005858968943357,0.004387023858726,-0.9996254444122314,0.0270103570073843,0.0333167177814532,-0.0282178345642943,0.36703606723247,0.6472686529159546,0.0783903002738952,0.0111646652221679,120,228,13837,19349
14.2,1788526768452,4.816901206970215,5.6619720458984375,-0.0014981776475906,0.0042648259550333,-0.9320749640464784,0.3622374236583709,0.1841815081414682,0.002977351963776,0.0001288944343735,0.0212938748300075,-0.0046667167916893,0.3145890831947326,-0.0007206313312053,0.0037424126639962,-0.9993173480033876,0.0367470234632492,0.0096318431708706,-0.0117597441135998,0.1525008997395397,-0.179542601108551,0.4296978712081909,0.6409988403320312,108,74,14969,15172
14.3,1788526768552,4.901408672332764,5.154929637908936,-0.002229397650808,0.0027672676369547,-0.9284095764160156,0.3715414106845855,0.1790152722891372,0.0011200935708832,5.653012065521792e-05,0.008943430148065,-0.0099814627319574,0.0326553359627723,-0.0009764423593878,0.003446283750236,-0.9992416501045228,0.0387725681066513,-0.0086940568633037,0.0224513152128761,0.0251835464363947,0.1582602262496948,-0.1185594201087951,-0.8480653762817383,79,129,14257,15400
14.4,1788526768652,5.042253494262695,5.126760482788086,-0.0009924764744937,0.0033093616366386,-0.9280219078063964,0.3725095689296722,0.1832637781567288,9.980781817220916e-05,-8.180306002197234e-05,-0.0017990068299695,0.0568088665604591,0.0442036278545856,-0.000923360697925,0.0034659933298826,-0.999159812927246,0.0408271998167037,-0.0213698339087608,-0.1215422440622466,0.031742230689114,0.4962040781974792,0.1863740682601928,6.87960147857666,93,164,14625,15739
14.5,1788526768752,4.957746505737305,4.985915660858154,-0.0008320467313751,0.0034912086557596,-0.9275019764900208,0.3738009631633758,0.1870574705281461,-0.0032385904680774,-0.0002146310125251,-0.0053123123943805,0.0355948396027088,0.0040906420908868,0.0015383614227175,0.0040145497769117,-0.999181628227234,0.0402193665504455,-0.040253954371675,0.0933914110942174,-0.0356373440106046,-0.013101577758789,0.6673250198364258,-0.1971511840820312,67,268,13681,17356
14.6,1788526768852,4.8450703620910645,4.873239517211914,-5.664851050823927e-05,0.0046223476529121,-0.9276661276817322,0.3733821213245392,0.1723418283238163,0.000176527756662,-0.000157985155579,-0.0315433293581008,0.0475230515003204,-0.0185420997440814,0.0024223169311881,0.0045868745073676,-0.9990946054458618,0.0422269701957702,-0.0092390178542476,0.0166733557284963,0.0209117756005744,-0.0816656351089477,-0.3467028141021728,0.1473007202148437,52,278,13672,17662
14.7,1788526768952,4.957746505737305,5.464788913726807,0.0019047535024583,0.006764177698642,-0.9269368648529052,0.3751515746116638,0.1753659230654835,-0.0017987230183994,-0.000159436931262,-0.0539821051061153,0.0877355858683586,0.0106318267062306,0.0031440574675798,0.0051179146394133,-0.9990259408950806,0.0437174178659915,0.0558572988313844,-0.0843839328664502,0.079243220019133,-0.0993689894676208,0.6996207237243652,1.381403923034668,53,217,13642,17557
14.8,1788526769052,4.957746505737305,5.183098793029785,0.001460867584683,0.0061210896819829,-0.926451861858368,0.376360684633255,0.1866791067602597,-0.0013456395662484,0.000147859180322,0.0127509776502847,-0.0261180661618709,0.0210413001477718,0.0041890162974596,0.0057620611041784,-0.9989599585533142,0.045037668198347,0.0086542184294682,0.0252122458972546,0.0540777367791815,-0.2330662608146667,0.0120328664779663,-0.0718841552734375,46,300,13421,18592
14.9,1788526769152,2.873239517211914,2.929577350616455,0.0023969595786184,0.0076509565114974,-0.925742506980896,0.3780696094036102,0.1561368443581642,3.274598832256613e-05,-3.8379704785481454e-05,-0.0091750677675008,0.0280615873634815,-0.0176789555698633,0.0050135385245084,0.0065891807898879,-0.998951494693756,0.0450268127024173,-0.0121067531661059,0.0175977843817874,-0.0352048580885761,-1.6301705837249756,0.1688102483749389,-1.512263298034668,102,140,3413,8800
15.0,1788526769252,0.0,0.5070422291755676,0.0024032250512391,0.0081131691113114,-0.9254179000854492,0.3788538575172424,0.0452291984330121,0.0007894022848447,-2.598328790102701e-06,-0.0135065158829092,0.0055085755884647,0.0266328118741512,0.0050464589148759,0.0069342879578471,-0.998877763748169,0.0465795695781707,-0.000160405837182,0.0034589410903915,0.0476581461948197,-1.1803468465805054,0.073329210281372,-0.5438871383666992,28,54,0,2122
15.1,1788526769352,1.7464789152145386,2.619718313217163,0.0020992816425859,0.0079242205247282,-0.9248822927474976,0.3801650404930115,0.0012514265668401,-0.0005902932517911,-1.89527233553823e-06,0.0021505162585526,-0.0149193126708269,0.0582534447312355,0.0042610801756381,0.0067492891103029,-0.99868506193161,0.0506414510309696,-0.0013977907890284,-0.0164102734973463,0.1588841504014483,2.6359894275665283,-0.1150004267692565,-0.2819766998291015,374,369,14091,13952
15.2,1788526769452,5.014084339141846,4.3380279541015625,0.0021919691935181,0.0080573558807373,-0.9234949350357056,0.3835199475288391,0.0996652405763519,-0.0012394261581234,-4.064442044805976e-05,-0.0026900700759142,0.0168004874140024,0.0418949164450168,0.0052183717489242,0.0069411555305123,-0.9987339973449708,0.0495480969548225,-0.0023891986894748,0.020489623114814,-0.0736718617484773,0.6469598412513733,0.2392070889472961,0.587153434753418,154,307,17394,16884
15.3,1788526769552,5.77464771270752,4.394366264343262,0.0014729083050042,0.0084117976948618,-0.9251611232757568,0.3794786930084228,0.1778526213518597,-0.0040727454725532,7.620901809001625e-05,-0.0231528989970684,-0.0376159809529781,-0.1288201063871383,0.0048687392845749,0.0076229134574532,-0.9992081522941588,0.0387457013130188,-0.0500802823813191,0.0568989011049539,-0.2627747436287257,-0.1694874763488769,0.2487706542015075,0.0561685562133789,82,288,15882,17169
15.4,1788526769652,6.02816915512085,4.056337833404541,0.0013332783710211,0.009107269346714,-0.9296879172325134,0.3682331144809723,0.1786253936546224,-0.0038584335198301,-0.0001310844549614,-0.0373882614076137,0.0091342320665717,-0.2571310997009277,0.0047399438917636,0.0082301944494247,-0.9995970129966736,0.0267523936927318,0.0041755290185376,0.0123623420906407,-0.2870862394095603,0.0669155716896057,0.3639346361160278,0.1105680465698242,126,360,16387,17164
15.5,1788526769752,5.549295902252197,4.3380279541015625,0.001726794289425,0.0085812387987971,-0.9363555908203124,0.3509438335895538,0.174422577277289,-0.0120554168501236,3.234428229864942e-05,0.0340287499129772,-0.0221050083637237,-0.2166111469268798,0.0045090969651937,0.0074820863083004,-0.999837040901184,0.015801703557372,0.0470158022872279,-0.0236233602587688,-0.1986284826355972,-0.1699517965316772,0.4841396808624267,-1.021709442138672,66,455,15307,20177
15.6,1788526769852,5.605633735656738,4.985915660858154,0.0014037964865565,0.007746398448944,-0.938296675682068,0.3457418382167816,0.1862742573605187,-0.007206509616093,4.69720397448799e-06,0.0048462324775755,0.0056748362258076,-0.0563193894922733,0.0040780780836939,0.0067907068878412,-0.9999196529388428,0.0099051529541611,-0.0003811680800463,0.0218314496715362,-0.0721605424661418,-0.0606433153152465,-0.2095319628715515,0.7557096481323242,74,223,15052,15983
15.7,1788526769952,5.436619758605957,4.760563373565674,0.0011839072685688,0.0066046924330294,-0.9396380186080932,0.3421045541763305,0.1831114702400209,-0.0073724692773334,3.7667964499051e-05,0.0179962702095508,-0.0154615752398967,-0.0773190632462501,0.00302404910326,0.0057998737320303,-0.999961793422699,0.0058063529431819,-0.0014459929668815,-0.0269516686073444,-0.0915559903100539,0.0304875969886779,-0.1614434719085693,1.1785593032836914,59,139,15663,13906
15.8,1788526770052,5.605633735656738,4.478873252868652,0.001133774057962,0.0063107502646744,-0.9403254389762878,0.3402161300182342,0.1780994029329371,-0.0046515370577269,5.6091935631731104e-05,0.0111472085118293,-0.0057033970952034,-0.0842714831233024,0.0027313968166708,0.0053398702293634,-0.9999820590019226,0.0001940941438078,0.0013854071007375,0.0076484998671162,-0.1495646861795834,0.1220921874046325,-0.0576554536819458,-0.5014095306396484,77,120,14989,14754
15.9,1788526770152,5.211267471313477,4.985915660858154,0.0009515234269201,0.0059707397595047,-0.9428015351295472,0.3332996368408203,0.1810000774366746,-0.0037234416192227,8.059798124475669e-06,0.0020623656455427,0.0083197532221674,-0.1472866386175155,-0.0028888070955872,-0.0055688116699457,0.9999672174453736,0.0051292413845658,-0.0123433645950253,-0.004181056535637,-0.0706959144608444,-0.1176779866218566,0.0526463389396667,0.0709438323974609,39,104,14470,14515
16.0,1788526770252,5.267605781555176,4.619718074798584,0.000786775490269,0.0059065301902592,-0.9444178938865662,0.32869353890419,0.1729881233091679,-0.0059898011248827,1.542763801678703e-06,0.0125313568860292,0.0065963049419224,-0.0416177436709404,-0.0030722990632057,-0.0053149573504924,0.9999505281448364,0.0078282039612531,0.0021980360982981,0.0449340890666817,-0.0373321303267205,0.1043466925621032,-0.093526005744934,-0.7640085220336914,97,216,14275,16168
16.1,1788526770352,5.126760482788086,4.873239517211914,0.0016265659360215,0.0067836688831448,-0.94563090801239,0.325166791677475,0.1767972090372261,-0.0047065524878621,-0.0001706666511191,-0.0044849724508821,0.0250699371099472,-0.0598783455789089,-0.0038172146305441,-0.005884313955903,0.9999105930328368,0.0113836666569113,-0.0187784847481779,-0.0069422307868724,-0.0712527099837908,0.0926013588905334,0.0451060533523559,0.5661258697509766,88,263,13947,17527
16.2,1788526770452,5.183098793029785,5.154929637908936,0.0029626504983752,0.0084866033867001,-0.9467293620109558,0.3219048380851745,0.1817760907917092,-0.0006286970304508,-0.0002245142264676,-0.0208616256713867,0.0359198376536369,-0.0831596329808235,-0.005226002074778,-0.0064338380470871,0.9998522996902466,0.0150553658604621,0.0427613870471274,-0.0436245035662796,-0.0184748327755444,0.0647418498992919,0.5172370672225952,-1.0794382095336914,64,315,13724,18134
16.3,1788526770552,4.8450703620910645,4.985915660858154,0.0033577177673578,0.0079454546794295,-0.9468896985054016,0.3214428722858429,0.1880483365090069,-0.0032547583472484,1.366388395470468e-06,0.0280195735394954,0.0088683888316154,-0.0211172215640544,-0.0071225278079509,-0.0088076405227184,0.9998160600662231,0.0154793178662657,-0.010484948242721,0.0665633790626082,0.0436744042207624,-0.4368128776550293,-0.7684823870658875,3.000774383544922,38,377,14720,18528
16.4,1788526770652,4.957746505737305,5.070422649383545,0.0030302540399134,0.0104179801419377,-0.9464496970176696,0.3226688206195831,0.1798387900281348,0.0032314579370171,2.849605998071125e-05,0.0006941150641068,-0.017953036352992,0.0595517754554748,-0.0061859115958213,-0.0087722707539796,0.999853253364563,0.0133563792333006,0.0002595294373468,-0.0276256452896021,0.0544471420893382,0.3467543125152588,0.1085737347602844,-1.311884880065918,71,300,13927,18213
16.5,1788526770752,4.732394218444824,5.126760482788086,0.0028039419557899,0.0103859091177582,-0.9461334943771362,0.3235982060432434,0.1905491604999601,0.0006277589482684,2.468610373828522e-05,-0.0020829294808208,-0.009960195980966,0.0418190881609916,-0.0060350038111209,-0.0088431686162948,0.9998648762702942,0.0124731073155999,-0.0003663434900062,-0.0192192655023809,0.032496187396395,-0.1031357049942016,-0.2587968707084656,0.7771739959716797,62,273,14206,18936
16.6,1788526770852,4.732394218444824,4.873239517211914,0.0024393056519329,0.0104304188862442,-0.9457022547721864,0.3248576521873474,0.1831472793770641,0.0022911871344049,-1.5366286610812007e-06,-0.0069248457439243,-0.014106118120253,0.0546695925295352,-0.0057779867202043,-0.0093319155275821,0.999888241291046,0.0101520726457238,-0.0122502911635611,-0.0075301391455857,0.0575371751118093,-0.2138900756835937,0.1182385683059692,1.0917940139770508,39,346,14169,19680
16.7,1788526770952,4.929577350616455,5.183098793029785,0.0021091275848448,0.0106881111860275,-0.9450989365577698,0.3266029059886932,0.1746823976518301,-0.0030804003087923,-4.981040610113175e-05,-0.0051293116994202,-0.0040601547807455,0.0331120081245899,-0.0046342276036739,-0.0095425909385085,0.99991112947464,0.0080806678161025,-0.0022813613171926,-0.0494777404298504,0.0419371230235552,0.1161888241767883,0.0014116764068603,-0.1519279479980468,68,365,13781,20268
16.8,1788526771052,5.042253494262695,5.239436626434326,0.0013301544822752,0.0104243271052837,-0.9444599151611328,0.3284583389759063,0.1770520873961094,-0.0006051158933474,3.661590412926065e-05,0.0045417477376759,-0.0174250546842813,0.0380800813436508,-0.0017540119588375,-0.007211179472506,0.9999512434005736,0.0065265940502285,0.0896842743157168,-0.1245293784656344,0.0330478657740843,0.7372184991836548,-0.0474003553390502,-0.0738344192504882,73,358,14345,19932
16.9,1788526771152,5.042253494262695,5.577464580535889,-0.0021218718029558,0.0065520191565155,-0.9435585737228394,0.3311341404914856,0.1890591460780484,0.0011599839918453,0.0004077906681321,0.0459283404052257,-0.1088139340281486,0.0821415930986404,-0.0008499277755618,-0.0057221949100494,0.9999783635139464,0.0031298212707042,0.0585890876692467,0.04401334576484,0.074434821575968,0.1648399233818054,-0.1414279341697693,-1.261368751525879,85,149,13456,16845
17.0,1788526771252,4.732394218444824,5.492957592010498,-0.001466721529141,0.0043773320503532,-0.9420917630195618,0.3353233337402344,0.1927113643771174,0.0054653628038084,0.0001101845757436,0.0452302768826484,-0.0253998488187789,0.1110998764634132,-0.0002123042941093,0.0036682123318314,-0.9999914169311525,0.0019026612862944,0.046237915090712,-0.02119852306003,0.0856958889686949,-0.0839426517486572,-0.354611337184906,-0.7552938461303711,45,79,14223,14652
17.1,1788526771352,4.8450703620910645,5.267605781555176,-0.0005756280152127,0.0046045165508985,-0.940534770488739,0.3396657705307007,0.1831771539548042,0.0029554532347762,-6.45622278070308e-05,-0.0249462816864252,0.0262138675898313,0.0635392367839813,0.0010641776025295,0.0047353226691484,-0.9999770522117616,0.0047430591657757,-0.0153908756176879,0.0029333108025569,0.0542711402030745,-0.081684410572052,0.4862677454948425,0.9038896560668944,77,139,14134,16017
17.2,1788526771452,5.154929637908936,4.873239517211914,-0.0006793979555368,0.0049546989612281,-0.9402509927749634,0.3404454588890075,0.183825487117906,0.0055143067797907,-1.9851806626321825e-05,-0.0152254551649093,0.0007329026120714,0.0345557406544685,0.0011620018631219,0.0049584433436393,-0.9999679327011108,0.0061855530366301,0.0175152998186656,-0.009468417778789,0.0195010719890612,0.0324256420135498,-0.4286671876907348,-0.1650543212890625,98,139,15170,15190
17.3,1788526771552,5.183098793029785,4.788732528686523,-0.0004039698978886,0.005252530798316,-0.9409823417663574,0.3384148180484772,0.1780522263419449,-0.0029218396958934,-5.469712514647505e-05,0.0016824967460706,0.0006077212165109,-0.0860579162836074,0.0013167550787329,0.0049939611926674,-0.9999843835830688,0.0021412130445241,0.0065539962662479,-0.0194747842139368,-0.0686013585294051,-0.2166042923927307,0.1825150847434997,-0.1244935989379882,93,186,15235,15603
17.4,1788526771652,5.380281925201416,5.070422649383545,-0.0005359031492844,0.0051916665397584,-0.941694676876068,0.3364279270172119,0.1830479975866702,-0.0042601974472431,-1.0876060638995926e-05,0.0004935517790727,-0.0042502423748373,-0.066960833966732,-0.0027223443612456,-0.0066079720854759,0.9999715089797974,0.0024403883144259,-0.0589583118180796,0.0814410404806728,-0.1017068578396887,0.1938087940216064,0.1273664236068725,1.2517099380493164,60,252,14300,16695
17.5,1788526771752,5.154929637908936,4.788732528686523,-0.0002274086000397,0.0056223040446639,-0.943554937839508,0.3311682343482971,0.17499718000065,-0.0034760609180761,0.0001401766706655,0.0179099924862384,-0.0336855202913284,-0.0768781825900077,-0.0016748066991567,-0.0054037487134337,0.9999698400497437,0.0053220633417367,-0.0064254273856154,-0.0153414600993716,-0.0896145648170257,0.2972343564033508,-0.0083915591239929,-0.9148960113525392,66,352,13778,18791
17.6,1788526771852,5.183098793029785,4.873239517211914,-0.0001481208018958,0.0067116534337401,-0.9440206289291382,0.3298181295394897,0.181783496567821,-0.0060257855614799,-1.4201730554057804e-05,-0.0228906124830245,0.0003383856383152,-0.0348779819905757,-0.002078496851027,-0.0064556933939456,0.9999566674232484,0.0063876397907733,-0.0255477203156051,-0.0154015826200953,-0.0389481725084549,-0.0357602834701538,0.2235761284828186,0.1966772079467773,74,321,13553,19002
17.7,1788526771952,4.985915660858154,5.183098793029785,-0.0001481208018958,0.0067116534337401,-0.9440206289291382,0.3298181295394897,0.1736436918081094,-0.0034939711123818,-3.820846175223925e-07,0.0,-3.633719103390831e-09,0.0,-0.0027229497209191,-0.0066350037232041,0.99995356798172,0.0064495718106627,-0.0163016786855322,-0.0179091262918116,0.005938162115074,0.3016038537025451,0.117975115776062,1.1606817245483398,70,310,13214,19308
17.8,1788526772052,4.704225540161133,5.267605781555176,0.0003246476408094,0.0068712346255779,-0.9440819025039672,0.3296393454074859,0.1816776264528934,-0.0030804053115655,4.5366302425444484e-07,0.0,4.800269959304161e-09,0.0,-0.0021652383729815,-0.0065112542361021,0.9999638199806212,0.0050420071929693,0.0028818399120156,-0.0212065821878738,0.0454832873111628,0.0384057760238647,0.1901895999908447,1.3482122421264648,43,295,13879,18523
17.9,1788526772152,5.070422649383545,4.873239517211914,0.0008481992408633,0.006809698883444,-0.943060576915741,0.3325500786304474,0.1757528727750372,-0.0012207324093431,-5.5162434577154656e-05,0.0134858135133981,0.0199539270251989,0.0275032650679349,-0.0039801709353923,-0.0059326291084289,0.9999699592590332,0.0030336193740367,0.012806040753294,0.0669517164658277,0.0187604113086408,0.442094087600708,0.3333174586296081,-1.0265464782714844,50,331,14125,19127
18.0,1788526772252,5.070422649383545,5.070422649383545,0.0024072369560599,0.0070284018293023,-0.9428472518920898,0.333142340183258,0.168145769308891,0.0013646478988775,-0.0003690706890702,0.0129339266568422,0.0641644671559333,0.0266770515590906,-0.0028325002640485,-0.0047516971826553,0.999980092048645,0.0030350722372531,0.0408286156498613,-0.0287529158446565,-0.0068410101371227,-0.3087576031684875,0.0623767971992492,-3.5853705406188965,52,411,14598,20280
18.1,1788526772352,5.267605781555176,5.464788913726807,0.0001269177300855,0.0046193138696253,-0.943200409412384,0.3321921229362488,0.181220448188746,-0.0078820531077189,0.0001874810765375,0.054382886737585,-0.0793998017907142,-0.0369498953223228,-0.0025976421311497,-0.004521663300693,0.9999848008155824,0.0018234616145491,-0.0103173921498754,0.0374191640132732,0.058432773576225,-0.2888479828834533,-0.200089693069458,1.384669303894043,79,203,13563,17620
18.2,1788526772452,5.014084339141846,5.464788913726807,0.0007676891982555,0.0047498703934252,-0.9424301385879515,0.3343684077262878,0.1940766911584003,0.0008426848465195,-7.732082167031151e-05,0.0086805932223796,0.0105354012921452,0.044287834316492,0.0022570928558707,0.0041255336254835,-0.999987542629242,0.0016670199111104,-0.0142064894292212,-0.0002409792259136,0.0796775484101895,-0.0067769885063171,-0.0800487399101257,-1.2172536849975586,65,105,12313,16299
18.3,1788526772552,2.873239517211914,7.295774459838867,0.0007318706484511,0.0044812513515353,-0.9386968016624452,0.3447139859199524,0.1803547221676343,0.0070402030389655,3.975816932715475e-06,-0.0006584536167792,-0.0006411547074094,0.2669236361980438,0.0019452571868896,0.0040490748360753,-0.9997440576553344,0.0221729688346385,-0.0066979596628863,-0.0200131762994035,0.6939434772958932,-0.0571941137313842,0.4197522401809692,0.169036865234375,15,243,5770,23253
18.4,1788526772652,2.8450703620910645,6.704225540161133,0.0003569193650037,0.0043058572337031,-0.9260444045066832,0.3773897588253021,0.1756628040855773,0.0020070509861626,5.2107343706621616e-05,0.0050893169827759,-0.0211236160248518,0.7968193292617798,0.001578046940267,0.003982194699347,-0.9983871579170228,0.0566109977662563,-0.0075892544610039,-0.0064529793548029,0.6369602421060798,0.1706796884536743,0.1007741093635559,-0.2629413604736328,70,265,9113,22997
18.5,1788526772752,3.88732385635376,6.14084529876709,-0.0002298302715644,0.0044020917266607,-0.914513111114502,0.404532253742218,0.1726319547110801,0.0041267975235141,9.169260108271972e-05,-0.0030506253242492,-0.022154115140438,0.5708918571472168,0.0027556987479329,0.0060165161266922,-0.9960544109344482,0.0884979367256164,-0.0690287310443591,0.0824019895616236,0.4278841052325358,0.0199905037879943,-0.30884850025177,0.3422355651855469,147,260,12399,20496
18.6,1788526772852,3.492957830429077,6.563380241394043,-0.0004755171248689,0.0044183675199747,-0.9052637219429016,0.4248268604278564,0.1959381306437054,0.0002274756417092,9.278499721773184e-05,0.0676433891057968,-0.0888820439577102,0.4246879816055298,0.0028315857052803,0.0064591392874717,-0.9944230914115906,0.1052280142903328,-0.12637698515384,0.1750604189997721,0.3484813819972503,0.1898747682571411,0.058927297592163,1.191880226135254,117,319,10661,22458
18.7,1788526772952,3.7183098793029785,6.14084529876709,0.0004419013857841,0.0101337628439068,-0.8959710597991943,0.4439966082572937,0.185275462142553,0.002153921904257,-0.0001534468476443,-0.0835209041833877,0.0242023337632417,0.3903555274009704,0.0043203849345445,0.0093993535265326,-0.992394745349884,0.1226607784628868,0.0190724034070013,0.0379451944376352,0.3759018183411808,-0.2729188799858093,0.0604422688484191,-1.2638921737670898,51,286,11875,21303
18.8,1788526773052,3.521126747131348,6.619718074798584,0.0010092598386108,0.0107850860804319,-0.88773113489151,0.4602348506450653,0.1812511068808581,0.003477302285664,-3.2514620507413274e-05,-0.0168354790657758,-0.0013737104600295,0.3855741024017334,0.0043586054816842,0.0095909889787435,-0.9897276163101196,0.1425774544477462,0.0223417171912576,-0.0127657901534184,0.4176402991405324,0.1478936672210693,-0.1072662472724914,0.0486574172973632,45,271,11615,20718
18.9,1788526773152,3.8309860229492183,5.85915470123291,0.0007501067593693,0.0105358278378844,-0.8787766695022583,0.4771162867546081,0.176793028348474,0.0030844307111333,4.19364535551067e-05,-0.0043452470563352,-0.0166409164667129,0.3561762869358063,0.0038476772606372,0.0095942569896578,-0.986565351486206,0.1630401313304901,-0.0058796794268351,-0.0155060064870133,0.3136529999492932,-0.0787051916122436,0.3752666115760803,0.553614616394043,78,390,11661,22563
19.0,1788526773252,4.535211086273193,5.77464771270752,0.0007161796092987,0.0105758607387542,-0.870027482509613,0.4928891658782959,0.1777861765457812,0.0024530626388044,-5.810902627478471e-05,-0.0044074072502553,0.0028074376750737,0.3406031727790832,0.0030756639316678,0.0086890943348407,-0.9842671155929564,0.1764465272426605,0.0517034504864014,-0.0833232001599698,0.2243420759989236,-0.1047420501708984,-0.1918584704399109,0.4791765213012695,62,354,11422,22030
19.1,1788526773352,4.197183132171631,6.2816901206970215,-0.0005516235250979,0.0062765353359282,-0.8631001710891724,0.5049935579299927,0.183394016817407,0.0012216317873526,0.0002894678918253,0.0632596611976623,-0.0506505034863948,0.3410319983959198,0.0016878452152013,0.0060010952875018,-0.9816588759422302,0.1905437856912613,0.0030517457563544,0.0271588122008205,0.3277667500324586,-0.1953132152557373,-0.5753260850906372,-0.0632829666137695,46,205,12527,19539
19.2,1788526773452,4.704225540161133,5.746479034423828,-0.0001737722195684,0.0056363167241215,-0.855372965335846,0.517982006072998,0.1843675946725797,0.0040619510310306,-2.223640907747557e-05,0.0113779008388519,0.0093329902738332,0.308723121881485,0.0011050663888454,0.0050488570705056,-0.9785076379776,0.2061456739902496,-0.0014899575045235,-0.059300018936353,0.1626599905969686,-0.0263561010360717,-0.0114055275917053,-1.412641525268555,51,75,12852,15512
19.3,1788526773552,4.563380241394043,5.408450603485107,-0.0004715388640761,0.005182409659028,-0.8509705066680908,0.5251877903938293,0.1791149507456632,0.0030599377291856,-2.1936079928331664e-06,0.0025805220939219,-0.0063341874629259,0.1483131498098373,0.0013949824497103,0.0052474038675427,-0.9771504402160645,0.2124796956777572,-0.0126320012246402,0.0116970740928822,0.1591665680973247,-0.2530658841133117,-0.1382127404212951,-0.1701440811157226,63,162,13021,16969
19.4,1788526773652,4.535211086273193,5.549295902252197,-0.0003864234313368,0.0054257684387266,-0.8470174074172974,0.5315373539924622,0.1774496266237736,0.0067825565800878,-1.8720377023790104e-05,0.0005487506859935,0.0114395478740334,0.1573647260665893,0.0017055170610547,0.0051559573039412,-0.9756864309310912,0.2191038131713867,0.0083318437495036,0.00901950045338,0.1424167076629482,0.1140481233596801,-0.2150300145149231,-0.4577045440673828,70,168,13303,16799
19.5,1788526773752,4.957746505737305,5.183098793029785,-0.0002795418258756,0.005984085611999,-0.8433692455291748,0.5373009443283081,0.1773555938745306,0.0061508017043529,-6.0668258065379466e-05,-0.0154793439432978,0.005421086680144,0.1051627695560455,0.0017853761091828,0.0057364013046026,-0.9746174812316896,0.2237959802150726,0.0080172129251262,-0.009062595418354,0.1093556969131422,0.1445125937461853,0.4501676559448242,-0.5892972946166992,90,189,14210,16695
19.6,1788526773852,4.957746505737305,5.154929637908936,0.0001063619274646,0.0079078953713178,-0.8428195118904114,0.5381382703781128,0.1759317020009053,-9.34239775260786e-05,-0.000133494058893,-0.0513310357928276,0.0597667731344699,-0.002417299663648,0.0033529475331306,0.0079503757879138,-0.9745621085166932,0.2239515781402588,-0.0033827458234187,0.0181047833007767,0.0100748397474906,0.0595160722732543,-0.6725972890853882,1.6477270126342771,58,308,13852,18686
19.7,1788526773952,4.985915660858154,4.901408672332764,0.0004121477250009,0.0079328771680593,-0.8421183228492737,0.5392342805862427,0.1789553883581766,-0.0050546122394943,-8.722236535588972e-05,-0.0004999042721465,-0.012298903428018,0.0372542962431907,0.0033904779702425,0.0084993746131658,-0.9742631316184998,0.2252282202243805,-0.0538211060974973,0.0525726298726704,-0.0020311808108461,0.0877054333686828,-0.6395218968391418,-1.333417892456055,78,394,13567,19839
19.8,1788526774052,4.929577350616455,5.211267471313477,-0.0006234168540686,0.0093238018453121,-0.8408927321434021,0.5411211252212524,0.1798802825302111,0.0005842486615272,7.630509365961067e-05,-0.0103577431291341,-0.0229136124253273,0.0508190840482711,0.0025598062202334,0.0091181881725788,-0.9735164642333984,0.2284205853939056,-0.0056470968808893,0.0093823519002594,0.0462315823403126,0.2525590062141418,0.2539103627204895,-0.0543470382690429,60,294,13679,18688
19.9,1788526774152,5.042253494262695,5.183098793029785,-0.0006412747316062,0.0097004054114222,-0.8398950099945068,0.5426617860794067,0.1809699725453229,0.0012970172493469,-1.1625908573792048e-05,-0.0077665974386036,0.0041361143812537,0.0365536324679851,0.0024476619437336,0.0092674931511282,-0.9732944965362548,0.2293600291013717,0.0049438391927491,-0.0153560481323334,-0.0019645737701941,0.0733375549316406,-0.3701019883155823,0.2599191665649414,85,242,14498,17465
20.0,1788526774252,5.267605781555176,4.929577350616455,-0.0007646104786545,0.0094078443944454,-0.8398051857948303,0.5428059697151184,0.1840207170724918,0.0042988301027935,6.719353344766343e-05,0.0074240048415958,-0.0110017918050289,0.0070173474960029,0.0026866681873798,0.0087488116696476,-0.973121702671051,0.2301097810268402,0.007372574141451,0.0035859526849122,0.0268150995118288,-0.017322301864624,0.1764463782310485,-0.1050605773925781,62,251,14246,17358
20.1,1788526774352,4.535211086273193,5.380281925201416,0.0002241428010165,0.0089019732549786,-0.8395636677742004,0.5431882739067078,0.1776645887439198,-0.005351948186445,-6.22568784852047e-05,0.0156046440824866,0.001446928246878,-0.0049996338784694,0.0032415399327874,0.008651977404952,-0.972983419895172,0.2306900769472122,-0.040438127069146,0.0104712098807652,0.0676960403949876,0.0520070195198059,0.3409976959228515,-0.3765010833740234,62,411,12698,21678
20.2,1788526774452,4.478873252868652,5.690140724182129,-0.0001493925228714,0.0092364065349102,-0.8375651240348816,0.546259343624115,0.1810969761046502,0.0016233888979952,-2.6214180420918392e-05,0.0044540939852595,-0.0183121636509895,0.1059194877743721,0.0015574870631098,0.0072283335030078,-0.9718246459960938,0.2355891913175583,0.0677318091361002,-0.1143221315913254,0.1243427733973771,0.3399408459663391,0.3863309025764465,-0.1968879699707031,40,384,12645,21804
20.3,1788526774552,5.830986022949219,4.591549396514893,-0.0011402294039726,0.0063494239002466,-0.8316500186920166,0.5552626848220825,0.1823908732715415,0.0058563543647315,-6.784465745899836e-05,0.0062591438181698,-0.0034412867389619,0.2645134925842285,0.0009669102728366,0.0059663522988557,-0.9694008827209472,0.2454085648059845,0.029448904796941,-0.0382962599814564,0.1109115318233606,0.6505358815193176,-0.6096393465995789,0.1534433364868164,224,19,20244,10190
20.4,1788526774652,7.802816867828369,2.8450703620910645,-0.000704479869455,0.0064081158488988,-0.8367793560028076,0.547502338886261,0.1964020083907638,-0.0094220911404627,7.999186058546512e-06,-0.0114943487569689,0.024050423875451,-0.4026369452476501,0.0020730085670948,0.0062902579084038,-0.9763279557228088,0.2161943018436432,0.0093042954982757,0.0412766456539625,-0.8135193901874771,0.0985109210014343,-0.2013381719589233,0.4781703948974609,89,15,21102,6335
20.5,1788526774752,7.492957592010498,2.3380281925201416,3.2312702387571335e-05,0.0066219475120306,-0.8576430082321167,0.5142027735710144,0.1647295305149642,-0.0102881676472456,-3.965436402247397e-05,0.0016960691427811,0.0193810183554887,-0.8987517952919006,0.0016932245343923,0.0069078654050827,-0.9844233989715576,0.1756704300642013,-0.0403543030388483,-0.0305056648063589,-0.9057442087556468,-0.03891521692276,-0.0834144353866577,2.301376342773437,47,220,19093,10485
20.6,1788526774852,6.816901206970215,3.1549296379089355,0.0006195299793034,0.0067077819257974,-0.8792498111724854,0.4763135015964508,0.1714743378651619,-0.0027744296720983,-0.0002189590572796,0.0233758892863988,0.0303172562271356,-0.6774489283561707,0.0028362059965729,0.0057390220463275,-0.9891815781593324,0.1465563625097274,0.0358029403919533,0.0117802601291206,-0.5741447950413666,-0.3011898994445801,-0.0680212974548339,1.5095138549804688,49,150,18775,11120
20.7,1788526774952,6.478873252868652,3.492957830429077,0.0002977426629513,0.0062914872542023,-0.8917940855026245,0.4523976743221283,0.1795877394372646,-0.0035435899280505,-9.221394876457486e-06,0.0001030811326927,0.0032342250924557,-0.5426099300384521,0.0025492599233984,0.0057277642190456,-0.992419958114624,0.122732475399971,0.0194740464477951,0.0162918810112543,-0.4437848092649274,0.2185468077659607,0.2017080187797546,-1.7832555770874023,57,193,17928,12388
20.8,1788526775052,6.535211086273193,3.549295663833618,0.0005917905364185,0.0066656535491347,-0.9015629887580872,0.4325960576534271,0.1771607050620095,0.0001819140908454,-1.2345237656742552e-05,-0.0002721750934142,0.0024209097027778,-0.4704442918300628,0.0028789667412638,0.0061418479308485,-0.9954478144645692,0.0950666442513465,-0.008405542929526,0.0051904950103389,-0.4702469385079963,-0.0205262899398803,0.0939003825187683,-0.7328433990478516,61,131,18110,11660
20.9,1788526775152,6.563380241394043,3.6619718074798575,0.0012282833922654,0.0074243475683033,-0.9115357995033264,0.4111518859863281,0.1707380789561049,0.0019440626367498,-6.492445731041256e-05,-0.0097624817863106,0.0247738342732191,-0.5055171847343445,0.0041979746893048,0.0067943716421723,-0.9973385334014891,0.0724711641669273,-0.010942543321495,0.0482739816196043,-0.4821580376081364,-0.2660624980926513,-0.2010297179222107,0.8156194686889648,19,246,15765,14094
21.0,1788526775252,6.2253522872924805,3.7183098793029785,0.0013714449014514,0.0076224748045206,-0.9216600060462952,0.3879212439060211,0.1781656402204779,-0.0035164234898716,2.2181631257883368e-05,0.0021084444597363,-0.0086552966386079,-0.4222726225852966,0.0042587080970406,0.0072562741115689,-0.998838484287262,0.047443401068449,-0.026214600718061,0.019117383295042,-0.3983973700479878,-0.2582319378852844,0.2331580519676208,0.4416093826293945,62,268,16377,13985
21.1,1788526775352,6.253520965576172,3.859154939651489,0.001525314990431,0.0096667371690273,-0.9287092089653016,0.3706795573234558,0.1699329225549535,-0.0023371317123193,-9.192433740226324e-05,-0.0451014079153537,0.0128448149189352,-0.367715448141098,0.0049816435202956,0.0081108137965202,-0.9994394779205322,0.0320948250591754,0.0412795852533748,0.0248160330867697,-0.2827906672843869,0.1562947630882263,-0.1085614562034607,-1.314809799194336,111,226,19076,13175
21.2,1788526775452,6.619718074798584,3.492957830429077,0.0012299835216253,0.007921127602458,-0.93489807844162,0.3548258244991302,0.1832695320053891,-0.0046469551459281,0.0001339279550577,0.0365884490311145,-0.0307387597858905,-0.4210068881511688,0.0037628933787345,0.0068727675825357,-0.9998894929885864,0.0126349898055195,0.0110346236663682,0.0002414748015796,-0.5594818429170156,0.1399000883102417,-0.4199771285057068,-1.026388168334961,64,245,17016,13609
21.3,1788526775552,4.507042407989502,4.591549396514893,0.0017059065867215,0.008011451922357,-0.9425708651542664,0.3339056968688965,0.1740545056722853,-0.004136140897413,-3.4985259169591615e-05,-0.0046187760308384,0.0293718762695789,-0.4299832284450531,-0.0058509223163127,-0.0076080411672592,0.9999356865882874,0.0060458984225988,-0.0259110739252576,0.0627078453706493,0.0022954692206504,-0.1567339301109314,0.5394567251205444,0.9457035064697266,93,439,8184,20463
21.4,1788526775652,2.08450698852539,7.098591327667236,0.0023420869838446,0.010336359962821,-0.9404918551445008,0.3396509289741516,0.1565537611543486,0.0050138195341777,-0.0002329451055436,-0.0474198646843433,-0.0021910164505243,0.3245736956596374,0.0062143299728631,0.0096211349591612,-0.9998214840888976,0.0150254052132368,-0.0198645545881319,0.0553696184680893,0.6705834611088739,0.2757356166839599,0.3962100744247436,1.0231361389160156,29,539,3959,28705
21.5,1788526775752,1.183098554611206,7.774647712707519,0.0019233708735555,0.0112164393067359,-0.9248831868171692,0.3800809681415558,0.1657373199393358,0.0080427083048339,7.62805330797115e-05,-0.0136673487722873,-0.0277361422777175,1.0279541015625,0.0044997166842222,0.0099141476675868,-0.9978026747703552,0.0653542652726173,-0.0078886976255998,-0.0770906756481907,0.9781665330028552,0.1419461369514465,-0.3123173117637634,-1.957237243652344,63,202,5714,24661
21.6,1788526775852,1.6338027715682983,7.718309879302978,0.0007439993787556,0.0103669324889779,-0.9058277606964112,0.4235186576843261,0.1627535218527736,0.0013305354253545,5.0407756387970473e-05,0.0065299728885293,-0.0239377599209547,1.0204534530639648,0.003611272200942,0.0089396890252828,-0.9938414096832277,0.1103915125131607,0.0313795097376308,-0.0577008143319185,1.117611214841522,0.1954511404037475,-0.1150399446487426,1.0958786010742188,74,435,6310,26535
21.7,1788526775952,1.5211267471313477,6.056337833404541,-0.0008647053036838,0.0065986183471977,-0.8851233720779419,0.46530881524086,0.1778916923202383,0.000122296606478,0.0003125918493328,0.0508800223469734,-0.0648610815405845,0.9333515763282776,0.0007812939584255,0.0063618086278438,-0.986812949180603,0.1617378890514373,-0.0110021689641077,-0.0458481442472852,0.7219657066157691,-0.1638150215148925,-0.6064610481262207,-1.4121589660644531,41,20,5608,14559
21.8,1788526776052,1.4929577112197876,5.126760482788086,-0.0009120909962803,0.0061430069617927,-0.8662025332450867,0.4996544122695923,0.1237524143250375,-0.0023008898959336,3.3080367400281254e-05,0.0061548561789095,-0.0027693081647157,0.6302952766418457,0.0005452632904052,0.0058280937373638,-0.9819711446762084,0.188940167427063,0.0093199704986817,-0.0638840608165611,0.5473048954611633,0.2202357053756714,-0.1140100359916687,1.1333417892456057,67,159,5750,16212
21.9,1788526776152,1.6056338548660278,5.154929637908936,-0.0013544897083193,0.0055843302980065,-0.8518349528312683,0.5237787365913391,0.1226405509938294,0.0042315460605229,6.1011921589812685e-05,0.0056920163333415,-0.0185079462826252,0.5796021819114685,0.000561068765819,0.0056431395933032,-0.9767109751701356,0.2144846618175506,0.0030091524881428,0.0090001092405718,0.5757647645484971,-0.0225868225097656,-0.1652673482894897,0.382512092590332,0,75,2804,14209
22.0,1788526776252,0.9577465057373048,4.619718074798584,-0.0021059301216155,0.0042594936676323,-0.8377814888954163,0.5459849834442139,0.1061957990357853,0.0002136377276138,9.807269117559476e-05,0.0047490838915109,-0.0304635036736726,0.5288468599319458,-0.0006256494671106,0.0050561064854264,-0.9692598581314088,0.2459868490695953,-0.0041020757368925,-0.0190564571863105,0.5226453291340905,0.0059583783149719,0.0640294551849365,0.0430879592895507,48,202,4885,14972
22.1,1788526776352,0.9014084339141846,4.478873252868652,-0.0018182820640504,0.0057599022984504,-0.8245929479598999,0.5656943321228027,0.0910183163063339,0.0010913804081573,-6.97669268164947e-05,-0.0305193662643432,0.0317963995039463,0.4561276733875274,0.0003437213599681,0.0064075672999024,-0.963927924633026,0.2660862505435943,-0.0119813292042623,0.0058524515756547,0.4933388187712224,0.2106703519821167,0.4431554079055786,-0.1685628890991211,59,353,2885,18138
22.2,1788526776452,1.154929518699646,4.169013977050781,-0.0017983866855502,0.0070067076012492,-0.8094651103019714,0.5871233940124512,0.1010555100710307,-0.0030673252663109,4.310745861175686e-09,-0.0291949361562728,0.0051085506565868,0.6178703904151917,0.0016471408307552,0.0091177364811301,-0.955923080444336,0.2934709191322326,-0.0642224781298071,0.0428990937047997,0.4541516976305383,0.0163360834121704,0.0570225119590759,-0.0625591278076171,24,276,2731,15904
22.3,1788526776552,1.0985915660858154,4.169013977050781,-0.0017889006994664,0.0077737481333315,-0.7915929555892944,0.610996663570404,0.0908712350098245,0.0001979693806007,4.836316865520955e-05,0.0310112759470939,-0.0407567545771598,0.532374918460846,0.000683169811964,0.0077451709657907,-0.9478597044944764,0.3185932338237762,-0.0019598714087029,-0.0152409789958607,0.5300907683347035,0.1204702854156494,-0.0501373410224914,-0.1742744445800781,0,263,2997,15218
22.4,1788526776652,2.7323944568634038,1.4647886753082275,-0.0017778740730136,0.007629563100636,-0.7787283658981323,0.6273123621940613,0.0824309391150901,0.0002108619315614,-1.4259809581692983e-06,0.003952968865633,-2.0680845409515317e-05,0.3320735692977905,0.0010757958516478,0.0077028255909681,-0.9439414739608764,0.330021470785141,0.0094767047380929,0.0110864554184743,0.0060633354792348,-0.0253500938415527,-0.6325662732124329,-0.173893928527832,116,87,9616,2816
22.5,1788526776752,3.774647951126098,-1.183098554611206,-0.0014761774800717,0.0071503072977066,-0.7845526933670044,0.6200191974639893,0.0620411864552124,-0.0091507357275815,-1.0029548671935874e-05,0.0181249473243951,0.0004107366548851,-0.3308248519897461,0.0008991798385977,0.0061893723905086,-0.9514046907424928,0.3078799545764923,0.0436661453026888,-0.0117116715665321,-0.5347156502107125,0.2776009440422058,0.161641776561737,-0.2779855728149414,137,118,11864,-6719
22.6,1788526776852,3.94366192817688,-2.08450698852539,-0.0010572208557277,0.005930108949542,-0.8057446479797363,0.5922324061393738,0.0501183302822917,-0.004851197811502,-9.06178075239704e-06,0.0039053505752235,0.009543321095407,-0.7671882510185242,0.0010774368420243,0.0060008214786648,-0.9616446495056152,0.2742306292057037,0.0006685246485771,0.0108987998587026,-0.9768252665026328,-0.134418785572052,0.2616578936576843,0.1854753494262695,87,240,13667,-9751
22.7,1788526776952,5.014084339141846,-1.7183098793029783,-0.0006396011449396,0.0064171240665018,-0.8318270444869995,0.5549975037574768,0.0490859117096029,-0.0003006394837671,-1.8434143285045267e-05,-0.0033105679322034,0.021772813051939,-0.978186011314392,0.0015165237709879,0.0063580051064491,-0.9728484749794006,0.2313507795333862,-0.0074008930451836,0.0050081396927222,-1.059662836480716,-0.1772325038909912,-0.0123402476310729,-0.2028656005859375,54,300,13700,-9551
22.8,1788526777052,4.422535419464111,-1.183098554611206,-0.0010840639006346,0.0067307199351489,-0.858397901058197,0.5129391551017761,0.0605471771464308,-0.0018580829217275,-7.900097474214407e-06,-0.0128233823925256,0.0052841817960143,-1.021924376487732,0.001167039386928,0.0076279323548078,-0.984963059425354,0.1725925803184509,-0.0380602492186648,0.0001928862254335,-0.8748612888817788,-0.3599222898483276,0.2157207727432251,0.8503999710083008,23,284,12365,-9264
22.9,1788526777152,3.91549301147461,-1.2676056623458862,0.0001914401073008,0.0076722064986824,-0.8787384033203125,0.4772419929504394,0.0414511024915713,0.0008591716756128,-3.578755094164407e-05,0.0287510771304368,0.0661117509007453,-0.7870094776153564,0.003685095347464,0.006926791742444,-0.990439474582672,0.1377250999212265,0.0131669312927383,0.037459652492835,-0.8243788701448993,0.4010428786277771,-0.3196642994880676,-0.7708892822265625,228,373,14620,-9523
23.0,1788526777252,4.366197109222412,-1.0704225301742554,0.0017036804929375,0.0077913347631692,-0.9003868699073792,0.4350171983242035,0.0558340565237907,-0.0033661073778433,-3.285493369106581e-05,0.0124870799481868,0.0225963499397039,-0.8770750164985657,0.0041500693187117,0.0067340889945626,-0.9950637221336364,0.0989227369427681,0.0047622015864902,-0.0096161092852073,-0.8198845216687253,-0.0146028995513916,-0.2238892316818237,-0.0110969543457031,26,256,9214,-7761
23.1,1788526777352,3.3521127700805664,-1.211267590522766,0.0019554533064365,0.0075513152405619,-0.9158338308334352,0.4014818370342254,0.0415432504779212,0.0016138427745873,-6.643704245654848e-06,0.0118617108091712,0.0119346156716346,-0.7363914251327515,0.0043374393135309,0.0060513271018862,-0.9984304904937744,0.0555082932114601,0.0238512025534811,-0.0008439145606861,-0.6600306515256104,-0.0791175961494445,0.2521594762802124,0.1463022232055664,53,229,9609,-6836
23.2,1788526777452,3.492957830429077,-1.0985915660858154,0.0021566743962466,0.0064905108883976,-0.9280232191085817,0.3724594414234161,0.0301976610488471,0.0010196200938641,1.0860662710019054e-06,0.0294050239026546,-0.0011139753041788,-0.6246508955955505,0.0039508072659373,0.0049583679065108,-0.9995992183685304,0.0275904890149831,0.0227229920757913,-0.0143704455157677,-0.6183169314004541,0.6431591510772705,-0.0205727219581604,0.0030689239501953,94,159,10061,-6567
23.3,1788526777552,3.183098554611206,-1.0704225301742554,0.0016979805659502,0.0057410052977502,-0.9392850399017334,0.3430854082107544,0.0412883656113867,0.0007850242648709,8.300314024405322e-06,0.0086414478719234,-0.0111889690160751,-0.6858243942260742,-0.0032723462209105,-0.0046953344717621,0.9999791979789734,0.0029729325324296,0.0110355903640275,-0.010826871209682,-0.603602889571681,0.1568208336830139,0.0978758335113525,-0.3779983520507812,72,248,10885,-7279
23.4,1788526777652,1.94366192817688,0.0,0.0014805564424023,0.005788205191493,-0.9512867331504822,0.3082497417926788,0.0428259799186368,-0.0017888410820811,1.8012031579110514e-06,0.0002124418533639,0.0033351893071085,-0.6463430523872375,-0.0032441765069961,-0.0050061615183949,0.9993628859519958,0.0351887047290802,0.0004818915675991,0.0009658221547673,-0.5899257651261937,0.1685969829559326,0.2776368856430053,-0.2724590301513672,41,5,3028,831
23.5,1788526777752,-0.2535211145877838,1.2394366264343262,0.0014518408570438,0.0060141989961266,-0.9562288522720336,0.2925544381141662,0.0136226959149055,0.0024997247417597,-1.566207824069655e-08,-0.0006837373948656,-0.0010692931246012,-0.179670363664627,-0.0033596288412809,-0.0052343038842082,0.9989368319511414,0.0456786081194877,-0.0041164505249551,-0.0002462686688735,-0.0255344112178982,-0.6409091949462891,0.2693707942962646,0.1070785522460937,221,373,-7501,7328
23.6,1788526777852,-1.2676056623458862,1.3239436149597168,0.0013316179392859,0.0061324276030063,-0.9526710510253906,0.3039384186267853,-0.0043697980512427,0.0036148771748378,8.222571801360303e-07,-0.0043796715326607,-0.0022624160628765,0.3900150656700134,-0.0033947918564081,-0.0053691361099481,0.9996644258499146,0.0251156110316514,-0.0028923299424803,0.0050302417070991,0.3325051569421722,0.1643723249435424,-0.1909218430519104,-0.1374702453613281,5,211,-692,7354
23.7,1788526777952,0.0,0.0,0.0013493306469172,0.0063400720246136,-0.94904226064682,0.3150822222232818,0.0075428392372909,-0.0024378954674399,3.83451387395537e-07,-0.0061811474151909,-0.0008918945677578,0.1449666172266006,-0.0035313954576849,-0.0056038275361061,0.9997609853744508,0.0208387374877929,-0.0037716953351482,0.0134890978091536,0.0468784545464478,0.0532779693603515,-0.1679493188858032,0.0272998809814453,4,363,0,10865
23.8,1788526778052,0.0,0.7042253613471985,0.0017334357835352,0.0070168538950383,-0.9481471180915833,0.3177496194839477,0.0184966374688346,0.0006722166159009,-2.5420198877765774e-06,-0.0140017187222838,0.0224379226565361,0.0810705423355102,-0.0040289890021085,-0.0062089916318655,0.999839961528778,0.0162873100489377,-0.0104290504083341,-0.0012014689551554,0.1660264151986222,0.115128755569458,0.0337852239608764,0.0794601440429687,8,357,0,9341
23.9,1788526778152,0.0,0.8732394576072693,0.0019242977723479,0.0076432325877249,-0.9456083178520204,0.3252119123935699,0.0209136155050124,-0.0002470306654476,-4.415832268323652e-06,-0.0086184134706854,0.0079548247158527,0.1273991167545318,-0.0043010497465729,-0.0066374568268656,0.999939262866974,0.0076765306293964,-0.0040641682649107,-0.0079500163382946,0.1650868600604495,0.1635072231292724,0.0262789726257324,-0.0459775924682617,0,245,0,8275
24.0,1788526778252,0.0,1.042253494262695,0.0017379820346832,0.0076777059584856,-0.9432223439216614,0.3320687413215637,0.0194055331333309,0.0009388026253964,-7.885366088327419e-08,-0.0013348527718335,-0.0046374686062335,0.141786515712738,-0.0042298939079046,-0.0066090123727917,0.9999685287475586,0.0011647175997495,0.0015629951820974,0.0015686777389094,0.1479693069069397,0.09101402759552,0.0430111289024353,-0.0283365249633789,4,221,0,6712
24.1,1788526778352,0.0,1.0704225301742554,0.0016419340390712,0.0074042174965143,-0.940747857093811,0.3390219807624817,0.0192445898455289,9.675954521141256e-05,-3.465283496689248e-07,0.0051670800894498,-0.0048920274712145,0.1577105075120926,0.003995812498033,0.0063079111278057,-0.9999550580978394,0.0058538690209388,0.0092038163553599,-0.0035004737908948,0.1757349140086629,0.0514744520187377,0.0384649634361267,-0.0448169708251953,1,149,0,5537
24.2,1788526778452,0.0,0.8450704216957092,0.001426009228453,0.0069000697694718,-0.938168466091156,0.3461074233055115,0.0197325116347422,0.0014581165403303,2.9626035495150654e-06,0.007880593650043,-0.0095846317708492,0.1583671569824218,0.003552034497261,0.0059226052835583,-0.999893605709076,0.0128534818068146,0.0077802650078703,-0.0143070823225824,0.1462505211480728,-0.1185624599456787,-0.0922008752822876,0.0304317474365234,1,153,0,5457
24.3,1788526778552,0.0,0.6478873491287231,0.0010641750413924,0.0064072804525494,-0.935726761817932,0.3526659607887268,0.0150099244088916,0.0004749528623776,1.374916023311453e-06,0.0047363289631903,-0.0078552635386586,0.1150153949856758,0.0031036967411637,0.0055997837334871,-0.9997800588607788,0.0199744664132595,0.0048062555303653,-0.0022387798356012,0.1181968266847674,-0.0732746124267578,-0.1120319962501525,0.1149435043334961,0,181,0,6605
24.4,1788526778652,0.0,0.9295774698257446,0.0008766590617597,0.0062204711139202,-0.9336549043655396,0.3581186532974243,0.0160277650606572,0.0016453167395552,4.378769877295447e-07,0.000912600022275,-0.0036632169503718,0.126338854432106,0.0029546450823545,0.0055872108787298,-0.999638020992279,0.0261504314839839,-0.0020784940827344,0.0026755082257249,0.1279562234645598,0.165821373462677,0.0534460544586181,0.0025758743286132,4,177,-1511,7391
24.5,1788526778752,-2.11267614364624,2.7887322902679443,0.0009945316705852,0.0064681968651711,-0.9302496910095216,0.3668688237667084,0.0199350479466745,0.0020275484453168,-8.916397033220621e-07,-0.0091225076466798,0.0059759831055998,0.2621087729930877,0.0036552948877215,0.0061071319505572,-0.9984559416770936,0.0550908707082271,-0.0041167606644853,-0.0032174393909735,0.8464700214270648,0.0979707241058349,-0.4158551692962646,0.135416030883789,155,268,-8348,12016
24.6,1788526778852,-1.94366192817688,2.4788732528686523,0.0014420771040022,0.0067792092449963,-0.9164558053016664,0.4000760316848755,0.0148321088979204,-0.00408384794922,-1.6324756874662769e-06,0.0070110405795276,-0.0039907749742269,0.7810624241828918,0.0036980425938963,0.0058459993451833,-0.9964749217033386,0.0836059600114822,-0.002649744345093,0.0049587999992965,0.6174739436980063,-0.0212438702583313,-0.1461669206619262,0.5676698684692383,79,215,-6892,11440
24.7,1788526778952,-1.8028168678283687,2.5915493965148926,0.0013868699315935,0.006649830378592,-0.9012228846549988,0.4333026111125946,0.0113566590527367,0.0005326727199607,2.3527405023525555e-09,-0.0029602891299873,-0.0066074980422854,0.6710065603256226,0.0033673793077468,0.005838674493134,-0.9935210943222046,0.1134478002786636,-0.0092246477185521,-0.0226175318548456,0.6914257662978934,0.022649347782135,0.0273623466491699,-0.111602783203125,79,255,-7326,11640
24.8,1788526779052,-1.6056338548660278,2.11267614364624,0.0013559688813984,0.0065994667820632,-0.8865281343460083,0.4626254737377167,0.0140226100725864,-0.003601450259677,3.3654594946194895e-07,0.0011913306079804,-0.0028653293848037,0.6775963306427002,0.0035171750932931,0.0058060912415385,-0.988486647605896,0.151155799627304,-0.0076266369840277,-0.0015834633977397,0.593299507173049,0.0541566014289855,-0.1083981990814209,-0.04052734375,56,237,-5283,10808
24.9,1788526779152,-1.6338027715682983,2.197183132171631,0.0014349555131047,0.0067552905529737,-0.8736808896064758,0.4864504337310791,0.0127510089019104,-0.003017999743214,-5.538976429696949e-07,-0.0046284971758723,-0.0001807812514016,0.5581507682800293,0.0035261875018477,0.0059807393699884,-0.984299898147583,0.1763677597045898,-0.009134288465111,-0.0055884124955563,0.5769645223890516,0.0283835530281066,0.0036113858222961,0.0265836715698242,66,277,-5318,10665
25.0,1788526779252,-1.436619758605957,2.281690120697021,0.0013543181121349,0.0069437650963664,-0.8572922945022583,0.5147813558578491,0.0134299329844584,-0.0013973545306146,-1.1876565472057097e-06,-0.0051198713481426,-0.0010724414605647,0.5818493962287903,0.0036880951374769,0.006117015145719,-0.9793649911880492,0.2019734680652618,-0.0042157259809744,0.005348070104483,0.5324768710196278,0.0791560411453247,-0.0403897762298584,0.1002359390258789,48,248,-6046,10392
25.1,1788526779352,-1.154929518699646,1.887323975563049,0.0013978362549096,0.007124732248485,-0.843290388584137,0.5374091267585754,0.0125641968300962,-0.0006771188520721,1.1592002888617356e-06,-0.0056616407819092,-0.0049181887879967,0.5582056641578674,0.0037125190719962,0.0063850907608866,-0.9724666476249696,0.2329252511262893,-0.0093093154857749,-0.0009033726821598,0.4552189872938508,0.2157559394836425,-0.2173671722412109,0.0010318756103515,83,216,-4640,9264
25.2,1788526779452,-0.7605633735656738,0.9014084339141846,0.0015347898006439,0.0074269347824156,-0.831315279006958,0.5557493567466736,0.0120023763239969,-0.0036778904647316,-2.232611413024766e-06,-0.0039146644994616,0.0026044650003314,0.4327174127101898,0.0036744670942425,0.0064179794862866,-0.9683573246002196,0.2494581639766693,-0.0016130836213155,-0.0192192794679386,0.2811045466324688,-0.0719131231307983,-0.1909784078598022,-0.048980712890625,60,187,-3822,5505
25.3,1788526779552,-1.1267606019973757,1.154929518699646,0.0012766257859766,0.0072208056226372,-0.8250240087509155,0.5650501251220703,-0.0006786256074606,0.0003100070849498,-4.255627923362358e-09,-0.0003255695046391,-0.0008558921399526,0.206373929977417,0.0035819103941321,0.0063529210165143,-0.9657354354858398,0.2594260573387146,-0.0008862788039705,-0.0058505337122756,0.3296790752728201,-0.3898254632949829,0.1960278153419494,0.0847759246826171,87,382,-5811,8297
25.4,1788526779652,-1.154929518699646,1.211267590522766,0.0010982311796396,0.0068623451516032,-0.815147340297699,0.579211950302124,-0.0028219627561877,0.0022742848778001,-7.650772663213806e-07,0.0042832782492041,-0.0055526793003082,0.3825914561748504,0.0031553730368614,0.0059085628017783,-0.9596304893493652,0.2811841964721679,0.0030736708556777,-0.0098531089524552,0.3579934885802091,0.0697364807128906,-0.0250883698463439,-0.0452384948730468,31,212,-3462,6575
25.5,1788526779752,0.1408450752496719,-0.1971831023693084,0.000925914151594,0.0063234842382371,-0.806963324546814,0.5905670523643494,-0.0056274670491759,-0.0003361217987613,-1.5565875192347943e-06,0.0062793469987809,-0.0100115109235048,0.1219694465398788,0.0026521952822804,0.0052163396030664,-0.9586211442947388,0.2846247851848602,0.0135911278425836,-0.0131141885019654,-0.0845161002386205,0.8418425917625427,-0.2351083159446716,0.2254285812377929,375,246,10440,-7340
25.6,1788526779852,2.9577465057373047,-2.4788732528686523,0.0009832091163843,0.0056410781107842,-0.8165463805198669,0.5772514343261719,0.0300726463863284,-0.010607286263123,-4.705614623931774e-06,0.0114251635968685,0.0037478229496628,-0.5612378716468811,0.0028146943077445,0.0047842087224125,-0.967749834060669,0.2518523335456848,0.010970470441729,0.0030394095962178,-0.8419491417346012,-0.2979222536087036,0.5372942090034485,0.0786294937133789,51,324,7804,-12912
25.7,1788526779952,3.3521127700805664,-3.1549296379089355,0.0011125737801194,0.005461380816996,-0.8384023904800415,0.5450233221054077,0.0060882973714323,0.0002923280760373,-4.478565527720913e-07,0.0052566602826118,0.0051862807013094,-0.7812283039093018,0.0027617784217,0.0045824302360415,-0.9762358665466307,0.2166446596384048,0.0124843313626453,-0.0061670434672114,-0.8617250806155241,0.4350525736808777,-0.228657066822052,-0.4433364868164062,145,441,10843,-16595
25.8,1788526780052,3.323943614959717,-3.0985915660858154,0.0012495260452851,0.0049191992729902,-0.8658281564712524,0.50031578540802,0.0051523470640927,-0.0035570638208292,-2.5935431502981804e-06,0.0141308745369315,0.0032348984386771,-0.9981537461280824,0.002825291827321,0.004283133894205,-0.9849869012832642,0.1725527048110962,-0.0038067857878863,0.0057070261238755,-0.8826558709392184,-0.1063839793205261,-0.0704156756401062,0.6556158065795898,57,518,10131,-17570
25.9,1788526780152,3.0422534942626958,-2.929577350616455,0.0016985941911116,0.0051856795325875,-0.8888528347015381,0.458160400390625,0.0023939579945178,-0.003086580218526,-2.532392680974939e-06,0.008844212628901,0.0171479601413011,-0.983007788658142,0.0031635984778404,0.0044972794130444,-0.9934568405151368,0.1140754893422126,-0.0078920863029685,-0.0084742730034483,-0.9645982890085714,-0.2731750011444092,-0.2588236331939697,0.1467838287353515,51,426,8431,-15655
26.0,1788526780252,2.9577465057373047,-2.9577465057373047,0.0012975604040548,0.0052134338766336,-0.908592402935028,0.4176492691040039,0.0022943310985368,-0.0023753176018159,4.4450400297700396e-07,0.0032790505792945,3.8819962355773896e-05,-0.9224131107330322,0.0030063353478908,0.0046613002195954,-0.9973040223121644,0.0731712579727172,-0.010976550447491,0.0025138357127352,-0.8388877224776098,0.022946298122406,-0.1400596499443054,1.2612085342407229,64,428,9761,-16558
26.1,1788526780352,2.9577465057373047,-3.126760482788086,0.0011130492202937,0.0053622303530573,-0.9286178350448608,0.3709971904754638,-0.0106056043920806,-0.0022681072306961,9.856679838950154e-07,0.0039715827442705,-0.0040998207405209,-0.8995420336723328,0.0030236737802624,0.0048784641548991,-0.9998095631599426,0.018653342500329,-0.0095685771262793,0.0313024112316701,-0.9157586965667258,0.0421181917190551,-0.0789636969566345,0.3133935928344726,84,272,8558,-13306
26.2,1788526780452,2.816901445388794,-3.0985915660858154,0.0014058086089789,0.0058375080116093,-0.9413776993751526,0.3373008668422699,-0.0014220099636005,-0.001697214658955,1.4341594416627289e-07,-0.0051973238587379,0.0197973418980836,-0.9001035094261169,-0.0035028662532567,-0.0053275320678949,0.9997484087944032,0.0215059928596019,-0.0132136999212607,0.0012198183684725,-0.9050145667500926,0.0139875411987304,-0.0607460737228393,-0.3996829986572265,53,279,10065,-12827
26.3,1788526780552,4.056337833404541,-2.507042169570923,0.0018070542719215,0.0069178370758891,-0.9578536748886108,0.2871677279472351,0.0037441765431392,-0.0061131262194939,1.4349499027140797e-06,-0.0175202898681163,0.0253956764936447,-0.9907048344612122,-0.0043866243213415,-0.0061283009126782,0.9978204369544984,0.06555637717247,-0.0132020007815926,0.0356310721852015,-1.0677667018912949,1.3303877115249634,-0.0030363202095031,0.0558891296386718,183,149,15195,-8512
26.4,1788526780652,3.690140962600708,-1.6056338548660278,0.0026513114571571,0.0076403212733566,-0.9706565737724304,0.2403337657451629,0.0472453887468877,-0.0035375764707781,-2.5288309964236155e-05,-0.0009794920915737,0.0215950030833482,-1.031832575798035,-0.0050613461062312,-0.0062793986871838,0.9937209486961364,0.1115963459014892,0.0032602619014222,0.001460337273946,-1.116961304010515,-0.1287358403205871,0.069008469581604,0.1268386840820312,56,164,12273,-7790
26.5,1788526780752,3.7183098793029785,-1.436619758605957,0.0030613699927926,0.007166399154812,-0.9803503155708312,0.1971104890108108,0.044167327917561,0.000956013912647,-2.920981739397331e-06,0.0174310356378555,0.0055342675186693,-0.8801049590110779,-0.0052677802741527,-0.0056002167984843,0.9885329604148864,0.1508095264434814,0.0161554656594613,0.0099561750284309,-0.776352049868915,-0.3782967925071716,-0.1493059992790222,0.2207527160644531,71,151,10614,-6152
26.6,1788526780852,3.2957746982574463,-1.3521126508712769,0.0025087769608944,0.0064843720756471,-0.987946391105652,0.1546400785446167,0.0360077992235091,0.0003973328811322,8.025315929627054e-06,0.0050340401940047,-0.0092512760311365,-0.743366539478302,-0.0045418357476592,-0.0051107443869113,0.9802276492118835,0.1977553516626358,0.0121187858051521,0.0084352120447297,-0.6806309686286249,0.423292338848114,0.0271036028861999,1.0259714126586914,57,197,9125,-7079
26.7,1788526780952,3.690140962600708,-1.4647886753082275,0.002866412512958,0.0062807616777718,-0.9926180839538574,0.1210852563381195,0.0375823354641083,-0.0006351101389277,-1.2232817291455144e-05,0.0068312659859657,0.0133665073662996,-0.7242915034294128,-0.0048659509047865,-0.0047771092504262,0.973423719406128,0.2289098799228668,0.0138739620237816,0.0118437556149723,-0.7549754586485183,0.2761780619621277,0.1256690025329589,0.1510572433471679,115,167,11265,-6812
26.8,1788526781052,4.760563373565674,-1.0140844583511353,0.0024118917062878,0.0059156804345548,-0.9963362216949464,0.08528383821249,0.0443538979511288,-0.0034797553452486,1.0815280905065394e-05,0.0077367746271193,-0.013899833895266,-0.7958218455314636,-0.0042107058688998,-0.0045515531674027,0.9614314436912536,0.2749747633934021,0.0069166095556086,0.0031652824008015,-0.8134331730238118,0.7813153862953186,-0.192481517791748,0.3080415725708008,165,51,15061,-2179
26.9,1788526781152,4.788732528686523,-0.591549277305603,0.0028877279255539,0.0055647469125688,-0.9989532232284546,0.0453110709786415,0.0734944159294171,-0.0050451849667873,-2.834416985047184e-05,0.0095955710858106,0.0231795478612184,-0.847314178943634,-0.0045913644134998,-0.0041416184976696,0.9508607983589172,0.3095569014549255,0.0028704639718844,-0.0031980483025436,-0.7028468708773901,0.1172592639923095,-0.0120325088500976,-0.0394983291625976,103,58,14068,-1456
27.0,1788526781252,7.295774459838867,1.436619758605957,0.0028604669496417,0.0053684930317103,-0.9999245405197144,0.0106711303815245,0.0852133434594005,-0.0052150655106523,5.789744547994298e-06,0.0054333307780325,-0.0003940974420402,-0.706216037273407,-0.0046456735581159,-0.0038746008649468,0.938815176486969,0.3443680703639984,0.0132179404556823,0.0179928211798525,-1.0343540980912624,0.8203762173652649,-0.2207957506179809,-0.0655508041381836,203,136,23114,6831
27.1,1788526781352,7.943662166595459,2.7042253017425537,-0.0040667075663805,-0.0054300217889249,0.9990477561950684,0.0430992133915424,0.1840737967001064,-0.0078304176080245,-7.430889771416008e-05,-0.0012883873423561,0.0402046516537666,-0.8999850749969482,-0.0059737302362918,-0.0036719301715493,0.9237176775932312,0.3830099403858185,0.0025684762128476,0.0658315571706248,-0.8137651112428986,-0.2292670607566833,-0.1293039917945861,-0.6009426116943359,65,123,20404,9355
27.2,1788526781452,7.267605781555176,2.450704336166382,-0.0049370075576007,-0.0055782464332878,0.9965710043907166,0.0824058502912521,0.1846211360511356,-0.0051361315685804,-8.885968891251205e-06,-0.0020057666115462,0.0198051631450653,-0.8236015439033508,-0.0095724752172827,-0.0024806866422295,0.9039706587791444,0.4274800717830658,-0.0095365537059765,0.1975142260831677,-0.7622226273297437,-1.7441961765289309,-0.1125051379203796,4.678562164306641,59,248,18750,11240
27.3,1788526781552,6.366197109222412,3.070422649383545,-0.0070498674176633,-0.005893908906728,0.9932576417922974,0.1155636236071586,0.1711782563555862,0.0029519564820548,-7.432038975588869e-05,-0.0055269189178943,-0.0350734964013099,-0.6259466409683228,-0.0085525093600153,-0.0029932335019111,0.8926672339439392,0.4506251513957977,0.0090051467638069,0.0272921007292129,-0.4771206457132909,-0.1646817326545715,0.0946063995361328,-2.486468315124512,23,57,17457,9208
