time_s,timestamp_ms,wheel_vels__velocity_left,wheel_vels__velocity_right,odom__orient_x,odom__orient_y,odom__orient_z,odom__orient_w,odom__lin_x,odom__lin_y,odom__lin_z,odom__ang_x,odom__ang_y,odom__ang_z,imu__orient_x,imu__orient_y,imu__orient_z,imu__orient_w,imu__angvel_x,imu__angvel_y,imu__angvel_z,imu__acc_x,imu__acc_y,imu__acc_z,wheel_status__current_ma_left,wheel_status__current_ma_right,wheel_status__pwm_left,wheel_status__pwm_right
0.0,1788343517362,0.0,0.0,-0.0052454071119427,0.0008738255128264,-0.4063779711723327,0.9136895537376404,-9.430229406543596e-05,0.0001097279795673,-5.5904543861897275e-09,-0.0005956919048912,-0.0020591360516846,-0.0011016817297786,-0.0034883944317698,-0.0040016276761889,0.5641926527023315,0.8256260752677917,0.0006663633728196,-0.0001726820857617,0.0005322088909071,-0.0070343017578125,-0.0209062695503234,-0.0130529403686523,0,0,0,0
0.1,1788343517462,0.0,0.0,-0.0052454071119427,0.0008738255128264,-0.4063779711723327,0.9136895537376404,-9.430229406543596e-05,0.0001097279795673,-5.5904543861897275e-09,-0.0005956919048912,-0.0020591360516846,-0.0011016817297786,-0.0034883944317698,-0.0040016276761889,0.5641926527023315,0.8256260752677917,0.0006663633728196,-0.0001726820857617,0.0005322088909071,-0.0070343017578125,-0.0209062695503234,-0.0130529403686523,0,0,0,0
0.2,1788343517562,0.0,0.0,-0.0052454071119427,0.0008738255128264,-0.4063779711723327,0.9136895537376404,-9.430229406543596e-05,0.0001097279795673,-5.5904543861897275e-09,-0.0005956919048912,-0.0020591360516846,-0.0011016817297786,-0.0034883944317698,-0.0040016276761889,0.5641926527023315,0.8256260752677917,0.0006663633728196,-0.0001726820857617,0.0005322088909071,-0.0070343017578125,-0.0209062695503234,-0.0130529403686523,0,0,0,0
0.3,1788343517662,0.0,0.0,-0.0052454071119427,0.0008738255128264,-0.4063779711723327,0.9136895537376404,-9.430229406543596e-05,0.0001097279795673,-5.5904543861897275e-09,-0.0005956919048912,-0.0020591360516846,-0.0011016817297786,-0.0034883944317698,-0.0040016276761889,0.5641926527023315,0.8256260752677917,0.0006663633728196,-0.0001726820857617,0.0005322088909071,-0.0070343017578125,-0.0209062695503234,-0.0130529403686523,0,0,0,0
0.4,1788343517762,0.0,0.0,-0.0052454071119427,0.0008738255128264,-0.4063779711723327,0.9136895537376404,-9.430229406543596e-05,0.0001097279795673,-5.5904543861897275e-09,-0.0005956919048912,-0.0020591360516846,-0.0011016817297786,-0.0034883944317698,-0.0040016276761889,0.5641926527023315,0.8256260752677917,0.0006663633728196,-0.0001726820857617,0.0005322088909071,-0.0070343017578125,-0.0209062695503234,-0.0130529403686523,0,0,0,0
0.5,1788343517862,0.0,0.0,-0.0052454071119427,0.0008738255128264,-0.4063779711723327,0.9136895537376404,-9.430229406543596e-05,0.0001097279795673,-5.5904543861897275e-09,-0.0005956919048912,-0.0020591360516846,-0.0011016817297786,-0.0034883944317698,-0.0040016276761889,0.5641926527023315,0.8256260752677917,0.0006663633728196,-0.0001726820857617,0.0005322088909071,-0.0070343017578125,-0.0209062695503234,-0.0130529403686523,0,0,0,0
0.6,1788343517962,0.0,0.0,-0.0052454071119427,0.0008738255128264,-0.4063779711723327,0.9136895537376404,-9.430229406543596e-05,0.0001097279795673,-5.5904543861897275e-09,-0.0005956919048912,-0.0020591360516846,-0.0011016817297786,-0.0034883944317698,-0.0040016276761889,0.5641926527023315,0.8256260752677917,0.0006663633728196,-0.0001726820857617,0.0005322088909071,-0.0070343017578125,-0.0209062695503234,-0.0130529403686523,0,0,0,0
0.7,1788343518062,0.0,0.0,-0.0052454071119427,0.0008738255128264,-0.4063779711723327,0.9136895537376404,-9.430229406543596e-05,0.0001097279795673,-5.5904543861897275e-09,-0.0005956919048912,-0.0020591360516846,-0.0011016817297786,-0.0034883944317698,-0.0040016276761889,0.5641926527023315,0.8256260752677917,0.0006663633728196,-0.0001726820857617,0.0005322088909071,-0.0070343017578125,-0.0209062695503234,-0.0130529403686523,0,0,0,0
0.8,1788343518162,0.0,0.0,-0.0052454071119427,0.0008738255128264,-0.4063779711723327,0.9136895537376404,-9.430229406543596e-05,0.0001097279795673,-5.5904543861897275e-09,-0.0005956919048912,-0.0020591360516846,-0.0011016817297786,-0.0034883944317698,-0.0040016276761889,0.5641926527023315,0.8256260752677917,0.0006663633728196,-0.0001726820857617,0.0005322088909071,-0.0070343017578125,-0.0209062695503234,-0.0130529403686523,0,0,0,0
0.9,1788343518262,0.0,0.0,-0.0052454071119427,0.0008738255128264,-0.4063779711723327,0.9136895537376404,-9.430229406543596e-05,0.0001097279795673,-5.5904543861897275e-09,-0.0005956919048912,-0.0020591360516846,-0.0011016817297786,-0.0034883944317698,-0.0040016276761889,0.5641926527023315,0.8256260752677917,0.0006663633728196,-0.0001726820857617,0.0005322088909071,-0.0070343017578125,-0.0209062695503234,-0.0130529403686523,0,0,0,0
1.0,1788343518362,0.0,0.0,-0.0052454071119427,0.0008738255128264,-0.4063779711723327,0.9136895537376404,-9.430229406543596e-05,0.0001097279795673,-5.5904543861897275e-09,-0.0005956919048912,-0.0020591360516846,-0.0011016817297786,-0.0034883944317698,-0.0040016276761889,0.5641926527023315,0.8256260752677917,0.0006663633728196,-0.0001726820857617,0.0005322088909071,-0.0070343017578125,-0.0209062695503234,-0.0130529403686523,0,0,0,0
1.1,1788343518462,0.0,0.0,-0.0052454071119427,0.0008738255128264,-0.4063779711723327,0.9136895537376404,-9.430229406543596e-05,0.0001097279795673,-5.5904543861897275e-09,-0.0005956919048912,-0.0020591360516846,-0.0011016817297786,-0.0034883944317698,-0.0040016276761889,0.5641926527023315,0.8256260752677917,0.0006663633728196,-0.0001726820857617,0.0005322088909071,-0.0070343017578125,-0.0209062695503234,-0.0130529403686523,0,0,0,0
1.2,1788343518562,0.0,0.0,-0.0052454071119427,0.0008738255128264,-0.4063779711723327,0.9136895537376404,-9.430229406543596e-05,0.0001097279795673,-5.5904543861897275e-09,-0.0005956919048912,-0.0020591360516846,-0.0011016817297786,-0.0034883944317698,-0.0040016276761889,0.5641926527023315,0.8256260752677917,0.0006663633728196,-0.0001726820857617,0.0005322088909071,-0.0070343017578125,-0.0209062695503234,-0.0130529403686523,0,0,0,0
1.3,1788343518662,0.0,0.0,-0.0052454071119427,0.0008738255128264,-0.4063779711723327,0.9136895537376404,-9.430229406543596e-05,0.0001097279795673,-5.5904543861897275e-09,-0.0005956919048912,-0.0020591360516846,-0.0011016817297786,-0.0034883944317698,-0.0040016276761889,0.5641926527023315,0.8256260752677917,0.0006663633728196,-0.0001726820857617,0.0005322088909071,-0.0070343017578125,-0.0209062695503234,-0.0130529403686523,0,0,0,0
1.4,1788343518762,0.0,0.0,-0.0052454071119427,0.0008738255128264,-0.4063779711723327,0.9136895537376404,-9.430229406543596e-05,0.0001097279795673,-5.5904543861897275e-09,-0.0005956919048912,-0.0020591360516846,-0.0011016817297786,-0.0034883944317698,-0.0040016276761889,0.5641926527023315,0.8256260752677917,0.0006663633728196,-0.0001726820857617,0.0005322088909071,-0.0070343017578125,-0.0209062695503234,-0.0130529403686523,0,0,0,0
1.5,1788343518862,0.0,0.0,-0.0052454071119427,0.0008738255128264,-0.4063779711723327,0.9136895537376404,-9.430229406543596e-05,0.0001097279795673,-5.5904543861897275e-09,-0.0005956919048912,-0.0020591360516846,-0.0011016817297786,-0.0034883944317698,-0.0040016276761889,0.5641926527023315,0.8256260752677917,0.0006663633728196,-0.0001726820857617,0.0005322088909071,-0.0070343017578125,-0.0209062695503234,-0.0130529403686523,0,0,0,0
1.6,1788343518962,0.0,0.0,-0.0052454071119427,0.0008738255128264,-0.4063779711723327,0.9136895537376404,-9.430229406543596e-05,0.0001097279795673,-5.5904543861897275e-09,-0.0005956919048912,-0.0020591360516846,-0.0011016817297786,-0.0034883944317698,-0.0040016276761889,0.5641926527023315,0.8256260752677917,0.0006663633728196,-0.0001726820857617,0.0005322088909071,-0.0070343017578125,-0.0209062695503234,-0.0130529403686523,0,0,0,0
1.7,1788343519062,0.0,0.0,-0.0052454071119427,0.0008738255128264,-0.4063779711723327,0.9136895537376404,-9.430229406543596e-05,0.0001097279795673,-5.5904543861897275e-09,-0.0005956919048912,-0.0020591360516846,-0.0011016817297786,-0.0034883944317698,-0.0040016276761889,0.5641926527023315,0.8256260752677917,0.0006663633728196,-0.0001726820857617,0.0005322088909071,-0.0070343017578125,-0.0209062695503234,-0.0130529403686523,0,0,0,0
1.8,1788343519162,0.0,0.0,-0.0052454071119427,0.0008738255128264,-0.4063779711723327,0.9136895537376404,-9.430229406543596e-05,0.0001097279795673,-5.5904543861897275e-09,-0.0005956919048912,-0.0020591360516846,-0.0011016817297786,-0.0034883944317698,-0.0040016276761889,0.5641926527023315,0.8256260752677917,0.0006663633728196,-0.0001726820857617,0.0005322088909071,-0.0070343017578125,-0.0209062695503234,-0.0130529403686523,0,0,0,0
1.9,1788343519262,0.0,0.0,-0.0052454071119427,0.0008738255128264,-0.4063779711723327,0.9136895537376404,-9.430229406543596e-05,0.0001097279795673,-5.5904543861897275e-09,-0.0005956919048912,-0.0020591360516846,-0.0011016817297786,-0.0034883944317698,-0.0040016276761889,0.5641926527023315,0.8256260752677917,0.0006663633728196,-0.0001726820857617,0.0005322088909071,-0.0070343017578125,-0.0209062695503234,-0.0130529403686523,0,0,0,0
2.0,1788343519362,0.0,0.0,-0.0052454071119427,0.0008738255128264,-0.4063779711723327,0.9136895537376404,-9.430229406543596e-05,0.0001097279795673,-5.5904543861897275e-09,-0.0005956919048912,-0.0020591360516846,-0.0011016817297786,-0.0034883944317698,-0.0040016276761889,0.5641926527023315,0.8256260752677917,0.0006663633728196,-0.0001726820857617,0.0005322088909071,-0.0070343017578125,-0.0209062695503234,-0.0130529403686523,0,0,0,0
2.1,1788343519462,0.0,0.0,-0.0052454071119427,0.0008738255128264,-0.4063779711723327,0.9136895537376404,-9.430229406543596e-05,0.0001097279795673,-5.5904543861897275e-09,-0.0005956919048912,-0.0020591360516846,-0.0011016817297786,-0.0034883944317698,-0.0040016276761889,0.5641926527023315,0.8256260752677917,0.0006663633728196,-0.0001726820857617,0.0005322088909071,-0.0070343017578125,-0.0209062695503234,-0.0130529403686523,0,0,0,0
2.2,1788343519562,0.0,0.0,-0.0052454071119427,0.0008738255128264,-0.4063779711723327,0.9136895537376404,-9.430229406543596e-05,0.0001097279795673,-5.5904543861897275e-09,-0.0005956919048912,-0.0020591360516846,-0.0011016817297786,-0.0034883944317698,-0.0040016276761889,0.5641926527023315,0.8256260752677917,0.0006663633728196,-0.0001726820857617,0.0005322088909071,-0.0070343017578125,-0.0209062695503234,-0.0130529403686523,0,0,0,0
2.3,1788343519662,0.0,0.0,-0.0052454071119427,0.0008738255128264,-0.4063779711723327,0.9136895537376404,-9.430229406543596e-05,0.0001097279795673,-5.5904543861897275e-09,-0.0005956919048912,-0.0020591360516846,-0.0011016817297786,-0.0034883944317698,-0.0040016276761889,0.5641926527023315,0.8256260752677917,0.0006663633728196,-0.0001726820857617,0.0005322088909071,-0.0070343017578125,-0.0209062695503234,-0.0130529403686523,0,0,0,0
2.4,1788343519762,0.0,0.0,-0.0052454071119427,0.0008738255128264,-0.4063779711723327,0.9136895537376404,-9.430229406543596e-05,0.0001097279795673,-5.5904543861897275e-09,-0.0005956919048912,-0.0020591360516846,-0.0011016817297786,-0.0034883944317698,-0.0040016276761889,0.5641926527023315,0.8256260752677917,0.0006663633728196,-0.0001726820857617,0.0005322088909071,-0.0070343017578125,-0.0209062695503234,-0.0130529403686523,0,0,0,0
2.5,1788343519862,0.0,0.0,-0.0052454071119427,0.0008738255128264,-0.4063779711723327,0.9136895537376404,-9.430229406543596e-05,0.0001097279795673,-5.5904543861897275e-09,-0.0005956919048912,-0.0020591360516846,-0.0011016817297786,-0.0034883944317698,-0.0040016276761889,0.5641926527023315,0.8256260752677917,0.0006663633728196,-0.0001726820857617,0.0005322088909071,-0.0070343017578125,-0.0209062695503234,-0.0130529403686523,0,0,0,0
2.6,1788343519962,0.0,0.0,-0.0052454071119427,0.0008738255128264,-0.4063779711723327,0.9136895537376404,-9.430229406543596e-05,0.0001097279795673,-5.5904543861897275e-09,-0.0005956919048912,-0.0020591360516846,-0.0011016817297786,-0.0034883944317698,-0.0040016276761889,0.5641926527023315,0.8256260752677917,0.0006663633728196,-0.0001726820857617,0.0005322088909071,-0.0070343017578125,-0.0209062695503234,-0.0130529403686523,0,0,0,0
2.7,1788343520062,0.0,0.0,-0.0052454071119427,0.0008738255128264,-0.4063779711723327,0.9136895537376404,-9.430229406543596e-05,0.0001097279795673,-5.5904543861897275e-09,-0.0005956919048912,-0.0020591360516846,-0.0011016817297786,-0.0034883944317698,-0.0040016276761889,0.5641926527023315,0.8256260752677917,0.0006663633728196,-0.0001726820857617,0.0005322088909071,-0.0070343017578125,-0.0209062695503234,-0.0130529403686523,0,0,0,0
2.8,1788343520162,0.0,0.0,-0.0052454071119427,0.0008738255128264,-0.4063779711723327,0.9136895537376404,-9.430229406543596e-05,0.0001097279795673,-5.5904543861897275e-09,-0.0005956919048912,-0.0020591360516846,-0.0011016817297786,-0.0034883944317698,-0.0040016276761889,0.5641926527023315,0.8256260752677917,0.0006663633728196,-0.0001726820857617,0.0005322088909071,-0.0070343017578125,-0.0209062695503234,-0.0130529403686523,0,0,0,0
2.9,1788343520262,0.0,0.0,-0.0052454071119427,0.0008738255128264,-0.4063779711723327,0.9136895537376404,-9.430229406543596e-05,0.0001097279795673,-5.5904543861897275e-09,-0.0005956919048912,-0.0020591360516846,-0.0011016817297786,-0.0034883944317698,-0.0040016276761889,0.5641926527023315,0.8256260752677917,0.0006663633728196,-0.0001726820857617,0.0005322088909071,-0.0070343017578125,-0.0209062695503234,-0.0130529403686523,0,0,0,0
3.0,1788343520362,0.0,0.0,-0.0052454071119427,0.0008738255128264,-0.4063779711723327,0.9136895537376404,-9.430229406543596e-05,0.0001097279795673,-5.5904543861897275e-09,-0.0005956919048912,-0.0020591360516846,-0.0011016817297786,-0.0034883944317698,-0.0040016276761889,0.5641926527023315,0.8256260752677917,0.0006663633728196,-0.0001726820857617,0.0005322088909071,-0.0070343017578125,-0.0209062695503234,-0.0130529403686523,0,0,0,0
3.1,1788343520462,0.0,0.0,-0.0052454071119427,0.0008738255128264,-0.4063779711723327,0.9136895537376404,-9.430229406543596e-05,0.0001097279795673,-5.5904543861897275e-09,-0.0005956919048912,-0.0020591360516846,-0.0011016817297786,-0.0034883944317698,-0.0040016276761889,0.5641926527023315,0.8256260752677917,0.0006663633728196,-0.0001726820857617,0.0005322088909071,-0.0070343017578125,-0.0209062695503234,-0.0130529403686523,0,0,0,0
3.2,1788343520562,0.0,0.0,-0.0052454071119427,0.0008738255128264,-0.4063779711723327,0.9136895537376404,-9.430229406543596e-05,0.0001097279795673,-5.5904543861897275e-09,-0.0005956919048912,-0.0020591360516846,-0.0011016817297786,-0.0034883944317698,-0.0040016276761889,0.5641926527023315,0.8256260752677917,0.0006663633728196,-0.0001726820857617,0.0005322088909071,-0.0070343017578125,-0.0209062695503234,-0.0130529403686523,0,0,0,0
3.3,1788343520662,0.0,0.0,-0.0052454071119427,0.0008738255128264,-0.4063779711723327,0.9136895537376404,-9.430229406543596e-05,0.0001097279795673,-5.5904543861897275e-09,-0.0005956919048912,-0.0020591360516846,-0.0011016817297786,-0.0034883944317698,-0.0040016276761889,0.5641926527023315,0.8256260752677917,0.0006663633728196,-0.0001726820857617,0.0005322088909071,-0.0070343017578125,-0.0209062695503234,-0.0130529403686523,0,0,0,0
3.4,1788343520762,0.0,0.0,-0.0052390401251614,0.0008739782497286,-0.4063723087310791,0.913692057132721,1.791498529231441e-05,-2.082706124699652e-05,-1.4458628334323732e-08,0.0001916567562147,8.961897401604801e-05,0.0002061174454865,-0.0035301307216286,-0.0039944984018802,0.5641637444496155,0.8256457448005676,-0.0015418920132853,0.002012354359069,-0.0015000105185222,-0.0046461224555969,0.0066606998443603,-0.0183296203613281,0,0,0,0
3.5,1788343520862,0.0,0.0,-0.0052155531011521,0.0009628920815885,-0.4063937664031982,0.9136825799942015,3.6785793312740526e-05,-4.256772589130481e-05,-4.754338646221777e-09,0.0007313169771805,0.002168383449316,0.0004429451946634,-0.0035721696913242,-0.0039035966619849,0.5641813278198242,0.8256340026855469,-0.0005749086374291,0.0014253843374638,-0.0001785031823775,-0.0224863290786743,0.0080042481422424,0.0157690048217773,0,0,0,0
3.6,1788343520962,0.0,0.0,-0.0052358875982463,0.0008940557017922,-0.4063947796821594,0.9136821627616882,-6.111886013230405e-05,7.107042569286656e-05,-1.7497644162253271e-09,0.0005152520607225,-0.0023120094556361,-0.0007248949841596,-0.0034964121878147,-0.0039994027465581,0.564179003238678,0.8256353735923767,0.0006619873209176,-0.0037357895972416,0.0005117216932425,-0.0123116970062255,-0.0173394083976745,0.024667739868164,0,0,0,0
3.7,1788343521062,0.0,0.0,-0.0052398452535271,0.0009138137102127,-0.4063793420791626,0.9136889576911926,9.310755622795072e-05,-0.0001082873212953,7.778368583659502e-09,-0.0007416249718517,0.0010436286684125,0.0010838265297934,-0.0035562310367822,-0.0039976947009563,0.5641757249832153,0.8256374597549438,-0.0021801212497207,1.522908376533467e-05,-0.000722426582806,-0.0277439355850219,-0.0594002604484558,0.0029277801513671,0,0,0,0
3.8,1788343521162,0.0,0.0,-0.0052710529416799,0.0008788178674876,-0.4063932299613952,0.9136826395988464,0.0,0.0,0.0,0.0,0.0,0.0,-0.0034916307777166,-0.0040169470012187,0.5641626119613647,0.8256465792655945,0.0001229606916585,0.0006805301671907,-0.0010023684127362,-0.0215407013893127,-0.0026382207870483,-0.0255813598632812,0,0,0,0
3.9,1788343521262,0.0,0.0,-0.0052604144439101,0.0008807389531284,-0.4063974022865295,0.9136808514595032,3.645920749668023e-05,-4.2413169924856936e-05,1.796483869478754e-08,-0.0003446915652602,0.0004282769223209,0.0004213884240016,-0.0034683477133512,-0.004054962657392,0.564177930355072,0.8256359696388245,0.0003080018145481,-0.0029886014291684,0.0001583438996234,-0.0278030633926391,0.0081587433815002,-0.0183572769165039,0,0,0,0
4.0,1788343521362,0.0,0.0,-0.0052721784450113,0.000822368892841,-0.4063869118690491,0.9136855006217957,0.0,0.0,0.0,0.0,0.0,0.0,-0.0035241330042481,-0.0040567880496382,0.5641378164291382,0.825663149356842,-0.0004053573089095,0.0021439256706273,-0.0005301664313095,-0.0272338986396789,0.0054201483726501,0.0013980865478515,0,0,0,0
4.1,1788343521462,0.0,0.0,-0.0053680245764553,0.0008402675157412,-0.4064440429210663,0.9136594533920288,-0.0002176311327403,0.0002527594055258,1.0919916536823536e-08,-0.0037914915010333,-0.0008895599166862,-0.0025065790396183,-0.0035476731136441,-0.0041262879967689,0.564113199710846,0.8256795406341553,-0.0005795953455588,0.0021533591576115,-0.0001693919816662,-0.0263391137123107,-0.0294799208641052,0.0354032516479492,0,0,0,0
4.2,1788343521562,0.0,0.0,-0.0053490493446588,0.0009053703397512,-0.4064409434795379,0.9136609435081482,0.0,0.0,0.0,0.0,-1.1601029470398316e-08,0.0,-0.0035572759807109,-0.0041350461542606,0.5641130208969116,0.8256795406341553,-0.0003944600238009,-0.0029752028755411,-0.0016172700464083,0.002402126789093,-0.0004024505615234,0.014012336730957,0,0,0,0
4.3,1788343521662,0.0,0.0,-0.0053782281465828,0.0008552186191082,-0.4064572155475616,0.913653552532196,-6.133873082019725e-05,7.142217545156496e-05,1.804203549876614e-08,-0.0002530985511839,-0.0023132744245231,-0.0007302635349333,-0.0035775704309344,-0.0041187172755599,0.5641283392906189,0.8256690502166748,0.0003011558875753,1.7501065105025426e-05,0.0015702978192902,-0.013228952884674,0.0196003317832946,-0.0092735290527343,0,0,0,0
4.4,1788343521762,0.0,0.0,-0.0053852931596338,0.0008306062081828,-0.4064587652683258,0.9136528968811036,-5.5225232408974455e-06,6.165970729711552e-06,6.915620734091367e-09,0.0001399312168359,-0.0010000673355534,-7.289517088793218e-05,-0.0035529248416423,-0.004129352979362,0.5640982389450073,0.8256896734237671,0.000718462634849,0.0015558819159363,0.0009699184931619,-0.0190949440002441,-0.0310890674591064,0.0210609436035156,0,0,0,0
4.5,1788343521862,0.0,0.0,-0.0053738881833851,0.0008585694013163,-0.4064653515815735,0.9136499762535096,7.057595328845669e-05,-8.192526310000855e-05,6.1056627085834045e-09,0.0005152728990651,0.000548196490854,0.0008188717183656,-0.0035505201667547,-0.0041490392759442,0.5640987753868103,0.8256892561912537,-0.0010091089969192,-0.0030193701934616,-0.0007888191212513,-0.0049946308135986,0.010606825351715,-0.030837059020996,0,0,0,0
4.6,1788343521962,0.0,0.0,-0.0053994879126548,0.0008511003106832,-0.4064915478229522,0.913638174533844,-9.309411406633124e-05,0.0001081514491417,-2.8810795601269524e-08,-0.0006976372096687,-0.0013533538440242,-0.0010832453845068,-0.0035577025264501,-0.0041039194911718,0.5640929937362671,0.8256933689117432,0.0008429516161701,0.0005644934106261,-0.0012475516510058,-0.0168098211288452,0.018996238708496,0.0212688446044921,0,0,0,0
4.7,1788343522062,0.0,0.0,-0.0053826863877475,0.0008285297080874,-0.4065098762512207,0.913630187511444,-7.45638881097416e-05,8.659198875855927e-05,-3.0605236242182233e-09,0.0009048377396538,-0.001566857448779,-0.0008780556963756,-0.0035235192626714,-0.0041334480047225,0.5640737414360046,0.8257066607475281,0.0015424110935824,0.0005560903782615,0.0008969502720757,0.0003231763839721,-0.0170912146568298,0.0049943923950195,0,0,0,0
4.8,1788343522162,0.0,0.0,-0.0054263239726424,0.0007913176668807,-0.4065008163452148,0.9136340022087096,4.189637476479487e-06,-4.956983261102581e-06,9.170428799817372e-09,-0.0015058239223435,-0.0022498597390949,2.6890935259871185e-05,-0.0035252999514341,-0.0042103845626115,0.5640735030174255,0.8257063627243042,-0.0009395297641072,-0.002451589025503,-0.0001926495806785,-0.0224406719207763,-0.0395395159721374,-0.0004968643188476,0,0,0,0
4.9,1788343522262,0.0,0.0,-0.0054009389132261,0.0007988533470779,-0.4064828753471374,0.9136421084403992,5.1237313241349496e-05,-5.9454802846325936e-05,2.5827462826764864e-08,-0.0005010001477785,0.0001946374686667,0.0005972639773972,-0.0035116244107484,-0.0041697630658745,0.5641002058982849,0.825688362121582,0.0004800624062496,-0.0015667359013345,0.0008858283219985,-0.0200761556625366,-0.0005784630775451,-0.0308837890625,0,0,0,0
5.0,1788343522362,0.0,0.0,-0.0053455410525202,0.0007906848331913,-0.4064724147319793,0.9136471152305604,3.392529245492002e-05,-3.938200755605352e-05,-1.1737142457573018e-08,0.0013868195237591,0.0002813918108586,0.0003950856043957,-0.0034976005554199,-0.0040907384827733,0.5641180872917175,0.8256765604019165,0.0006560589415269,0.0030398004354661,0.0014378100190156,-0.0099668502807617,-0.026878535747528,-0.0184144973754882,0,0,0,0
5.1,1788343522462,0.0,0.0,-0.0053262691944837,0.0008563281735405,-0.4064865112304687,0.9136408567428588,-6.279481082176361e-05,7.275186025159451e-05,1.7625171103284056e-09,-0.0008417894132435,0.0001247974287252,-0.0007159727392718,-0.0034930882975459,-0.0041341464966535,0.5640758872032166,0.8257051706314087,0.0005172571225239,-0.0035752345709319,-0.0007829865000316,-0.0322810411453247,0.012998878955841,-0.0075063705444335,0,0,0,0
5.2,1788343522562,0.0,0.0,-0.0053754616528749,0.0008080407278612,-0.4064995348453522,0.9136347770690918,2.0306285608402453e-05,-2.3487350996082975e-05,-9.740905560028953e-09,-0.000223915776587,0.0013049093540757,0.0002452727931085,-0.003533199429512,-0.0041041234508156,0.5640690922737122,0.8257097601890564,0.0004834754191945,0.0034095418125727,-0.000520896817779,-0.0349156856536865,-0.0171927213668823,-0.0130262374877929,0,0,0,0
5.3,1788343522662,0.0,0.0,-0.0053480709902942,0.0008517460664734,-0.4065069854259491,0.9136316180229188,-2.3021848874505355e-05,2.6808751316993064e-05,-7.656449510258383e-09,0.0002303754881722,0.0016243995632976,-0.0002491232007741,-0.0035022962838411,-0.0041229669004678,0.5640699863433838,0.825709342956543,-0.001035521965245,-0.0031907219953086,-0.0021003203155996,-0.0230041146278381,-0.0031856298446655,0.0050029754638671,0,0,0,0
5.4,1788343522762,0.0,0.0,-0.0053504682146012,0.0007974179461598,-0.4065174758434295,0.9136269688606262,-9.989367809529769e-05,0.0001161395909425,5.0036857927785e-10,-0.0001075620530173,-0.0017550307093188,-0.0011706902878358,-0.0035218754783272,-0.0040692156180739,0.5640729665756226,0.8257073760032654,0.0006391444995175,0.0019999071301982,0.0005907205114864,-0.0093275904655456,0.0091036558151245,0.0068521499633789,0,0,0,0
5.5,1788343522862,0.0,0.0,-0.0052959686145186,0.000876854523085,-0.4065022468566894,0.9136340618133544,4.8708280477604834e-05,-5.633622223304747e-05,-1.607177005418746e-08,0.001152851502411,0.0014211439993232,0.0005744727095589,-0.0035214470699429,-0.0041116802021861,0.5640882849693298,0.8256968259811401,-0.0016642746964135,-0.0021657344344174,0.0001895990312391,-0.035199761390686,-0.0318758487701416,0.0407848358154296,0,0,0,0
5.6,1788343522962,0.0,0.0,-0.0052959686145186,0.000876854523085,-0.4065022468566894,0.9136340618133544,4.8708280477604834e-05,-5.633622223304747e-05,-1.607177005418746e-08,0.001152851502411,0.0014211439993232,0.0005744727095589,-0.003502607345581,-0.0040969774127006,0.5640986561775208,0.8256898522377014,0.0003021896017885,0.0004404740350836,0.0003575701434878,-0.0225553512573242,-0.0268558263778686,0.0156669616699218,0,0,0,0
5.7,1788343523062,0.0,0.0,-0.0052959686145186,0.000876854523085,-0.4065022468566894,0.9136340618133544,4.8708280477604834e-05,-5.633622223304747e-05,-1.607177005418746e-08,0.001152851502411,0.0014211439993232,0.0005744727095589,-0.0035901786759495,-0.0040124850347638,0.5640822649002075,0.8257010579109192,-0.0008490233002364,0.0020839602484833,9.887138598002894e-06,-0.0237911343574523,-0.0281559228897094,0.01385498046875,0,0,0,0
5.8,1788343523162,0.0,0.0,-0.0052910423837602,0.0009317677468061,-0.4065283536911011,0.9136223793029784,-0.0001034229941176,0.0001202305206109,-2.5965935421142675e-08,0.0004501247021835,-0.0003420275170356,-0.0011917822994291,-0.0035901786759495,-0.0040124850347638,0.5640822649002075,0.8257010579109192,-0.0008490233002364,0.0020839602484833,9.887138598002894e-06,-0.0237911343574523,-0.0281559228897094,0.01385498046875,0,0,0,0
5.9,1788343523262,0.0,0.0,-0.0053059207275509,0.0009927980136126,-0.4065227508544922,0.9136247038841248,-6.725970356507028e-06,7.666231509358771e-06,-1.4816354715232361e-08,-0.001926329685375,0.000897348683793,-6.791763007640839e-05,-0.0036311065778136,-0.00399418361485,0.5640547871589661,0.8257196545600891,-0.0021984640435364,0.0010307562041791,-0.0001853180545852,-0.0122386813163757,-0.0294330120086669,0.0012826919555664,0,0,0,0
6.0,1788343523362,0.0,0.0,-0.0053355633281171,0.0009505967609584,-0.406536728143692,0.9136183857917786,-3.50409783959762e-05,4.0761466028077895e-05,1.6425257972718726e-08,0.0008336286409758,-0.0009157799649983,-0.000414129870478,-0.0036096209660172,-0.0040036495774984,0.5640444159507751,0.8257268071174622,0.0012910327291745,0.0010505787419116,0.0005992015958233,-0.0162391662597656,-0.0261456370353698,0.0192461013793945,0,0,0,0
6.1,1788343523462,0.0,0.0,-0.0052841175347566,0.0009908776264637,-0.4065383970737457,0.9136178493499756,-1.2177557916256995e-05,1.4355498439943129e-05,2.5073795329496502e-09,0.0009831971256062,0.001698451465927,-0.0001234144874615,-0.0036265468224883,-0.004009049385786,0.5640832781791687,0.8257001638412476,-0.0002351203413859,-0.0031578821724954,0.0016000403299292,1.5020370483398438e-05,-0.0132880806922912,0.0336923599243164,0,0,0,0
6.2,1788343523562,0.0,0.0,-0.0053161769174039,0.0009811107302084,-0.4064911603927612,0.9136387705802916,8.553386200057138e-05,-9.927079061507756e-05,-1.5577511925802503e-08,-0.0001413242425769,-0.0018987595103681,0.0009608597611077,-0.0035990653559565,-0.0040245726704597,0.5640715956687927,0.8257082104682922,0.0006959978940345,-0.0014124490447338,-0.0007183640157589,-0.0112680196762084,-0.0116090178489685,-0.0058269500732421,0,0,0,0
6.3,1788343523662,0.0,0.0,-0.0052844281308352,0.0009835236705839,-0.4065443277359009,0.9136152267456056,-0.0001690861112159,0.0001963430680604,8.580547851624022e-10,0.0009344604914076,0.0005153499660082,-0.0019427490187808,-0.0036588888615369,-0.0039926804602146,0.5640159249305725,0.8257461786270142,-0.0012653075153394,-0.0014178873911713,-0.0013143436473,-0.0280824899673461,-0.0505943298339843,0.0191478729248046,0,0,0,0
6.4,1788343523762,0.0,0.0,-0.005312000401318,0.000999990850687,-0.4065674245357513,0.9136047959327698,-0.0001515247449159,0.0001759526441794,-1.5401450591773727e-08,-0.001056722830981,-0.0023560575209558,-0.0017680401215329,-0.0036573326215147,-0.0039930827915668,0.5640048384666443,0.8257536888122559,-0.0006320937359131,0.0005863869520469,-0.0005814262277554,-0.0280426740646362,-0.0108976960182189,-0.0309829711914062,0,0,0,0
6.5,1788343523862,0.0,0.0,-0.005289630498737,0.0010532126761972,-0.4066082835197449,0.913586676120758,-6.0485685252338814e-05,7.029895636864472e-05,-7.3154958479794945e-09,0.0003154148871544,0.0016500052297487,-0.0006755401263944,-0.0036573326215147,-0.0039930827915668,0.5640048384666443,0.8257536888122559,-0.0006320937359131,0.0005863869520469,-0.0005814262277554,-0.0280426740646362,-0.0108976960182189,-0.0309829711914062,0,0,0,0
6.6,1788343523962,0.0,0.0,-0.0052968775853514,0.0010315963299944,-0.4066123962402344,0.9135848879814148,-2.536371343421507e-05,2.9511474942994674e-05,-3.1015177580434573e-10,0.0001436937454855,-0.0015056781703606,-0.0003048065409529,-0.0036301780492067,-0.0040023429319262,0.5639718174934387,0.8257763385772705,0.000122624145629,-0.0015468214926572,-9.245987888271676e-05,-0.0231402516365051,0.0084314346313476,-0.007542610168457,0,0,0,0
6.7,1788343524062,0.0,0.0,-0.0053182570263743,0.0010423655621707,-0.4066475033760071,0.9135690331459044,1.2597848963992984e-05,-1.456206881450598e-05,1.5310721492250067e-09,0.0008317740284837,0.0001548499712953,0.0001444856025045,-0.0036494387313723,-0.0040150061249732,0.5639354586601257,0.8258010745048523,0.0007255832505907,-0.0025027727789161,-0.0004067274584821,-0.0159398317337036,0.0071291923522949,-0.0183067321777343,0,0,0,0
6.8,1788343524162,0.0,0.0,-0.0053332662209868,0.0009974656859412,-0.4066547751426697,0.913565754890442,-2.7031693251760443e-05,3.158669963860576e-05,-1.1590037321144188e-08,0.0001818999444367,-0.0018876136746257,-0.0003297856019344,-0.0036494387313723,-0.0040150061249732,0.5639354586601257,0.8258010745048523,0.0007255832505907,-0.0025027727789161,-0.0004067274584821,-0.0159398317337036,0.0071291923522949,-0.0183067321777343,0,0,0,0
6.9,1788343524262,0.0,0.0,-0.0052853799425065,0.0010007466189563,-0.4066478013992309,0.913569152355194,1.3626210659334758e-06,-1.7112957517545443e-06,-2.122556493980344e-08,0.000345497042872,-0.001504817744717,4.315727437642636e-06,-0.0036008274182677,-0.003942659124732,0.5639182925224304,0.8258132934570312,0.0011748457316574,0.0016330166399852,0.001081221409034,-0.0242995619773864,0.0036846995353698,-0.0057497024536132,0,0,0,0
7.0,1788343524362,0.0,0.0,-0.0052372822538018,0.001061268732883,-0.4066975712776184,0.9135473370552064,-2.7002221980342023e-05,3.154637169335018e-05,4.911982798884415e-09,-4.668611290981062e-05,0.0026942319236695,-0.0002819522924255,-0.0036866841837763,-0.0038731563836336,0.5638782978057861,0.8258406519889832,-0.0011093261357652,0.0012888217419572,-0.0008885694410668,-0.0168021917343139,0.0061853528022766,-0.0272846221923828,0,0,0,0
7.1,1788343524462,0.0,0.0,-0.0052608409896492,0.0010505968239158,-0.4067114889621734,0.9135408997535706,1.3307209541890283e-05,-1.560429703954356e-05,-6.0007711792548604e-09,-0.0004457901231944,-0.0022977914195507,0.0001291540684178,-0.0036418987438082,-0.0039163073524832,0.5638672709465027,0.8258481025695801,0.0006512075102915,0.0037737555666198,-0.0008723421196166,-0.0251772999763488,-0.0030269622802734,-0.0327110290527343,0,0,0,0
7.2,1788343524562,0.0,0.0,-0.0052181901410222,0.0010927281109616,-0.4067278504371643,0.9135338068008424,-5.5963768970479793e-05,6.491175984501314e-05,-1.6429876739756157e-08,0.0006532450788654,0.0045488220639526,-0.0005913350032642,-0.0036799134686589,-0.0038473615422844,0.5638878345489502,0.8258342742919922,0.0002996431469557,0.0031201440762356,0.0010042356036337,-0.0057050585746765,-0.0086689591407775,-0.0057687759399414,0,0,0,0
7.3,1788343524662,0.0,0.0,-0.0052537526935338,0.0010816366411745,-0.4067050516605377,0.9135438203811646,-2.8756283690953352e-05,3.3233331472310705e-05,-4.6328755809322015e-09,-0.0007883255602791,-0.0014134743250906,-0.0003450572548899,-0.0036793192848563,-0.0039031347259879,0.5638898015022278,0.8258325457572937,-0.0016464473944098,-0.0029522213385902,-0.0007206338507021,0.0023403763771057,-0.0027458071708679,0.0122327804565429,0,0,0,0
7.4,1788343524762,-0.3943662047386169,2.08450698852539,-0.005276605952531,0.0010419093305245,-0.4067262411117553,0.9135342240333556,-0.0001334072935814,0.0001549243421046,3.808408239601954e-09,-0.0003167252871207,-0.0030331721063703,-0.0015667187981307,-0.0037732878699898,-0.0039607137441635,0.5734897255897522,0.8191945552825928,-0.0003382719620004,-0.0082109709689798,0.4268141038345978,0.8756575584411621,0.8146337270736694,-0.1286458969116211,68,342,-2078,13406
7.5,1788343524862,1.6338027715682983,4.619718074798584,-0.0054766545072197,0.0011122890282422,-0.3790487051010132,0.925359845161438,0.0748740064918675,-0.002302560604662,5.7522992098626e-06,0.0008735730079934,-0.0082986168563365,0.594306230545044,-0.0039723021909594,-0.0040276488289237,0.5853591561317444,0.8107544183731079,-0.0075158832632909,-0.0006528789741295,0.5869247526754391,0.7434132695198059,-0.3171480298042297,0.0912275314331054,68,342,-2078,13406
7.6,1788343524962,3.3521127700805664,6.816901206970215,-0.0057936771772801,-0.0013064314844086,-0.3592354655265808,0.933228075504303,0.1467207120369089,-0.0030245863359937,0.000121287633428,0.0125572374090552,-0.0690568685531616,0.3967448770999908,-0.0012732362374663,-0.0062609110027551,0.6084280014038086,0.793583333492279,0.0142488543165507,-0.1105163345395244,0.4556615062401482,0.616803765296936,0.1673740148544311,0.0735435485839843,81,332,11069,24949
7.7,1788343525062,3.690140962600708,6.676056385040283,-0.0063299690373241,-0.0041148755699396,-0.349242240190506,0.9370020627975464,0.1878171389155512,-0.0077072660636136,0.0003257289297792,0.0236230157315731,-0.1246318891644477,0.4637436270713806,0.0062431395053863,-0.0146828545257449,0.6258481740951538,0.779781699180603,0.0089783307296126,-0.2613318530473547,0.3843668778333532,0.0061591863632202,0.3218985199928283,0.3149633407592773,39,275,9477,22937
7.8,1788343525162,3.2957746982574463,6.676056385040283,-0.0076995640993118,-0.0085001662373542,-0.3418520987033844,0.9396837949752808,0.1880023327589203,-0.0146136801244239,0.0005036742818044,0.013962835073471,-0.2183746248483657,0.3702811896800995,0.0095506971701979,-0.0185576993972063,0.639683187007904,0.7683551907539368,0.0181089269764197,-0.0730798466760413,0.461957589072812,0.1563206911087036,-0.1985780000686645,-0.0927581787109375,49,203,10844,22099
7.9,1788343525262,3.2957746982574463,6.676056385040283,-0.0076995640993118,-0.0085001662373542,-0.3418520987033844,0.9396837949752808,0.1880023327589203,-0.0146136801244239,0.0005036742818044,0.013962835073471,-0.2183746248483657,0.3702811896800995,0.000333635136485,-0.0070659583434462,0.6573918461799622,0.7535156607627869,0.0077975583214201,0.3966889036730489,0.2701139434828368,-0.5226312875747681,0.4087116718292236,-0.3865261077880859,49,203,10844,22099
8.0,1788343525362,0.8732394576072693,1.887323975563049,-0.0076995640993118,-0.0085001662373542,-0.3418520987033844,0.9396837949752808,0.1880023327589203,-0.0146136801244239,0.0005036742818044,0.013962835073471,-0.2183746248483657,0.3702811896800995,-0.0034895120188593,-0.003141569904983,0.6637606620788574,0.7479303479194641,-0.0079160717222666,-0.0217099073593643,0.2194196406310505,1.1204814910888672,1.8499313592910769,-1.3492956161499023,12,111,3506,10281
8.1,1788343525462,0.0,0.0,-0.0045027057640254,0.0014737355522811,-0.285921037197113,0.9582415223121644,0.0003931463908858,-0.0003275753048274,-9.896337919105169e-07,0.0005577522097155,-0.0049523413181304,0.0157528668642044,-0.0035647647455334,-0.0030776662752032,0.6656249165534973,0.7462716698646545,-0.0005516475942149,0.0034951688354054,0.101358378006736,-1.268578290939331,-0.709398627281189,0.5000228881835938,0,0,0,0
8.2,1788343525562,0.0,0.0,-0.004532678052783,0.0013001492479816,-0.2855403423309326,0.9583550691604614,-0.0001896995396746,0.0002205691638613,-5.077974595568211e-09,0.0009676420595496,0.0006798683898523,-0.0021712479647248,-0.0035647647455334,-0.0030776662752032,0.6656249165534973,0.7462716698646545,-0.0005516475942149,0.0034951688354054,0.101358378006736,-1.268578290939331,-0.709398627281189,0.5000228881835938,0,0,0,0
8.3,1788343525662,0.0,0.0,-0.0045976089313626,0.0011760984780266,-0.285534143447876,0.95835679769516,1.99444395710718e-05,-2.3125394721667244e-05,7.084368517957465e-10,-0.0009075167472474,-0.0046535851433873,0.0001917052286444,-0.0035647647455334,-0.0030776662752032,0.6656249165534973,0.7462716698646545,-0.0005516475942149,0.0034951688354054,0.101358378006736,-1.268578290939331,-0.709398627281189,0.5000228881835938,0,0,0,0
8.4,1788343525762,0.0,0.0,-0.0045976089313626,0.0011760984780266,-0.285534143447876,0.95835679769516,1.99444395710718e-05,-2.3125394721667244e-05,7.084368517957465e-10,-0.0009075167472474,-0.0046535851433873,0.0001917052286444,-0.0035647647455334,-0.0030776662752032,0.6656249165534973,0.7462716698646545,-0.0005516475942149,0.0034951688354054,0.101358378006736,-1.268578290939331,-0.709398627281189,0.5000228881835938,0,0,0,0
8.5,1788343525862,0.0,0.0,-0.004614807665348,0.0010358485160395,-0.2855660021305084,0.9583473801612854,0.0,0.0,0.0,0.0,5.261707514137015e-09,0.0,-0.0035647647455334,-0.0030776662752032,0.6656249165534973,0.7462716698646545,-0.0005516475942149,0.0034951688354054,0.101358378006736,-1.268578290939331,-0.709398627281189,0.5000228881835938,0,0,0,0
8.6,1788343525962,0.0,0.0,-0.004614807665348,0.0010358485160395,-0.2855660021305084,0.9583473801612854,0.0,0.0,0.0,0.0,5.261707514137015e-09,0.0,-0.0032996321097016,-0.0033929636701941,0.6656030416488647,0.7462909817695618,-3.192926095044359e-05,-0.0035864309273711,-0.0004185306822821,-0.0152313113212585,0.0397356748580932,0.066380500793457,0,0,0,0
8.7,1788343526062,0.0,0.0,-0.0046035679988563,0.0010849591344594,-0.285581886768341,0.958342671394348,-3.5484630449150826e-05,4.1138497768593486e-05,-2.4985637434156043e-09,-0.0004348497604951,0.0009947182843461,-0.0003960960602853,-0.003345463424921,-0.0033510383218526,0.6655941009521484,0.7462989091873169,-0.0001375711359483,-0.0011721616366303,-0.000186257891629,-0.0140049457550048,0.0183560252189636,0.0537233352661132,0,0,0,0
8.8,1788343526162,0.0,0.0,-0.0046086153015494,0.0010873117716982,-0.2855890989303589,0.9583405256271362,-2.6057295621498084e-05,3.0026711986567905e-05,-5.373535477065038e-10,-0.0002207171055488,3.4005435736617073e-05,-0.0003008033381775,-0.0034226896241307,-0.0033602761104702,0.6657720804214478,0.7461397647857666,-0.001755540075979,0.0001745716790052,0.0171244805811552,-0.0705548524856567,0.1651822328567505,0.030888557434082,0,0,0,0
8.9,1788343526262,-1.2676056623458862,0.9577465057373048,-0.0045813783071935,0.0009846887551248,-0.2822906672954559,0.9593174457550048,-0.0006095615785107,-0.0018459366887571,1.676714039306564e-08,0.0029503570403903,-0.0046566859818995,0.1089926585555076,-0.003186241723597,-0.003386341035366,0.6686884164810181,0.7435283064842224,0.0079755914051906,-0.0098338912523231,0.1961121341981831,-0.5296749472618103,0.3710474967956543,-0.1215705871582031,186,242,-6856,7552
9.0,1788343526362,-1.042253494262695,1.0985915660858154,-0.0046065053902566,0.0003626509569585,-0.2718064785003662,0.9623408317565918,-0.0056617826767817,0.0020549118909952,-1.2185467768131717e-07,0.0023635670077055,-0.0132762510329484,0.2775405645370483,-0.0024581523612141,-0.0039222259074449,0.6873862743377686,0.7262772917747498,-0.0013114131942739,-0.0022357040351637,0.3215947686935408,-0.0456942319869995,0.0351561307907104,0.0376052856445312,236,312,-8422,10545
9.1,1788343526462,-1.0985915660858154,1.2957746982574463,-0.0046259094960987,-2.652290277183056e-06,-0.2547794282436371,0.9669880867004396,0.0037492271186769,7.479063370023388e-05,1.6423186482245056e-07,-0.0004603560373652,-0.0038421764038503,0.3286789059638977,-0.0025239642709493,-0.0037354081869125,0.6961038708686829,0.7179269194602966,0.0047471026090054,0.007673366661283,0.3471762313343447,-0.0381266474723815,-0.002204954624176,0.5116176605224609,202,268,-8484,9984
9.2,1788343526562,-1.1267606019973757,1.3239436149597168,-0.0044773421250283,-9.20402817428112e-06,-0.2379072606563568,0.9712775349617004,0.004735228970012,0.000286444073338,1.3899162343620736e-06,0.0037541335914283,-0.0093092583119869,0.3505696356296539,-0.0023024566471576,-0.003815627656877,0.7011489868164062,0.7130008339881897,0.0054216252825896,-0.0122463736346223,0.3543036691732725,-0.0103396773338317,-0.0303306579589843,-0.113499641418457,208,359,-8386,9523
9.3,1788343526662,0.0,3.2957746982574463,-0.0045159580186009,-8.362566586583853e-05,-0.2191661298274994,0.9756770730018616,0.0037142323134268,-0.0052420558942727,1.818030893694579e-07,-0.0017754391301423,-0.0039811902679502,0.3489042222499847,0.0015827175229787,-0.0075622741132974,0.7226020097732544,0.6912210583686829,0.0006853152363897,-0.231302317401689,0.32209329872009,-0.0148985385894775,0.30969899892807,0.0090923309326171,267,361,9766,17360
9.4,1788343526762,2.929577350616455,5.014084339141846,-0.0047777225263416,-0.0014902304392307,-0.2141319215297699,0.9767918586730956,0.0348157854674532,-0.0061256770872801,1.6154680923906505e-05,0.0039135459810495,-0.097433216869831,0.3454667031764984,0.0095394644886255,-0.015023723244667,0.729201078414917,0.6840680241584778,0.0078386378196702,-0.4357741401161401,0.3092958304752419,0.747078537940979,-0.2345611453056335,0.3167686462402344,125,517,10799,19915
9.5,1788343526862,3.633802890777588,4.8450703620910645,-0.0047777225263416,-0.0014902304392307,-0.2141319215297699,0.9767918586730956,0.0348157854674532,-0.0061256770872801,1.6154680923906505e-05,0.0039135459810495,-0.097433216869831,0.3454667031764984,0.0151127753779292,-0.0195614341646432,0.7329469919204712,0.6798364520072937,-0.06454373256522,0.0258860769665006,-0.0665961358292774,0.4230784773826599,0.256981611251831,-0.4336786270141601,187,385,16152,21609
9.6,1788343526962,4.732394218444824,5.6619720458984375,-0.0076382746919989,-0.0187447983771562,-0.1936874389648437,0.9808545112609864,0.1809919229215647,0.0056378852878885,-0.000604486045355,0.0076483781449496,0.1598078608512878,0.0065615586936473,0.0122345285490155,-0.0163326859474182,0.734612762928009,0.6781796813011169,0.0110996758267679,0.0416690185612609,0.1071705912410029,-0.5171099901199341,-0.0151621103286743,0.2713871002197265,8,268,10853,20811
9.7,1788343527062,4.394366264343262,5.633802890777588,-0.0075363758951425,-0.0194512363523244,-0.1905997693538665,0.9814462661743164,0.1940170173396074,0.0076721938256354,-1.086644341271966e-05,0.0133209154009819,-0.0305298455059528,0.1396263539791107,0.0125910965725779,-0.0158048700541257,0.740502119064331,0.6717501878738403,0.018297416751832,0.0653825717242784,0.143280549660475,0.0942049026489257,-0.0186411142349243,0.2558727264404297,49,243,12245,19898
9.8,1788343527162,4.422535419464111,6.056337833404541,-0.0066822958178818,-0.0195804759860038,-0.1776449531316757,0.9838770627975464,0.1765882308700112,-0.0001765690128723,2.277235460580468e-05,0.0077723977155983,-0.0207981895655393,0.1099319085478782,0.0133660798892378,-0.0161563325673341,0.7444713711738586,0.6673251390457153,0.0060445823792919,-0.0353980926460753,0.0878646768019962,-0.0663462877273559,0.075232982635498,-0.088170051574707,19,360,12336,18066
9.9,1788343527262,4.591549396514893,5.7183098793029785,-0.0067412774078547,-0.0200616419315338,-0.175600379705429,0.9842340350151062,0.1740807551026989,0.0027156552983274,7.961251325919202e-05,0.0028297195676714,-0.0198690127581357,0.0839606821537017,0.0134871024638414,-0.0161993186920881,0.7460122108459473,0.6655986905097961,0.0037588289220469,0.0099511566837133,0.0802882464999845,0.0298470854759216,0.0183045268058776,0.2243452072143554,41,432,11899,19821
10.0,1788343527362,4.591549396514893,5.7183098793029785,-0.0061163548380136,-0.0190362054854631,-0.1710982471704483,0.9850510954856871,0.1778275417184112,0.0018228426313967,-0.0001456908204439,0.0156862791627645,0.0259197652339935,0.088284358382225,0.0134123126044869,-0.0155263468623161,0.7495537400245667,0.6616255640983582,0.0018565164462363,-0.0258069472786679,0.0720580642847112,0.0056657791137695,-0.2225613594055175,0.3827667236328125,41,432,11899,19821
10.1,1788343527462,4.647887229919434,6.2253522872924805,-0.0061362162232398,-0.0203749816864728,-0.1662576496601104,0.9858527183532716,0.1738223924707362,0.0024373617465686,0.0001702664123241,0.0069636534899473,-0.0189845208078622,0.0994640067219734,0.0140947569161653,-0.0158698819577693,0.751904308795929,0.6589305996894836,0.0100364693117461,0.0238993920855668,0.1091115548724869,0.2396636605262756,-0.2217758297920227,0.0514001846313476,24,385,11339,18339
10.2,1788343527562,4.2253522872924805,5.605633735656738,-0.006055689882487,-0.0198705215007066,-0.1634505540132522,0.9863328337669371,0.1762063938421144,-0.0008824838997566,-5.672541017405896e-05,0.0021935042459517,0.0198342576622962,0.1122675985097885,0.0139460321515798,-0.0155593072995543,0.7596216797828674,0.6500295400619507,0.0113641609367802,0.0153391764918916,0.1796844858488374,0.0664286017417907,-0.0956772565841674,-0.0203619003295898,20,309,10206,22753
10.3,1788343527662,4.2816901206970215,6.478873252868652,-0.0057104309089481,-0.0204512253403663,-0.1504992544651031,0.98838210105896,0.1689005129942447,0.0047381036011569,3.0067844860918803e-05,0.0181514266878366,-0.0133542213588953,0.2105477005243301,0.0148537792265415,-0.0158394370228052,0.7663410305976868,0.642067015171051,0.0108884577481831,-0.0405358615348234,0.2019229716493237,-0.2277995347976684,0.1375005841255188,-0.1790494918823242,29,385,10629,19616
10.4,1788343527762,4.2816901206970215,6.478873252868652,-0.0057575800456106,-0.0211356803774833,-0.1401550769805908,0.989887237548828,0.1768509725759282,0.002496449202921,9.908051485915724e-05,0.0030670405831187,-0.0196547303348779,0.2165505141019821,0.01484617870301,-0.0153959449380636,0.7738408446311951,0.6330188512802124,0.0211557219516634,0.0079034450888131,0.205345966915325,-0.0153104662895202,0.1187319159507751,0.0561656951904296,29,385,10629,19616
10.5,1788343527862,4.394366264343262,5.6619720458984375,-0.0051702298223972,-0.0206798482686281,-0.1307520419359207,0.9911859035491944,0.1807473171042236,-0.0010963915313156,-2.333120630843708e-05,0.0213872250169515,0.0111805228516459,0.2138974666595459,0.0152187859639525,-0.0153551874682307,0.776930034160614,0.629215657711029,0.0151260546365,-0.0113234417581246,0.1999537247727652,-0.2413957715034485,0.1722824573516845,0.2448902130126953,22,383,10232,22330
10.6,1788343527962,4.169013977050781,5.746479034423828,-0.0051175584085285,-0.0218583587557077,-0.1238606125116348,0.9920457005500792,0.177705738716894,-0.0009404251649757,0.00010567349921,0.0099995993077754,-0.0333760268986225,0.196333035826683,0.0157081335783004,-0.0155106987804174,0.7841013073921204,0.6202401518821716,0.0048162874653944,0.0256337784631245,0.200112438140667,-0.0489921569824218,0.0319459438323974,0.1749305725097656,21,330,10669,22876
10.7,1788343528062,4.14084529876709,6.394366264343262,-0.0049300133250653,-0.0215414427220821,-0.115460030734539,0.9930662512779236,0.1696943759166561,0.0045517222070195,-4.5753542034147743e-05,0.0063664726912975,0.019383031874895,0.2054751515388488,0.0157421920448541,-0.0153207620605826,0.7905194163322449,0.612043023109436,0.0102629684620047,-0.0115927858511515,0.2132070941855892,-0.0969415307044982,-0.0277689695358276,0.1170539855957031,41,344,10700,19161
10.8,1788343528162,4.14084529876709,5.943662166595459,-0.0044718943536281,-0.0208200868219137,-0.0987263768911361,0.9948868155479432,0.1732462182616186,0.0004896019868589,-5.286428396844796e-05,0.013538260012865,0.0226080566644668,0.2087967842817306,0.0149375917389988,-0.0139073682948946,0.7995555400848389,0.6002452969551086,0.0104206881758778,0.0277334262921795,0.2054130402512425,0.191826581954956,-0.1773590445518493,0.007761001586914,25,436,10629,20512
10.9,1788343528262,4.2816901206970215,5.690140724182129,-0.0041058701463043,-0.0203186385333538,-0.0934565067291259,0.9954075217247008,0.1702381683218605,0.004237433808696,-1.8448787969201187e-05,0.0171093791723251,0.0209427662193775,0.2120742499828338,0.0146490260958671,-0.013786812312901,0.8047873377799988,0.5932223200798035,-0.0031324811525689,-0.0339908866877405,0.1863537792442154,0.0027190446853637,-0.0977715253829956,-0.2474737167358398,13,377,10462,22126
11.0,1788343528362,4.309859275817871,6.394366264343262,-0.0039793886244297,-0.0197233110666275,-0.0795839503407478,0.9966251254081726,0.1826803357925824,-0.0028859201778996,8.839706526178635e-05,0.0033137644641101,-0.016898114234209,0.1978672593832016,0.0146049289032816,-0.013654532842338,0.8071184158325195,0.5900508761405945,0.0080283893404817,0.0052291113753348,0.1982565260941772,0.0456776022911071,-0.0067688226699829,0.3455591201782226,14,373,10396,19990
11.1,1788343528462,4.366197109222412,6.169013977050781,-0.0036104989703744,-0.0200347490608692,-0.0680573284626007,0.9974736571311952,0.1677817860044318,0.0074106365912801,2.530272355046722e-05,0.0088984062895178,-0.0057907071895897,0.1996164917945861,0.0150854783132672,-0.0138404397293925,0.8165540099143982,0.5769059062004089,-0.0007327924603472,0.0144470217628983,0.1503530923695666,0.0938881635665893,-0.1817775964736938,0.0473279953002929,64,384,12309,18535
11.2,1788343528562,4.619718074798584,5.380281925201416,-0.0038180483970791,-0.019576309248805,-0.0608431436121463,0.9979479908943176,0.1769636254523721,0.0006646124329089,-7.344977873135764e-05,0.0004387666704133,0.0342383682727813,0.1360413879156112,0.0142171690240502,-0.0132219977676868,0.8177992701530457,0.5751760601997375,0.0024771706427299,0.052910797032702,0.1064489964047299,-0.2547663450241089,0.2422391176223755,0.2989768981933594,35,271,12325,21122
11.3,1788343528662,4.873239517211914,5.6619720458984375,-0.0039556897245347,-0.0204565785825252,-0.0559879466891288,0.998214066028595,0.180539653086402,0.0024286972058074,0.0001475099388035,-0.0031304759904742,-0.0509116426110267,0.0995944440364837,0.0158798526972532,-0.0144416913390159,0.8220102190971375,0.5690681338310242,-0.0009782471190986,-0.014536989836641,0.1041239726205588,-0.1649848818778991,0.2223603129386901,-0.0441598892211914,10,419,8374,22249
11.4,1788343528762,4.2253522872924805,5.492957592010498,-0.0040033105760812,-0.0212557353079319,-0.0508333817124366,0.9984729886054992,0.1732822123621752,0.0017309398890289,4.297466726061081e-05,0.0031067328527569,-0.01737174205482,0.1459816992282867,0.0171511955559253,-0.0155469067394733,0.8266915082931519,0.5621790885925293,0.010914721038705,-0.0391444288559213,0.1674336783890291,0.1621732115745544,-0.2203967571258545,-0.2182292938232422,24,348,10404,23240
11.5,1788343528862,4.084506988525391,6.422535419464111,-0.0040033105760812,-0.0212557353079319,-0.0508333817124366,0.9984729886054992,0.1732822123621752,0.0017309398890289,4.297466726061081e-05,0.0031067328527569,-0.01737174205482,0.1459816992282867,0.0176192987710237,-0.0156696010380983,0.8299794793128967,0.5572953224182129,0.0103067283188267,-0.0167409519303994,0.2062889680509557,0.0600093007087707,-0.0436567068099975,-0.0663795471191406,37,403,10045,20904
11.6,1788343528962,4.450704097747803,5.295774459838867,-0.003952925093472,-0.0235434975475072,-0.0311536435037851,0.9992294311523438,0.1646002794548458,0.007850998940239,2.221303121652948e-05,0.0061841704882681,0.0014871512539684,0.1996084749698639,0.0179437492042779,-0.0157038550823926,0.8338370323181152,0.5514955520629883,0.0077435739989889,0.0173042694053728,0.1883806816000277,0.0366643667221069,0.1662330031394958,0.0586061477661132,64,323,12559,22210
11.7,1788343529062,4.394366264343262,6.366197109222412,-0.0043154349550604,-0.0229733269661664,-0.0232806876301765,0.9994556307792664,0.173275576197135,0.0034959121583411,-0.0001271292096482,0.0008767500403337,0.0239369105547666,0.1420391350984573,0.0174247007817029,-0.0157566666603088,0.8370581865310669,0.5466092228889465,-0.0006023298407898,0.0412544635978543,0.1367415476061479,0.3105020523071289,-0.310504674911499,0.2919855117797851,12,276,10378,19823
11.8,1788343529162,4.394366264343262,5.88732385635376,-0.0039403829723596,-0.0230656284838914,-0.0181622821837663,0.9995611906051636,0.1727410238001854,0.0054093937368669,-3.1877458197960754e-05,0.019885579124093,-0.0041448208503425,0.2052297592163086,0.0182285048067569,-0.0154489297419786,0.8452951908111572,0.5337651371955872,0.0220665210942189,0.0049401548216527,0.213787170759434,0.2982584238052368,-0.2281767129898071,0.0663967132568359,51,364,11449,20272
11.9,1788343529262,4.2253522872924805,5.85915470123291,-0.0034635639749467,-0.023653645068407,-0.0080480156466364,0.999681830406189,0.1715328507301408,0.0027372106069195,-2.5473654779194225e-05,0.0206196345388889,0.005648614373058,0.2144777923822403,0.0173902772367,-0.0139666888862848,0.8508872389793396,0.5248746275901794,0.0247533707432189,0.0313463872343027,0.2186979806940196,0.1357877254486084,0.0185839533805847,0.2291784286499023,51,364,11449,20272
12.0,1788343529362,4.3380279541015625,5.267605781555176,-0.0023270023521035,-0.0219795405864715,0.0064767790026962,0.9997347593307496,0.166592307334125,0.0046676636856446,-2.0510791706751103e-05,0.0180203672498464,0.0036644241772592,0.198072463274002,0.0179955214262008,-0.0131384935230016,0.8583349585533142,0.5126058459281921,0.0258860877888181,0.0042256889070685,0.21136161400614,0.0891554951667785,0.1974304318428039,-0.0343637466430664,18,376,10420,23242
12.1,1788343529462,4.450704097747803,6.3380279541015625,-0.0019870321266353,-0.0223045200109481,0.0118811437860131,0.9996786117553712,0.1692024427302153,0.0017923122842164,4.376088689166243e-05,0.017932042479515,-0.013393317349255,0.2119591832160949,0.0174862388521432,-0.0123149454593658,0.8609120845794678,0.5083040595054626,0.0227548496220993,0.0343084868016666,0.2029189905050502,-0.0097626447677612,-0.0355411171913147,0.1184873580932617,28,253,11354,21895
12.2,1788343529562,4.591549396514893,5.85915470123291,-0.0008502372656948,-0.0206570159643888,0.0252413004636764,0.9994675517082214,0.1689335959167615,0.0015489058836861,-8.232785796764501e-05,0.0130222551524639,0.0167342778295278,0.1220131069421768,0.0182773359119892,-0.011888476088643,0.865599513053894,0.5002620816230774,0.01518002518972,-0.0371669555029286,0.1023073363597959,-0.0274695754051208,-0.1574537754058838,-0.0199127197265625,31,348,12325,16975
12.3,1788343529662,4.309859275817871,5.492957592010498,-0.0004547212156467,-0.0221924781799316,0.0297483839094638,0.9993109703063964,0.1669652868989377,0.0012740198803462,0.0001030453456054,0.0112990420311689,-0.0413480326533317,0.0908730030059814,0.0196124017238616,-0.0125379841774702,0.8668618202209473,0.4980047643184662,0.0058235372693922,-0.0482779328716644,0.0811462846892082,-0.217839241027832,0.2931669354438782,-0.1930446624755859,10,366,10260,23496
12.4,1788343529762,4.197183132171631,5.577464580535889,-0.0002666000509634,-0.0229835547506809,0.0353657528758049,0.9991100430488586,0.1684073584575936,0.0088114489302414,-6.898721806093691e-07,0.0081592258065938,0.0050033582374453,0.1495142579078674,0.0194028113037347,-0.012258717790246,0.8692170977592468,0.4938977360725403,0.0072738172237414,0.0063125571452928,0.1573818612389753,-0.0054523348808288,0.0556488633155822,0.2244777679443359,7,331,10401,23593
12.5,1788343529862,4.11267614364624,5.915493011474609,-0.0001431804848834,-0.022736357524991,0.0391253530979156,0.9989755749702454,0.1766587631790069,0.0035640722487654,-1.1690518239233983e-05,0.0097077600657939,0.0106007866561412,0.1670323014259338,0.0192702747881412,-0.011842343956232,0.8754681944847107,0.4827460646629333,0.0068982648593026,-0.0120055952567228,0.2213173323740036,0.1866716146469116,-0.1132534146308898,-0.2486228942871093,40,324,10668,22283
12.6,1788343529962,4.169013977050781,6.478873252868652,0.000261056702584,-0.0222400613129138,0.0558726452291011,0.9981901049613952,0.1769986813381625,0.0053725135348319,1.1106361192616393e-05,0.012300613336265,0.01041064504534,0.2180820703506469,0.0190158504992723,-0.0113516934216022,0.8824498057365417,0.4698851406574249,0.0020242723528027,-0.0031137507483351,0.1893254996646697,-0.1491721868515014,0.1934071779251098,-0.0453109741210937,24,336,10862,19885
12.7,1788343530062,4.2816901206970215,5.77464771270752,0.000364892068319,-0.0221094600856304,0.0610180273652076,0.9978917241096495,0.1729721956986726,0.0060218492250085,-3.775935401417463e-05,0.0089161461219191,0.004716788418591,0.2036836147308349,0.0201286785304546,-0.0120590832084417,0.8863498568534851,0.4624211192131042,-0.0015265842486798,-0.0037129679949672,0.2146026200293397,0.2616194486618042,-0.104649543762207,0.0486268997192382,38,378,11020,23469
12.8,1788343530162,4.647887229919434,5.267605781555176,0.000372432405129,-0.0234647262841463,0.0751927867531776,0.9968928098678588,0.1822757411797532,0.0073018757331869,-1.25911634140527e-05,0.0074975495226681,0.0001147702496382,0.2008752971887588,0.0194506514817476,-0.0120680136606097,0.889934241771698,0.4555140137672424,-0.0082217946968809,0.0031965505361274,0.1019734999827723,0.139082670211792,-0.0493386387825012,-0.1099462509155273,47,306,12254,20502
12.9,1788343530262,4.535211086273193,5.126760482788086,-0.0001828558743,-0.0227020215243101,0.0811298117041587,0.9964449405670166,0.1828099797193048,0.0010058714604543,-2.307955323057647e-05,-0.0092558236792683,0.0097970543429255,0.1124793589115142,0.0191353298723697,-0.0119563899934291,0.8926117420196533,0.4502612352371216,0.0051444840623612,-0.0077035439559504,0.1184867133587467,-0.0570937991142272,0.0800315141677856,-0.1549034118652343,26,307,11905,21126
13.0,1788343530362,4.535211086273193,5.380281925201416,-1.4845281839370728e-05,-0.0224455520510673,0.0880877822637558,0.9958598017692566,0.1785433957763558,0.0048081285563237,-2.152414250746884e-05,0.0071472604759037,0.0048857955262064,0.1193653419613838,0.0188911985605955,-0.0119258426129817,0.8952802419662476,0.4449430108070373,-0.0023627826462006,0.0100445974756414,0.1017431473274115,0.1270714998245239,-0.1948818564414978,0.029022216796875,40,274,12115,20562
13.1,1788343530462,4.591549396514893,5.070422649383545,-0.0002690786495804,-0.0223145186901092,0.0920898616313934,0.99550062417984,0.1794454332297724,0.0040792430570502,-2.4638567207489663e-05,-0.0031164055690169,0.0068321404978632,0.0788796842098236,0.0184718035161495,-0.011897156946361,0.8969718217849731,0.4415415227413177,0.0032758133612663,0.0041975975609217,0.0987919750076924,-0.107765793800354,0.0806295275688171,0.1498012542724609,35,358,11857,21772
13.2,1788343530562,4.591549396514893,5.070422649383545,-0.0004278947599232,-0.022013297304511,0.0949398204684257,0.9952394962310792,0.1747932585726228,0.0008599149758252,-5.49069994838628e-05,-0.0026273240800946,0.012103309854865,0.1126142367720604,0.0184718035161495,-0.011897156946361,0.8969718217849731,0.4415415227413177,0.0032758133612663,0.0041975975609217,0.0987919750076924,-0.107765793800354,0.0806295275688171,0.1498012542724609,35,358,11857,21772
13.3,1788343530662,4.450704097747803,5.802816867828369,0.0001017905306071,-0.0210491921752691,0.1023702472448349,0.9945236444473268,0.1736458914314729,0.0046266845355754,-3.8349967430457455e-05,0.0121649969369173,0.0218944009393453,0.1099051758646965,0.0178029350936412,-0.0107103306800127,0.9016008377075196,0.4320696592330932,0.0160367586848664,0.0094639378427684,0.0976428954114469,0.214784026145935,-0.136107861995697,-0.0060920715332031,38,427,12286,19663
13.4,1788343530762,4.507042407989502,5.915493011474609,0.0003924509510397,-0.0209143459796905,0.1068075522780418,0.9940596222877502,0.1770516843037164,0.0029415411778279,8.353070455736439e-06,0.0173129066824913,-0.0099614690989255,0.0964450687170028,0.0178029350936412,-0.0107103306800127,0.9016008377075196,0.4320696592330932,0.0160367586848664,0.0094639378427684,0.0976428954114469,0.214784026145935,-0.136107861995697,-0.0060920715332031,37,394,12165,22325
13.5,1788343530862,4.478873252868652,5.267605781555176,0.0007901480421423,-0.0210598967969417,0.112185962498188,0.9934637546539308,0.1846354239402692,0.0074525797499462,-2.3306086341966495e-05,0.010085379704833,0.003806689986959,0.0907421484589576,0.0184834953397512,-0.010434134863317,0.9048720002174376,0.42515429854393,0.0065248404549005,-0.0079640777237239,0.0966482972083528,-0.2435730695724487,0.3130053281784057,-0.0996866226196289,52,349,12182,21512
13.6,1788343530962,4.676056385040283,5.577464580535889,0.0008640043670311,-0.020705159753561,0.117660604417324,0.9928375482559204,0.1772951678770876,0.0027898749029815,-3.385841721623137e-05,0.0041695591062307,0.0159609727561473,0.0960279926657676,0.0184834953397512,-0.010434134863317,0.9048720002174376,0.42515429854393,0.0065248404549005,-0.0079640777237239,0.0966482972083528,-0.2435730695724487,0.3130053281784057,-0.0996866226196289,58,392,13911,18289
13.7,1788343531062,4.873239517211914,4.816901206970215,0.0009804554283618,-0.021458713337779,0.1202192232012748,0.9925149083137512,0.1759438661295651,0.0017562461187012,8.934478929943025e-05,0.0031520549673587,-0.0301151555031538,0.1012510731816291,0.0186107661575078,-0.0100358501076698,0.908338189125061,0.4177015423774719,0.0051295956026928,0.006851233625547,0.0208975448507255,-0.088571012020111,0.016889750957489,0.4596748352050781,58,313,13441,20686
13.8,1788343531162,4.394366264343262,5.85915470123291,0.0012863387819379,-0.0214849580079317,0.1229196563363075,0.9921832084655762,0.1769350104084567,0.0029634947095687,-6.453237050765357e-06,0.0043322998099029,-0.0102604888379573,0.0596362464129924,0.0194424372166395,-0.0105845145881176,0.9092753529548644,0.4156060814857483,-0.008575849148774,-0.0385582357809148,0.0741787157314484,0.0398961901664733,-0.2006183266639709,0.1437129974365234,45,363,12253,20004
13.9,1788343531262,4.591549396514893,6.169013977050781,0.0012730108574032,-0.0226082224398851,0.1284446865320205,0.9914581179618835,0.1761135216569117,0.0055752298789701,1.4846626918970318e-06,0.0039148740470409,-0.0031182975508272,0.1222245469689369,0.0199701841920614,-0.0104815801605582,0.9130293726921082,0.4072697460651397,0.0168379917051826,-0.0124962233471122,0.1425643597947912,-0.0704235434532165,0.1756271123886108,-0.1491117477416992,35,334,11864,18891
14.0,1788343531362,4.591549396514893,5.85915470123291,0.0014604812022298,-0.022324239835143,0.1347978860139846,0.9906204342842102,0.1782451421389411,0.0052953822834432,3.419419960378882e-05,0.0037102580536156,-0.0004066032706759,0.1264302730560302,0.0197928920388221,-0.0105200354009866,0.9139587879180908,0.4051874279975891,-0.0028028953764347,0.0072042433580292,0.114923332344068,-0.0696590542793273,-0.0128009915351867,0.1391763687133789,35,334,11864,18891
14.1,1788343531462,4.478873252868652,5.154929637908936,0.0016948893899098,-0.0225445218384265,0.1396935880184173,0.9899366497993468,0.1788589147134599,0.0028877191491228,1.3142475376889116e-05,0.0145925460383296,-0.0063035381026566,0.1127003356814384,0.0195634309202432,-0.0099360672757029,0.9171084761619568,0.3980334401130676,0.0104017591048444,0.0486102955377909,0.1030260933862641,0.2138181328773498,-0.0152831077575683,0.3384971618652344,58,425,12559,21817
14.2,1788343531562,4.873239517211914,5.295774459838867,0.0018453721422702,-0.0222275033593177,0.1425623893737793,0.989534556865692,0.1716056185833964,0.0064239947980347,1.3523062788886125e-05,0.0102467890828847,0.0114352367818355,0.1145945563912391,0.0195634309202432,-0.0099360672757029,0.9171084761619568,0.3980334401130676,0.0104017591048444,0.0486102955377909,0.1030260933862641,0.2138181328773498,-0.0152831077575683,0.3384971618652344,28,321,10858,21291
14.3,1788343531662,4.591549396514893,5.323943614959717,0.0018453721422702,-0.0222275033593177,0.1425623893737793,0.989534556865692,0.1716056185833964,0.0064239947980347,1.3523062788886125e-05,0.0102467890828847,0.0114352367818355,0.1145945563912391,0.0176896303892135,-0.0091129904612898,0.9212979078292848,0.3883479237556457,0.0064163210779289,0.0048369860127138,0.093733175477884,-0.2087109088897705,0.2523506283760071,-0.0345230102539062,41,326,12017,21087
14.4,1788343531762,4.619718074798584,5.183098793029785,0.0015720707597211,-0.0201422851532697,0.1551440358161926,0.9876852631568908,0.177672223392857,0.006118987133178,2.1374995060623365e-05,0.0042013828642666,-0.0143683888018131,0.1028259843587875,0.0180184561759233,-0.0092754801735281,0.9221295118331908,0.3863501250743866,0.0010106638537777,-0.0185687218894988,0.108692672915507,0.0463989973068237,-0.0463500618934631,-0.0243091583251953,18,358,11721,21910
14.5,1788343531862,4.985915660858154,4.8450703620910645,0.0011842229869216,-0.0199270080775022,0.1594641655683517,0.987001895904541,0.174284522762576,0.0026464455383776,1.0356065693339942e-05,-0.0071578957140445,0.0015342307742685,0.1009854450821876,0.0161852706223726,-0.0090433685109019,0.924878180027008,0.37981116771698,-0.0031488000419399,0.0557160088502839,0.0583022768272792,0.2949483394622803,-0.401613712310791,0.2533903121948242,62,380,14091,19518
14.6,1788343531962,5.070422649383545,4.676056385040283,0.0008599907159805,-0.0187818054109811,0.162596195936203,0.9865134954452516,0.1804686509495194,-0.0020925296916971,-0.0001924901466427,-0.0024331812746822,0.0351553559303283,0.0417757481336593,0.0145941618829965,-0.0087736835703253,0.9241598844528198,0.3816263377666473,-0.0134159417402485,0.0275938581197231,-0.0449962411812805,0.1785128712654113,0.005531370639801,0.1765003204345703,54,239,13537,19396
14.7,1788343532062,5.098591327667236,4.732394218444824,0.0005592908710241,-0.0175997857004404,0.1618159711360931,0.986663818359375,0.1801672806471317,-0.0036354033555164,-0.0001447246619521,-0.0039854198694229,0.0406819395720958,-0.0263890624046325,0.0136384442448616,-0.0082929227501153,0.9236826300621032,0.3828257620334625,0.0015650375599423,0.0382558417697293,-0.0440268361903889,-0.1829118132591247,-0.2289881706237793,-0.0590972900390625,54,239,13537,19396
14.8,1788343532162,4.788732528686523,5.154929637908936,0.0005592908710241,-0.0175997857004404,0.1618159711360931,0.986663818359375,0.1801672806471317,-0.0036354033555164,-0.0001447246619521,-0.0039854198694229,0.0406819395720958,-0.0263890624046325,0.0150462258607149,-0.0089672366157174,0.923556923866272,0.3830611109733581,-0.0021910308304779,-0.0389079365662999,-0.0066877366523904,0.2211002707481384,-0.2618404030799866,0.012394905090332,58,436,13209,19705
14.9,1788343532262,5.042253494262695,4.732394218444824,0.0002392928581684,-0.0171310640871524,0.15914086997509,0.9871072173118592,0.1751631303552112,-0.0010137646174739,1.0810737052530845e-07,-1.858916220953688e-08,-5.416998050122857e-08,0.0,0.0125259440392255,-0.0081566162407398,0.9233688116073608,0.3836231529712677,-0.0029398946444073,0.0331301247368184,-0.0122478485411394,0.1685631871223449,-0.1446920037269592,0.0326271057128906,36,387,13887,18416
15.0,1788343532362,5.154929637908936,5.577464580535889,-0.0005183978937566,-0.0147334421053528,0.1583328545093536,0.9872757196426392,0.1811271026714132,-0.0029412449673977,-0.0001926213068544,-0.0089808516204357,0.0535378754138946,-0.0259967017918825,0.012301342561841,-0.0083873933181166,0.9226260781288148,0.385408341884613,-0.0054364249058992,-0.0181839005612619,-0.0291002068128761,-0.0785665512084961,-0.1222585439682006,-0.2083396911621093,27,328,12991,16860
15.1,1788343532462,5.070422649383545,5.014084339141846,-0.0005722346249967,-0.0145884463563561,0.1579188108444214,0.9873441457748412,0.1781012037853079,-0.002327052194268,-2.698316682269228e-05,-0.0011965917656198,0.0050457613542675,-0.0138192772865295,0.0114424303174018,-0.0080740535631775,0.9220780730247498,0.3867503702640533,-0.0027162421218184,0.0387230415865151,-0.0610230940583435,0.0050316452980041,-0.1077045202255249,0.3067836761474609,68,387,13454,18875
15.2,1788343532562,4.957746505737305,5.521126747131348,-0.0011130112688988,-0.0134153924882411,0.1534814089536667,0.9880598783493042,0.1820272830024616,-0.000880877181337,-8.433372749312067e-05,-0.0046680481173098,0.0185398329049348,-0.0493960976600647,0.0116006918251514,-0.0082044033333659,0.920792520046234,0.3897938430309295,0.0074218198523104,-0.0174878776856872,-0.0286451798553518,-0.0931774377822876,0.0950735807418823,-0.4880971908569336,39,372,12634,20735
15.3,1788343532662,4.901408672332764,5.070422649383545,-0.0011107062455266,-0.0137925660237669,0.1527878940105438,0.9881621599197388,0.1802575531369845,-0.0021292555861831,7.216828063263172e-05,-0.0026226988993585,-0.0150105152279138,-0.0283868629485368,0.0114724515005946,-0.0081431455910205,0.9205601811408995,0.390347421169281,-9.404572412322363e-05,0.0067774838174919,-0.0282738481215805,-0.0265314579010009,-0.0673943161964416,0.0985908508300781,37,311,11879,20895
15.4,1788343532762,4.450704097747803,5.464788913726807,-0.0004841659683734,-0.0148669052869081,0.1529485434293747,0.9881221652030944,0.1811966563105244,0.0034166496722818,9.046677544072786e-06,0.0067170020192861,-0.0268104989081621,0.0416149459779262,0.0125954821705818,-0.0084468824788928,0.9213240742683412,0.3884996473789215,-0.0025917737463082,0.0041313561954071,0.0247664053065658,-0.0073755383491516,0.174372136592865,0.3947248458862304,24,354,11683,21331
15.5,1788343532862,4.788732528686523,4.676056385040283,-0.0003522399347275,-0.0152902826666831,0.1554971039295196,0.9877179861068726,0.1767003507467445,0.0040342494311791,-3.478046018242596e-05,0.0091952877119183,-0.0027920149732381,0.0836753547191619,0.0122460341081023,-0.0077603226527571,0.923106014728546,0.3842723667621612,0.0046308261070533,0.0157945929789586,0.0204705913904809,0.0056427717208862,0.233479619026184,0.267160415649414,10,418,11162,19461
15.6,1788343532962,4.788732528686523,6.056337833404541,-0.0001615167129784,-0.0145299602299928,0.1579267978668213,0.9873438477516174,0.180709898460631,-0.0001938768795803,-3.095607946973379e-05,0.003027826314792,0.0086022466421127,0.0087339077144861,0.0119060669094324,-0.0073800152167677,0.923262059688568,0.383915513753891,0.0147122133431086,0.029857444520387,0.0252035794932928,0.1786213517189026,-0.1912675499916076,-0.1243247985839843,45,326,13334,16340
15.7,1788343533062,4.816901206970215,4.8450703620910645,-0.0002334450837224,-0.0137222111225128,0.1583114862442016,0.9872938394546508,0.1834965339563708,0.0004256326991182,-5.00986644045181e-08,-0.0035666895564645,-0.0264787152409553,-0.0010580255184322,0.0115868262946605,-0.0074283545836806,0.9232116937637328,0.3840454220771789,-0.0063749056153289,-0.0364962691635474,-0.0048120546812071,-0.1719700098037719,0.0155872106552124,0.1632671356201172,34,251,12408,19117
15.8,1788343533162,4.760563373565674,5.070422649383545,4.356866702437401e-05,-0.015655368566513,0.1582661569118499,0.9872723817825316,0.1788772590496428,-0.0003997990870327,0.0001486249569234,-0.0038139999378472,-0.0571530498564243,-0.006274898070842,0.0159782338887453,-0.0090533662587404,0.923132061958313,0.3840442597866058,0.0100078937048721,-0.0702366326968673,0.0066246893116866,-0.1300154328346252,-0.0236086845397949,-0.3852071762084961,37,281,13324,19854
15.9,1788343533262,4.704225540161133,5.380281925201416,0.0004568537697196,-0.0176332034170627,0.1582050621509552,0.9872487783432008,0.1797536125433768,0.0008023406828691,0.0002632907809108,0.0031441859900951,-0.067482016980648,-0.0021048372145742,0.0163898225873708,-0.0092765502631664,0.9231958985328674,0.383868008852005,-0.0079039930682255,-0.0042388890453297,0.0142708428932355,-0.098682701587677,0.2459637522697448,0.2826070785522461,15,442,11451,21378
16.0,1788343533362,4.450704097747803,5.042253494262695,0.0006238599307835,-0.0187594108283519,0.1581545323133468,0.987235963344574,0.1847454390077338,-0.0007830248411239,-7.001697539996954e-08,8.63505960069233e-08,-7.975437199547741e-08,1.842146048147697e-06,0.0180654693394899,-0.0099702207371592,0.92478746175766,0.3799240887165069,0.0057154096436087,-0.0180796841921323,0.0985395788473872,-0.0385736227035522,0.0005190968513488,0.0909614562988281,12,342,11618,22629
16.1,1788343533462,4.394366264343262,5.126760482788086,0.0010354300029575,-0.0203736163675785,0.1642429530620575,0.9862089157104492,0.1761375926006384,0.0003887218054333,-4.493041768371173e-05,0.0058246566914021,0.0154258497059345,0.1094472557306289,0.0177098736166954,-0.0096130548045039,0.9260449409484864,0.3768751323223114,0.0115109959949196,0.0146422362018559,0.1014520555273204,-0.079832375049591,0.281120240688324,0.255075454711914,25,353,12286,22245
16.2,1788343533562,4.619718074798584,5.549295902252197,0.0011893773917108,-0.0202497486025095,0.1670955717563629,0.9857320189476012,0.1729984588442056,0.0042401972399477,-3.2474739655137405e-05,0.0090388068929314,0.0035293768160045,0.1131251752376556,0.0179592929780483,-0.0098261628299951,0.9274803400039672,0.3733112514019012,-0.0082834482565893,0.0073166093020461,0.1052380274455062,0.1786673665046692,-0.1792970299720764,-0.0515041351318359,25,406,11534,20417
16.3,1788343533662,4.788732528686523,5.352112770080566,0.0009835574310272,-0.0204794555902481,0.1721297651529312,0.984860897064209,0.1836312215340833,0.0114530334172731,3.65779317549534e-06,-0.0008026260184124,0.0032475856132805,0.0946284309029579,0.0162720512598752,-0.0090243276208639,0.9302169680595398,0.3665382266044616,0.0012682720337648,0.0635899320226877,0.0161465130117464,-0.0644471049308776,-0.065081238746643,-0.2162895202636718,39,329,13695,18008
16.4,1788343533762,5.070422649383545,5.239436626434326,0.0009835574310272,-0.0204794555902481,0.1721297651529312,0.984860897064209,0.1836312215340833,0.0114530334172731,3.65779317549534e-06,-0.0008026260184124,0.0032475856132805,0.0946284309029579,0.0153120029717683,-0.0086137577891349,0.9303371906280518,0.3662840723991394,0.001165531167274,0.0342118217547888,0.0092637905651173,-0.0940380692481994,0.0249646306037902,-0.4017276763916015,49,170,12651,18206
16.5,1788343533862,4.647887229919434,5.88732385635376,0.0007111553568392,-0.0175020359456539,0.1771822571754455,0.9840222001075744,0.1754841256426061,-0.0023454895821896,6.564337172911672e-09,0.0,5.014190840313404e-09,0.0,0.0153120029717683,-0.0086137577891349,0.9303371906280518,0.3662840723991394,0.001165531167274,0.0342118217547888,0.0092637905651173,-0.0940380692481994,0.0249646306037902,-0.4017276763916015,6,340,11375,18882
16.6,1788343533962,4.563380241394043,5.6619720458984375,0.001535007962957,-0.0199599787592887,0.1777158230543136,0.983878254890442,0.1735819428307008,0.0052698185378764,0.0002173759314721,0.0048548122867941,-0.079634815454483,0.0446367859840393,0.0187817104160785,-0.0096133584156632,0.9306504726409912,0.3653007447719574,-0.0061189924326288,-0.01640334698528,-0.0198184255039186,0.262616753578186,-0.004198133945465,-0.0591287612915039,14,523,11827,20689
16.7,1788343534062,4.478873252868652,5.464788913726807,0.0017613891977816,-0.0201217997819185,0.1798907071352005,0.9834792017936708,0.1759722051123095,0.0050349439190466,-0.0001040018266967,0.0107982838526368,0.0351988263428211,0.0692549124360084,0.0176753550767898,-0.0084173567593097,0.9329026341438292,0.3595961034297943,0.0111782036497224,0.0445562543354998,0.1157125376017411,0.2844836711883545,-0.0063156485557556,-0.173466682434082,10,314,11533,21054
16.8,1788343534162,4.14084529876709,5.830986022949219,0.0017613891977816,-0.0201217997819185,0.1798907071352005,0.9834792017936708,0.1759722051123095,0.0050349439190466,-0.0001040018266967,0.0107982838526368,0.0351988263428211,0.0692549124360084,0.0172810982912778,-0.0081603927537798,0.9336020350456238,0.3578017055988312,0.0068300448143798,0.0228883088206207,0.0963353085395221,-0.7986325621604919,0.308093249797821,-0.0464582443237304,43,319,5503,15507
16.9,1788343534262,1.154929518699646,3.380281686782837,0.0012489388464018,-0.0131888790056109,0.1961856484413147,0.9804772734642028,0.1049042096769746,0.0049649204777227,-0.0003089298887743,0.0148717351257801,0.1640340089797973,0.2652623057365417,0.0095532350242137,-0.0048015350475907,0.938979148864746,0.3438080549240112,0.0176310714277733,0.1695724208030039,0.3176335164522244,-0.6659291982650757,0.2223878502845764,0.1350526809692382,24,278,0,10574
17.0,1788343534362,0.5352112650871277,1.97183096408844,0.0001925168326124,-0.0073832627385854,0.2104302942752838,0.9775809049606324,0.0593695047324049,0.0023576379438714,-0.0001698781228329,0.0008574383682571,0.0964366421103477,0.2831519842147827,0.0043737944215536,-0.0029120566323399,0.944076418876648,0.3296850323677063,0.0047159166127878,0.0947963566873461,0.2010652181532046,-0.0435429215431213,0.0524540543556213,-0.0839910507202148,0,263,-11012,10292
17.1,1788343534462,-1.1267606019973757,1.6619718074798584,-0.0005650094826705,-0.0029347357340157,0.2203043848276138,0.9754266142845154,0.020389302410619,0.0047187721580089,-2.3294785767561448e-05,0.0066489563323557,0.114585667848587,0.2304521203041076,0.002836350351572,-0.0019722478464245,0.9499438405036926,0.3124016523361206,0.0085357191468771,-0.0569930463184405,0.4208935869956596,0.0162149667739868,-0.0659399032592773,0.1092691421508789,241,425,-11183,11583
17.2,1788343534562,-1.774647831916809,1.7464789152145386,0.0002525719464756,-0.0049101863987743,0.2397610247135162,0.9708195328712464,0.0061619522541842,0.0004458220533811,8.32115700245094e-06,0.0086336825042963,-0.0916821435093879,0.4379245340824127,0.0075608436018228,-0.0031958958134055,0.9563504457473756,0.292106956243515,0.0112470219763011,-0.1131263847282128,0.5287948193715335,-0.3141593337059021,0.150595486164093,0.0732021331787109,244,366,-11041,11880
17.3,1788343534662,-1.4929577112197876,1.380281686782837,0.0020084790885448,-0.0099513074383139,0.2666070461273193,0.9637519121170044,-0.0007844963115743,0.0051511084106177,1.432035623727489e-06,0.0151650318875908,-0.0833928734064102,0.5299367904663086,0.0113328984007239,-0.0038830703124403,0.9637513756752014,0.266532838344574,0.0113572015051761,-0.0600031144536766,0.4309308470130279,-0.1136413812637329,0.160858929157257,0.0337915420532226,197,334,-9394,11098
17.4,1788343534762,-1.408450722694397,1.5774648189544678,0.0028345482423901,-0.012201496399939,0.2838317155838012,0.958792209625244,-0.0018335396052167,0.0028082736665146,-8.906717646431422e-07,0.0103064840659499,-0.0589178577065467,0.4416933953762054,0.0113328984007239,-0.0038830703124403,0.9637513756752014,0.266532838344574,0.0113572015051761,-0.0600031144536766,0.4309308470130279,-0.1136413812637329,0.160858929157257,0.0337915420532226,202,316,-9872,10779
17.5,1788343534862,-1.5774648189544678,1.6056338548660278,0.003684464842081,-0.0141645753756165,0.2962958812713623,0.9549840688705444,0.0014755249523998,0.0012157158810294,7.660658014175475e-07,0.0137672880664467,-0.0698717013001442,0.426407903432846,0.0172062963247299,-0.0046284608542919,0.9732252955436708,0.2291617095470428,0.0148312412576298,-0.0565367855470855,0.4326816599173838,-0.0057382583618164,-0.1157987713813781,0.1657228469848632,211,356,-9233,10678
17.6,1788343534962,-1.5211267471313477,1.408450722694397,0.0055054975673556,-0.0180523302406072,0.3261472582817077,0.9451305866241456,-0.001463052610231,0.0028228743306462,5.915501547030403e-07,0.0104911653324961,-0.0403682217001915,0.4119226336479187,0.0182300359010696,-0.004757760092616,0.9763715863227844,0.2152756601572036,0.0098691779737958,-0.0072164512574336,0.3989853927978652,0.053539752960205,-0.0474401712417602,0.0213346481323242,219,387,-10182,11973
17.7,1788343535062,-1.042253494262695,1.0140844583511353,0.0056945485994219,-0.0177136044949293,0.3435629904270172,0.9389452338218688,0.0022378356331434,0.0037996259778678,4.454093438094241e-07,0.0178067404776811,0.0023670895025134,0.4126976430416107,0.0178434774279594,-0.0043118437752127,0.9805167317390442,0.1955760866403579,0.0163066040414792,0.0138076246791122,0.4100381371266484,0.2372730374336242,-0.3326225876808166,0.0057058334350585,225,309,-8511,10731
17.8,1788343535162,-1.183098554611206,1.3521126508712769,0.0060098567046225,-0.0176236201077699,0.3609957993030548,0.932381510734558,0.000277140833649,0.0012253057522007,-3.865491686854667e-09,0.0122578972950577,-0.0145884957164525,0.3517544567584991,0.0181672796607017,-0.0039043519645929,0.9851495623588562,0.1706902235746383,0.0134318465812423,0.0068964771047753,0.312586507346426,-0.0382843017578125,0.0574486255645751,-0.0378389358520507,186,510,-7894,10678
17.9,1788343535262,-1.154929518699646,1.211267590522766,0.0063696857541799,-0.0176519062370061,0.3774359226226806,0.925845503807068,0.002175598643599,-8.733685433229698e-05,4.534847621389421e-07,0.0121322199702262,-0.0051620500162243,0.3211052715778351,0.0186936501413583,-0.0038074059411883,0.9867878556251526,0.1608904749155044,0.0116570214361844,-0.0164340659529176,0.3173992364622294,0.0542079210281372,-0.0310210585594177,0.0988130569458007,290,454,-8809,10449
18.0,1788343535362,-1.211267590522766,1.211267590522766,0.0066386326216161,-0.0173097103834152,0.3929890096187591,0.9193562865257264,-0.0001095525917117,0.0021938754470161,-2.403381683462024e-07,0.0145961241796612,0.015885392203927,0.3469966351985931,0.01866708509624,-0.003315451554954,0.9907050132751464,0.1347005516290664,0.0109535859332724,-0.0201754623820447,0.3604444072267457,0.0209150314331054,-0.0261183381080627,-0.1294097900390625,185,305,-8410,10088
18.1,1788343535462,-1.1267606019973757,1.0140844583511353,0.0069900415837764,-0.0175443813204765,0.4079647660255432,0.912802278995514,-0.000219049842398,0.0022378248540293,-2.2661596944536384e-08,0.0112866275012493,-0.0109591940417885,0.3565264642238617,0.0183477867394685,-0.0031074341386556,0.99206280708313,0.1243591904640197,0.0121093502120812,0.0074031699498492,0.342877726515885,0.0436547398567199,-0.0803641676902771,0.1144056320190429,197,340,-7790,10193
18.2,1788343535562,-0.7042253613471985,0.98591548204422,0.0069900415837764,-0.0175443813204765,0.4079647660255432,0.912802278995514,-0.000219049842398,0.0022378248540293,-2.2661596944536384e-08,0.0112866275012493,-0.0109591940417885,0.3565264642238617,0.0184410847723484,-0.0030335849151015,0.9929057359695436,0.1174268051981926,0.0086413828331715,-0.0036715901120769,0.2818131086299179,0.1519241333007812,-0.0122979879379272,-0.0665340423583984,208,252,-7421,8042
18.3,1788343535662,-0.8169013857841492,0.0,0.0068735480308532,-0.01638138666749,0.4271450638771057,0.9040086269378662,0.0010712075321382,0.0014605588325602,-8.811889638110653e-07,0.0108933923766016,0.0356289967894554,0.2355479598045349,0.0181571543216705,-0.0027070995420217,0.9941911101341248,0.1060518249869346,0.0042025229026983,-0.0149399587863558,0.1833760491357393,0.0736755728721618,-0.027237594127655,0.1306362152099609,266,435,-7455,8671
18.4,1788343535762,0.0,0.0,0.0076223681680858,-0.0172598753124475,0.4411291480064392,0.8972452282905579,0.0023636112047535,-0.0001107834503865,7.247802111626294e-07,0.0080002741888165,-0.0216606799513101,0.2051448076963424,0.0165736749768257,-0.0024749422445893,0.995344340801239,0.0949155837297439,-0.0011883944584672,0.0674747432158886,-0.0404664930173226,0.0996450185775756,0.0932956337928772,0.2431488037109375,36,67,0,0
18.5,1788343535862,2.507042169570923,3.94366192817688,0.0087997717782855,-0.0193294435739517,0.4424013793468475,0.8965656161308289,0.0481227589843689,-0.0061741947971999,0.0001378914205389,0.0090807564556598,-0.1757599264383316,0.0036647995002567,0.0224711168557405,-0.0025127530097961,0.9952629208564758,0.0945536941289901,0.0274312815976081,-0.1762561256853765,0.0253735952692186,0.2903506159782409,0.3018873929977417,-0.0905342102050781,94,527,8790,19046
18.6,1788343535962,4.0,6.8450703620910645,0.0119371395558118,-0.0231838673353195,0.4416864216327667,0.8967904448509216,0.1198841969212975,-0.0038516354720543,0.0002387579544809,0.0151400472968816,-0.070245049893856,-0.0504991970956325,0.0259099267423152,-0.0021887486800551,0.995023787021637,0.0961851626634597,-0.0142096049167371,0.0090862133246021,-0.0485583246075849,0.6855250597000122,0.0584837198257446,-0.0948028564453125,90,501,12806,24709
18.7,1788343536062,4.197183132171631,5.915493011474609,0.010413784533739,-0.0221913643181324,0.4426345527172088,0.8963669538497925,0.1788636848330938,0.0096849774461486,-0.0001657628312081,-0.0226866547018289,0.0505762621760368,0.069419614970684,0.0218532346189022,-0.003315819427371,0.995594561100006,0.0911203175783157,-0.0431219299457944,0.1534740668005689,0.2059911690367242,0.2014636993408203,-0.3286903500556946,0.4846639633178711,9,497,9526,26620
18.8,1788343536162,3.91549301147461,6.535211086273193,0.0081724170595407,-0.0187527351081371,0.4529337286949157,0.8913095593452454,0.1903657454826115,0.0058383984768619,-0.0002073958572275,0.0131297139450907,0.0313617549836635,0.2823901772499084,0.0204229857772588,-0.002623101696372,0.9967032074928284,0.0784778073430061,0.0248612127007098,-0.0101276024859287,0.2970980572814884,-0.1186936497688293,-0.0251753330230712,-0.078007698059082,6,439,8781,22713
18.9,1788343536262,3.8309860229492183,6.8450703620910645,0.0085760662332177,-0.0185741800814867,0.4588947296142578,0.8882550597190857,0.1790948136280919,0.0046705946372696,3.145099868178336e-05,0.0277731847018003,-0.0015508676879107,0.3216753900051117,0.0182356890290975,-0.0018596351146697,0.9978583455085754,0.0627911910414695,0.0177620019931665,0.0163611492397394,0.3213633445822684,-0.0895615816116333,0.0390424132347106,0.3551836013793945,37,375,9985,20608
19.0,1788343536362,4.169013977050781,6.253520965576172,0.0084414584562182,-0.01662203297019,0.4807769358158111,0.8766447305679321,0.1762919782985701,0.0053188381186808,-1.6675630269853251e-06,0.0164492633193731,-0.0073433443903923,0.3131764233112335,0.0174359623342752,-0.0011591706424951,0.9988030195236206,0.0456872545182704,0.0178971681883272,0.0735486580238574,0.2225906816736608,0.3041556477546692,-0.1798378825187683,0.3775777816772461,45,384,11478,19969
19.1,1788343536462,4.084506988525391,5.464788913726807,0.0080382619053125,-0.0141526591032743,0.4919958412647247,0.8704454302787781,0.1739122167076892,0.003942795032092,-9.377525318749188e-05,0.0180577021092176,0.0356260575354099,0.2145145684480667,0.0155351646244525,-0.0004887506365776,0.9992218613624572,0.0362503044307231,0.0080393895014803,0.056785929506687,0.1860338895809114,0.113729178905487,-0.2946493029594421,0.4510498046875,34,337,11651,22648
19.2,1788343536562,3.746478796005249,5.605633735656738,0.0074576963670551,-0.0127501375973224,0.5000475645065308,0.8658720254898071,0.1747121784775454,0.0072604051150494,-5.838145413305144e-05,0.006815989036113,0.0359767526388168,0.1888161450624466,0.0144790699705481,-0.0002413764595985,0.9995132684707642,0.027634410187602,0.0148630469512568,0.0379957421926298,0.2034755272530767,-0.2795091271400451,0.2361260056495666,-0.198190689086914,21,395,10135,24533
19.3,1788343536662,4.14084529876709,6.366197109222412,0.0075617427937686,-0.0122567918151617,0.5092523097991943,0.8604967594146729,0.1709597057578196,0.0103527391989707,1.77638415494132e-05,0.0132433800026774,0.002266040071845,0.2309755235910415,0.0142195159569382,2.225581556558609e-05,0.9997523427009584,0.0171184446662664,0.0059787295472686,0.0199451945721071,0.2117460116759245,0.0632676482200622,-0.1630371212959289,-0.1653480529785156,38,341,11161,19969
19.4,1788343536762,4.2816901206970215,6.0,0.0072717783041298,-0.0114431455731391,0.5189648866653442,0.8546879887580872,0.1727119470738877,0.0070553474284589,-2.940172533149865e-06,0.0052267820574343,0.0074806907214224,0.2036518156528473,0.0137956459075212,9.945034980773926e-05,0.9998916387557985,0.0051406761631369,-0.0022064363602025,-0.0219785736203346,0.2016735298009405,-0.2180128097534179,0.1519773006439209,0.1298475265502929,55,325,12761,18853
19.5,1788343536862,4.535211086273193,5.633802890777588,0.0077141695655882,-0.0123840114101767,0.5260304808616638,0.8503404855728149,0.1742575910206159,0.0041987257551943,8.230698136452672e-05,0.0008013574406504,-0.0156556591391563,0.1418340504169464,-0.0147251244634389,-0.0001071104779839,-0.9998896718025208,0.0019820379093289,0.0026416438698014,-0.0053752118274351,0.1553630746210064,-0.0654396414756774,-0.0647985339164733,-0.0049877166748046,18,338,9820,22144
19.6,1788343536962,4.253520965576172,5.97183084487915,0.0084035862237215,-0.0135093107819557,0.5337255001068115,0.8455081582069397,0.1752688005993196,0.0062261513054251,9.02006036696392e-05,-0.0029550613835453,-0.042844895273447,0.1868695765733719,-0.0176966469734907,0.0002176444977521,-0.9997527003288268,0.0134647293016314,-0.0094636049622881,-0.0878092909897939,0.1823671606068267,-0.2201017141342163,0.1859313249588012,-0.3525104522705078,20,278,11197,20503
19.7,1788343537062,4.676056385040283,5.014084339141846,0.0090398425236344,-0.015784041956067,0.5401899218559265,0.8413465023040771,0.1734269447218245,0.0019487785999605,8.987656516450126e-05,-0.0121365273371338,-0.0197572447359561,0.1488542258739471,-0.018152117729187,0.0007615378126502,-0.9996605515480042,0.0186722949147224,-0.010397926419271,-0.0006766851288544,0.0856152922022553,-0.0717367529869079,-0.1494141221046447,0.4351339340209961,37,387,11947,22651
19.8,1788343537162,4.591549396514893,5.97183084487915,0.0093842558562755,-0.0170712452381849,0.544840931892395,0.8383131623268127,0.1771738920565286,0.0053762502782765,-2.4475635015317865e-05,-0.0074012451805174,-0.0206019524484872,0.0963610336184501,-0.0199553053826093,0.0010782498866319,-0.9994975328445436,0.0246056020259857,-0.0047041584998281,-0.0157008053074752,0.0938546927367705,0.2595794200897217,-0.0955167412757873,0.4838409423828125,31,407,11736,19032
19.9,1788343537262,4.647887229919434,5.633802890777588,0.0099136494100093,-0.0179019700735807,0.5488985180854797,0.8356384634971619,0.1783228113944236,0.0061485076566785,5.21968624244096e-05,0.0061518149450421,-0.0083587486296892,0.1014871895313263,-0.0205837097018957,0.0010134615004062,-0.9993645548820496,0.0290813595056533,-0.0012882572166193,-0.0159482174783751,0.092374525133609,0.0416198372840881,0.1178841590881347,-0.1257600784301757,18,256,11504,20180
20.0,1788343537362,4.563380241394043,5.014084339141846,0.0099643897265195,-0.0183732789009809,0.5525978803634644,0.8331859707832336,0.1741326702525631,0.0035891299672644,2.1777791392056297e-05,-0.0011845885310322,-0.0166918933391571,0.0876964181661605,-0.0215440895408391,0.0011740820482373,-0.9992126226425172,0.0332963652908802,0.0010594774012531,-0.0588648621477678,0.1069866423928395,-0.1026743650436401,-0.1838026642799377,-0.1191577911376953,44,428,11821,19333
20.1,1788343537462,4.619718074798584,5.605633735656738,0.0109364399686455,-0.0197201482951641,0.5563064813613892,0.8306711912155151,0.1762283764164802,0.0014942524961532,7.915576699015297e-05,0.0042842365801334,-0.0284400191158056,0.0913605093955993,-0.0224566534161567,0.0011010123416781,-0.9990511536598206,0.0372995771467685,-0.0004365090987811,-0.003590488023465,0.074669463285788,0.1794077157974243,0.075440227985382,-0.0379314422607421,50,438,11757,20813
20.2,1788343537562,4.8450703620910645,5.521126747131348,0.0107787633314728,-0.0196778960525989,0.5599622130393982,0.8282142877578735,0.1759353687334471,0.003133128640486,1.0655516726544706e-05,0.0015270782168954,-0.0042243381030857,0.0866454020142555,-0.0223817639052867,0.001380980014801,-0.9988824129104614,0.041607778519392,-0.0104583845492338,0.0030737528605477,0.0447716152085732,0.1845642924308776,-0.2055309414863586,0.1907768249511718,74,366,14468,17531
20.3,1788343537662,5.014084339141846,5.633802890777588,0.009978805668652,-0.0193177629262208,0.5599969029426575,0.828209400177002,0.1805817408921178,-0.0015427535059356,-4.6609193798807325e-05,-0.0065538641065359,0.0272219534963369,-0.0240680146962404,-0.0214852970093488,0.0017308145761489,-0.99892920255661,0.0409365072846412,-0.0075885241985348,0.019134294336619,-0.0137151828851049,-0.1946585178375244,0.1341287493705749,0.2537031173706054,30,292,12744,18010
20.4,1788343537762,4.929577350616455,5.521126747131348,0.0095708984881639,-0.0192620959132909,0.559628963470459,0.8284640908241272,0.1906695648306572,-0.0012021253797446,1.2174905004995764e-07,-0.0114140659570693,0.0035368320532143,-0.0135058052837848,-0.0207679066807031,0.0019802832975983,-0.9989506602287292,0.0407723858952522,0.0004327045536746,0.039497085258203,0.0073377876662975,0.0333161354064941,-0.1220320463180542,0.2451848983764648,63,267,13857,17428
20.5,1788343537862,4.957746505737305,5.605633735656738,0.0089201871305704,-0.0184266828000545,0.5593150854110718,0.8287023305892944,0.1773588076811099,-0.0042975028851428,-8.87631695315386e-05,-0.0069079734385013,0.0347362197935581,-0.0331871137022972,-0.0194935295730829,0.0020946860313415,-0.9990478157997132,0.0389758683741092,0.0033207003660709,0.0423133262762422,-0.0573400311897056,0.1031062602996826,0.0274457931518554,0.2789630889892578,53,349,14067,16820
20.6,1788343537962,5.211267471313477,4.676056385040283,0.0084532937034964,-0.0180909279733896,0.556758463382721,0.8304343819618225,0.1718379694817183,-0.0005915928927149,3.5612791619386176e-05,-0.0079844528809189,-0.0166403073817491,-0.0551906041800975,-0.0198568440973758,0.0024209599941968,-0.9991390705108644,0.0363468043506145,-0.0084208291215002,0.0007969953311214,-0.0584450855730596,0.2651689052581787,-0.2121862173080444,0.0809469223022461,70,400,14299,18977
20.7,1788343538062,5.154929637908936,4.563380241394043,0.0081804702058434,-0.0175063032656908,0.552919328212738,0.8330106139183044,0.1758985214114403,-0.0069368794010136,-6.903726050849945e-05,0.0005672384868375,0.0129579296335577,-0.093091182410717,-0.0192006230354309,0.0021559027954936,-0.9993162751197816,0.0315223038196563,0.0038116068239801,-9.134459603025762e-05,-0.0465595436965402,0.1323257684707641,0.1115883588790893,-0.1106348037719726,49,316,13382,20289
20.8,1788343538162,5.042253494262695,4.591549396514893,0.0083941612392663,-0.017715074121952,0.5513263940811157,0.8340593576431274,0.1804957159886577,0.0001248637453018,-4.6225030037588e-08,0.00244119646959,-0.0043697920627892,-0.020093061029911,-0.020094409584999,0.0022299475967884,-0.9993467330932616,0.029958713799715,-0.006126965608068,-0.0408510654819068,-0.0453082082650526,-0.0987009406089782,-0.0425188541412353,-0.303018569946289,68,364,13629,20526
20.9,1788343538262,5.098591327667236,5.690140724182129,0.0088161928579211,-0.0183607600629329,0.5504034161567688,0.8346503973007202,0.1806906746106285,-0.0003607106610035,2.0132963303118388e-05,0.0013586359564214,-0.0076232710853219,-0.015037527307868,-0.0199284106492996,0.0021351184695959,-0.999379813671112,0.0289540067315101,-0.0013068730226141,0.0214216244185094,-0.0314689125883197,0.3007481098175049,-0.3377545475959778,0.1811428070068359,67,300,13366,20334
21.0,1788343538362,5.098591327667236,5.549295902252197,0.0082480534911155,-0.0175886712968349,0.5490419268608093,0.8355689644813538,0.1742636492929115,-0.0021365404362252,-0.0001165198744265,-0.0030382166150957,0.0244395099580287,-0.0277614835649728,-0.0197511985898017,0.002361211925745,-0.999434530735016,0.0271114651113748,-0.0044243497643854,-0.0399521146645847,-0.0270853351742668,-0.274042546749115,0.1556036472320556,-0.4386825561523437,45,381,13092,17278
21.1,1788343538462,5.042253494262695,5.098591327667236,0.0081455018371343,-0.0175648834556341,0.5474381446838379,0.8366220593452454,0.1760548790843595,-0.0006552641763059,-6.97586510181536e-06,0.0019837233703583,0.0081144450232386,-0.0428503081202507,-0.0191651992499828,0.0022849719971418,-0.9994800090789796,0.0258297435939311,0.0041548998256494,0.0145609688884777,-0.0271212480652243,0.1490409970283508,-0.1105600595474243,0.323582649230957,46,283,13391,18900
21.2,1788343538562,5.211267471313477,5.464788913726807,0.0081455018371343,-0.0175648834556341,0.5474381446838379,0.8366220593452454,0.1760548790843595,-0.0006552641763059,-6.97586510181536e-06,0.0019837233703583,0.0081144450232386,-0.0428503081202507,-0.0185592658817768,0.002349984832108,-0.9995741248130798,0.0223974995315074,-0.0097292810723235,0.0040465504702951,-0.0852510510628115,0.1411514282226562,-0.0315091013908386,-0.0877628326416015,59,332,13535,15987
21.3,1788343538662,5.267605781555176,4.8450703620910645,0.0074712978675961,-0.0165971480309963,0.5437030792236328,0.8390802145004272,0.1797105292605607,-0.0025251191842247,-7.271510681907682e-05,-0.006683939602226,0.0347044877707958,-0.0889650136232376,-0.0177991725504398,0.0023450758308172,-0.9996209144592284,0.0208728834986686,-0.0003580893873017,0.0368818237682393,-0.0735281600616375,-0.0894917249679565,0.0667036771774292,0.0595455169677734,59,332,13535,15987
21.4,1788343538762,4.957746505737305,4.929577350616455,0.0077240485697984,-0.0173755679279565,0.5404483675956726,0.8411623239517212,0.1720545692295517,-0.0015911174948469,9.683058572578304e-05,-0.0039317738264799,-0.0328153818845748,-0.0622662939131259,-0.0188827961683273,0.0026108026504516,-0.9996806979179382,0.0165858808904886,-0.0046308101289356,0.0027296279938337,-0.0565377370257478,0.2714568972587585,-0.1109992265701294,-0.0479183197021484,27,240,13541,19276
21.5,1788343538862,4.957746505737305,4.929577350616455,0.0074482671916484,-0.0170196387916803,0.5370726585388184,0.8433313369750977,0.1794986951575563,-0.002536727896582,-6.054102692326445e-05,0.000361934187822,0.0136155122891068,-0.0802665203809738,-0.0183985102921724,0.0026797568425536,-0.9997255206108092,0.0142598841339349,-0.0016630801028692,0.0182830802754636,-0.0753328604649541,0.0968888401985168,-0.0846567153930664,-0.0298671722412109,27,240,13541,19276
21.6,1788343538962,4.816901206970215,4.901408672332764,0.0072168307378888,-0.0170385427772998,0.5352036952972412,0.8445202708244324,0.1821535710047827,-0.0048980320153731,-3.692641202060703e-05,-0.0100452015176415,0.0046825888566672,-0.0902705565094947,-0.0182462204247713,0.0027068592607975,-0.9997663497924804,0.0112686920911073,0.0015612138123572,0.0109490405034541,0.006304390958142,0.058168351650238,-0.2134045362472534,0.1621007919311523,42,415,12668,20690
21.7,1788343539062,5.521126747131348,4.11267614364624,0.0072168307378888,-0.0170385427772998,0.5352036952972412,0.8445202708244324,0.1821535710047827,-0.0048980320153731,-3.692641202060703e-05,-0.0100452015176415,0.0046825888566672,-0.0902705565094947,-0.0181213840842247,0.0030114129185676,-0.9997885227203368,0.0092479232698678,-0.0153648892137928,0.0077129154322174,-0.0997129676299543,0.1594277620315551,-0.1845614910125732,0.0940151214599609,69,324,15383,18771
21.8,1788343539162,5.7183098793029785,4.11267614364624,0.0072168307378888,-0.0170385427772998,0.5352036952972412,0.8445202708244324,0.1821535710047827,-0.0048980320153731,-3.692641202060703e-05,-0.0100452015176415,0.0046825888566672,-0.0902705565094947,0.0144061613827943,-0.003207953646779,0.9998671412467957,0.006925088353455,-0.011612557179017,0.0021711474838756,-0.1626701296776959,-0.2917432785034179,-0.1042705178260803,0.3301992416381836,53,292,13963,18913
21.9,1788343539262,5.014084339141846,4.563380241394043,0.0059521337971091,-0.0157345775514841,0.5192250609397888,0.8544719815254211,0.1725160447700841,-0.0016847252009684,0.0001493529997785,-0.0019378727301955,-0.0886978134512901,-0.0615262500941753,0.0194536391645669,-0.0032325368374586,0.9997849464416504,0.006424207240343,-0.0011694173779702,-0.1386946551946946,0.0385974891145887,0.3516885638236999,-0.1213443279266357,-0.3465509414672851,79,461,14316,18851
22.0,1788343539362,5.098591327667236,4.760563373565674,0.0066698286682367,-0.0168063733726739,0.5207073092460632,0.8535436987876892,0.1768544147333325,0.0003977386820348,-0.0002213198445444,0.0026930749882012,0.0463716797530651,0.0511644668877124,0.0177520923316478,-0.0030887462198734,0.9997862577438354,0.0101432735100388,0.0031650434102257,0.0292122597287281,-0.1306256529879868,-0.4305404424667358,-0.1387833356857299,-0.1043767929077148,58,420,13933,19948
22.1,1788343539462,3.323943614959717,3.4084506034851074,0.0065769050270318,-0.0164454374462366,0.5162068605422974,0.8562807440757751,0.181247727678622,-0.0050827405921297,-7.876816372471342e-05,0.0032267102506011,0.0332139357924461,-0.1211029738187789,0.0135940592736005,-0.0030593732371926,0.9998133778572084,0.0133807845413684,-0.000210707795339,0.1357564409828602,-0.0559212780089496,-0.8306562900543213,0.1262787580490112,-0.0687837600708007,95,119,4910,12498
22.2,1788343539562,1.7183098793029783,1.154929518699646,0.0056718727573752,-0.0151254227384924,0.5147063732147217,0.8572143316268921,0.1592048497398076,0.0026879241216262,-0.0001034274492871,-0.0050271283835172,0.0647893622517585,-0.0711580589413642,0.0022731507197022,-0.0027032820507884,0.9998865723609924,0.0146441217511892,0.0068018787995041,0.3643627909442423,-0.0543715606054226,-0.7132109999656677,0.0280454158782959,0.1229209899902343,24,277,6120,10315
22.3,1788343539662,4.788732528686523,4.732394218444824,0.0056718727573752,-0.0151254227384924,0.5147063732147217,0.8572143316268921,0.1592048497398076,0.0026879241216262,-0.0001034274492871,-0.0050271283835172,0.0647893622517585,-0.0711580589413642,0.0113533278927207,-0.0029664514586329,0.999801218509674,0.0161222647875547,-0.0023489214123097,-0.3175528998072517,0.0042434300016294,1.087480068206787,0.0825890898704528,0.5178966522216797,171,350,16346,21287
22.4,1788343539762,5.126760482788086,5.521126747131348,0.0116695277392864,-0.0213197320699691,0.509194552898407,0.8603082299232483,0.1451858220275467,-0.0050187246061376,0.0011545507002568,0.0728606954216957,-0.3386363685131073,-0.1094910651445388,0.0113533278927207,-0.0029664514586329,0.999801218509674,0.0161222647875547,-0.0023489214123097,-0.3175528998072517,0.0042434300016294,1.087480068206787,0.0825890898704528,0.5178966522216797,68,531,13908,21171
22.5,1788343539862,5.211267471313477,5.352112770080566,0.0093523105606436,-0.0200208891183137,0.5037590265274048,0.8635615110397339,0.1548535769197138,-0.0092630850484126,-3.820094420596458e-05,-0.0580272041261196,0.0899398401379585,-0.2459523975849151,0.0176821108907461,-0.003080821596086,0.9994001984596252,0.0296154860407114,0.0079997253944204,0.0179407783049957,0.0640000451078996,-0.0496131181716918,0.3440958261489868,0.0327186584472656,33,435,13103,21627
22.6,1788343539962,4.450704097747803,5.492957592010498,0.0062954644672572,-0.0158479064702987,0.5024615526199341,0.8644313812255859,0.1819646173666824,0.0082371950626421,-0.000127584153459,0.0088206315413117,0.0446161888539791,0.1482250988483429,0.0186189506202936,-0.0029548350721597,0.9995235204696656,0.0244432110339403,0.0041582842620296,-0.0657284370924821,0.0468192952927375,-0.1357066631317138,0.0507745742797851,-0.1079740524291992,25,468,11339,20938
22.7,1788343540062,4.366197109222412,5.042253494262695,0.0066540115512907,-0.0164579506963491,0.5038887858390808,0.8635861277580261,0.178777290153923,0.0053776078503245,1.6561863604495932e-05,0.0012381069827824,-0.0281110722571611,0.0654149428009986,0.018251571804285,-0.0027239751070737,0.9995999336242676,0.021436721086502,0.0077257168815198,0.0134903515048535,0.0538738471573499,0.4531371593475342,-0.2917819023132324,0.3006525039672851,25,468,11339,20938
22.8,1788343540162,5.098591327667236,5.521126747131348,0.0069997403770685,-0.0164235178381204,0.5065327882766724,0.862035870552063,0.1748859061086005,-0.0043982502467998,-5.059799155786334e-05,0.0011961163254454,0.0318487323820591,-0.0182310286909341,0.0177214164286851,-0.002490984275937,0.9995548129081726,0.0238745119422674,-0.0030887593146493,-0.0300869481967484,-0.0546126996900403,-0.121362566947937,0.0785871148109436,-0.196533203125,25,468,11339,20938
22.9,1788343540262,4.985915660858154,5.605633735656738,0.0069230743683874,-0.0160392317920923,0.5060796141624451,0.8623097538948059,0.180913046650543,-0.0029096357905941,-5.527512987728829e-05,0.0047886054962873,0.0149207459762692,-0.0213232953101396,0.0176194179803133,-0.0024373680353164,0.9994966387748718,0.026268370449543,-0.0006052429914353,0.0141000907776903,-0.0545528744554636,-0.0318828821182251,-0.0288212895393371,0.1569204330444336,66,418,12912,18615
23.0,1788343540362,5.014084339141846,4.816901206970215,0.0070221219211816,-0.015948511660099,0.5022143125534058,0.8645675778388977,0.1752464090551025,-0.0015746710657285,-0.0001097968790497,-0.0004999348893761,0.0191699117422103,-0.0492329485714435,0.0176194179803133,-0.0024373680353164,0.9994966387748718,0.026268370449543,-0.0006052429914353,0.0141000907776903,-0.0545528744554636,-0.0318828821182251,-0.0288212895393371,0.1569204330444336,47,411,13811,20434
23.1,1788343540462,5.014084339141846,5.7183098793029785,0.0073875617235898,-0.0162862315773963,0.5017616152763367,0.8648210167884827,0.1805261852039382,0.0001291334550882,9.633080616138569e-08,0.0091950995847582,-0.0317782871425151,-0.034955695271492,0.017949616536498,-0.002106717787683,0.9994207620620728,0.0288359206169843,0.0048872491786504,-0.0028127359191785,-0.017652657263336,0.1071923971176147,-0.0705940127372741,0.1805219650268554,35,381,12730,18430
23.2,1788343540562,4.929577350616455,5.577464580535889,0.0075471568852663,-0.0162510368973016,0.5008265972137451,0.8653620481491089,0.1782339790691226,-0.0022412988330373,-7.256612034712119e-07,0.0034369160421192,8.771411376073956e-05,-0.013570980168879,0.0185781903564929,-0.0023264531046152,0.999398708343506,0.0291810277849435,-0.0098045513515566,-0.0074443067863866,-0.0078633373231151,-0.082660973072052,0.2380056381225586,-0.1305503845214843,35,381,12730,18430
23.3,1788343540662,4.422535419464111,5.77464771270752,0.0078359777107834,-0.0168804172426462,0.5005975365638733,0.8654801249504089,0.176806667763253,0.0001136793144081,1.945569138996579e-07,0.0,0.0,0.0,0.0189293716102838,-0.0025651725009083,0.9994081258773804,0.0286093018949031,0.001990944974404,-0.0176029148565245,0.0504351553117168,-0.1743181943893432,0.0928502082824707,0.0630044937133789,35,381,12730,18430
23.4,1788343540762,4.8450703620910645,4.929577350616455,0.0082614449784159,-0.0180921573191881,0.5031849145889282,0.8639498949050903,0.1804605046036643,0.0002925822165649,2.65833260205491e-05,0.0035945747513324,-0.0130529720336198,0.0792298540472984,0.01947757974267,-0.0025989096611738,0.9994816184043884,0.025501262396574,-0.012255717206149,0.0271056920876416,0.036642681336119,0.3304923772811889,0.07990163564682,0.0945634841918945,68,441,14034,20244
23.5,1788343540862,4.929577350616455,5.492957592010498,0.0082614449784159,-0.0180921573191881,0.5031849145889282,0.8639498949050903,0.1753639210554715,0.0002265133930416,-1.824735746866665e-08,0.0,0.0,0.0,0.0196262933313846,-0.002906403504312,0.9994339942932128,0.0271678417921066,-0.003405806765118,-0.0097281726258095,-0.0416073069806381,0.0432997941970825,0.2586087584495544,0.3015832901000976,31,281,12858,18442
23.6,1788343540962,4.957746505737305,4.732394218444824,0.0080120889469981,-0.0184627808630466,0.5020591020584106,0.8645991683006287,0.1735998552348717,-0.0031349705327941,1.6247552190866893e-07,-0.0003172273572999,-0.0097274128347635,-0.0077516287565231,0.0201999824494123,-0.0029961550608277,0.99941486120224,0.0274422354996204,-0.0106474981286264,-0.0098664837003799,-0.01631734690558,-0.0162612795829772,-0.1524473428726196,0.1243238449096679,22,356,13156,20721
23.7,1788343541062,4.873239517211914,4.788732528686523,0.0079538859426975,-0.0185864511877298,0.5010275840759277,0.8651951551437378,0.1830081875247869,-0.0020419513961943,-4.0816431612236406e-05,-0.0006994197610765,0.014123004861176,-0.0365572795271873,0.0200773496180772,-0.0027993991971015,0.999411940574646,0.0276575218886137,0.0091361879365161,0.0003810832714828,0.0494620309808343,0.0005397796630859,0.0338640809059143,0.1752691268920898,22,356,13156,20721
23.8,1788343541162,4.957746505737305,5.014084339141846,0.0080890255048871,-0.0179257597774267,0.5015783905982971,0.8648886680603027,0.1746303298532426,-0.0015671446859755,-5.29643541397337e-05,0.007698674686253,0.018738692626357,-0.0064538642764091,0.0192650500684976,-0.0025073606520891,0.9994162321090698,0.02810282073915,-0.0090634972327863,-0.0088151498297502,0.002706835483388,0.0702428221702575,0.0774566531181335,0.2396144866943359,44,390,12609,20428
23.9,1788343541262,4.309859275817871,5.183098793029785,0.0080140912905335,-0.0175895746797323,0.5013577938079834,0.8650241494178772,0.1819545143288612,-0.0006373738446299,-4.440420401024354e-05,0.0041023804806172,0.0136657105758786,-0.0108046438544988,0.0194377861917018,-0.0027157850563526,0.9994130730628968,0.0280772447586059,-0.0083525336868242,-0.0073501410883948,0.0011971729298788,-0.2472006678581237,-0.0497705340385437,0.0645408630371093,44,390,12609,20428
24.0,1788343541362,4.366197109222412,6.535211086273193,0.0081788906827569,-0.0175906997174024,0.5042192935943604,0.8633577823638916,0.1716035007498266,0.0043832827114654,1.0912425536100712e-05,0.0110916187986731,0.006011031102389,0.0743656679987907,0.0185163468122482,-0.002017667517066,0.9996569752693176,0.0184131674468517,-0.0065860092949544,0.0236884151800814,0.1632850001886897,0.2844947576522827,-0.0167093873023986,0.6160268783569336,27,337,12084,22447
24.1,1788343541462,4.197183132171631,5.85915470123291,0.0082301395013928,-0.0172635409981012,0.5112839937210083,0.8591989874839783,0.1763380531510562,0.0088994802201917,-4.359785236828261e-05,-0.0007870161789469,-0.008306729607284,0.1780109107494354,0.0190322510898113,-0.0020017521455883,0.9996942281723022,0.015664966776967,0.0046110258230163,-0.0320252106691151,0.1689915469869281,-0.2105904221534729,0.0086792707443237,-0.6701364517211914,6,448,9774,22850
24.2,1788343541562,4.197183132171631,5.85915470123291,0.0080598266795277,-0.0161122363060712,0.5215443968772888,0.8530339002609253,0.1720841723431034,0.0072643967120958,-1.6792723844765947e-05,0.0087654069066047,0.0090943444520235,0.2187102138996124,0.0175962224602699,-0.0015831217169761,0.9998409152030944,0.0024530235677957,0.0042659019467905,0.0202813400564245,0.2669766881647404,-0.7270878553390503,0.4912285208702087,0.0323038101196289,6,448,9774,22850
24.3,1788343541662,1.183098554611206,3.9718310832977295,0.0076211541891098,-0.0151130771264433,0.5274850130081177,0.8493956923484802,0.1501686096823664,0.0055063869117747,-0.0001022517762455,0.0114060631021857,0.0448942147195339,0.2920917272567749,-0.0164770632982254,0.00115033891052,-0.9997676014900208,0.0138530964031815,0.0120632028280571,-0.0002371301532555,0.3827514482754748,-0.591590166091919,0.083948016166687,0.0300769805908203,89,254,0,17276
24.4,1788343541762,0.6760563254356384,2.901408433914185,0.0080438731238245,-0.014513618312776,0.5525238513946533,0.8333318829536438,0.0759521393522123,0.0017389893640475,-9.10951971619953e-06,0.0133146103471517,-0.0014899728121235,0.4261718690395355,-0.0167695675045251,0.000749671831727,-0.9991483092308044,0.0376967675983905,0.0090008079536473,-0.0159849568618084,0.3878422620033425,-0.2736994624137878,0.1105802655220031,0.12237548828125,13,287,0,14123
24.5,1788343541862,-2.253521203994751,2.507042169570923,0.0080438731238245,-0.014513618312776,0.5525238513946533,0.8333318829536438,0.0759521393522123,0.0017389893640475,-9.10951971619953e-06,0.0133146103471517,-0.0014899728121235,0.4261718690395355,-0.0162120554596185,0.0004025911912322,-0.9982790946960448,0.0563543364405632,0.021918865828063,-0.0116555085694982,0.5177519548762508,-0.5532509088516235,-0.1267758011817932,-0.1343498229980468,13,287,0,14123
24.6,1788343541962,-2.422535181045532,2.309859037399292,0.0089430399239063,-0.0149237150326371,0.5813546776771545,0.8134642243385315,0.0126765763832718,0.0033120925424521,5.542854620754772e-06,0.0142318978905677,-0.0599699579179286,0.536628007888794,-0.0175503902137279,-0.0006754463538527,-0.9943890571594238,0.1043165549635887,0.0276459957903446,0.0057348553079148,0.6256174563478348,-0.0797021389007568,0.2563355565071106,-0.0972528457641601,237,469,-12919,14923
24.7,1788343542062,-2.6478872299194336,2.7887322902679443,0.0098144831135869,-0.014335467480123,0.6212069392204285,0.7834540009498596,0.0047272333678432,0.0064132107302265,2.882724740105503e-06,0.0215822607278823,0.010977528989315,0.6808843016624451,-0.0174778755754232,-0.0014313012361526,-0.9889317750930786,0.1473312079906463,0.0314983176902624,0.0060940661504929,0.783295070887843,-0.2991276979446411,0.2673340439796448,-0.1908111572265625,241,399,-12211,13629
24.8,1788343542162,-2.3380281925201416,2.05633807182312,0.0104553988203406,-0.0140389548614621,0.6487154960632324,0.7608296871185303,-0.0002610149128878,0.0018424398507932,2.219762412868044e-06,0.0302968714386224,0.00535140465945,0.7618793845176697,-0.0174866858869791,-0.0016171587631106,-0.9871556162834167,0.158794030547142,0.0257514403010714,-0.0036941581375532,0.7759803225071126,-0.0449239015579223,0.0582348108291626,0.1014680862426757,204,409,-11789,14872
24.9,1788343542262,-2.253521203994751,2.6478872299194336,0.010920450091362,-0.014151569455862,0.6631824374198914,0.7482442855834961,-0.0014674233612776,0.0067054510107502,2.15606166231745e-06,0.0243496596813201,-0.0163316894322633,0.7582709193229675,-0.0177309345453977,-0.0023639556020498,-0.9797130227088928,0.1996060460805893,0.0202422410126808,0.0023439665080781,0.64683886192121,-0.1679707169532776,0.2550105452537536,0.0610113143920898,182,274,-10535,12111
25.0,1788343542362,-2.253521203994751,2.6478872299194336,0.0118366107344627,-0.0141772013157606,0.6965670585632324,0.7172540426254272,0.0024196526791753,0.001643696167843,6.1399269771717885e-09,0.0181378051638603,-0.0220184754580259,0.5872623920440674,-0.0182398464530706,-0.0026894174516201,-0.9753017425537108,0.2201060056686401,0.0208701269896432,-0.0009425702842169,0.5605884665151308,0.2541212439537048,-0.3799583315849304,0.2264690399169922,191,367,-10003,11354
25.1,1788343542462,-1.9154930114746092,1.6619718074798584,0.0118453074246644,-0.013656017370522,0.7174882888793945,0.6963359713554382,-0.0035380570162726,0.0075365507062074,4.373728814405643e-06,0.012944565154612,0.0002772140724118,0.5170392990112305,-0.0179818104952573,-0.0031048478558659,-0.9656968116760254,0.2590303421020508,0.0201029225284178,0.0225358942732001,0.4847864301952333,0.1750448346138,-0.3155233860015869,0.7006311416625977,206,450,-9731,12780
25.2,1788343542562,-1.9154930114746092,1.6619718074798584,0.0124209960922598,-0.0135600846260786,0.7342391014099121,0.6786418557167053,0.0074339120236468,-0.0033425237667367,1.0135023511599334e-06,0.0239443834871053,-0.0058130556717514,0.4963057041168213,-0.0177769884467124,-0.0037159565836191,-0.9579467177391052,0.2863709926605224,0.014217586157808,0.0088315805009424,0.5065107673012702,-0.1357055306434631,-0.2076009511947631,0.4796829223632812,206,450,-9731,12780
25.3,1788343542662,-1.6619718074798584,1.7464789152145386,0.0125514846295118,-0.0132937980815768,0.7431206107139587,0.6689077019691467,0.0029029615321831,0.0061033517343829,2.036642524500832e-06,0.0208254344761371,0.0025059846229851,0.5219883918762207,-0.017871256917715,-0.0042370893061161,-0.9508262276649476,0.3091797828674316,0.017869874898075,-0.0046847275873588,0.4444929518612336,-0.1357042789459228,0.2279203534126281,0.0918111801147461,200,322,-8530,9849
25.4,1788343542762,-1.5492957830429075,1.408450722694397,0.0129044698551297,-0.0130823114886879,0.7582621574401855,0.6516907215118408,0.0038390534162428,-0.0048482398400633,-1.6634377772998977e-06,0.018010439351201,-0.0031608724966645,0.4794581234455108,-0.0181996207684278,-0.0045043043792247,-0.9443320631980896,0.3284592926502228,0.0120065414767638,-0.0194522253530799,0.4047322075700087,0.1878629922866821,-0.1315758228302002,-0.0723724365234375,202,434,-8897,10808
25.5,1788343542862,-1.4647886753082275,1.436619758605957,0.0134074734523892,-0.0129985529929399,0.7788051962852478,0.626987874507904,0.000711553350647,0.0012365827643226,6.798427544634181e-07,0.0119686350226402,-0.009214624762535,0.3614862859249115,-0.0182394422590732,-0.0046967081725597,-0.9408422708511353,0.3383210599422455,0.0109211068296398,-0.0126442098419278,0.3572548468867932,0.0980886220932006,0.091280996799469,0.0290403366088867,241,394,-9309,11196
25.6,1788343542962,-1.4647886753082275,1.436619758605957,0.0136025864630937,-0.0130398040637373,0.784439742565155,0.619918704032898,0.0066085251883025,0.0010899500512897,1.389408425522591e-06,0.0103306686505675,-0.0077677210792899,0.3615078628063202,-0.0183952581137418,-0.0048533268272876,-0.9366254210472108,0.34981569647789,0.0094238616794341,-0.0127115525547154,0.350606127077894,0.026487112045288,-0.0690577626228332,-0.0757284164428711,241,394,-9309,11196
25.7,1788343543062,-0.98591548204422,1.380281686782837,0.0138705018907785,-0.0129528418183326,0.7995397448539734,0.6003132462501526,0.0061607901723346,0.0043574696321801,8.33056441974643e-07,0.009502506814897,-0.0042391275055706,0.3680145442485809,-0.0182217713445425,-0.0050187660381197,-0.9289757013320924,0.3696578741073608,0.0100341817194287,0.0062705772270872,0.3343712675542018,0.091804563999176,-0.3288267254829407,0.2141847610473632,313,403,-8974,10397
25.8,1788343543162,-0.98591548204422,1.380281686782837,0.0138705018907785,-0.0129528418183326,0.7995397448539734,0.6003132462501526,0.0061607901723346,0.0043574696321801,8.33056441974643e-07,0.009502506814897,-0.0042391275055706,0.3680145442485809,-0.0182192660868167,-0.0054600378498435,-0.921012282371521,0.3890689611434936,0.0103947696270867,0.0032703205061197,0.3023391494837897,0.1323621273040771,-0.1703855991363525,0.0138111114501953,313,403,-8974,10397
25.9,1788343543262,-0.98591548204422,1.380281686782837,0.0142381656914949,-0.0126393362879753,0.8151172399520874,0.5789830684661865,0.0010827710591176,0.0027331189046132,3.051750141838384e-08,0.0097491079941391,-0.0008582542068324,0.2913283109664917,-0.0181656777858734,-0.0057004615664482,-0.9157137870788574,0.4013798534870147,0.0045113429835173,-0.0027161037742771,0.2240693983094662,0.019323706626892,0.0097337961196899,-0.0215444564819335,313,403,-8974,10397
26.0,1788343543362,-1.042253494262695,0.98591548204422,0.0143932802602648,-0.0124655058607459,0.8221157193183899,0.5690019130706787,0.0038345170713068,0.0039153637703129,4.2899983024357693e-07,0.0070584951899945,0.0008550186757929,0.234243631362915,-0.0181521605700254,-0.0059187356382608,-0.911668062210083,0.410483568906784,0.0115710344713455,-0.0023626858942657,0.2658133722813848,-0.0071056485176086,-0.0809767842292785,0.1271810531616211,236,485,-9282,12172
26.1,1788343543462,-1.154929518699646,1.2957746982574463,0.0147701725363731,-0.0122864069417119,0.8319628238677979,0.5544986724853516,0.0076092845018565,0.0017659881877234,1.25719976475351e-06,0.0106609836220741,-0.0055897217243909,0.2568106353282928,-0.018038872629404,-0.0063235247507691,-0.9046277403831482,0.4257737696170807,0.0123242705478351,0.0016750457596451,0.2689506444798127,-0.0686692595481872,0.0253567099571228,0.0179853439331054,245,475,-9195,11317
26.2,1788343543562,-1.154929518699646,1.2957746982574463,0.0149500202387571,-0.0119790872558951,0.8405904769897461,0.5413323640823364,0.005570713329706,0.0028778392861304,6.299351090686842e-07,0.0110742319375276,0.0001301073352806,0.2666229605674743,-0.0180661622434854,-0.0064587844535708,-0.9017542004585266,0.4318233728408813,0.0095033444586522,-0.003901162986457,0.2679707490345603,-0.0647139549255371,0.0039183497428894,0.0736379623413086,245,475,-9195,11317
26.3,1788343543662,-1.183098554611206,1.2676056623458862,0.0151960710063576,-0.0117379864677786,0.8476147651672363,0.5302645564079285,0.0074665607207415,0.0004785591240825,-7.307650425028796e-07,0.0133024444803595,-0.0013903438812121,0.2934671640396118,-0.0180661622434854,-0.0064587844535708,-0.9017542004585266,0.4318233728408813,0.0095033444586522,-0.003901162986457,0.2679707490345603,-0.0647139549255371,0.0039183497428894,0.0736379623413086,232,377,-6884,8810
26.4,1788343543762,-0.7605633735656738,0.8450704216957092,0.0152905415743589,-0.0115607092157006,0.8514161109924316,0.5241404175758362,0.0063755001046351,-0.0002514006832362,6.105133646396191e-07,0.0134992208331823,-7.587007530673873e-06,0.2876374423503876,-0.0176462307572364,-0.0070116743445396,-0.8895028829574585,0.4565350115299225,0.0126539221093794,0.006108590200664,0.2516786778771008,-0.1816539168357849,-0.0051347613334655,0.2169990539550781,184,311,-7871,9404
