time_s,timestamp_ms,wheel_vels__velocity_left,wheel_vels__velocity_right,odom__orient_x,odom__orient_y,odom__orient_z,odom__orient_w,odom__lin_x,odom__lin_y,odom__lin_z,odom__ang_x,odom__ang_y,odom__ang_z,imu__orient_x,imu__orient_y,imu__orient_z,imu__orient_w,imu__angvel_x,imu__angvel_y,imu__angvel_z,imu__acc_x,imu__acc_y,imu__acc_z,wheel_status__current_ma_left,wheel_status__current_ma_right,wheel_status__pwm_left,wheel_status__pwm_right
0.0,1788442217651,0.0,0.0,-0.0051000481471419,0.0001715826801955,0.5264726281166077,0.8501768112182617,0.0001449290127484,-0.0001627592299294,-5.63240061464023e-07,0.0006681542727164,-0.0005331220454536,0.0016096892068162,0.0024418346583843,0.0044725257903337,-0.9962667226791382,0.0861773192882537,0.000210720020688,-0.0003867550735626,-0.000633998433604,-0.0016691088676452,0.0469007492065429,-0.0135860443115234,0,0,0,0
0.1,1788442217751,0.0,0.0,-0.0051000481471419,0.0001715826801955,0.5264726281166077,0.8501768112182617,0.0001449290127484,-0.0001627592299294,-5.63240061464023e-07,0.0006681542727164,-0.0005331220454536,0.0016096892068162,0.0024418346583843,0.0044725257903337,-0.9962667226791382,0.0861773192882537,0.000210720020688,-0.0003867550735626,-0.000633998433604,-0.0016691088676452,0.0469007492065429,-0.0135860443115234,0,0,0,0
0.2,1788442217851,0.0,0.0,-0.0051000481471419,0.0001715826801955,0.5264726281166077,0.8501768112182617,0.0001449290127484,-0.0001627592299294,-5.63240061464023e-07,0.0006681542727164,-0.0005331220454536,0.0016096892068162,0.0024418346583843,0.0044725257903337,-0.9962667226791382,0.0861773192882537,0.000210720020688,-0.0003867550735626,-0.000633998433604,-0.0016691088676452,0.0469007492065429,-0.0135860443115234,0,0,0,0
0.3,1788442217951,0.0,0.0,-0.0051000481471419,0.0001715826801955,0.5264726281166077,0.8501768112182617,0.0001449290127484,-0.0001627592299294,-5.63240061464023e-07,0.0006681542727164,-0.0005331220454536,0.0016096892068162,0.0024418346583843,0.0044725257903337,-0.9962667226791382,0.0861773192882537,0.000210720020688,-0.0003867550735626,-0.000633998433604,-0.0016691088676452,0.0469007492065429,-0.0135860443115234,0,0,0,0
0.4,1788442218051,0.0,0.0,-0.0051000481471419,0.0001715826801955,0.5264726281166077,0.8501768112182617,0.0001449290127484,-0.0001627592299294,-5.63240061464023e-07,0.0006681542727164,-0.0005331220454536,0.0016096892068162,0.0024418346583843,0.0044725257903337,-0.9962667226791382,0.0861773192882537,0.000210720020688,-0.0003867550735626,-0.000633998433604,-0.0016691088676452,0.0469007492065429,-0.0135860443115234,0,0,0,0
0.5,1788442218151,0.0,0.0,-0.0051000481471419,0.0001715826801955,0.5264726281166077,0.8501768112182617,0.0001449290127484,-0.0001627592299294,-5.63240061464023e-07,0.0006681542727164,-0.0005331220454536,0.0016096892068162,0.0024418346583843,0.0044725257903337,-0.9962667226791382,0.0861773192882537,0.000210720020688,-0.0003867550735626,-0.000633998433604,-0.0016691088676452,0.0469007492065429,-0.0135860443115234,0,0,0,0
0.6,1788442218251,0.0,0.0,-0.0051000481471419,0.0001715826801955,0.5264726281166077,0.8501768112182617,0.0001449290127484,-0.0001627592299294,-5.63240061464023e-07,0.0006681542727164,-0.0005331220454536,0.0016096892068162,0.0024418346583843,0.0044725257903337,-0.9962667226791382,0.0861773192882537,0.000210720020688,-0.0003867550735626,-0.000633998433604,-0.0016691088676452,0.0469007492065429,-0.0135860443115234,0,0,0,0
0.7,1788442218351,0.0,0.0,-0.0051000481471419,0.0001715826801955,0.5264726281166077,0.8501768112182617,0.0001449290127484,-0.0001627592299294,-5.63240061464023e-07,0.0006681542727164,-0.0005331220454536,0.0016096892068162,0.0024418346583843,0.0044725257903337,-0.9962667226791382,0.0861773192882537,0.000210720020688,-0.0003867550735626,-0.000633998433604,-0.0016691088676452,0.0469007492065429,-0.0135860443115234,0,0,0,0
0.8,1788442218451,0.0,0.0,-0.0051000481471419,0.0001715826801955,0.5264726281166077,0.8501768112182617,0.0001449290127484,-0.0001627592299294,-5.63240061464023e-07,0.0006681542727164,-0.0005331220454536,0.0016096892068162,0.0024418346583843,0.0044725257903337,-0.9962667226791382,0.0861773192882537,0.000210720020688,-0.0003867550735626,-0.000633998433604,-0.0016691088676452,0.0469007492065429,-0.0135860443115234,0,0,0,0
0.9,1788442218551,0.0,0.0,-0.0051000481471419,0.0001715826801955,0.5264726281166077,0.8501768112182617,0.0001449290127484,-0.0001627592299294,-5.63240061464023e-07,0.0006681542727164,-0.0005331220454536,0.0016096892068162,0.0024418346583843,0.0044725257903337,-0.9962667226791382,0.0861773192882537,0.000210720020688,-0.0003867550735626,-0.000633998433604,-0.0016691088676452,0.0469007492065429,-0.0135860443115234,0,0,0,0
1.0,1788442218651,0.0,0.0,-0.0051000481471419,0.0001715826801955,0.5264726281166077,0.8501768112182617,0.0001449290127484,-0.0001627592299294,-5.63240061464023e-07,0.0006681542727164,-0.0005331220454536,0.0016096892068162,0.0024418346583843,0.0044725257903337,-0.9962667226791382,0.0861773192882537,0.000210720020688,-0.0003867550735626,-0.000633998433604,-0.0016691088676452,0.0469007492065429,-0.0135860443115234,0,0,0,0
1.1,1788442218751,0.0,0.0,-0.0051000481471419,0.0001715826801955,0.5264726281166077,0.8501768112182617,0.0001449290127484,-0.0001627592299294,-5.63240061464023e-07,0.0006681542727164,-0.0005331220454536,0.0016096892068162,0.0024418346583843,0.0044725257903337,-0.9962667226791382,0.0861773192882537,0.000210720020688,-0.0003867550735626,-0.000633998433604,-0.0016691088676452,0.0469007492065429,-0.0135860443115234,0,0,0,0
1.2,1788442218851,0.0,0.0,-0.0051000481471419,0.0001715826801955,0.5264726281166077,0.8501768112182617,0.0001449290127484,-0.0001627592299294,-5.63240061464023e-07,0.0006681542727164,-0.0005331220454536,0.0016096892068162,0.0024418346583843,0.0044725257903337,-0.9962667226791382,0.0861773192882537,0.000210720020688,-0.0003867550735626,-0.000633998433604,-0.0016691088676452,0.0469007492065429,-0.0135860443115234,0,0,0,0
1.3,1788442218951,0.0,0.0,-0.0051000481471419,0.0001715826801955,0.5264726281166077,0.8501768112182617,0.0001449290127484,-0.0001627592299294,-5.63240061464023e-07,0.0006681542727164,-0.0005331220454536,0.0016096892068162,0.0024418346583843,0.0044725257903337,-0.9962667226791382,0.0861773192882537,0.000210720020688,-0.0003867550735626,-0.000633998433604,-0.0016691088676452,0.0469007492065429,-0.0135860443115234,0,0,0,0
1.4,1788442219051,0.0,0.0,-0.0051000481471419,0.0001715826801955,0.5264726281166077,0.8501768112182617,0.0001449290127484,-0.0001627592299294,-5.63240061464023e-07,0.0006681542727164,-0.0005331220454536,0.0016096892068162,0.0024418346583843,0.0044725257903337,-0.9962667226791382,0.0861773192882537,0.000210720020688,-0.0003867550735626,-0.000633998433604,-0.0016691088676452,0.0469007492065429,-0.0135860443115234,0,0,0,0
1.5,1788442219151,0.0,0.0,-0.0051000481471419,0.0001715826801955,0.5264726281166077,0.8501768112182617,0.0001449290127484,-0.0001627592299294,-5.63240061464023e-07,0.0006681542727164,-0.0005331220454536,0.0016096892068162,0.0024418346583843,0.0044725257903337,-0.9962667226791382,0.0861773192882537,0.000210720020688,-0.0003867550735626,-0.000633998433604,-0.0016691088676452,0.0469007492065429,-0.0135860443115234,0,0,0,0
1.6,1788442219251,0.0,0.0,-0.0051083080470561,0.0001503033563494,0.5264532566070557,0.850188672542572,-8.638182113594767e-05,8.82800661166771e-05,2.605403160669208e-07,-0.0007234234944917,-0.0005435540224425,-0.0009081492316909,0.0024815155193209,0.0045149661600589,-0.9962700009346008,0.0861367732286453,0.0003738737537441,0.0016914168099813,-0.0006025483611951,0.0260744094848632,-0.0135110020637512,0.0185508728027343,0,0,0,0
1.7,1788442219351,0.0,0.0,-0.0051071951165795,0.0001975055783987,0.5264392495155334,0.850197434425354,-5.335218521912752e-06,1.0714949043034898e-05,6.084496731105845e-08,0.0007755867554806,0.0003232900635339,-8.019830420380458e-05,0.0024516535922884,0.004454530775547,-0.996269464492798,0.0861467123031616,0.0003856935510176,-0.000749359967251,0.0004414694418658,-0.0032987594604492,-0.0054565668106079,-0.0263500213623046,0,0,0,0
1.8,1788442219451,0.0,0.0,-0.0050746826454997,0.000213383231312,0.5264667272567749,0.8501805663108826,0.0001612940042891,-0.0001890373151215,-6.849297244227505e-07,0.0012697915080934,0.0006421361467801,0.0018750637536868,0.0024795271456241,0.0044238995760679,-0.9962669610977172,0.0861771255731582,0.0010114386080329,-3.437740692131038e-05,-0.000499530863677,0.0061889886856079,0.0173125267028808,-0.0388107299804687,0,0,0,0
1.9,1788442219551,0.0,0.0,-0.005073026753962,0.0002171059604734,0.5264522433280945,0.8501895070075989,-3.792549944178839e-06,7.617306779539444e-06,4.2229605978201146e-08,-0.00036789663136,0.0002315244928468,-6.523814226966351e-05,0.0024507846683263,0.0044684847816824,-0.9962655901908876,0.0861907824873924,-0.0015785022652794,-0.0005650801000724,-9.68997265794414e-05,0.0271764993667602,0.009070336818695,0.0132827758789062,0,0,0,0
2.0,1788442219651,0.0,0.0,-0.0050924159586429,0.0001639537513256,0.526474118232727,0.8501758575439453,-9.331821727096651e-06,1.874555387714549e-05,1.0564760940409957e-07,-0.0007376943249255,-0.0002323888766113,-0.0001663245930103,0.0024299239739775,0.0045059006661176,-0.9962655901908876,0.0861893594264984,-0.0008660142132473,-0.0012787368456474,0.0004361672563309,-0.016261339187622,-0.0080291032791137,-0.004791259765625,0,0,0,0
2.1,1788442219751,0.0,0.0,-0.005094364285469,0.0001339053269475,0.5264712572097778,0.8501776456832886,1.0602037941981977e-06,-2.129627697552937e-06,-1.2272065582614166e-08,0.0007593086920678,-0.0005321644130162,1.4273819033405744e-05,0.0024242587387561,0.0045207003131508,-0.9962674975395204,0.0861665681004524,-0.0018393914318373,0.0009806976683559,-0.0012773056261704,-0.0091473460197448,0.0247066020965576,-0.0261945724487304,0,0,0,0
2.2,1788442219851,0.0,0.0,-0.005101806949824,0.0001623432617634,0.5264621376991272,0.8501832485198975,4.073426231405554e-05,-3.725951825743189e-05,-9.214485533355343e-08,0.0016773155657574,0.0011934841750189,0.0003971783735323,0.0023999735713005,0.0044672517105937,-0.996266543865204,0.0861823111772537,9.208418002116008e-06,-0.0032323674057454,-0.0001064598272877,-0.0043408870697021,-0.0175966024398803,-0.0245494842529296,0,0,0,0
2.3,1788442219951,0.0,0.0,-0.0051015857607126,0.0001273259986191,0.5264407992362976,0.8501965403556824,-0.0001180374661434,0.0001352804792735,4.92868524318491e-07,-0.0012574063148349,0.0008642355678603,-0.0013386228820309,0.0024143448099493,0.004497542977333,-0.99626624584198,0.0861835181713104,4.871340322713552e-06,-0.0008862042286952,0.0010998253726897,0.0336595773696899,0.0044113993644714,0.0079355239868164,0,0,0,0
2.4,1788442220051,0.0,0.0,-0.0051087285391986,0.0001291071530431,0.5264594554901123,0.8501848578453064,8.504062736759284e-05,-8.451845804941218e-05,-2.466587509406096e-07,-0.0002095781819662,0.0002089027984766,0.0008880739333108,0.0025022430345416,0.0044916737824678,-0.99627023935318,0.0861344113945961,0.0013100541219587,0.002603880499328,-0.0012841959128506,-0.0095003247261047,-0.0154669284820556,-0.024510383605957,0,0,0,0
2.5,1788442220151,0.0,0.0,-0.0051398770883679,0.0002303137443959,0.5264299511909485,0.8502029180526733,-0.000111395170803,0.0001177322876625,3.850187777432453e-07,0.0010626325383782,0.0034945246297866,-0.001166489906609,0.00253327190876,0.0044940738007426,-0.9962686896324158,0.0861520394682884,-0.0007232844553206,0.0002886819819675,-0.0010721399459308,0.0144341588020324,0.0114187002182006,-0.0081939697265625,0,0,0,0
2.6,1788442220251,0.0,0.0,-0.0051566516049206,0.0002377210184931,0.5264313220977783,0.8502019643783569,-4.494633697144421e-05,4.775033816186398e-05,1.4543959226697318e-07,-0.0001003791039693,0.0005039197858422,-0.0004797209403477,0.0025877123698592,0.0044826073572039,-0.996270477771759,0.0861304476857185,-0.0001840236743649,-0.0004142489398298,0.0008258036734485,0.0011258721351623,0.0112177729606628,-0.0315408706665039,0,0,0,0
2.7,1788442220351,0.0,0.0,-0.0051574492827057,0.0002797448541969,0.5264170169830322,0.8502107858657837,1.3304898975600056e-05,-2.6716294472173503e-05,-1.4772209242626493e-07,0.0002109879133058,-0.0006364287692122,0.0002212138642789,0.0025879116728901,0.0044879829511046,-0.9962717294692992,0.0861156210303306,-0.000531540041052,-4.777642040740287e-05,0.0002634514020488,-0.0078872442245483,-0.0049203038215637,-0.0082511901855468,0,0,0,0
2.8,1788442220451,0.0,0.0,-0.0051614707335829,0.0003012609668076,0.5264228582382202,0.8502072095870972,8.446581427877356e-05,-8.39330676471665e-05,-2.108866172192885e-07,0.000424701051088,0.0003058066649828,0.0008736427407711,0.0025616893544793,0.0044937822967767,-0.996271550655365,0.0861185863614082,-0.0015007055056594,0.0016255593065475,-0.0010875158434983,0.0077316761016845,-0.0012246966361999,0.0097608566284179,0,0,0,0
2.9,1788442220551,0.0,0.0,-0.0051392316818237,0.0002704269718378,0.5264307856559753,0.8502023816108704,3.915463676273258e-05,-3.551672461371685e-05,-6.762279826778526e-08,0.0001067602424882,-0.0015299934893846,0.0003675452608149,0.0025893487036228,0.0044750347733497,-0.996271014213562,0.0861245840787887,0.0004003505853303,-9.215793667812748e-05,-0.001033327421003,0.0136085748672485,0.0037469267845153,0.0133962631225585,0,0,0,0
3.0,1788442220651,0.0,0.0,-0.0051619508303701,0.0002914273645728,0.5264151096343994,0.850212037563324,-3.1087386179937464e-05,2.8199050429021407e-05,5.471246621145962e-08,0.0004243325092829,-0.0002782656520139,-0.0003042154712602,0.0025986852124333,0.0044813733547925,-0.9962692260742188,0.0861439704895019,0.0004182305134782,0.0001907442858559,0.0012981524173513,0.0209616422653198,0.0361589789390563,0.0225343704223632,0,0,0,0
3.1,1788442220751,0.0,0.0,-0.0051836902275681,0.0002751760184764,0.526394784450531,0.8502243757247925,-0.000114845543233,0.0001315939908566,4.368073058449091e-07,-0.0008611773373559,8.940998668549582e-05,-0.0013091622386127,0.0025772973895072,0.0044903885573148,-0.9962711930274964,0.0861208215355873,-0.0005064849539202,-0.0009623013108935,-0.0010996740435576,0.0385140180587768,-0.0156959295272827,0.0187673568725585,0,0,0,0
3.2,1788442220851,0.0,0.0,-0.0052194637246429,0.0003275277558714,0.5263791084289551,0.8502338528633118,-5.946176630191935e-05,7.688728950683974e-05,3.031463015166966e-07,-0.0001114329061238,0.0025201488751918,-0.0007176634389907,0.0026290724053978,0.0044978512451052,-0.9962719082832336,0.0861108377575874,0.0006974111494237,-0.001298265725086,0.00185860924155,0.0556904077529907,-0.0084421038627624,0.0188379287719726,0,0,0,0
3.3,1788442220951,0.0,0.0,-0.0052099730819463,0.0003318551462143,0.5263804197311401,0.8502330780029297,2.891108369312317e-06,-5.804228773905227e-06,-3.201964921252021e-08,0.0003462143649812,-4.429249383974821e-05,5.187591887079179e-05,0.002680005505681,0.0044735297560691,-0.9962745308876038,0.0860807746648788,0.0005196292015833,-0.0013063007391261,0.0011588771032496,0.0207172632217407,0.0018352270126342,0.0062799453735351,0,0,0,0
3.4,1788442221051,0.0,0.0,-0.0052015162073075,0.0003730102907866,0.5263773798942566,0.8502350449562073,0.0,0.0,0.0,0.0,-9.509144582864336e-09,0.0,0.0027336264029145,0.0044600693508982,-0.9962761402130128,0.086061842739582,0.0002568239883056,0.0018860716711357,0.0003153129911747,0.0037928819656372,0.0051644444465637,-0.0134687423706054,0,0,0,0
3.5,1788442221151,0.0,0.0,-0.0052015162073075,0.0003730102907866,0.5263773798942566,0.8502350449562073,0.0,0.0,0.0,0.0,-9.509144582864336e-09,0.0,0.0027003437280654,0.0044360160827636,-0.9962744116783142,0.0860835239291191,0.0008061315797751,-0.0013538016709449,0.0008301202756917,0.0156673192977905,-0.0455366373062133,-0.0136547088623046,0,0,0,0
3.6,1788442221251,0.0,0.0,-0.0051911929622292,0.0003895608242601,0.5263540148735046,0.8502495288848877,-0.0001042842035207,0.0001240397899976,3.9793120273490885e-07,-0.0006496999994851,-0.0005893692723475,-0.0012269060825929,0.002690115943551,0.0044568507000803,-0.9962769150733948,0.0860536620020866,-0.0005471854076353,0.0010082519616425,8.90374335027226e-05,0.0209075212478637,-0.007298469543457,-0.0350399017333984,0,0,0,0
3.7,1788442221351,0.0,0.0,-0.0051500578410923,0.0004173358902335,0.5263774394989014,0.8502352833747864,1.6555689778990907e-05,-3.323597968439321e-05,-1.737316135657185e-07,-0.0002327201364096,-0.0010321688605472,0.0002814810140989,0.0026842644438147,0.004396017640829,-0.99627286195755,0.0861039608716964,0.0005129926993694,-0.0007803589759966,0.0022205033212273,0.0062522292137146,0.0093374848365783,0.0045394897460937,0,0,0,0
3.8,1788442221451,0.0,0.0,-0.0051500578410923,0.0004173358902335,0.5263774394989014,0.8502352833747864,0.0,0.0,0.0,0.0,0.0,0.0,0.002681185491383,0.0044473400339484,-0.9962733387947084,0.0860958322882652,-1.4339277332361196e-05,0.0004419618002355,0.0012892352547044,-0.0080058574676513,-0.0380674004554748,-0.0118131637573242,0,0,0,0
3.9,1788442221551,0.0,0.0,-0.0051637338474392,0.0003766198642551,0.5263941287994385,0.850225031375885,6.374643943562016e-05,-8.074380950907243e-05,-2.8622000073025826e-07,-0.0009654058376327,3.428520722081885e-05,0.0007818755111657,0.0026821950450539,0.0044454634189605,-0.996275782585144,0.0860681310296058,0.0006799296227309,0.0006332346922002,-0.0016575623109292,0.0206497311592102,0.0085745453834533,-0.0043983459472656,0,0,0,0
4.0,1788442221651,0.0,0.0,-0.0051878727972507,0.0003939426969736,0.5263545513153076,0.8502492904663086,-0.0001585248550971,0.0001904097471973,6.331470070948663e-07,-0.0004489495186135,0.0011011777678504,-0.0018481451552361,0.0026790024712681,0.0044005708768963,-0.996275007724762,0.0860794633626937,0.0003662201041938,-0.0017896226595764,-0.0002973567653224,0.0205089449882507,-0.0030460953712463,-0.0098257064819335,0,0,0,0
4.1,1788442221751,0.0,0.0,-0.005135953426361,0.0004050345160067,0.5263769030570984,0.8502357006072998,0.0,0.0,0.0,-4.6469768477663826e-08,-8.377648441637575e-08,9.382965799886732e-06,0.0026598460972309,0.0044185947626829,-0.9962722063064576,0.0861112773418426,-0.0002867708613161,-0.0018366249371146,0.0024227825420904,0.0165438652038574,0.0206466317176818,0.002847671508789,0,0,0,0
4.2,1788442221851,0.0,0.0,-0.0051318705081939,0.0003403928130865,0.5264119505882263,0.8502140641212463,0.0002031046038566,-0.0002361087386977,-7.221886832657419e-07,-0.00067218253389,-0.0030750494915992,0.0023159645497798,0.0026392610743641,0.0044336896389722,-0.9962725043296814,0.0861071348190307,-0.0002324619287621,0.0008148588451627,-0.0005173065993802,0.0017867684364318,-0.0364848375320434,0.0008153915405273,0,0,0,0
4.3,1788442221951,0.0,0.0,-0.0051242252811789,0.0003365275915712,0.5264133810997009,0.8502132296562195,4.027789579660205e-06,-8.087817045272348e-06,-4.3587876175585774e-08,0.0001932008453877,-0.000316943594953,7.099213689798489e-05,0.0026197480037808,0.0044034346938133,-0.9962738752365112,0.0860932320356369,0.0011982623998427,0.0009352398536517,-0.0015308043905275,0.0138928294181823,0.0006131529808044,0.0171413421630859,0,0,0,0
4.4,1788442222051,0.0,0.0,-0.0050957156345248,0.000339244492352,0.5263761878013611,0.8502364158630371,-0.0001515551911728,0.0001765045794622,5.710889415536524e-07,0.0010277925757691,-0.0004985540872439,-0.0017462888499721,0.0025768252089619,0.0043850410729646,-0.9962730407714844,0.0861054360866546,-0.0002902860630263,-0.0006701882832415,-0.0006484338849194,0.0112245082855224,0.0021812915802001,0.0045747756958007,0,0,0,0
4.5,1788442222151,0.0,0.0,-0.0050771683454513,0.0003231379669159,0.5264096260070801,0.8502158522605896,0.0,0.0,0.0,-2.290854617115201e-08,-6.787717410361438e-08,3.4753113595797917e-06,0.0025606714189052,0.0043926164507865,-0.9962713718414308,0.0861248597502708,-0.0001568467123033,-0.0003959101991138,0.0021755944969465,0.0288825631141662,0.0095759630203247,-0.0025520324707031,0,0,0,0
4.6,1788442222251,0.0,0.0,-0.005079039838165,0.0002572999801486,0.526394784450531,0.850225031375885,5.820510596420538e-05,-7.41184647944041e-05,-2.7371592957858e-07,-0.0012059203581884,-0.0017909713787958,0.0007038245094008,0.0025606714189052,0.0043926164507865,-0.9962713718414308,0.0861248597502708,-0.0001568467123033,-0.0003959101991138,0.0021755944969465,0.0288825631141662,0.0095759630203247,-0.0025520324707031,0,0,0,0
4.7,1788442222351,0.0,0.0,-0.005079039838165,0.0002572999801486,0.526394784450531,0.850225031375885,5.820510596420538e-05,-7.41184647944041e-05,-2.7371592957858e-07,-0.0012059203581884,-0.0017909713787958,0.0007038245094008,0.0025276783853769,0.0044162701815366,-0.9962735772132874,0.0860996469855308,-0.0007668815568563,6.35612556440818e-05,-0.0005221391243592,0.0066430568695068,-0.0152087211608886,0.0386343002319335,0,0,0,0
4.8,1788442222451,0.0,0.0,-0.0050816815346479,0.000262901186943,0.5263954401016235,0.8502246141433716,-4.431237003466997e-05,4.580081294468485e-05,1.2496708332879097e-07,-0.0002507306635379,-0.0003058660076931,-0.0004679720150306,0.0025049867108464,0.004417267628014,-0.9962739944458008,0.0860956087708473,-0.0001958310803771,-0.0015013377747774,-0.0002778460171535,-0.0009382963180541,-0.0365517735481262,0.0008201599121093,0,0,0,0
4.9,1788442222551,0.0,0.0,-0.0050515085458755,0.0002631056122481,0.5264105200767517,0.8502154350280762,5.838121414361354e-05,-7.415194048507567e-05,-2.818125639238655e-07,0.001035296707414,-0.0006355323712341,0.0007116222986951,0.0025030057877302,0.0044166017323732,-0.9962736964225768,0.0860979333519935,0.0003258269797978,-0.0015000288887483,0.0006141584295715,0.0008205771446228,-0.023927628993988,-0.0134820938110351,0,0,0,0
5.0,1788442222651,0.0,0.0,-0.0050823176279664,0.0002383724786341,0.5263655781745911,0.850243091583252,-6.2497864008061e-05,8.25242628883329e-05,3.272204040011289e-07,-0.000145438403706,-0.0015881120925769,-0.0007887309766374,0.002504862844944,0.0044122887775301,-0.9962773323059082,0.0860573723912239,0.0007725683858965,-0.0001260088296886,-0.0003592859281325,-0.0207460522651672,0.0171941518783569,0.0136003494262695,0,0,0,0
5.1,1788442222751,0.0,0.0,-0.0050360299646854,0.0002578604035079,0.526380717754364,0.8502340912818909,0.0,0.0,0.0,0.0,0.0,0.0,0.0024910671636462,0.0043588997796177,-0.9962731003761292,0.0861086696386337,0.0004675266214266,-0.00155369959673,0.0002389678486115,0.0148263573646545,4.2319297790527344e-05,0.0045938491821289,0,0,0,0
5.2,1788442222851,0.0,0.0,-0.0050381422042846,0.0002693685237318,0.5263979434967041,0.8502233624458313,6.411713348239863e-05,-8.594029894214088e-05,-3.446002202165594e-07,0.0001681460562394,0.0004325488989707,0.0008142973529174,0.002515597268939,0.0043571088463068,-0.9962708950042723,0.0861333608627319,0.0008732723299799,-0.0001274789058535,0.00147391071511,-0.0044346451759338,0.0054264664649963,-0.0133657455444335,0,0,0,0
5.3,1788442222951,0.0,0.0,-0.005023434292525,0.0002788158599287,0.5264244079589844,0.8502070307731628,8.036417594075293e-05,-9.625798166439164e-05,-3.342972289445637e-07,0.000529206241481,4.90343654746539e-06,0.000948715780396,0.00244115665555,0.0043736053630709,-0.9962686896324158,0.0861603543162345,-3.080844656786079e-05,-0.0013025460090996,0.0017392843420116,-0.004087209701538,-0.0085384249687194,-0.0026464462280273,0,0,0,0
5.4,1788442223051,0.0,0.0,-0.0050238948315382,0.0002319135237485,0.5264235138893127,0.8502076268196106,0.0,0.0,0.0,-2.8490074299725165e-08,0.0,0.0,0.0024593835696578,0.0043660169467329,-0.9962714314460754,0.0861286073923111,0.000303112289917,0.0004142862050634,-8.314798531732499e-05,-0.0037242174148559,-0.0140420198440551,-0.0188302993774414,0,0,0,0
5.5,1788442223151,0.0,0.0,-0.0050238948315382,0.0002319135237485,0.5264235138893127,0.8502076268196106,0.0,0.0,0.0,0.0,0.0,0.0,0.0025089476257562,0.0043499134480953,-0.9962684512138368,0.0861621722579002,0.0002195033655775,0.000243764792614,0.000160562928261,0.0349004864692688,-0.0127769112586975,0.0135574340820312,0,0,0,0
5.6,1788442223251,0.0,0.0,-0.0050238948315382,0.0002319135237485,0.5264235138893127,0.8502076268196106,0.0,0.0,0.0,0.0,0.0,0.0,0.0025036297738552,0.0043213414028286,-0.996265947818756,0.0861921831965446,0.0020884994558324,-0.0023806858898507,0.001144215647392,0.0059786438941955,0.0372602343559265,-0.0221939086914062,0,0,0,0
5.7,1788442223351,0.0,0.0,-0.0050238948315382,0.0002319135237485,0.5264235138893127,0.8502076268196106,0.0,0.0,0.0,0.0,0.0,0.0,0.0025443257763981,0.0043155374005436,-0.9962702989578248,0.086142212152481,0.0022879456678037,0.0016937012931864,-0.0002631851358878,-0.0183475017547607,-0.0278686881065368,0.0098600387573242,0,0,0,0
5.8,1788442223451,0.0,0.0,-0.0050238948315382,0.0002319135237485,0.5264235138893127,0.8502076268196106,0.0,0.0,0.0,0.0,0.0,0.0,0.002569411881268,0.0042896885424852,-0.99626886844635,0.0861584022641182,0.0004000841836396,-0.0002611024099731,-0.0003057884593196,-0.0214996337890625,0.0038893222808837,0.0153713226318359,0,0,0,0
5.9,1788442223551,0.0,0.0,-0.0050238948315382,0.0002319135237485,0.5264235138893127,0.8502076268196106,0.0,0.0,0.0,0.0,0.0,0.0,0.0025342460721731,0.0042665442451834,-0.9962653517723083,0.086201786994934,-0.0008317526965409,-0.0017507699886742,-0.0003726687809181,0.0154973864555358,0.0053108930587768,0.0100345611572265,0,0,0,0
6.0,1788442223651,0.0,0.0,-0.0050238948315382,0.0002319135237485,0.5264235138893127,0.8502076268196106,0.0,0.0,0.0,0.0,0.0,0.0,0.0025513833388686,0.0042845262214541,-0.9962672591209412,0.0861786231398582,-0.0008134408612275,0.0009299633959332,-0.0011535217588878,0.0194636583328247,-0.0374397039413452,0.0026893615722656,0,0,0,0
6.1,1788442223751,0.0,0.0,-0.0050238948315382,0.0002319135237485,0.5264235138893127,0.8502076268196106,0.0,0.0,0.0,0.0,0.0,0.0,0.0025513833388686,0.0042845262214541,-0.9962672591209412,0.0861786231398582,-0.0008134408612275,0.0009299633959332,-0.0011535217588878,0.0194636583328247,-0.0374397039413452,0.0026893615722656,0,0,0,0
6.2,1788442223851,0.0,0.0,-0.0050238948315382,0.0002319135237485,0.5264235138893127,0.8502076268196106,0.0,0.0,0.0,0.0,0.0,0.0,0.0025881426408886,0.0043248403817415,-0.9962619543075562,0.0862360671162605,-2.119613748560567e-05,0.0005382324870328,0.0008665083238899,0.0005165338516235,-0.0007226467132568,-0.013345718383789,0,0,0,0
6.3,1788442223951,0.0,0.0,-0.0050238948315382,0.0002319135237485,0.5264235138893127,0.8502076268196106,0.0,0.0,0.0,0.0,0.0,0.0,0.0026208786293864,0.0043192449957132,-0.9962630867958068,0.0862232819199562,0.000111104769103,-0.0001322598868867,-0.0009307759014878,0.0172869563102722,0.0026462078094482,0.0010700225830078,0,0,0,0
6.4,1788442224051,0.0,0.0,-0.0050238948315382,0.0002319135237485,0.5264235138893127,0.8502076268196106,0.0,0.0,0.0,0.0,0.0,0.0,0.0026525370776653,0.0043555982410907,-0.9962605237960817,0.086249753832817,-0.0006862084727472,0.0002603641129592,0.0012280978141455,0.0412791967391967,0.0067889690399169,0.028076171875,0,0,0,0
6.5,1788442224151,0.0,0.0,-0.0050238948315382,0.0002319135237485,0.5264235138893127,0.8502076268196106,0.0,0.0,0.0,0.0,0.0,0.0,0.0026381239295005,0.0043682772666215,-0.9962618350982666,0.0862345919013023,-0.0007407291688689,-0.0007072527278948,-0.000820124646804,-0.0002611279487609,0.0107622742652893,0.0011005401611328,0,0,0,0
6.6,1788442224251,0.0,0.0,-0.0050238948315382,0.0002319135237485,0.5264235138893127,0.8502076268196106,0.0,0.0,0.0,0.0,0.0,0.0,0.0026381239295005,0.0043682772666215,-0.9962618350982666,0.0862345919013023,-0.0007407291688689,-0.0007072527278948,-0.000820124646804,-0.0002611279487609,0.0107622742652893,0.0011005401611328,0,0,0,0
6.7,1788442224351,0.0,0.0,-0.0050238948315382,0.0002319135237485,0.5264235138893127,0.8502076268196106,0.0,0.0,0.0,0.0,0.0,0.0,0.0026381239295005,0.0043682772666215,-0.9962618350982666,0.0862345919013023,-0.0007407291688689,-0.0007072527278948,-0.000820124646804,-0.0002611279487609,0.0107622742652893,0.0011005401611328,0,0,0,0
6.8,1788442224451,0.0,0.0,-0.0050238948315382,0.0002319135237485,0.5264235138893127,0.8502076268196106,0.0,0.0,0.0,0.0,0.0,0.0,0.0026670340448617,0.0043720006942749,-0.9962601661682128,0.0862527191638946,0.0002269591878099,0.0008508687617266,-0.0001278317767181,0.0110698342323303,-0.0125904083251953,0.0082368850708007,0,0,0,0
6.9,1788442224551,0.0,0.0,-0.0050238948315382,0.0002319135237485,0.5264235138893127,0.8502076268196106,0.0,0.0,0.0,0.0,0.0,0.0,0.0026670340448617,0.0043720006942749,-0.9962601661682128,0.0862527191638946,0.0002269591878099,0.0008508687617266,-0.0001278317767181,0.0110698342323303,-0.0125904083251953,0.0082368850708007,0,0,0,0
7.0,1788442224651,0.0,0.0,-0.0051167323254048,0.0004623585846275,0.5264855027198792,0.8501686453819275,0.0001104809694792,-0.0001129060047457,-2.521145098800844e-07,0.0017369107808917,-0.0002077567769447,0.0011554195079952,0.0026922104880213,0.0043558059260249,-0.9962642788887024,0.0862051993608474,-0.0011829847282976,-0.0007460062953019,-9.130788756027724e-05,0.0330469012260437,-0.0130367875099182,0.0316352844238281,0,0,0,0
7.1,1788442224751,0.0,0.0,-0.0051033380441367,0.0004235797096043,0.5264710187911987,0.8501776456832886,-6.3159892302777e-05,8.417107648028594e-05,3.038041209092128e-07,-0.0005445621791295,-0.0005832610768266,-0.0008029981399886,0.0026870667934417,0.0043660467490553,-0.996265947818756,0.086185023188591,0.0001617901160751,-0.0009386606969864,0.0008388626532975,0.0045570731163024,0.0281012058258056,0.0214948654174804,0,0,0,0
7.2,1788442224851,3.070422649383545,3.859154939651489,-0.0049057374708354,0.0002185192424803,0.5283023715019226,0.8490420579910278,0.0261146504244724,-0.0025567666525464,6.697159215200802e-06,0.0023839687928557,-0.011487029492855,0.0872314795851707,0.0029097646474838,0.0045533925294876,-0.9959327578544616,0.0899374261498451,-0.0102036384129178,0.0219009684536787,0.1167779927187319,0.4188718795776367,-0.3842902779579162,0.1551408767700195,212,226,9741,12208
7.3,1788442224951,3.802816867828369,5.267605781555176,-0.0052445023320615,0.0008610263466835,0.5346024036407471,0.8450869917869568,0.1289467138010291,0.0008617315904616,-3.289142591876825e-05,0.0057954196818172,0.0039063938893377,0.1537477374076843,0.0035874266177415,0.0041016871109604,-0.9943569898605348,0.1059459149837493,0.0085649514774538,0.0116321415171116,0.2716421231853611,-0.2860365509986877,0.0999166369438171,0.2190494537353515,153,314,13562,18708
7.4,1788442225051,4.253520965576172,5.436619758605957,-0.0051374211907386,0.0012712439056485,0.5445008873939514,0.8387435674667358,0.1846905895451942,0.0002996700589203,-2.935476528099489e-05,0.0093608582392334,0.0012201068457216,0.2628764808177948,0.0028937179595232,0.0038201650604605,-0.9932295083999634,0.1160701140761375,-0.0030711336921919,-0.0261703017388672,0.2490288214111975,-0.2090316414833068,0.2695081830024719,-0.2526493072509765,153,314,13562,18708
7.5,1788442225151,4.169013977050781,5.802816867828369,-0.0045658801682293,0.0010821666801348,0.5604740977287292,0.8281586766242981,0.1729165733562577,0.0010573990828756,-9.81808520819562e-06,-8.620782318757847e-05,0.0027409973554313,0.2544982135295868,0.0028907721862196,0.0035617090761661,-0.9918466210365297,0.1273550540208816,-0.0011797652291943,-0.0158938482242369,0.1720566820771792,0.0204485654830932,-0.2819463014602661,0.1190357208251953,127,131,13962,15668
7.6,1788442225251,4.704225540161133,5.211267471313477,-0.0044461814686656,0.0011213771067559,0.5635116100311279,0.8260953426361084,0.1633618314245494,0.0022368327630345,4.822104033279621e-05,0.0043475981801748,-0.0018550492823123,0.1472891718149185,0.002680467441678,0.0033671353012323,-0.9911394119262696,0.1327563375234604,0.0019337693472526,-0.0161378427129932,0.1250398094993234,0.4018881320953369,0.2087557315826416,0.4806661605834961,123,186,12932,17141
7.7,1788442225351,4.704225540161133,5.211267471313477,-0.0044461814686656,0.0011213771067559,0.5635116100311279,0.8260953426361084,0.1633618314245494,0.0022368327630345,4.822104033279621e-05,0.0043475981801748,-0.0018550492823123,0.1472891718149185,0.0027741882950067,0.0032877046614885,-0.9899414777755736,0.1414120346307754,0.0022056377925345,-0.0050877254326971,0.1615271451523198,-0.0211880207061767,0.2043341398239135,0.1011295318603515,123,186,12932,17141
7.8,1788442225451,4.591549396514893,5.211267471313477,-0.0041362885385751,0.0010212789056822,0.5735017657279968,0.8191932439804077,0.1668027230817136,0.0023287595076566,-1.984927043105216e-05,0.0043074251152575,-0.0009828738402575,0.1558674275875091,0.0035808673128485,0.0032480731606483,-0.9889618158340454,0.1480920910835266,-0.0059597212684401,0.0180746518701649,0.1556019094834417,0.062685489654541,-0.229312002658844,0.3133430480957031,109,105,13190,16922
7.9,1788442225551,4.507042407989502,5.239436626434326,-0.0057389452122151,0.0032679457217454,0.5851701498031616,0.8108835816383362,0.1635221305172503,-0.0013453997570077,-0.0001452741916157,-0.0020565576851367,0.0411631688475608,0.1449746936559677,0.0052289860323071,0.0037355013191699,-0.9879389405250548,0.154711052775383,-0.0105978261964466,0.0561187891807768,0.1421412784654656,-0.1165041327476501,-0.124150812625885,-0.3076324462890625,124,175,13358,16906
8.0,1788442225651,4.676056385040283,6.169013977050781,-0.0035554384812712,0.0005941303679719,0.5876771211624146,0.8090875148773193,0.1669738733942437,-0.0027671053427681,0.0003260247943836,0.0085285827517509,-0.1571821868419647,0.1399489790201187,0.002611550502479,0.003071698360145,-0.9866798520088196,0.1626245379447937,-0.0018541765328916,0.0848097063890083,0.1578114783915968,-1.2237107753753662,-0.5214306116104126,2.945297241210937,107,131,13111,14103
8.1,1788442225751,4.816901206970215,5.408450603485107,-0.003333332017064,0.0003381078131496,0.5946531891822815,0.8039752840995789,0.1725110350922766,-0.0008971221222346,9.363648958047152e-05,-0.0008247000514529,-0.0187682900577783,0.1535902470350265,0.0012020859867334,0.0024235304445028,-0.984718382358551,0.17413330078125,0.0041828753567423,-0.0088126748034233,0.1542967780238538,0.0541896820068359,-0.1404798626899719,-0.577397346496582,99,76,12374,16361
8.2,1788442225851,4.507042407989502,5.7183098793029785,-0.0027998168952763,-5.801662337034941e-05,0.6008604168891907,0.7993491291999817,0.1649724162546819,-0.0003170947803386,2.354152645221198e-05,-0.0009001156431622,-0.0038559401873499,0.1580865234136581,0.001145944930613,0.00253143068403,-0.9842989444732666,0.1764874160289764,-0.0079702725592429,-0.0027509221810014,0.1588384876859185,-0.1319053769111633,0.0883199572563171,-0.1977519989013672,83,200,13506,15498
8.3,1788442225951,4.507042407989502,5.7183098793029785,-0.0029971012845635,-0.0001230227062478,0.6038906574249268,0.7970614433288574,0.1675992392189576,0.0014029068058267,5.5805937933869954e-05,-0.0081689730286598,0.0023325607180595,0.1527905017137527,0.0009008888155221,0.002909735776484,-0.9822982549667358,0.1872987300157547,-0.0138551666810075,-0.0121664537449379,0.1416581738120194,0.0585629343986511,0.4371516704559326,0.3229560852050781,83,200,13506,15498
8.4,1788442226051,4.422535419464111,5.211267471313477,-0.0031286221928894,-0.00041196111124,0.6118520498275757,0.7909659147262573,0.1703873708980699,0.0030998091850099,-2.481065331699591e-05,-0.0076338648796081,0.0064128441736102,0.1363594383001327,0.0005288980901241,0.0027854405343532,-0.981433093547821,0.1917837411165237,0.0014494074102551,-0.0132050601665146,0.150322079338603,0.0603097081184387,0.3861961960792541,0.207794189453125,95,80,13917,17279
8.5,1788442226151,4.619718074798584,5.211267471313477,-0.0021758978255093,-0.000632926763501,0.6183327436447144,0.7859131097793579,0.1681713004876006,0.0007533067542255,0.0001005324737884,0.0195160433650016,-0.0202867835760116,0.1690161973237991,-0.0005608377978205,0.0010168058797717,-0.979119598865509,0.2032819241285324,0.0209513690218684,-0.0178629401208869,0.1410077017494367,0.2706809043884277,-0.166130781173706,-0.2916231155395508,108,110,13338,13671
8.6,1788442226251,4.901408672332764,5.126760482788086,-0.0001111134188249,-0.0006940413732081,0.6244434714317322,0.7810697555541992,0.1676717418006009,0.0029238666815609,9.353738845350704e-05,0.038759421557188,-0.0284711495041847,0.1531698703765869,-0.0004973290488123,0.0006862701848149,-0.9784229397773744,0.2066103667020797,0.0167003702701456,-0.0004912440797712,0.1681778709502442,0.2845128178596496,0.3753919005393982,0.0895357131958007,164,66,15871,13678
8.7,1788442226351,4.901408672332764,5.126760482788086,-0.0019014794379472,-0.0003531647380441,0.6264625191688538,0.7794492244720459,0.1510465674040505,0.0068490332134155,4.472599992358224e-05,-0.0070020337589085,0.021023953333497,0.0373384803533554,-0.0003374544903635,0.0020193038508296,-0.9784430265426636,0.2065069377422332,-0.0161337697286411,-0.0297898403846776,0.0069812311775033,-0.5054422616958618,0.4583396315574646,2.213592529296875,164,66,15871,13678
8.8,1788442226451,4.929577350616455,4.760563373565674,-0.0020215539261698,-0.0001677920226939,0.6276353001594543,0.7785048484802246,0.1731623339539616,-0.0035710523154331,-8.445162897596897e-05,0.000874962308444,0.0089808823540806,0.0622921027243137,0.001173042692244,0.0019813906401395,-0.977683961391449,0.2100683897733688,0.0008505268591908,0.0322694960424488,0.0713155879398186,-0.0179738998413085,0.286218523979187,-0.9745330810546876,102,101,14292,16686
8.9,1788442226551,5.014084339141846,4.929577350616455,-0.0023639297578483,0.0001448002876713,0.629948616027832,0.776633083820343,0.1691438415681778,-0.001524957445835,-3.390756727590974e-05,-0.0010071485303342,0.0049910149537026,0.0379858240485191,0.0017572473734617,0.0022595738992094,-0.9774081110954284,0.2113417237997055,-0.0061165299728212,0.0136483778919061,-0.0133919581633361,0.0884073376655578,-0.0845801830291748,-0.0490484237670898,73,197,13848,16012
9.0,1788442226651,5.014084339141846,4.8450703620910645,-0.0027094171382486,0.0005249985260888,0.6296883225440979,0.7768430113792419,0.1644443429669628,-0.0002453432933024,-0.0001012714577134,-0.001110223121941,0.0201607663184404,-0.0130944335833191,0.0015801712870597,0.0023627458140254,-0.97699373960495,0.2132492065429687,-0.0020515663512741,-0.0243573528423186,0.0318070727572221,0.2841101288795471,0.273097276687622,0.5507173538208008,120,145,14111,16021
9.1,1788442226751,4.8450703620910645,5.014084339141846,-0.0028751729987561,0.0004378489684313,0.6309255957603455,0.7758378982543945,0.1729705689958677,-0.0013157421985904,-7.239975698020616e-05,-0.007551300805062,0.0013667248422279,0.0643516033887863,0.0023668343201279,0.0024217786267399,-0.9766667485237122,0.2147341817617416,-0.0029168520027241,0.0489414293804156,0.0416839674017626,0.0777320861816406,0.0852462649345398,-0.2010116577148437,120,145,14111,16021
9.2,1788442226851,5.098591327667236,5.521126747131348,-0.0032086202409118,0.0010212734341621,0.6322375535964966,0.774767279624939,0.1672937250173605,-0.0063942423069233,-9.706562370586032e-05,-0.0023973179049789,0.0196908917278051,0.0062396572902798,0.0024668239057064,0.0027330294251441,-0.976786732673645,0.2141826450824737,-0.0121841653812701,0.0091387088397877,-0.014892545493482,-0.0523636937141418,0.0896348357200622,0.0970058441162109,110,141,14652,13087
9.3,1788442226951,5.014084339141846,4.647887229919434,-0.0035328650847077,0.0006844267481938,0.6318938732147217,0.7750465273857117,0.1615045616448623,0.0010549200992304,1.7703205381732697e-06,0.0,0.0,0.0,0.001915980130434,0.002774903550744,-0.9767683744430542,0.2142711132764816,0.0040296083130041,-0.0192653361248506,0.0101879054883436,0.1639774441719055,0.3399125337600708,1.1776981353759766,137,105,14827,15882
9.4,1788442227051,5.014084339141846,4.647887229919434,-0.0035328650847077,0.0006844267481938,0.6318938732147217,0.7750465273857117,0.1615045616448623,0.0010549200992304,1.7703205381732697e-06,0.0,0.0,0.0,0.0019556488841772,0.0032238559797406,-0.9773828387260436,0.2114442437887191,-0.0040105191279593,-0.0212273370620268,-0.053144281239538,0.2597091794013977,0.3456045985221863,-0.3316335678100586,137,105,14827,15882
9.5,1788442227151,5.014084339141846,4.788732528686523,-0.0035328650847077,0.0006844267481938,0.6318938732147217,0.7750465273857117,0.1615045616448623,0.0010549200992304,1.7703205381732697e-06,0.0,0.0,0.0,0.0025681909173727,0.0033318949863314,-0.977460503578186,0.2110767811536789,0.0045472177988515,0.0511573973648517,0.0188358683794799,-0.0601036548614501,-0.1939898133277893,0.3263502120971679,114,174,14846,15710
9.6,1788442227251,5.042253494262695,4.8450703620910645,-0.0051379986107349,0.0019998929928988,0.6293269395828247,0.7771211862564087,0.1646741883057874,-0.0045955582885578,-0.0001738034426997,-0.0005930089391767,0.0654156506061554,-0.0074510308913886,0.0034596528857946,0.0034832274541258,-0.9774333834648132,0.2111868858337402,0.0056852250034272,0.0661399472797792,0.0001776414046301,0.2085720896720886,-0.2986030578613281,0.1815166473388672,128,57,14913,15414
9.7,1788442227351,5.183098793029785,4.619718074798584,-0.0026086361613124,-0.0012022037990391,0.6295562386512756,0.7769496440887451,0.1598786148610715,-0.00042791746968,0.0006969657968052,-0.0016984542598947,-0.1362195909023285,0.0091706858947873,0.0006151692941784,0.0028180554509162,-0.9775490760803224,0.2106883376836776,0.0038528084305996,-0.0065061592760162,-0.0169114085215401,-0.2439543604850769,0.1449536085128784,-2.0567431449890137,122,58,15411,15250
9.8,1788442227451,5.267605781555176,4.450704097747803,-0.002199528273195,-0.00113349664025,0.629030704498291,0.7773764729499817,0.1701437043205473,-0.0075159915254442,-0.0001375963691837,0.0182403326034545,-0.010204411111772,-0.0341668725013732,-0.0030081365257501,0.0023752935230731,-0.9780746102333068,0.2082196474075317,-0.0171454074487801,-0.0574397953984937,-0.0798241297741447,0.564738392829895,0.4037399888038635,-2.348449230194092,90,144,14959,15921
9.9,1788442227551,5.070422649383545,5.098591327667236,-7.667951285839081e-05,-0.0044507612474262,0.6248189806938171,0.780756950378418,0.1652461756965897,-0.0033915237393645,4.738908386018976e-05,0.0011823347304016,-0.0260551869869232,-0.0526786670088768,-0.0040479935705661,0.0020325956866145,-0.9787410497665404,0.2050497084856033,0.001664405557134,-0.0150356705418843,-0.0245206135431142,-0.0506018996238708,0.249818742275238,-0.2785978317260742,78,181,14247,15021
10.0,1788442227651,5.239436626434326,4.8450703620910645,-7.667951285839081e-05,-0.0044507612474262,0.6248189806938171,0.780756950378418,0.1648794992396438,0.0004347930550509,1.2773652504444829e-06,0.0,3.6341294418207326e-09,0.0,-0.0050272848457098,0.0020883763208985,-0.9785978198051452,0.2057104408740997,-0.0131057245038413,-0.0336865910982583,0.0097376583363165,-0.0811187624931335,-0.0110562443733215,0.3604536056518554,112,154,13715,15553
10.1,1788442227751,5.267605781555176,4.394366264343262,0.0004663716536015,-0.0056668315082788,0.625281035900116,0.7803789973258972,0.1684329245077467,0.0004826040528249,-2.881015639552216e-06,3.4979333207729724e-08,4.955405685791448e-08,0.0,-0.0059327436611056,0.0023181084543466,-0.978856921195984,0.2044469714164734,-0.0062401016430512,-0.0147965437546246,-0.0581093324352116,-0.3496136665344238,0.2525115609169006,0.1337089538574218,98,153,14826,15705
10.2,1788442227851,5.070422649383545,4.478873252868652,0.0007895773742347,-0.007263109087944,0.6224801540374756,0.7826014161109924,0.17061611415564,-0.0020239478907981,6.50512757280444e-05,-0.0106497108936309,-0.0236412417143583,-0.0512477606534957,-0.0069128908216953,0.0026295837014913,-0.9793543219566344,0.2020157277584076,-0.0114267144170862,-0.0075580732339578,-0.0601171554183783,-0.2408187985420227,0.0495545268058776,-0.2669057846069336,98,122,15618,15597
10.3,1788442227951,4.788732528686523,5.154929637908936,0.0010952029842883,-0.007558190729469,0.6218737363815308,0.7830803394317627,0.1685272107464473,-0.006391768859158,6.967932539594075e-05,0.0020313661079853,-0.0167489219456911,-0.0310288947075605,-0.0073012299835681,0.0043179085478186,-0.9795807600021362,0.200872391462326,-0.0254121916308156,-0.0183277850910397,0.0825533676262682,0.1790328025817871,-0.1131418943405151,-0.0406961441040039,83,150,13672,16946
10.4,1788442228051,4.816901206970215,5.577464580535889,0.0010952029842883,-0.007558190729469,0.6218737363815308,0.7830803394317627,0.1685272107464473,-0.006391768859158,6.967932539594075e-05,0.0020313661079853,-0.0167489219456911,-0.0310288947075605,-0.0053236037492752,0.0036427825689315,-0.9782538414001464,0.2073109596967697,0.0153594803098112,0.0314104183502856,0.0796614252284464,0.2646266222000122,-0.18714040517807,-0.9610443115234376,162,161,15163,13948
10.5,1788442228151,4.985915660858154,5.633802890777588,-0.0008182097226381,-0.0058126696385443,0.6269999742507935,0.7789971828460693,0.1674685238463099,-0.0034749615929524,-0.0001147536854765,0.0150741366669535,0.0282835960388183,0.0394534058868885,-0.0048552965745329,0.0033412454649806,-0.9780988097190856,0.2080577164888382,0.0192722050148804,0.0190769052906799,0.0371501044069475,0.079452633857727,0.1762159466743469,1.0552730560302734,103,111,14203,13610
10.6,1788442228251,4.873239517211914,5.77464771270752,-0.0004107081331312,-0.005093936342746,0.6285305023193359,0.7777681946754456,0.1681992187681787,-0.0019131240092744,4.9404020424153766e-05,0.0185445472598075,-0.0087852347642183,0.051027275621891,-0.0045533301308751,0.0025581028312444,-0.9774789214134216,0.2109685838222503,-0.001666327013437,-0.0183090222640645,0.0497959730658483,0.1339473724365234,0.2668929100036621,-0.0328235626220703,107,133,14361,13118
10.7,1788442228351,3.380281686782837,4.0,-0.0001359523739665,-0.0055311601608991,0.6301435828208923,0.7764588594436646,0.1701578148994506,-0.0022610185744542,-4.184157946110615e-06,-0.0038107188884168,-0.0107512949034571,0.039405632764101,-0.0050100972875952,0.0027553318068385,-0.976851999759674,0.2138396799564361,-0.003537558709803,-0.0055471496451529,0.0535068265513414,-0.533732533454895,0.2128938436508178,0.5822572708129883,11,21,8224,10637
10.8,1788442228451,2.5352113246917725,3.577464818954468,-0.0001295914407819,-0.0057669086381793,0.6314446926116943,0.7753994464874268,0.1395508662461005,0.003314144878886,3.036352119452e-05,-0.0021494068205356,-0.0085196383297443,0.0286480300128459,-0.0047368593513965,0.0027854992076754,-0.9767372608184814,0.2143695205450058,0.0020757281415088,0.0179093528740116,0.0358459284153235,-1.2055693864822388,-0.2262046337127685,0.6640071868896484,9,28,5143,7593
10.9,1788442228551,1.887323975563049,2.563380241394043,-0.0002681179903447,-0.0056422394700348,0.6372697353363037,0.7706202268600464,0.0308954384908637,0.0038420114933475,4.058705182762629e-06,-0.002334184711799,-0.0079750912263989,0.1578598022460937,-0.0050498098134994,0.0026172781363129,-0.9730878472328186,0.2303645014762878,0.0059992950003903,-0.003633521290233,0.2921741860640025,1.005772590637207,0.1734920740127563,0.2931184768676758,9,28,5143,7593
11.0,1788442228651,1.887323975563049,2.563380241394043,8.60139261931181e-05,-0.0058371797204017,0.6467841863632202,0.7626508474349976,0.0594777892596911,0.0024094363077213,4.2267198436494e-06,0.0050304569303989,-0.006456843111664,0.3026524186134338,-0.0050498098134994,0.0026172781363129,-0.9730878472328186,0.2303645014762878,0.0059992950003903,-0.003633521290233,0.2921741860640025,1.005772590637207,0.1734920740127563,0.2931184768676758,224,197,11489,11822
11.1,1788442228751,5.352112770080566,5.239436626434326,-0.0002552969381213,-0.0058729657903313,0.6492758393287659,0.7605302929878235,0.1160766180220806,0.0018020832392828,-1.7406337042618447e-05,-0.0108502637594938,0.0073203914798796,0.1321885734796524,-0.0056715589016675,0.0026458334177732,-0.9712314009666444,0.2380553781986236,-0.0042637335154457,-0.026028500281134,0.0139795028097121,0.5553871989250183,-0.6174589395523071,-0.3139600753784179,104,28,15880,14038
11.2,1788442228851,5.295774459838867,5.211267471313477,0.0003685650881379,-0.0059939818456768,0.6504501700401306,0.7595251798629761,0.1620113540821777,-0.0051457049214136,-2.002773901112075e-06,0.0112895984202623,-0.0060140122659504,-0.0126367704942822,-0.0060093412175774,0.001696590334177,-0.9717894196510316,0.2357679158449173,0.0148273491551303,-0.0078901361004095,-0.0357824931670164,-0.0200521945953369,0.2444442510604858,0.0498065948486328,124,68,15170,13092
11.3,1788442228951,5.295774459838867,5.211267471313477,0.0013272033538669,-0.0063372496515512,0.6484777331352234,0.7612060904502869,0.1683484853142992,-0.0044189121237866,4.040170863400282e-05,0.0063056689687073,-0.0123458830639719,-0.0378863625228405,-0.0055470149964094,0.0016068033874034,-0.9730994701385498,0.2303131073713302,-0.0006628223885149,0.0239016167310046,-0.165846498797121,-0.1016613245010376,-0.2337543368339538,-0.043898582458496,108,134,16790,13376
11.4,1788442229051,5.605633735656738,4.309859275817871,0.0011095600202679,-0.0056473826989531,0.643395185470581,0.7655125260353088,0.1642410705441953,-0.0068524865099366,-8.348134264605007e-05,0.0009547414956614,0.0162256564944982,-0.1674948781728744,-0.0042049828916788,0.0019584773108363,-0.9748552441596984,0.2227908372879028,-0.0038116488463851,0.0308671706017629,-0.1427456531008822,-0.1034375429153442,-0.0766320824623107,-1.5953798294067385,110,161,15989,14171
11.5,1788442229151,5.380281925201416,4.169013977050781,-0.0001158455852419,-0.0042135054245591,0.6376188397407532,0.7703404426574707,0.1678712990854051,-0.0028860174314199,-0.0001317996397498,-0.0019345630425959,0.0490628816187381,-0.1453061252832412,-0.0032595563679933,0.0020671812817454,-0.975355625152588,0.2206049114465713,0.0062818373384859,0.0634380937253708,-0.1491955288101943,-1.952995538711548,0.2727393507957458,2.6045589447021484,191,97,17157,14664
11.6,1788442229251,5.549295902252197,4.535211086273193,0.0023362608626484,-0.0065348371863365,0.6323098540306091,0.7746845483779907,0.1620271800733392,-0.0061383589244109,0.000308791007522,-0.0003601995413191,-0.0525571480393409,-0.1647016406059265,-0.006383772008121,0.0009017186239361,-0.9778587222099304,0.2091670930385589,-0.0020733042740887,0.0140389075109115,-0.1662102517063991,-0.7710797786712646,-0.2866405844688415,2.054906845092773,118,153,16291,13387
11.7,1788442229351,5.577464580535889,4.2253522872924805,0.0020595986861735,-0.0062978323549032,0.6255523562431335,0.7801540493965149,0.1671010799196558,-0.0010928044694754,-9.117333228472989e-05,-0.0052642105147242,0.0095188813284039,-0.1541015952825546,-0.0063697975128889,0.0010520005598664,-0.9794715642929076,0.2014791071414947,-0.0011074701447507,0.0132806521885444,-0.1563618269212585,0.0873556137084961,0.0642744898796081,0.8450851440429688,92,171,15930,14355
11.8,1788442229451,5.633802890777588,5.014084339141846,0.0018724903929978,-0.0060815070755779,0.6201573014259338,0.7844517230987549,0.168463940739798,-0.0069450002617259,-6.729749565616644e-05,-0.0022647683508694,0.0152557343244552,-0.1427592784166336,-0.0056498879566788,0.001567443832755,-0.9811679124832152,0.1930676102638244,-0.0112600042714754,0.0065423803637549,-0.1638357525227843,-0.028685986995697,-0.2201991081237793,0.0173597335815429,129,106,15652,11850
11.9,1788442229551,5.605633735656738,4.169013977050781,0.0009440137073397,-0.0056346850469708,0.6139970421791077,0.7892876863479614,0.1645787326891808,-0.0032763820158375,-8.595635575124553e-06,-0.0107120443135499,0.0124672893434762,-0.1524668931961059,-0.0051771439611911,0.0016962913796305,-0.9816975593566896,0.1903690099716186,-0.0025298087029328,0.0246280922086134,-0.1365322905517761,-0.099821388721466,-0.1202053427696228,-0.1782188415527343,98,152,15765,14840
12.0,1788442229651,5.492957592010498,4.422535419464111,0.0007746424525976,-0.0052498467266559,0.6118899583816528,0.7909250259399414,0.1575285038069039,-0.0051004284165621,-5.501327016818728e-05,0.0043614427559077,0.0202929954975843,-0.1304597705602646,-0.0053666187450289,0.0016978308558464,-0.983810305595398,0.1791249960660934,-0.0078134558502798,-0.0074829260598552,-0.1726696334542503,-0.0578519105911254,-0.1059269309043884,0.2027120590209961,127,135,16326,13784
12.1,1788442229751,5.408450603485107,5.126760482788086,0.0007900623604655,-0.0057613216340541,0.6016774773597717,0.7987180352210999,0.1601816411120872,-0.0041205279594695,2.815031304186412e-05,-0.0130986999720335,-0.0058967410586774,-0.1709626764059066,-0.0053666187450289,0.0016978308558464,-0.983810305595398,0.1791249960660934,-0.0078134558502798,-0.0074829260598552,-0.1726696334542503,-0.0578519105911254,-0.1059269309043884,0.2027120590209961,127,135,16326,13784
12.2,1788442229851,4.478873252868652,3.6056337356567374,0.0017052409239113,-0.0072535229846835,0.5957263708114624,0.803152859210968,0.1691940357714021,-0.0031900436968307,0.0001129597389422,-0.0006432280060835,-0.0659932792186737,-0.1445504277944564,-0.004906540736556,0.0018150703981518,-0.9861789345741272,0.1656015366315841,0.0006208812100143,0.0712416412384586,-0.1196792584298918,-1.1840195655822754,0.101239264011383,-0.0961694717407226,19,29,10482,6052
12.3,1788442229951,1.183098554611206,0.0,0.000612718053162,-0.0051785102114081,0.5853297114372253,0.8107786178588867,0.0255408362265831,-0.0018301484996978,1.5884044607142489e-06,0.0012475645635277,-0.002096849726513,-0.2445917427539825,-0.0048423130065202,0.0017874781042337,-0.9880380630493164,0.1541240811347961,0.0014410170602822,-0.0024943997551365,-0.2489456626870513,-0.5728553533554077,0.2967962622642517,-0.0335426330566406,22,101,1850,-6043
12.4,1788442230051,1.1267606019973757,-1.0704225301742554,0.0007162427064031,-0.0052692298777401,0.5809234380722046,0.8139408230781555,-0.001113785861932,0.0043212342200498,-1.0965699770558138e-06,0.0002415120397927,-0.0047861388884484,-0.2154784053564071,-0.0050715915858745,0.0014359354972839,-0.9898362159729004,0.1421146392822265,0.0057370715177011,0.0165831471701599,-0.2704363423903211,-0.5163432359695435,0.2669659256935119,0.2233133316040039,43,43,3253,-3655
12.5,1788442230151,0.0,0.0,0.0010557818459346,-0.0054239095188677,0.5766982436180115,0.8169385194778442,-0.0063076700742379,-0.0009797180517113,1.6091762894979044e-07,0.006716982461512,-0.0128614073619246,-0.2147402912378311,-0.005222481675446,0.0009983144700527,-0.9913313388824464,0.1312779188156128,0.0016529912596966,0.0016686459336261,-0.0807835338362086,0.1044161915779113,0.4489092230796814,0.0452804565429687,98,28,2676,0
12.6,1788442230251,0.0,0.0,0.0015076271956786,-0.00521193863824,0.5650384426116943,0.825046718120575,-0.0001232791255925,0.0011089241804479,1.1255583970922985e-07,-0.0023045819252729,-0.009057568386197,-0.0128621822223067,-0.0052593555301427,0.000965254381299,-0.9912363886833192,0.1319920569658279,0.002265559016145,0.0008314590338185,-0.0190528496470583,0.0808948278427124,0.0917080640792846,0.0689992904663086,0,0,0,0
12.7,1788442230351,0.0563380271196365,0.0281690135598182,0.0014827856793999,-0.0050745606422424,0.5652275681495667,0.8249180316925049,0.000799100189647,-0.0013234505230378,-3.21180227075053e-06,0.0023294119164347,0.0050734411925077,0.0091355219483375,-0.00523466989398,0.0009757103398442,-0.991196632385254,0.1322905570268631,-0.0001164135909396,-0.0017465730788351,0.0074069336142165,1.2892333269119265,0.0326631069183349,0.3073968887329101,282,346,10511,11288
12.8,1788442230451,4.169013977050781,4.056337833404541,0.0015871775103732,-0.0053131734021008,0.5653575658798218,0.824827253818512,0.039609196016706,-0.0020728939905392,3.175327202383064e-06,-0.0001181079351226,-0.0076111182570457,0.0147697469219565,-0.0042906505987048,0.0018770368769764,-0.9910047054290771,0.1337454468011856,-0.0128073843036159,0.0149618654935127,0.0502089765327496,0.9569729566574096,0.2623017430305481,-0.3281574249267578,282,346,10511,11288
12.9,1788442230551,5.239436626434326,5.830986022949219,-0.0008006038842722,-0.004545098170638,0.5679751634597778,0.8230327367782593,0.1717507492622086,-0.005211799881091,-5.625106433228845e-05,-0.0191904474049806,0.016000872477889,0.0459275022149086,-0.0038699796423316,0.0025091096758842,-0.9909014701843262,0.134509801864624,-0.0226884027337362,0.020019114448453,0.0310106423215841,0.8835386037826538,-0.2961390018463135,0.2011117935180664,188,272,15527,16093
13.0,1788442230651,5.014084339141846,5.746479034423828,-0.0015711627202108,-0.0041787149384617,0.5690518617630005,0.8222895264625549,0.1773393732726824,-0.0014400173464567,-4.709908568084652e-05,-0.017199320718646,0.0299689043313264,0.0535025149583816,-0.0029643261805176,0.0031650429591536,-0.9902713894844056,0.1390821784734726,0.0089027622988341,0.0095229202810418,0.0729779223615601,0.0579075813293457,-0.0266090035438537,-0.3306522369384765,115,137,14216,12896
13.1,1788442230751,4.957746505737305,4.873239517211914,-0.0015484846662729,-0.0037271683104336,0.5718725919723511,0.8203325271606445,0.1618470983146557,-0.0012097064947068,5.5498994754311846e-06,0.0079700639471411,0.0107925320044159,0.0591009594500064,-0.0029643261805176,0.0031650429591536,-0.9902713894844056,0.1390821784734726,0.0089027622988341,0.0095229202810418,0.0729779223615601,0.0579075813293457,-0.0266090035438537,-0.3306522369384765,103,42,15281,14814
13.2,1788442230851,5.098591327667236,5.267605781555176,-0.0005996279651299,-0.0040822089649736,0.571926474571228,0.8202945590019226,0.1597835942820234,0.0011297549181192,5.785807882047204e-06,0.0153662515804171,-0.0201803594827651,0.0017564226873219,-0.0035652937367558,0.0022013718262314,-0.989717662334442,0.1429737210273742,-0.0022196054849624,-0.021359861104984,0.0621668578319931,0.2730903029441833,0.2348219752311706,0.1592636108398437,103,42,15281,14814
13.3,1788442230951,5.323943614959717,5.098591327667236,-0.0005617269780486,-0.0040264790877699,0.5743589401245117,0.8185935616493225,0.1672849754134097,-0.0059802418051969,1.3698743358610904e-05,-0.0015639584744349,0.0029692349489778,-0.0062101152725517,-0.0033751092851161,0.0023314962163567,-0.9897862076759338,0.1425011157989502,-0.0042289972769297,0.0030477942562826,-0.0635605052027449,0.2546591162681579,-0.4018038511276245,0.8571681976318359,116,149,15943,14836
13.4,1788442231051,5.436619758605957,5.014084339141846,-0.0005617269780486,-0.0040264790877699,0.5743589401245117,0.8185935616493225,0.1672849754134097,-0.0059802418051969,1.3698743358610904e-05,-0.0015639584744349,0.0029692349489778,-0.0062101152725517,-0.0033751092851161,0.0023314962163567,-0.9897862076759338,0.1425011157989502,-0.0042289972769297,0.0030477942562826,-0.0635605052027449,0.2546591162681579,-0.4018038511276245,0.8571681976318359,116,148,14413,13650
13.5,1788442231151,4.985915660858154,4.8450703620910645,-0.0008813659660518,-0.0036773025058209,0.5708856582641602,0.8210208415985107,0.1614930761077803,-0.0060623758935161,6.337095152163323e-06,0.0081190457567572,-0.0001062890441971,-0.0242835022509098,-0.0029713092371821,0.0025334181264042,-0.9904574155807496,0.1377642601728439,-0.0074133612983,0.0043930765083757,-0.0332168344218138,0.174048900604248,0.2595952153205871,0.0316314697265625,116,148,14413,13650
13.6,1788442231251,5.521126747131348,5.211267471313477,-0.0007538179634138,-0.0037822232116013,0.5704097151756287,0.8213512301445007,0.160758989039605,-0.0080361875965375,8.492885617517327e-06,0.0021644672378897,-0.0078527741134166,-0.0289483536034822,-0.0029637860134243,0.0025321058928966,-0.9908074736595154,0.1352234035730362,0.0048799407016019,-0.0051843535227626,-0.0545803449299656,0.2656919360160827,0.1733495593070984,-0.0045137405395507,100,67,14147,12998
13.7,1788442231351,5.267605781555176,4.422535419464111,-0.0024249050766229,-0.0018682134104892,0.5666574835777283,0.8239478468894958,0.1619811637872785,-0.0022694851374192,-0.00022474818444,-0.0036169595550745,0.0655002668499946,-0.0213072597980499,-0.0002215337008237,0.0030327839776873,-0.9910191297531128,0.1336856633424759,-0.0044009724448741,0.0867385466458105,-0.0196859033760849,0.370634377002716,0.1027972102165222,-1.970415115356445,148,136,15120,15965
13.8,1788442231451,5.267605781555176,4.985915660858154,-0.0024773688055574,-0.0025388980284333,0.5647243857383728,0.8252719640731812,0.1756661301425036,-0.0019286037240261,-0.0001228805223679,-0.0064200367778539,0.0528059713542461,-0.0579452216625213,-0.0011478383094072,0.003356460481882,-0.9913008213043212,0.1315678060054779,0.0012740778028555,0.0734416447035857,-0.0548126388211271,0.0826917290687561,0.0327872037887573,-1.2032194137573242,128,136,15112,13765
13.9,1788442231551,5.042253494262695,4.422535419464111,-0.0019522566581144,-0.0030392808839678,0.5626144409179688,0.8267114162445068,0.1719197189668367,-0.0014803218197204,-4.2259546059508974e-05,-0.0057700700126588,-0.0087768016383051,-0.0589596517384052,-0.00162323564291,0.0035012708976864,-0.9918672442436218,0.1272186040878296,-0.0128886000158172,-0.0152505401919711,-0.0685985615686142,-0.0929358601570129,-0.1500534415245056,0.0275506973266601,122,106,15941,15725
14.0,1788442231651,5.070422649383545,5.492957592010498,-0.0027953656390309,-0.0023867893032729,0.5604167580604553,0.8282026052474976,0.1579530554417623,-0.0047416280687395,-5.975014643141524e-05,-0.0002678343153093,0.0193441752344369,-0.0320029743015766,-0.0002558296546339,0.0035131853073835,-0.9919588565826416,0.126511663198471,0.0090326566923606,0.0399939714730046,0.0075784389540707,-0.034053087234497,0.0048302412033081,-0.0179567337036132,107,135,14727,13094
14.1,1788442231751,5.042253494262695,4.8450703620910645,-0.003505953354761,-0.0014968474861234,0.5600190758705139,0.8284710049629211,0.1649660543531335,-0.0042029683468206,-7.814458022321546e-05,-0.0091495616361498,0.0218324121087789,-0.0239679310470819,0.0002645282074809,0.0039698081091046,-0.9921019673347472,0.1253708302974701,-0.0127541464308115,-0.0096974291435788,-0.0283952039362242,0.181982159614563,0.247111976146698,-0.5297641754150391,101,187,14682,15418
14.2,1788442231851,5.154929637908936,5.7183098793029785,-0.004333377815783,-0.0006013337988406,0.5593257546424866,0.8289363980293274,0.1649656752902555,-0.0051411366237153,-0.0001811924890977,-0.0032613142393529,0.0424099192023277,-0.0178971793502569,0.0014956127852201,0.0041366415098309,-0.9921287298202516,0.125144824385643,-0.0060940056867588,0.0409319071401438,-0.0114214037992307,-0.2400389313697815,0.2166140079498291,0.1987314224243164,121,161,14325,12570
14.3,1788442231951,4.957746505737305,5.070422649383545,-0.0051439059898257,0.0011521112173795,0.5593642592430115,0.8289052844047546,0.1621097685344588,-0.0030924897831362,-5.644901403383999e-05,0.0109272254630923,0.0465565770864486,0.0013831367250531,0.0040200632065534,0.0041494434699416,-0.992125928401947,0.1251113414764404,0.0041252841405805,0.0709987316667066,0.0003712426097887,0.0069338679313659,0.2496327757835388,0.7263870239257812,98,176,15112,14854
14.4,1788442232051,5.042253494262695,4.760563373565674,-0.0053040003404021,0.0027211487758904,0.5603463649749756,0.8282368779182434,0.1513729513049296,0.0003299156374735,2.879554710854674e-05,0.0427792370319366,0.0051820259541273,0.055336620658636,0.0045443754643201,0.0029550017789006,-0.9919174909591676,0.1267686486244201,0.0349755069594895,-0.0362956935925033,0.0268232495104326,0.1413352489471435,0.2780256271362304,0.4193239212036133,113,57,15182,15448
14.5,1788442232151,5.042253494262695,4.957746505737305,-0.0038488418795168,0.0029676905833184,0.5608934760093689,0.827873706817627,0.1561992770566654,-0.006636639405793,3.869028775865616e-05,0.0025886732619255,0.0152914067730307,-0.005495611578226,0.0045873196795582,0.0021587898954749,-0.9919168949127196,0.1267882883548736,-0.0077727373528011,0.0793625179399606,-0.0417896973845461,0.2298182845115661,0.1887840628623962,-1.3140239715576172,132,186,15343,14701
14.6,1788442232251,5.042253494262695,5.408450603485107,-0.0043064355850219,0.0025675639044493,0.5606241226196289,0.828055202960968,0.1725063219494962,-0.0010964811121725,-5.056536480071254e-05,-0.0211854875087738,-0.0054944385774433,0.0025764827150851,0.004709736444056,0.0029271552339196,-0.99191814661026,0.1267587393522262,-0.0120596181713245,0.033449482039548,0.0071500634710254,-0.018987238407135,0.1588342785835266,0.4495906829833984,118,40,14856,13361
14.7,1788442232351,5.070422649383545,5.408450603485107,-0.0048882756382226,0.0027300831861793,0.5605699419975281,0.8280882239341736,0.1661575211366608,-0.0031910236218741,-2.440801714875393e-05,-0.0077473293058574,0.0144669078290462,-0.0023812903091311,0.003909470513463,0.0033451113849878,-0.992024302482605,0.1259415298700332,-0.0181829637872559,0.0003963685184945,-0.0239502380881165,-0.1282544136047363,0.2688583731651306,-0.5054864883422852,127,137,14797,13272
14.8,1788442232451,5.154929637908936,4.647887229919434,-0.0049311043694615,0.0016391680110245,0.5597334504127502,0.8286564946174622,0.160304179726011,0.0009686738447503,8.346711940861215e-05,-0.0222992449998855,-0.0115885902196168,-0.0238651242107152,0.003422481007874,0.0036131376400589,-0.99217426776886,0.1247616931796073,0.0123044392044146,-0.02360814865415,-0.0312211200194815,0.1833517551422119,-0.1692124009132385,-0.8372611999511719,88,94,14457,16164
14.9,1788442232551,5.126760482788086,4.788732528686523,-0.0049392385408282,0.0013664931757375,0.5590603947639465,0.8291110992431641,0.1712745866416398,0.0026713355744645,-3.129058925649021e-06,-0.0070540867745876,0.0019395849667489,0.0007693670340813,0.0035811848938465,0.0038148434832692,-0.9921510219573976,0.1249358877539634,-0.0034815265715611,0.0152486358018143,0.0076295204451231,0.3049724102020263,0.1345134377479553,-0.0939292907714843,127,31,15813,14304
15.0,1788442232651,5.267605781555176,5.211267471313477,-0.0052369209006428,0.0008663588669151,0.5574224591255188,0.8302119970321655,0.164720955032259,-0.0060887178394518,-3.156935801132285e-07,-0.0157711803913116,-0.0089398184791207,-0.0591964982450008,0.0030365530401468,0.004320990294218,-0.9924855828285216,0.122247502207756,-0.0032331949861618,-0.0061621012229025,-0.0388469180303151,-0.0595362782478332,-0.2244490385055542,-0.4728975296020508,124,149,14988,13184
15.1,1788442232751,5.070422649383545,5.492957592010498,-0.0051165167242288,0.0003467239439487,0.5563443899154663,0.8309360146522522,0.1655929084778618,-0.0056377620680676,2.241662497702115e-05,-0.0009229692514054,-0.0087307747453451,-0.0242952741682529,0.0021401969715952,0.0044716773554682,-0.9925788640975952,0.121501475572586,-0.006132691137069,-0.0046465743029135,0.0007768173386101,0.3800376057624817,-0.2444894313812255,-0.50823974609375,95,132,14562,13270
15.2,1788442232851,5.323943614959717,5.577464580535889,-0.0049044997431337,-5.502812564373016e-05,0.556300938129425,0.8309664726257324,0.164203645987726,-0.0021993784105985,3.592059902969749e-05,-0.0018924376927316,-0.0181171912699937,-0.0022084114607423,0.0018878960981965,0.0049817143008112,-0.9926382303237916,0.1210000067949295,-0.0143577427422004,-0.0188405178388022,-0.0188875067706679,0.2246878147125244,-0.3142811059951782,0.242192268371582,96,141,13684,12925
15.3,1788442232951,5.014084339141846,4.8450703620910645,-0.0056851445697247,-2.9684044420719147e-05,0.5568481087684631,0.8305948972702026,0.1653169430131979,-0.0033905542158997,-4.9332311638701296e-05,0.0015549433883279,0.0148515086621046,0.0384805500507354,0.0023809382691979,0.0051312865689396,-0.9924271702766418,0.1227047741413116,-0.0051804899534929,-0.0191724329682043,0.0401913299921601,0.3208851814270019,-0.2285919189453125,-0.6766767501831055,136,153,14769,15508
15.4,1788442233051,5.070422649383545,4.309859275817871,-0.0064901947043836,0.000639337580651,0.5569660663604736,0.830509603023529,0.1605095118721858,-0.0017617521719188,-0.0001331600850089,-0.0074115199968218,0.0261716824024915,-0.0212306827306747,0.0025245519354939,0.0052814846858382,-0.9924824237823486,0.1222470253705978,0.0075760557985731,-0.0761872376601322,-0.0229209573965082,1.066551685333252,-0.2571698427200317,-5.07816743850708,159,161,16033,16260
15.5,1788442233151,4.985915660858154,5.380281925201416,-0.0052684806287288,-0.0022047497332096,0.5549159049987793,0.8318868279457092,0.1699228754758578,-0.0015817105498489,-0.0002035624884591,-0.0144469644874334,0.0607304833829402,-0.0749635621905326,-0.0011105751618742,0.0053078643977642,-0.9928871989250184,0.1189352571964263,0.0089749143999773,-0.0589346511848334,-0.025412080600206,0.4186563491821289,-0.0392183065414428,-0.6722450256347656,71,75,14923,13861
15.6,1788442233251,5.070422649383545,4.929577350616455,-0.0042847865261137,-0.0033679320476949,0.5540569424629211,0.832460880279541,0.1663567836180978,-0.0006051038977146,-4.634555933906592e-06,-0.0003338836249895,-0.0070426505990326,-0.005694868043065,-0.0014650803059339,0.0052104238420724,-0.9930371046066284,0.1176774129271507,0.0048731792000133,0.0014157995684427,-0.0589127362775926,-0.1290191411972046,0.0475306510925293,-0.1653327941894531,62,198,13435,16556
15.7,1788442233351,4.985915660858154,4.8450703620910645,-0.0035194442607462,-0.0031543863005936,0.5549561977386475,0.8318661451339722,0.1716085067518006,0.0008554386894165,-1.1107864736192524e-05,0.0150822382420301,0.0056718131527304,0.0865705981850624,-0.0006454493850469,0.0044541312381625,-0.9925932884216307,0.1214015930891037,0.0077532941746775,0.016962802746133,0.0546301353933525,0.2835130095481872,0.1454059481620788,0.4066190719604492,141,150,15122,15307
15.8,1788442233451,4.985915660858154,4.619718074798584,-0.0041288514621555,-0.0019492978462949,0.5562950372695923,0.8309723138809204,0.1645805285419074,-0.0036066161962914,-7.229221778858544e-05,0.0014394466998055,0.0319028049707412,0.0117954108864068,0.0003135865554213,0.0047353114932775,-0.9924553632736206,0.122514933347702,-0.0080518851497994,0.0050632307912729,0.0624072315812855,0.1086257696151733,-0.22784423828125,0.667149543762207,134,146,14748,16174
15.9,1788442233551,4.901408672332764,5.380281925201416,-0.004276162944734,-0.0021266506519168,0.5576938390731812,0.830033004283905,0.173768306663356,0.0011257150694931,1.210826905697019e-05,-0.0035629360936582,-0.0074259755201637,0.0169760659337043,1.945532858371734e-06,0.004825672134757,-0.9923412799835204,0.1234324872493743,-0.0001866843648188,0.006135841841027,0.0126132492849122,0.1144657731056213,0.3197060823440552,-1.3548688888549805,88,144,13925,14584
16.0,1788442233651,5.042253494262695,4.676056385040283,-0.0043939114548265,-0.0034580589272081,0.5586835741996765,0.8293620944023132,0.1657252382988501,8.880053172827921e-07,0.0001663625150566,-0.0232928916811943,-0.0301611144095659,0.0266380663961172,-0.0004934519529342,0.004923103377223,-0.9922059178352356,0.1245107427239418,0.0644706130201108,0.0639234624430383,0.0248248925966081,0.4216829538345337,-0.3675869107246399,-0.277714729309082,97,171,14497,15702
16.1,1788442233751,5.154929637908936,4.788732528686523,-0.0034939746838063,-0.0014881102833896,0.5595643520355225,0.8287782073020935,0.1668057471513499,-0.0068566392526551,-0.0001414731192495,0.0462370663881301,0.0241739973425865,0.031346995383501,0.0001718932762742,0.002700138837099,-0.9919416904449464,0.126666784286499,0.0553745945969939,-0.0375172928864151,0.0577835718450007,-0.3834036588668823,-0.2248998880386352,1.7925500869750977,103,118,13347,16372
16.2,1788442233851,4.957746505737305,4.676056385040283,-0.0034454809501767,-0.0003526055952534,0.5616846084594727,0.8273441195487976,0.1587115900441551,-0.0058242243447113,-0.0002001875556504,-0.0123282680287957,0.0440209172666072,0.0270248875021934,0.0019075321033596,0.0038895076140761,-0.991701066493988,0.1284927576780319,-0.0211322025213219,0.023191490843546,0.032506629648123,-0.0130897164344787,0.0256396532058715,0.8583545684814453,99,171,14051,17185
16.3,1788442233951,5.070422649383545,4.647887229919434,-0.0050421822816133,0.0002837218344211,0.563166618347168,0.8263279795646667,0.1703567477180842,-6.574187263714346e-05,-1.6747628295303944e-05,-0.0080154873430728,0.0078955357894301,0.0308640971779823,0.0026449719443917,0.0044121583923697,-0.9915204048156738,0.1298488974571228,0.0090686693501557,0.0028355752748788,-0.002929253227369,-0.1479550004005432,0.0311449170112609,-0.7222700119018555,119,93,14861,15939
16.4,1788442234051,5.126760482788086,5.605633735656738,-0.0048770643770694,-0.0001689733471721,0.5633645057678223,0.8261939883232117,0.1597737519538392,-0.0039195032030964,2.7552570707118715e-06,0.0003983803326264,-0.0166023075580596,0.0043575880117714,0.0016122199594974,0.0045550372451543,-0.9914954304695128,0.1300524175167083,-0.0083310664760884,-0.029108340109568,0.0035346099574857,0.3726177811622619,0.0238867998123168,-0.3201494216918945,119,144,14968,16215
16.5,1788442234151,5.042253494262695,5.464788913726807,-0.0045801880769431,-0.000870817573741,0.5635553598403931,0.826065182685852,0.1621126415340955,-0.0044722741573349,-8.234368752453361e-08,-0.0001859150070231,-0.0220261048525571,0.0071628056466579,0.0012477915734052,0.0041396496817469,-0.9914758801460266,0.1302185207605362,0.0220662620978096,0.0152597415242423,0.0043980491812675,-0.158215045928955,-0.2143073081970214,1.153085708618164,102,134,14794,13152
16.6,1788442234251,4.647887229919434,5.746479034423828,-0.0037902069743722,-0.0009104290511459,0.5636270046234131,0.8260202407836914,0.1614415229904433,-0.0007279092595681,3.9349175714570246e-05,0.0103890765458345,-0.007969457656145,-0.0003635094617493,0.0010033911094069,0.0033695949241518,-0.9912574887275696,0.1318951994180679,0.0128295583528491,0.0009234283759581,0.0722855075843308,-0.1269660592079162,-0.1774226427078247,-0.2932386398315429,121,142,14994,13519
16.7,1788442234351,5.183098793029785,5.408450603485107,-0.0033820467069745,-0.0005611999658867,0.5654881000518799,0.824749231338501,0.1643146394006673,-0.0010335758233459,-2.434257017716257e-06,0.0046518663875758,0.0003203689993824,0.0278845261782407,0.0013209795579314,0.0032013189047574,-0.9913963079452516,0.130848690867424,0.0012911075708874,-0.0150516645181002,-0.0865219639248689,-0.1342028379440307,0.1096845865249633,-0.2569179534912109,87,148,14416,13459
16.8,1788442234451,5.183098793029785,4.929577350616455,-0.0032257500570267,-0.0004784495104104,0.5635731220245361,0.8260597586631775,0.1615990362359738,-0.0003772117929829,1.5292601522870615e-05,0.0031220016535371,-0.0161501020193099,-0.0445367731153965,0.0009316243231296,0.0032199956476688,-0.9915611743927002,0.1295963525772094,-0.0070686599369935,-0.0022411129479779,-0.0226243412873359,-0.123392105102539,-0.2000772356986999,-0.6011981964111328,112,173,14277,15256
16.9,1788442234551,5.070422649383545,4.619718074798584,-0.0030963926110416,-0.0006988935638219,0.5631358027458191,0.8263583183288574,0.1643216325679619,0.0041433280446672,2.1955409767507742e-05,0.0005554084200412,-0.0084816375747323,-0.0111581850796937,0.0008069323375821,0.002766715362668,-0.991476595401764,0.1302530467510223,0.016379220544357,0.005101564011944,0.036163819843948,0.0169523954391479,0.1834458708763122,0.6362056732177734,135,127,14581,16123
17.0,1788442234651,4.985915660858154,4.619718074798584,-0.0029874474275857,-0.0001558641670271,0.5636996030807495,0.8259744644165039,0.1629561455976847,-0.0015464908136267,-8.785729790373381e-05,0.0059548094868659,0.0153873953968286,0.00856489315629,0.0030061937868595,0.0028705662116408,-0.9914414882659912,0.130486249923706,-0.0015934768042348,0.0731021783806221,0.0044801910089615,0.0232941508293151,0.2548826336860657,-0.1716175079345703,87,91,14966,16001
17.1,1788442234751,4.985915660858154,5.323943614959717,-0.0038454351015388,0.0010372628457844,0.5637115240097046,0.8259621262550354,0.1492023161797507,-0.0017454289359735,-0.0001128894820092,-0.0062219724059104,-0.0149967269971966,-0.0061790249310433,0.00027078948915,0.0028622280806303,-0.9916382431983948,0.1290166079998016,-0.0197762756797982,-0.0487951889972741,-0.0644772480446951,-0.1283884048461914,0.2323067188262939,-0.4504327774047851,139,253,15786,14483
17.2,1788442234851,5.098591327667236,4.647887229919434,-0.0030436057131737,-0.0006139632314443,0.562816858291626,0.826575756072998,0.1790632362922419,0.0016445389642995,-0.0002708011848137,-0.0077785518951714,0.0082431817427277,0.0118338391184806,0.000345061533153,0.0029990328475832,-0.9915308356285096,0.1298361867666244,-0.007875254950904,-0.0076678637313281,0.0352928992597314,0.8976628184318542,0.0599874854087829,0.5955486297607422,117,146,15918,14810
17.3,1788442234951,4.901408672332764,4.676056385040283,-0.0034356212709099,-0.0008820099756121,0.561774730682373,0.8272826671600342,0.1617427855131787,-0.0042191731595579,4.346722993713647e-05,-0.011627952568233,-0.0083159608766436,-0.0666020587086677,0.0007826182991266,0.0030966755002737,-0.9917001128196716,0.1285329014062881,0.0150063729831097,-0.0008659978382259,0.0373216967246307,-0.1014162302017211,0.0047913193702697,-0.6793947219848633,119,87,15148,15869
17.4,1788442235051,5.211267471313477,5.098591327667236,-0.0031926196534186,-0.0008997389231808,0.5619275569915771,0.8271798491477966,0.162934135441014,-0.0024491846710016,1.6699836643248832e-05,0.0060351374559104,-0.0048000426031649,0.0058146547526121,0.0008392315357923,0.0026641422882676,-0.9916542172431946,0.1288963407278061,0.0257848599146323,0.0010377058125574,0.0106515452144427,-0.145624577999115,0.1184892058372497,0.195688247680664,126,140,13650,14937
17.5,1788442235151,4.957746505737305,5.014084339141846,-0.0026905862614512,-0.00045193254482,0.5632047057151794,0.8263128399848938,0.162050799373101,-7.935364571951422e-05,1.1716975469656632e-06,0.0008767463150434,0.0023839594796299,0.0387267246842384,0.0008279113098978,0.0026010908186435,-0.9915106296539308,0.1299971044063568,0.0012672630838305,0.0034340814399442,0.0558100225420556,0.3209547996520996,0.1146301627159118,-0.0217494964599609,133,131,14486,12940
17.6,1788442235251,4.901408672332764,4.732394218444824,-0.0026942125987261,-0.000831787881907,0.5633178353309631,0.8262354731559753,0.1690543333542686,-0.0033397691893992,2.638787841302984e-05,-0.0088015301153063,-0.0126566626131534,0.0055146105587482,-7.296912372112274e-06,0.0030252914875745,-0.9914361238479614,0.1305580586194992,-0.006850601459549,0.0002328507741388,0.0288266940874035,0.0045937895774841,0.116073191165924,-0.634892463684082,121,121,14768,14901
17.7,1788442235351,5.070422649383545,4.619718074798584,-0.0029393883887678,-0.0028400609735399,0.5640617609024048,0.8257224559783936,0.168342381566289,-0.0045941082958344,4.189665226323345e-05,-0.0330290533602237,-0.0284028388559818,-0.0176079999655485,-0.0013487478718161,0.0039848312735557,-0.9914106726646424,0.1307180821895599,-0.030460514383445,-0.0420863026410051,-0.0319762180642723,-0.0663174390792846,0.0754883289337158,-0.4420289993286133,55,127,14257,16007
17.8,1788442235451,5.183098793029785,4.704225540161133,-0.0027692373842,-0.0027854810468852,0.564480721950531,0.8254368901252747,0.1547536970275418,0.0046335190212988,8.097475335808379e-05,0.0068335593678057,-0.0021081925369799,0.0201740246266126,-0.0013487478718161,0.0039848312735557,-0.9914106726646424,0.1307180821895599,-0.030460514383445,-0.0420863026410051,-0.0319762180642723,-0.0663174390792846,0.0754883289337158,-0.4420289993286133,110,83,14584,15643
17.9,1788442235551,4.8450703620910645,5.098591327667236,-0.0023285807110369,-0.0020927239675074,0.5650041103363037,0.8250821232795715,0.1643110506034609,-0.0031633174139958,-3.9386358010255057e-07,0.0,0.0,0.0,-0.0010100724175572,0.0029053324833512,-0.9912765026092528,0.1317629963159561,0.0090618069676499,-0.0284890485538645,0.0195832670563619,-0.0389646291732788,-0.0282865762710571,0.0832118988037109,106,53,14221,15797
18.0,1788442235651,4.732394218444824,5.183098793029785,-0.0022305508609861,-0.00208978401497,0.5659293532371521,0.8244480490684509,0.1631035473111105,0.0017397329768258,-7.065750134638723e-06,0.0033714694436639,-0.0022926200181245,0.045553158968687,-0.0006523998454213,0.0025916965678334,-0.9908260703086852,0.1351166814565658,0.0131340865973536,0.0099254507867633,0.0645380991425637,0.0273200273513793,0.1249533891677856,0.2950563430786133,110,44,15012,15270
18.1,1788442235751,5.014084339141846,5.098591327667236,-0.0020300685428082,-0.0016109519638121,0.5682083964347839,0.8228806257247925,0.1637626562774747,-0.0042010062152541,3.623661085314046e-05,0.0083862980827689,-0.0020535048097372,0.0423776656389236,-0.0006773117929697,0.0023890854790806,-0.990673303604126,0.1362361311912536,0.0073749101389856,-0.0090994495286513,0.0316079803717645,0.3770564794540405,-0.1729500889778137,0.1468496322631836,110,45,13833,15569
18.2,1788442235851,4.788732528686523,4.8450703620910645,-0.0017223972827196,-0.0018117087893188,0.5690586566925049,0.8222931623458862,0.163554432759049,0.0014909374229471,2.8270009307304976e-05,0.001909457729198,-0.0094130299985408,0.0124954814091324,-0.0005577616393566,0.0023421654477715,-0.9903185963630676,0.1387922465801239,-0.0043393284229963,0.0112157493445562,0.0348035128262181,0.0985790491104126,0.0256896615028381,0.6568384170532227,104,66,14000,14314
18.3,1788442235951,4.929577350616455,5.6619720458984375,-0.0017139818519353,-0.0016592694446444,0.5702412724494934,0.8214737772941589,0.1674234923834908,-0.0072374632728533,-8.367383423327001e-05,0.003876770613715,0.0048066182062029,0.0590962506830692,-0.0007205931469798,0.0023921420797705,-0.9900825023651124,0.1404647529125213,-0.0008895348133096,-0.0191021650283068,-0.0047391827341363,0.0045722723007202,0.0649628639221191,-0.1138849258422851,121,114,15074,12612
18.4,1788442236051,5.211267471313477,5.380281925201416,-0.0018095982959493,-0.0017224845942109,0.5721136927604675,0.820170521736145,0.1678205945354985,-0.0068179529396132,3.2167486303693765e-05,-0.0015743939438834,-0.0120974536985158,0.002557908417657,-0.000499035231769,0.00255314912647,-0.990134298801422,0.1400972753763198,0.0023151596777114,-0.0017190332570124,-0.0050080935659159,-0.0773883461952209,-0.1627426147460937,0.2029428482055664,125,66,13913,13381
18.5,1788442236151,5.211267471313477,5.380281925201416,-0.0020591141656041,-0.0016691075870767,0.5718944668769836,0.8203229308128357,0.1650814872949061,-0.0060391973222342,-2.937280259664533e-05,-0.0070298905484378,0.0075536458753049,-0.0107525773346424,0.0001744497567415,0.0028178747743368,-0.9899708032608032,0.1412439346313476,-0.0100048562700397,0.0134571677308781,0.0258727136762414,0.014463186264038,0.1496459245681762,-0.1800270080566406,120,79,13872,14303
18.6,1788442236251,5.070422649383545,5.098591327667236,-0.002643161220476,-0.0011096536181867,0.5727604627609253,0.8197177648544312,0.1621550958382773,-0.0024384774267909,-4.65674621847155e-05,-0.006628930568695,0.0094283213838934,0.0149318724870681,0.0013754935935139,0.0028501711785793,-0.9899111986160278,0.1416540592908859,0.0048660327608844,0.0363936455764937,0.003915443924747,0.6991201639175415,-0.24074387550354,-1.9189019203186035,134,134,14730,14316
18.7,1788442236351,5.126760482788086,4.563380241394043,-0.0037668722216039,0.0007630457403138,0.573083221912384,0.8194881081581116,0.156847247632276,-0.0062738075127199,-0.0003057286298706,0.0049602226354181,0.0717023983597755,0.0031373938545584,0.0007391655817627,0.0032024132087826,-0.9899945855140686,0.1410670131444931,-0.0159738300271443,0.0286574699369972,-0.0279627536330905,0.0049974918365478,-0.1269686818122863,-2.9326815605163574,134,134,14730,14316
18.8,1788442236451,5.042253494262695,5.436619758605957,-0.0029214406386017,-0.0009368571336381,0.5727731585502625,0.8197081685066223,0.1709438645314817,0.0024463116029019,-0.0001003290456174,-0.0088118026033043,0.0194625575095415,-0.0116377919912338,4.1330233216285706e-05,0.0029702838510274,-0.990027129650116,0.140845775604248,0.0021313620854248,0.0024881041727647,-0.0099101678960824,-0.2330737709999084,-0.1709186434745788,-0.5533456802368164,95,42,14659,13374
18.9,1788442236551,5.154929637908936,4.816901206970215,-0.0024934886023402,-0.0016162310494109,0.5725669860839844,0.8198525309562683,0.1608376796581417,-0.0030038770602164,8.931674305196682e-05,0.0046383598819375,-0.0175144877284765,0.0071789021603763,-0.0001214314252138,0.0029084859415888,-0.9899957180023192,0.1410676836967468,0.0043078056983486,-0.0027716324866669,-0.0076218132506697,-0.1114894747734069,-0.1812279820442199,1.458510398864746,114,72,14412,15452
19.0,1788442236651,4.760563373565674,5.7183098793029785,-0.002868688898161,-0.001101491972804,0.572393000125885,0.8199735879898071,0.1664005131197586,-0.0049821342993765,-0.0001294479943114,-0.0005165238399058,0.0255926176905632,-0.0084328241646289,0.0003770776093006,0.0030184537172317,-0.9899065494537354,0.141689196228981,0.0057110655747044,-0.0070781568767746,0.0371962386705531,0.0459710359573364,0.1884627342224121,-0.0321950912475585,107,104,14418,13576
19.1,1788442236751,4.929577350616455,5.6619720458984375,-0.0030764637049287,-0.0004670212510973,0.5748130083084106,0.8182789087295532,0.1665141076343164,0.0016471930545983,4.377366718406163e-06,-0.0010341459419578,-0.0044020195491611,0.0418918095529079,0.0009405864402651,0.0030207708477973,-0.9895304441452026,0.144289493560791,-0.0057124986911595,-0.0001133577518738,0.0323629153012807,0.1410287618637085,-0.1132145524024963,-0.9329185485839844,107,104,14418,13576
19.2,1788442236851,4.816901206970215,4.873239517211914,-0.0030144860502332,-0.0005508512258529,0.5759782195091248,0.817459225654602,0.1673954720249115,-0.0006646664418284,2.1054063522822766e-05,2.2072537831263617e-05,-0.0043340194970369,0.0570584572851657,0.0011191191151738,0.003204183652997,-0.9892312288284302,0.1463218182325363,0.0002573695867642,-0.0042652039860066,0.0383692643522241,0.036252737045288,0.1821902394294738,0.0524921417236328,116,70,14468,16338
19.3,1788442236951,5.267605781555176,4.873239517211914,-0.0029793907888233,-0.0006149768596515,0.5778311491012573,0.8161507248878479,0.1573050830236912,-0.0006535262872684,1.4708415742572002e-05,0.0070188553072512,-0.0118874665349721,0.0392093174159526,-0.0003054961562156,0.0037245787680149,-0.9889740943908693,0.1480413079261779,-0.0507729319657805,-0.0834349683420932,-0.0230874681022596,-0.0026794672012329,-0.2612471580505371,0.3797340393066406,77,36,13986,14944
19.4,1788442237051,5.126760482788086,5.380281925201416,-0.0025555398315191,-0.0011507170274853,0.5788830518722534,0.8154058456420898,0.1634970066877441,0.0039259793805944,-1.993148704742809e-06,0.0287252236157655,-0.0063526397570967,0.0168620720505714,0.0008648261427879,0.0036994628608226,-0.989007294178009,0.1478177905082702,-0.0295761572215166,0.0427176947344303,-0.0363090572782853,-0.3720706701278686,-0.717464804649353,0.7852554321289062,77,36,13986,14944
19.5,1788442237151,4.788732528686523,5.746479034423828,-0.0025555398315191,-0.0011507170274853,0.5788830518722534,0.8154058456420898,0.1634970066877441,0.0039259793805944,-1.993148704742809e-06,0.0287252236157655,-0.0063526397570967,0.0168620720505714,0.001697358675301,0.004161893390119,-0.9890221953392028,0.1476991027593612,-0.0140767055666764,0.0375732527430954,-0.004936608133571,-0.084426999092102,0.2524194121360779,0.2094478607177734,103,140,14359,13614
19.6,1788442237251,4.901408672332764,5.492957592010498,-0.0050476649776101,-7.523060776293278e-05,0.5791845917701721,0.815180778503418,0.1691768668770787,0.0028386780971377,-9.225514679117476e-05,-0.0084784049540758,0.0223227236419916,0.0481792874634265,0.001697358675301,0.004161893390119,-0.9890221953392028,0.1476991027593612,-0.0140767055666764,0.0375732527430954,-0.004936608133571,-0.084426999092102,0.2524194121360779,0.2094478607177734,83,52,14046,13919
19.7,1788442237351,4.8450703620910645,5.436619758605957,-0.0050967978313565,0.0001774877309799,0.5827483534812927,0.81263667345047,0.1673107223672104,0.0005291568518731,2.504419326419249e-05,0.0040180645883083,-0.0037837363779544,0.0697476491332054,0.0022524464875459,0.0041496995836496,-0.9878202080726624,0.1555277705192566,0.0008929230939658,0.0082920117256826,0.0460030598823289,-0.1636332273483276,-0.1608373522758484,0.9695091247558594,127,55,14451,13961
19.8,1788442237451,4.901408672332764,5.549295902252197,-0.0046376613900065,9.257253259420396e-05,0.584877610206604,0.8111083507537842,0.1662529857463848,0.0003413766757396,-1.7661785247832425e-05,0.003684869967401,0.0006340588442981,0.0522189661860466,0.0022997818887233,0.0042056422680616,-0.9874839186668396,0.1576466858386993,-0.0095691679797578,0.0030416114115851,0.0565967449905205,-0.1380558013916015,0.0655499696731567,0.2323493957519531,102,74,14206,13684
19.9,1788442237551,5.098591327667236,5.070422649383545,-0.0048104533925652,0.0001432518474757,0.5869115591049194,0.8096367716789246,0.166351475419505,-0.000835009636717,-2.3002244309736268e-05,-0.006245735567063,0.0032854238525032,0.0475201457738876,0.0023067183792591,0.0042273132130503,-0.9871550798416138,0.1596923023462295,-0.006136814857202,-0.0030637810230612,-0.0067014733609115,-0.1704588532447815,-0.0202982425689697,0.6630926132202148,102,74,14206,13684
20.0,1788442237651,5.239436626434326,4.563380241394043,-0.004720683209598,0.00021587847732,0.5877673029899597,0.8090163469314575,0.1641972609727165,-0.0041690674934612,2.4705205867553254e-06,-2.3181732089483376e-09,4.636346417896675e-08,-2.3738093659630977e-06,0.0016469759866595,0.0041432864964008,-0.9874537587165833,0.1578456461429596,0.0068008297616726,-0.0298031287068954,-0.0530604280832079,0.3082854747772217,-0.1292620301246643,-0.6711854934692383,152,35,15863,14794
20.1,1788442237751,5.154929637908936,5.521126747131348,-0.0039173224940896,-0.0002488170284777,0.5853458046913147,0.8107742071151733,0.1666627846251182,-0.0019190948911467,1.2261175286625707e-05,0.0184806827455759,-0.0098427468910813,-0.0485201366245746,0.001715580932796,0.0034233201295137,-0.9877761006355286,0.1558327972888946,0.0135117127622985,0.0187078351826,-0.0458135279061816,0.2587473392486572,-0.0212421417236328,-0.6241273880004883,109,91,15401,11837
20.2,1788442237851,5.098591327667236,4.478873252868652,-0.0041672899387776,0.0004522757371887,0.5828169584274292,0.812592625617981,0.1633094022335458,-0.004779620070526,-5.412640986545203e-06,-0.001405646558851,0.0136572374030947,-0.0681588277220726,0.0024703200906515,0.0036155981943011,-0.9882423281669616,0.1528332829475402,-0.0101154570440197,0.0308649392742222,-0.0780333696828232,-0.0561619400978088,0.160072922706604,0.2959556579589844,141,115,15669,15413
20.3,1788442237951,5.267605781555176,4.647887229919434,-0.0045834453776478,0.0006589742843061,0.581392228603363,0.8136102557182312,0.1653417222220647,7.804442799127353e-05,-5.152489739511216e-05,-0.0085053434595465,0.0166252683848142,-0.0699480548501014,0.0039378982037305,0.0038702012971043,-0.9886110424995422,0.150392398238182,0.0122026147220598,0.0576777616226103,-0.0389473702822632,-4.356986999511719,0.0284945964813232,5.622647285461426,117,153,14985,14945
20.4,1788442238051,5.126760482788086,4.535211086273193,-0.0030455966480076,-0.0006089453818276,0.5798786282539368,0.8146969079971313,0.1554486928029096,-0.003009853497345,7.496216947152228e-05,0.0213655196130275,-0.0951900035142898,-0.0422288365662097,-0.0014545591548085,0.0033455975353717,-0.9890490174293518,0.1475427597761154,-0.005000581657058,-0.0317152689063038,-0.061534703898873,-0.0444521307945251,-0.1644583940505981,2.3080835342407227,138,114,15702,15598
20.5,1788442238151,5.126760482788086,4.788732528686523,-0.0015922072343528,-0.0036728046834468,0.577429473400116,0.8164308667182922,0.1735904774761419,-0.0037765476974783,0.0001866953190065,-0.0020851583685725,-0.0580463483929634,-0.0436016656458377,-0.0031400844454765,0.0026900200173258,-0.9892354011535645,0.1462745070457458,-0.0002645409281475,0.0211799822466169,0.00700696936348,-0.17485111951828,0.1552590727806091,-0.1100645065307617,111,116,14531,15996
20.6,1788442238251,5.211267471313477,5.492957592010498,-0.0015922072343528,-0.0036728046834468,0.577429473400116,0.8164308667182922,0.1735904774761419,-0.0037765476974783,0.0001866953190065,-0.0020851583685725,-0.0580463483929634,-0.0436016656458377,-0.0034829676151275,0.0026595555245876,-0.9892001152038574,0.1465059369802475,-0.0044708385865185,0.0154119440000081,0.0018369156860043,-0.4578973054885864,-0.1469627618789672,-0.3289041519165039,81,56,14943,12395
20.7,1788442238351,5.295774459838867,5.126760482788086,-0.0006195859750732,-0.0044344412162899,0.5770326256752014,0.8167088627815247,0.1654700256284967,-0.0039891339399133,3.910872844670918e-06,0.0,-5.83302917078754e-09,0.0,-0.0037510301917791,0.003006930463016,-0.9895774126052856,0.1439221203327179,-0.0113283166400749,0.0078240770612656,-0.066532429321663,-0.2252277135848999,0.0167572498321533,-0.3314666748046875,126,141,15481,14672
20.8,1788442238451,5.183098793029785,5.436619758605957,-0.0010432152776047,-0.0047134244814515,0.5748737454414368,0.8182278871536255,0.1669952086129254,0.0003803161379767,1.798946723381249e-05,-0.0118551645427942,0.0012922505848109,-0.0632487386465072,-0.0036197220906615,0.0032920204102993,-0.9897286891937256,0.1428752243518829,-0.0106891132159579,0.0069853331739123,-0.0423087650930231,-0.0265676379203796,0.2775671482086181,-0.032017707824707,132,126,15308,12277
20.9,1788442238551,5.098591327667236,4.985915660858154,-0.001170048257336,-0.0053115608170628,0.572468638420105,0.819908618927002,0.1621308926769795,-0.0064403123973243,5.6039983662170025e-05,-0.0031896936707198,-0.0213876478374004,-0.0571768954396247,-0.0042546521872282,0.0034421291202306,-0.9900242686271667,0.1407908499240875,-0.0035735016872286,-0.0186334866194358,-0.049560400856631,-0.1801223158836364,0.141701340675354,-0.3864421844482422,79,50,14289,14633
21.0,1788442238651,4.8450703620910645,5.408450603485107,-0.0004174094647169,-0.0058524589985609,0.5717864036560059,0.8203815221786499,0.1554445431957182,-0.0056237474689057,5.69553687758863e-05,0.0129009056836366,-0.0153901195153594,-0.0016062997747212,-0.0042546521872282,0.0034421291202306,-0.9900242686271667,0.1407908499240875,-0.0035735016872286,-0.0186334866194358,-0.049560400856631,-0.1801223158836364,0.141701340675354,-0.3864421844482422,179,45,15622,13101
21.1,1788442238751,5.042253494262695,5.408450603485107,0.0009207532275468,-0.0052861822769045,0.573271632194519,0.8193478584289551,0.1658340504682465,-0.0095650067795599,-5.422612016730288e-06,0.0247451607137918,-0.000582686101552,0.0212508998811244,-0.0037260558456182,0.0026577897369861,-0.9900272488594056,0.1408019810914993,-0.0040709045502627,0.018313417622252,0.0244462516868456,-0.2407611012458801,0.0706253051757812,0.1932611465454101,103,160,14708,15490
21.2,1788442238851,5.014084339141846,4.957746505737305,-0.0004272575024515,-0.0046093706041574,0.5723122358322144,0.820022702217102,0.1661664635940102,-0.0035832012761548,-2.7726878512635397e-06,4.1016576801666815e-08,-5.297974325912946e-08,6.125142135715578e-06,-0.0037737721577286,0.0035390704870224,-0.9897303581237792,0.1428538113832473,-0.0110569537285841,0.0018997174774113,0.0738060619446126,0.0239376425743103,-0.2367721796035766,-0.3499832153320312,126,145,14870,14401
21.3,1788442238951,4.929577350616455,5.408450603485107,-0.0013850829564034,-0.0051486892625689,0.5743491053581238,0.8185931444168091,0.1676182206417172,-0.0041063445679108,-1.270735185121824e-05,-0.0120576592162251,-0.0028700078837573,0.0637618005275726,-0.0042448509484529,0.0035821795463562,-0.9896531105041504,0.1433735191822052,-0.0076366341927433,-0.0325235085896642,0.0368717483823408,0.2320035696029663,0.1633179187774658,-0.1396923065185547,131,149,14745,14791
21.4,1788442239051,5.070422649383545,5.605633735656738,-0.000905965687707,-0.0055785998702049,0.5744083523750305,0.8185494542121887,0.1642835341654203,-0.0062761676153774,0.0001196792252216,0.0058096838183701,-0.0250470452010631,0.00281613599509,-0.004701966419816,0.0029806029051542,-0.9897291660308838,0.1428470462560653,0.0042975785450926,0.0047096018460866,-0.0026065167739156,-0.1504212021827697,-0.1438056826591491,0.1280384063720703,131,149,14745,14791
21.5,1788442239151,4.985915660858154,5.323943614959717,-0.000905965687707,-0.0055785998702049,0.5744083523750305,0.8185494542121887,0.1615332249811572,-0.007419273413327,-2.2432441304964517e-06,0.0,2.3196333742703246e-09,0.0,-0.0048451786860823,0.003049885854125,-0.9897392988204956,0.1427703946828842,-0.0044689953137866,-0.0065810549522862,-0.0038713352699169,-0.2033727765083313,0.3172727823257446,0.0328702926635742,115,95,14222,14435
21.6,1788442239251,5.042253494262695,4.816901206970215,-0.0002386497799307,-0.0056915795430541,0.5749279260635376,0.8181841969490051,0.1678042414924126,0.0015122802979277,1.104541680308182e-05,0.010321763344109,-0.0052471603266894,0.0408805459737777,-0.0048451786860823,0.003049885854125,-0.9897392988204956,0.1427703946828842,-0.0044689953137866,-0.0065810549522862,-0.0038713352699169,-0.2033727765083313,0.3172727823257446,0.0328702926635742,114,62,14984,15330
21.7,1788442239351,5.070422649383545,5.408450603485107,-0.0001770057715475,-0.0057614985853433,0.5746142268180847,0.8184041380882263,0.1661881957857066,-0.0032145118348154,2.588658088003416e-05,0.0002836135099641,-0.0030453067738562,-0.0127875786274671,-0.0050293570384383,0.0026196287944912,-0.9897244572639464,0.1428754180669784,0.0082973139682748,0.0089716276905613,-0.0116765276989366,0.273480474948883,0.1642554402351379,-0.0766363143920898,101,126,14842,13425
21.8,1788442239451,5.070422649383545,5.521126747131348,0.0002690001856535,-0.0056040491908788,0.573462724685669,0.8192124962806702,0.1611289727596112,-0.0009930476189667,3.380941910202198e-06,0.0180137883871793,-0.0049172691069543,-0.0565471798181533,-0.0048500578850507,0.0021111276000738,-0.9898118376731871,0.1422832012176513,0.004710622198784,0.0105318843437761,0.0049930346935332,-0.1178767085075378,-0.1141690015792846,0.0007305145263671,121,156,15522,12352
21.9,1788442239551,5.239436626434326,4.760563373565674,0.0001140460371971,-0.0050289444625377,0.5733368992805481,0.8193042278289795,0.1672130516092479,-0.0031013124598434,2.7695253409973304e-06,0.0080678444355726,0.0223707407712936,-0.0061855535022914,-0.007690611295402,0.0016191760078072,-0.9900017976760864,0.1408362090587616,0.0015117040540579,0.0119531259926786,-0.0112838108544378,0.3767253756523132,-0.148316204547882,-4.089581489562988,97,94,14513,16098
22.0,1788442239651,5.352112770080566,4.422535419464111,0.0015468255151063,-0.0070862979628145,0.5724409222602844,0.8199138641357422,0.1659575008159029,-0.0006310292170403,9.17876659756472e-05,-0.0052442434243857,0.0027357803191989,-0.0103190410882234,-0.006070015951991,0.0022405721247196,-0.9900333881378174,0.1406842768192291,-0.0041119435179934,0.0545681963315613,-0.0189464060775033,-0.9484294652938844,-0.4106298089027405,0.5536651611328125,103,54,15231,12770
22.1,1788442239751,5.211267471313477,5.380281925201416,0.000586159992963,-0.0063726790249347,0.5709693431854248,0.820946455001831,0.1605145933853389,-0.0029537953345762,2.0573122807404468e-05,-0.0040254723280668,0.0140570662915706,-0.0582543835043907,-0.0057215997949242,0.0026191659271717,-0.9904630780220032,0.1376350820064544,-0.008001694935478,0.005332745273345,-0.0396503521465484,0.0625686049461364,-0.052445113658905,-0.3651199340820312,108,95,15204,12527
22.2,1788442239851,5.070422649383545,5.464788913726807,0.0002787294797599,-0.0062982579693198,0.5693719983100891,0.8220557570457458,0.1665615786004075,-0.0047101351058242,-4.4650396437440887e-05,-0.0041320226155221,0.0086556449532508,-0.0335755944252014,-0.0057617230340838,0.0022989707067608,-0.9907029271125792,0.1359013319015503,0.0013817477246142,0.0003021065380589,-0.0195474250406524,-0.0583464503288269,0.0991861820220947,0.1202278137207031,110,152,14541,13314
22.3,1788442239951,5.267605781555176,4.535211086273193,0.0005420029629021,-0.00621815957129,0.5685439705848694,0.8226292133331299,0.1607557464651128,-0.0011661793341041,-5.26844102436953e-06,0.0011156586697325,0.0008896683575585,-0.0107510415837168,-0.0057852417230606,0.0027025705203413,-0.9907938838005066,0.1352281421422958,-0.003855471782498,-0.0081738672992209,-0.0354798150232592,-0.0920372605323791,-0.0873851776123046,0.2361679077148437,125,80,15146,15093
22.4,1788442240051,5.239436626434326,4.732394218444824,0.0002331628929823,-0.0063883205875754,0.5676172375679016,0.8232677578926086,0.1672232323504328,-0.0087562553202541,5.274875358719277e-06,-0.0075729838572442,-0.0034462378825992,-0.0347714982926845,-0.0055453414097428,0.0029981145635247,-0.9909911751747132,0.1337790489196777,-0.0111701816015309,0.0117389219647581,-0.060712727309166,-0.0018783211708068,-0.0524818301200866,-0.0599927902221679,96,40,15241,14630
22.5,1788442240151,5.070422649383545,5.380281925201416,-0.0004593725316226,-0.0064879674464464,0.5647788047790527,0.8252166509628296,0.1696988897873031,-0.0011213390432776,-5.637923601957792e-05,-0.011370301246643,0.0071938126347959,-0.0554827824234962,-0.0048949280753731,0.0025124102830886,-0.9913718104362488,0.1309648901224136,0.0476453694617721,0.0162971354425091,0.0003157397415442,0.3080413937568664,-0.2400815486907959,-0.4610910415649414,122,141,14930,13656
22.6,1788442240251,5.183098793029785,4.366197109222412,8.55117104947567e-06,-0.0046272934414446,0.5646163821220398,0.8253403902053833,0.1661572330864545,0.000596815541609,-0.0001740900155075,0.0518302917480468,0.0356840752065181,0.0141295744106173,-0.0041276384145021,0.0012012738734483,-0.991446316242218,0.1304446309804916,-0.0060823657597789,-0.0105541800266944,-0.0566438658614829,-0.0335607528686523,0.4580695033073425,0.4211654663085937,125,114,15920,15376
22.7,1788442240351,5.183098793029785,4.563380241394043,0.0001082437811419,-0.0037278202362358,0.5627501606941223,0.8266186118125916,0.1686604459946371,-0.0040292122934574,1.581526445678997e-05,-0.0363877676427364,0.0334048755466938,-0.1107445657253265,-0.0036507165059447,0.0018474711105227,-0.9917553067207336,0.128081128001213,-0.0275596922485524,0.0261878398270947,-0.111359814750544,-0.1059440970420837,-0.2276853322982788,0.89422607421875,125,114,15920,15376
22.8,1788442240451,5.070422649383545,5.070422649383545,-0.0002352148294448,-0.0044423965737223,0.5605900287628174,0.8280816078186035,0.1737040055517835,-0.0040456766655709,-5.805485621721762e-05,-0.0113960597664117,-0.0051899999380111,-0.0355946272611618,-0.0038207238540053,0.0023408671841025,-0.9918584823608398,0.1272666156291961,-0.0045552377454829,-0.0255264418735219,0.031095104649689,0.3206916451454162,0.1130322813987732,-0.0683374404907226,100,64,14638,14862
22.9,1788442240551,5.126760482788086,4.732394218444824,-0.0002091443166136,-0.004370367154479,0.5607975721359253,0.827941358089447,0.1679294764911632,-0.0038994659604939,-2.222188089664086e-06,0.0052062389440834,-0.0011162247974425,-0.0147139839828014,-0.0038207238540053,0.0023408671841025,-0.9918584823608398,0.1272666156291961,-0.0045552377454829,-0.0255264418735219,0.031095104649689,0.3206916451454162,0.1130322813987732,-0.0683374404907226,93,121,14631,15894
23.0,1788442240651,5.070422649383545,4.619718074798584,-0.0002091443166136,-0.004370367154479,0.5607975721359253,0.827941358089447,0.1623006222853067,-0.0045995564895076,3.2259365676134696e-06,0.0,-4.639002071371578e-09,0.0,-0.003587937913835,0.0022454438731074,-0.9919427037239076,0.1266169548034668,-0.0008099504862294,0.0100235897139458,-0.0057184841838114,0.2073407769203186,0.0915064215660095,0.6516580581665039,129,129,14621,13248
23.1,1788442240751,4.8450703620910645,4.760563373565674,-0.0002656833967193,-0.0038812162820249,0.5596746206283569,0.8287033438682556,0.1634172317268312,-0.009642740739989,-2.422785818248661e-05,0.0081938076764345,0.0063999812118709,-0.0310001261532306,-0.0034158276394009,0.0020898813381791,-0.9921475648880004,0.1250091791152954,-0.0071649540541234,0.0111873869958399,0.005477012696164,0.0680887699127197,-0.0178900957107543,0.4247388839721679,113,173,16114,15079
23.2,1788442240851,5.042253494262695,4.535211086273193,-0.0002046782756224,-0.0042634094133973,0.5592970848083496,0.8289563059806824,0.1638044978408595,0.0003665845337855,6.709942601017373e-05,-0.0065451767295598,-0.013896538875997,-0.0180679596960544,-0.0034700669348239,0.0018078153952956,-0.992192268371582,0.1246566101908683,0.0129286579877023,0.0028282109283146,-0.0206391216130576,0.0551649928092956,0.1685627102851867,-0.2103586196899414,97,118,14769,16295
23.3,1788442240951,5.014084339141846,4.619718074798584,-0.000227247364819,-0.0034683416597545,0.5584166049957275,0.8295534253120422,0.1602863376428857,-0.0036580813410065,-6.973268408887329e-05,0.005916045513004,0.020445879548788,0.0026323050260543,-0.0027029728516936,0.0019332934170961,-0.992251992225647,0.1241970881819725,-0.0122536516381575,-0.0104380581802577,-0.003685248065408,-0.1795434951782226,0.0350310206413269,0.0724916458129882,108,73,14941,15868
23.4,1788442241051,4.985915660858154,4.732394218444824,-0.0011117195244878,-0.0025745471939444,0.5605159401893616,0.8281388878822327,0.1648547245686062,-0.000487042190559,-3.1424821559051546e-05,0.0031487930100411,0.0256614331156015,0.070842444896698,-0.0018819216638803,0.0022154152393341,-0.9919940233230592,0.1262519657611847,0.0014514345338704,0.0407557216537339,0.0727188072261961,-0.1536849737167358,-0.2451701760292053,0.058746337890625,120,67,15100,15578
23.5,1788442241151,5.098591327667236,5.126760482788086,-0.0009138085879385,-0.0028951619751751,0.5608561635017395,0.8279076218605042,0.1640717484279892,-0.0029891902687113,4.7825475797191296e-05,-0.0006068618386052,-0.0150753213092684,0.016397750005126,-0.0014964155852794,0.0019497778266668,-0.9919036030769348,0.1269699037075042,0.0172163438271971,0.0445940110722127,0.0015541879325402,-0.1047288179397583,0.0167582035064697,-0.5077505111694336,123,153,14572,15977
23.6,1788442241251,4.929577350616455,5.070422649383545,-0.0009377366513945,-0.0013434622669592,0.5619686841964722,0.8271568417549133,0.1605535032099641,-0.0067232078751786,-5.587041918832522e-05,0.029440788552165,-0.0436564907431602,0.0071279294788837,5.160924047231674e-05,0.0018859542906284,-0.9917495250701904,0.1281772851943969,0.0173922941286694,0.0415686613189937,0.0284644907300216,0.9803836941719056,-0.070504605770111,-5.167692184448242,166,201,15601,14828
23.7,1788442241351,5.239436626434326,5.183098793029785,-0.0014360259519889,-0.0018157009035348,0.5617650151252747,0.8272935748100281,0.1760732350556985,-0.0016413846089802,4.853530711049314e-05,-0.0226792562752962,-0.0036884869914501,-0.0082011884078383,-0.0009401403367519,0.0024485606700181,-0.9921264052391052,0.1252136528491974,-0.0150521305712447,-0.0056632012562057,-0.0545017998942103,-0.1698911786079406,0.1811214089393615,2.2462282180786133,89,33,15454,12897
23.8,1788442241451,5.126760482788086,4.591549396514893,-0.0015735701890662,-0.0022069090045988,0.5589708685874939,0.8291828632354736,0.1693588669296834,-0.0059700690867064,-1.9441388482595155e-05,-0.0083803627640008,-0.0086581604555249,-0.0611574128270149,-0.0010077944025397,0.0023590819910168,-0.9922942519187928,0.1238771677017211,-0.0061637833570084,-0.0179727346205207,-0.0224979455885522,0.3351514339447021,-0.0875073671340942,0.7317142486572266,111,48,15509,15219
23.9,1788442241551,5.295774459838867,5.042253494262695,-0.0019283256260678,-0.0011963817523792,0.5581433176994324,0.8297414779663086,0.1691770556131013,-0.0060830243804479,-8.934494040976021e-05,0.0097170881927013,0.0261759664863348,-0.014888827688992,-0.0001009497791528,0.0021650092676281,-0.9924755096435548,0.122424267232418,-0.0014047651759647,0.0217857971766903,-0.0283474076312997,-0.0379831790924072,0.2641229033470154,-0.2300996780395507,111,48,15509,15219
24.0,1788442241651,5.211267471313477,4.591549396514893,-0.0018928676145151,-0.0009650487918406,0.5567457675933838,0.8306801915168762,0.159976669404558,-0.0021210387646328,-9.397873259910512e-07,-0.0001249501074198,0.0077777267433702,-0.0361905172467231,0.0001218961551785,0.0022275671362876,-0.992582619190216,0.1215511336922645,-0.0014733322247071,0.009749015022561,-0.0371538266383369,-0.2320950627326965,0.0462278723716735,0.5375185012817383,100,135,15354,15201
24.1,1788442241751,5.154929637908936,4.591549396514893,-0.0018932359525933,-0.0010043408256024,0.5564936399459839,0.8308491706848145,0.1784739171761809,-0.0090151811009213,1.680800829463192e-06,-0.0009327778825536,-0.0013416152214631,-0.0128122568130493,-0.0005114739760756,0.0022581983357667,-0.9929572939872742,0.1184507235884666,-0.0176412951468741,-0.0598196172377565,-0.0486902388618594,0.0333083868026733,0.2352362871170044,0.9607372283935548,100,135,15354,15201
24.2,1788442241851,4.873239517211914,4.507042407989502,-0.0017370309215039,-0.001594272791408,0.5535261631011963,0.8328284621238708,0.1655556125877015,-0.0009218043745946,0.0001800749660088,-0.0059585864655673,-0.0278016924858093,-0.0280960164964199,-8.831638842821121e-05,0.002680204808712,-0.9929203987121582,0.1187519207596778,0.0161889603979461,0.0589037996998885,0.0312713047568725,0.0397291779518127,-0.3281609416007995,-0.9830560684204102,139,143,15168,16643
24.3,1788442241951,5.239436626434326,5.239436626434326,-0.0015361359110102,-0.0011452863691374,0.5540820956230164,0.8324598073959351,0.1690494674359277,-0.0072350623279058,-0.0001013296234903,0.0355149395763874,0.0006684210384264,0.0118193132802844,0.0001594834029674,0.0020982753485441,-0.9929438233375548,0.1185668259859085,-0.0389565087349599,0.0602754386864662,-0.016652310955631,-0.0549532175064086,0.4770053029060364,-0.0495986938476562,118,169,15504,12988
24.4,1788442242051,5.323943614959717,4.788732528686523,-0.0024115815758705,-0.001302262302488,0.552553653717041,0.8334727883338928,0.1688879312448136,0.0008405548190305,4.684270743079132e-06,-0.0175283942371606,-0.0014152742223814,-0.0503922142088413,4.952307790517807e-05,0.0024328837171196,-0.9932581782341005,0.1158978939056396,0.0095685050335756,0.0052554578657397,-0.03341449984784,-0.3112513422966003,-0.0615732073783874,1.145979881286621,96,154,14975,14530
24.5,1788442242151,5.211267471313477,4.619718074798584,-0.0018491353839635,-0.0014829379506409,0.5506744384765625,0.834716796875,0.1597461691705932,-0.0045811076662899,4.489317494602041e-05,0.0059535349719226,-0.0196039471775293,-0.055314514786005,-0.0006920117884874,0.0026493221521377,-0.993395984172821,0.1147039458155632,-0.0252847453924881,-0.0244891969617769,0.0028368572303956,-0.1972529888153076,0.07708740234375,0.7318344116210938,99,101,13969,15954
24.6,1788442242251,4.901408672332764,5.098591327667236,-0.0020727368537336,-0.0020254864357411,0.550873339176178,0.8345837593078613,0.1608865706065249,0.0004222252924588,-1.1907131810655143e-05,-0.0040929769165813,0.0039982884190976,0.011774580925703,-0.0002118870615959,0.0027681561186909,-0.9932503700256348,0.1159575283527374,0.0065623678846848,0.0675478993727628,0.0277427595586792,-0.4351745247840881,0.0556386113166809,-0.8024063110351562,108,43,14071,15379
24.7,1788442242351,5.154929637908936,5.239436626434326,-0.0019674466457217,-0.001885789213702,0.5530574321746826,0.8331387042999268,0.1681846999201499,-0.0072674272324012,0.0001202752802653,0.0041590225882828,-0.0149196535348892,0.0938597694039344,-0.0014542648568749,0.0028456719592213,-0.9930285811424256,0.1178304255008697,-0.0198239323214354,-0.0708598226898296,-0.0135524451356786,0.2062243819236755,-0.0740482211112976,-0.0620059967041015,114,43,14573,13563
24.8,1788442242451,3.633802890777588,5.97183084487915,-0.0019674464128911,-0.0018857888644561,0.5530574321746826,0.8331387042999268,0.1624769629273759,-0.000787749185383,-4.111297479897281e-08,0.0,-4.628373684312237e-09,0.0,-0.0005815094336867,0.0029417062178254,-0.992483913898468,0.1223389059305191,0.0142369358056372,0.024012686479448,0.2813325361180963,-0.1542091965675354,0.5159177780151367,-0.3864574432373047,70,119,11518,19693
24.9,1788442242551,3.746478796005249,6.056337833404541,-0.0023989314213395,-0.0023528772871941,0.5692420601844788,0.8221631050109863,0.1591229693028249,0.0068758671445753,2.9917908126655517e-05,-0.0039186947979032,-0.0106554338708519,0.4233333468437195,-0.001228867098689,0.0030690478160977,-0.9899370074272156,0.1414703726768493,0.012426670501611,-0.0260864525139946,0.469190401641904,0.7703447937965393,0.1749975085258484,-0.2842006683349609,98,170,12112,18354
25.0,1788442242651,4.2816901206970215,5.436619758605957,-0.002185353077948,-0.0031290519982576,0.5846452116966248,0.8112801313400269,0.1688585435094521,0.0046281261458806,3.993113431962244e-05,-0.0062416791915893,-0.0042696567252278,0.3451939821243286,-0.002008132636547,0.0033750031143426,-0.9870249032974244,0.1605189889669418,-0.0028277029204475,-0.0083408371268187,0.2176029566578073,-0.015690267086029,0.1273772716522216,-1.0396976470947266,81,91,12685,17895
25.1,1788442242751,4.478873252868652,5.802816867828369,-0.0023415493778884,-0.0029676714912056,0.5931399464607239,0.8050905466079712,0.1648945984995435,-0.0013959786525622,-4.568509055817887e-06,0.0013387954095378,0.0196877643465995,0.2316842526197433,-0.0008438564836978,0.0036733532324433,-0.9856266975402832,0.1688959300518036,-0.0048707744981538,0.0365020663396131,0.1258800010170014,-0.0337079167366027,-0.5178290009498596,0.9621086120605468,99,115,13997,14826
25.2,1788442242851,4.535211086273193,5.183098793029785,-0.0034518719185143,-0.0016185133717954,0.5988749265670776,0.8008334636688232,0.1657609457902626,0.0034589521702987,-9.573904960983024e-05,0.0008510419283993,0.0300333406776189,0.1429058164358139,0.0018917936831712,0.0041446182876825,-0.9840602278709412,0.1777774393558502,-0.0058238224010494,0.0486336475618554,0.1506791921356051,1.4939959049224854,0.2702218294143677,-4.464154243469238,78,68,13556,17094
25.3,1788442242951,4.422535419464111,5.464788913726807,-0.0015320786042138,-0.0037996454630047,0.6060013771057129,0.7954530715942383,0.1664578494312106,0.0001222157077768,0.0004377208945802,0.0083457976579666,-0.1792104542255401,0.1627954989671707,-0.0020518377423286,0.0028270315378904,-0.9827075600624084,0.1851314455270767,0.0270384790901489,0.1017632978353539,0.1712668705202382,-0.5665566325187683,-0.3125442862510681,1.9142093658447263,107,205,14147,16497
25.4,1788442243051,4.507042407989502,5.915493011474609,-0.0005536046810448,-0.0049166660755872,0.6120290160179138,0.7908198237419128,0.1650918689064504,0.0011926599115614,0.0003254241946606,-0.018009865656495,-0.0802543386816978,0.13736093044281,-0.0042742453515529,0.0026494553312659,-0.9815025925636292,0.1913826167583465,0.002886832638235,-0.0102176093785708,0.1393306692088919,-0.5984178781509399,-0.4712514877319336,-1.1628961563110352,89,126,13701,14887
25.5,1788442243151,4.591549396514893,5.126760482788086,-0.0002115154638886,-0.0055937422439455,0.616996169090271,0.7869462370872498,0.1676293600348398,0.0015798629453836,-8.130677057367684e-05,-0.0021965485066175,0.0173911340534687,0.1313147097826004,-0.0049176113680005,0.0030247187241911,-0.9802244305610656,0.1978050619363784,-0.0216899811748986,0.0034364670653228,0.1498312346501614,0.2663494348526001,0.3341935873031616,1.2034235000610352,114,100,13368,17635
25.6,1788442243251,5.098591327667236,4.873239517211914,-0.0015967061044648,-0.0048157186247408,0.6228788495063782,0.7823019623756409,0.1664051826305709,-0.0029052663718472,-0.0001034185934665,-0.0131874065846204,0.027522224932909,0.1461431831121444,-0.0025100614875555,0.0036096842959523,-0.9790838956832886,0.203409805893898,0.0138970758306905,0.0700978597889134,0.0380907151283056,-0.194292664527893,-0.2064688801765442,0.8357276916503906,107,83,13992,16141
25.7,1788442243351,4.8450703620910645,4.873239517211914,-0.0023388597182929,-0.003100715111941,0.6243945956230164,0.7810994386672974,0.1642702728375233,-0.0005174626410779,-1.005677025953712e-05,0.0147377988323569,0.0321799032390117,0.0461482889950275,-0.0028904927894473,0.0032249288633465,-0.9786147475242616,0.2056562304496765,0.0201912880836552,-0.0533780035175547,0.0344734478146998,0.2421362996101379,-0.1197516918182373,-0.2930898666381836,107,60,14505,16057
25.8,1788442243451,5.154929637908936,4.647887229919434,-0.0005229460075497,-0.0042797485366463,0.6270201206207275,0.778991162776947,0.1642901922828996,-0.0057684076339976,0.0001728843686543,0.009558348916471,-0.0599897429347038,0.0652244612574577,-0.0046426719054579,0.0015663150697946,-0.978059470653534,0.2082684189081192,0.0161560893877176,-0.075056114020959,0.0039101988544624,0.1663677096366882,-0.1739646196365356,0.8509674072265625,107,48,14623,15459
25.9,1788442243551,5.014084339141846,4.760563373565674,0.0009254181059077,-0.004886177368462,0.6272227764129639,0.7788240909576416,0.1612290718782469,-0.014073959295198,1.2800905288759248e-05,0.0077583640813827,-0.0085732685402035,0.0017431178130209,-0.0037154061719775,0.0035372814163565,-0.9782190322875975,0.2075118720531463,-0.0591209305206347,0.0515352046566832,-0.0094429294171103,-0.115155279636383,-0.1798599362373352,-0.4229803085327148,78,136,13770,17386
26.0,1788442243651,4.450704097747803,4.816901206970215,-0.0027019898407161,-0.0059696994721889,0.6281801462173462,0.7780404090881348,0.173330212880615,-0.0074294952159766,4.0050272443133216e-05,-0.0691675916314125,-0.0068889982067048,0.0896094143390655,-0.0036965813487768,0.0052025886252522,-0.9774595499038696,0.2110261023044586,0.0239694184159254,0.0520292429963582,0.0989048226908126,0.3478199243545532,-0.2794179320335388,-1.2093238830566406,127,90,15387,16767
26.1,1788442243751,4.816901206970215,4.8450703620910645,-0.0035486118867993,-0.0047705993056297,0.6314706802368164,0.7753769159317017,0.1662553062810609,0.0008091446508019,-8.366818047421329e-05,-0.0025204585399478,0.0305115673691034,0.058042723685503,-0.0021321354433894,0.0054069580510258,-0.9765517711639404,0.2152042239904403,0.0116990748044275,0.064805947222238,0.0720260072598519,-0.0477169156074523,-0.1254854202270507,-1.6997299194335938,93,120,14930,16608
26.2,1788442243851,5.098591327667236,4.816901206970215,-0.003303496632725,-0.0047200070694088,0.6334102153778076,0.7737948298454285,0.1653863750410608,-0.000150816906157,0.0001766491399561,0.0078237364068627,-0.0260959789156913,0.03637121245265,-0.0038260472938418,0.0047349901869893,-0.9761720299720764,0.216913029551506,0.0038074636993404,-0.0937405093866012,0.0373955787348898,0.121628999710083,0.0150091648101806,-0.0482025146484375,143,52,14888,15206
26.3,1788442243951,5.154929637908936,4.591549396514893,-0.0025465241633355,-0.0051256027072668,0.6339102983474731,0.7733854055404663,0.1694127294714634,-0.0068146726415241,-0.0001663617691771,0.0059023988433182,0.0118065401911735,-0.0120943179354071,-0.0038484903052449,0.0044581620022654,-0.9763046503067015,0.2163204550743103,0.0189455691458538,0.013172116899997,-0.0237294260744105,0.3829585909843445,0.1576136946678161,-0.6418313980102539,104,71,14569,16067
26.4,1788442244051,5.239436626434326,5.464788913726807,-0.0030105956830084,-0.0046061379835009,0.6338717937469482,0.7734185457229614,0.1676465889050508,-0.0023204089385249,9.477911007123055e-05,-0.0016620914684608,0.0202962774783372,0.0131993489339947,-0.0034743314608931,0.0046570049598813,-0.9761752486228944,0.216905727982521,-0.003385914469456,-0.0486936893199626,0.0154160136085454,0.1472692489624023,0.2396642565727234,-1.514500617980957,132,99,15003,15573
26.5,1788442244151,5.267605781555176,4.985915660858154,-0.0023924149572849,-0.0055661490187048,0.6341030597686768,0.7732247710227966,0.1680511945932102,-0.0019283871499526,-5.077806225891933e-06,-0.0106992814689874,-0.0405155643820762,0.0060351630672812,-0.0033418517559766,0.0046182479709386,-0.9761537909507751,0.2170054614543914,-0.003371104890054,0.0313874210070555,0.0021716411771097,-0.1786282062530517,0.0057894587516784,-1.6024179458618164,114,151,14445,14996
26.6,1788442244251,5.183098793029785,4.676056385040283,-0.0024614098947495,-0.0052939131855964,0.6336923837661743,0.7735631465911865,0.176857774772889,-0.0010841483319756,4.2714397723006105e-05,-0.0042790952138602,0.0041145575232803,-0.0144774420186877,-0.0040611764416098,0.0041429102420806,-0.9762852787971495,0.2164103835821151,0.0224816747764939,-0.0357306890770878,-0.0030958497290708,0.3873579502105713,0.0604005455970764,-0.5818624496459961,160,130,14499,15920
26.7,1788442244351,5.098591327667236,4.563380241394043,-0.0015088201034814,-0.0060575357638299,0.6336545944213867,0.7735909223556519,0.170724925227549,-0.0001851468429966,0.0001731816738584,-0.0058275084011256,-0.048007633537054,-0.0070390063337981,-0.0047739697620272,0.0042082164436578,-0.9762523174285888,0.2165428102016449,-0.0033646421706418,-0.034905664244375,0.0054810923967435,0.4468507170677185,0.1004068255424499,-0.3309364318847656,145,137,14759,16529
