time_s,timestamp_ms,wheel_vels__velocity_left,wheel_vels__velocity_right,odom__orient_x,odom__orient_y,odom__orient_z,odom__orient_w,odom__lin_x,odom__lin_y,odom__lin_z,odom__ang_x,odom__ang_y,odom__ang_z,imu__orient_x,imu__orient_y,imu__orient_z,imu__orient_w,imu__angvel_x,imu__angvel_y,imu__angvel_z,imu__acc_x,imu__acc_y,imu__acc_z,wheel_status__current_ma_left,wheel_status__current_ma_right,wheel_status__pwm_left,wheel_status__pwm_right
0.0,1788444976373,0.0,0.0,-0.0001211977869388,0.0001959800720214,0.6692667007446289,0.7430222630500793,0.0,0.0,0.0,0.0,0.0,0.0,-0.0001337444409728,0.0001653144136071,0.44661545753479,0.894726037979126,-0.0001873399935335,0.0005993520361885,0.0006007550006179,0.0134608745574951,0.0216438174247741,0.0008401870727539,0,0,0,0
0.1,1788444976473,0.0,0.0,-0.0001211977869388,0.0001959800720214,0.6692667007446289,0.7430222630500793,0.0,0.0,0.0,0.0,0.0,0.0,-0.0001337444409728,0.0001653144136071,0.44661545753479,0.894726037979126,-0.0001873399935335,0.0005993520361885,0.0006007550006179,0.0134608745574951,0.0216438174247741,0.0008401870727539,0,0,0,0
0.2,1788444976573,0.0,0.0,-0.0001211977869388,0.0001959800720214,0.6692667007446289,0.7430222630500793,0.0,0.0,0.0,0.0,0.0,0.0,-0.0001337444409728,0.0001653144136071,0.44661545753479,0.894726037979126,-0.0001873399935335,0.0005993520361885,0.0006007550006179,0.0134608745574951,0.0216438174247741,0.0008401870727539,0,0,0,0
0.3,1788444976673,0.0,0.0,-0.0001211977869388,0.0001959800720214,0.6692667007446289,0.7430222630500793,0.0,0.0,0.0,0.0,0.0,0.0,-0.0001337444409728,0.0001653144136071,0.44661545753479,0.894726037979126,-0.0001873399935335,0.0005993520361885,0.0006007550006179,0.0134608745574951,0.0216438174247741,0.0008401870727539,0,0,0,0
0.4,1788444976773,0.0,0.0,-0.0001211977869388,0.0001959800720214,0.6692667007446289,0.7430222630500793,0.0,0.0,0.0,0.0,0.0,0.0,-0.0001337444409728,0.0001653144136071,0.44661545753479,0.894726037979126,-0.0001873399935335,0.0005993520361885,0.0006007550006179,0.0134608745574951,0.0216438174247741,0.0008401870727539,0,0,0,0
0.5,1788444976873,0.0,0.0,-0.0001211977869388,0.0001959800720214,0.6692667007446289,0.7430222630500793,0.0,0.0,0.0,0.0,0.0,0.0,-0.0001337444409728,0.0001653144136071,0.44661545753479,0.894726037979126,-0.0001873399935335,0.0005993520361885,0.0006007550006179,0.0134608745574951,0.0216438174247741,0.0008401870727539,0,0,0,0
0.6,1788444976973,0.0,0.0,-0.0001211977869388,0.0001959800720214,0.6692667007446289,0.7430222630500793,0.0,0.0,0.0,0.0,0.0,0.0,-0.0001337444409728,0.0001653144136071,0.44661545753479,0.894726037979126,-0.0001873399935335,0.0005993520361885,0.0006007550006179,0.0134608745574951,0.0216438174247741,0.0008401870727539,0,0,0,0
0.7,1788444977073,0.0,0.0,-0.0001211977869388,0.0001959800720214,0.6692667007446289,0.7430222630500793,0.0,0.0,0.0,0.0,0.0,0.0,-0.0001337444409728,0.0001653144136071,0.44661545753479,0.894726037979126,-0.0001873399935335,0.0005993520361885,0.0006007550006179,0.0134608745574951,0.0216438174247741,0.0008401870727539,0,0,0,0
0.8,1788444977173,0.0,0.0,-0.0001211977869388,0.0001959800720214,0.6692667007446289,0.7430222630500793,0.0,0.0,0.0,0.0,0.0,0.0,-0.0001337444409728,0.0001653144136071,0.44661545753479,0.894726037979126,-0.0001873399935335,0.0005993520361885,0.0006007550006179,0.0134608745574951,0.0216438174247741,0.0008401870727539,0,0,0,0
0.9,1788444977273,0.0,0.0,-0.0001211977869388,0.0001959800720214,0.6692667007446289,0.7430222630500793,0.0,0.0,0.0,0.0,0.0,0.0,-0.0001337444409728,0.0001653144136071,0.44661545753479,0.894726037979126,-0.0001873399935335,0.0005993520361885,0.0006007550006179,0.0134608745574951,0.0216438174247741,0.0008401870727539,0,0,0,0
1.0,1788444977373,0.0,0.0,-0.0001211977869388,0.0001959800720214,0.6692667007446289,0.7430222630500793,0.0,0.0,0.0,0.0,0.0,0.0,-0.0001337444409728,0.0001653144136071,0.44661545753479,0.894726037979126,-0.0001873399935335,0.0005993520361885,0.0006007550006179,0.0134608745574951,0.0216438174247741,0.0008401870727539,0,0,0,0
1.1,1788444977473,0.0,0.0,-0.0001211977869388,0.0001959800720214,0.6692667007446289,0.7430222630500793,0.0,0.0,0.0,0.0,0.0,0.0,-0.0001337444409728,0.0001653144136071,0.44661545753479,0.894726037979126,-0.0001873399935335,0.0005993520361885,0.0006007550006179,0.0134608745574951,0.0216438174247741,0.0008401870727539,0,0,0,0
1.2,1788444977573,0.0,0.0,-0.0001211977869388,0.0001959800720214,0.6692667007446289,0.7430222630500793,0.0,0.0,0.0,0.0,0.0,0.0,-0.0001337444409728,0.0001653144136071,0.44661545753479,0.894726037979126,-0.0001873399935335,0.0005993520361885,0.0006007550006179,0.0134608745574951,0.0216438174247741,0.0008401870727539,0,0,0,0
1.3,1788444977673,0.0,0.0,-0.0001211977869388,0.0001959800720214,0.6692667007446289,0.7430222630500793,0.0,0.0,0.0,0.0,0.0,0.0,-0.0001337444409728,0.0001653144136071,0.44661545753479,0.894726037979126,-0.0001873399935335,0.0005993520361885,0.0006007550006179,0.0134608745574951,0.0216438174247741,0.0008401870727539,0,0,0,0
1.4,1788444977773,0.0,0.0,-0.0001211977869388,0.0001959800720214,0.6692667007446289,0.7430222630500793,0.0,0.0,0.0,0.0,0.0,0.0,-0.0001337444409728,0.0001653144136071,0.44661545753479,0.894726037979126,-0.0001873399935335,0.0005993520361885,0.0006007550006179,0.0134608745574951,0.0216438174247741,0.0008401870727539,0,0,0,0
1.5,1788444977873,0.0,0.0,-0.0001211977869388,0.0001959800720214,0.6692667007446289,0.7430222630500793,0.0,0.0,0.0,0.0,0.0,0.0,-0.0001337444409728,0.0001653144136071,0.44661545753479,0.894726037979126,-0.0001873399935335,0.0005993520361885,0.0006007550006179,0.0134608745574951,0.0216438174247741,0.0008401870727539,0,0,0,0
1.6,1788444977973,0.0,0.0,-0.0001211977869388,0.0001959800720214,0.6692667007446289,0.7430222630500793,0.0,0.0,0.0,0.0,0.0,0.0,-0.0001337444409728,0.0001653144136071,0.44661545753479,0.894726037979126,-0.0001873399935335,0.0005993520361885,0.0006007550006179,0.0134608745574951,0.0216438174247741,0.0008401870727539,0,0,0,0
1.7,1788444978073,0.0,0.0,-0.0001211977869388,0.0001959800720214,0.6692667007446289,0.7430222630500793,0.0,0.0,0.0,0.0,0.0,0.0,-0.0001337444409728,0.0001653144136071,0.44661545753479,0.894726037979126,-0.0001873399935335,0.0005993520361885,0.0006007550006179,0.0134608745574951,0.0216438174247741,0.0008401870727539,0,0,0,0
1.8,1788444978173,0.0,0.0,-0.0001211977869388,0.0001959800720214,0.6692667007446289,0.7430222630500793,0.0,0.0,0.0,0.0,0.0,0.0,-0.0001337444409728,0.0001653144136071,0.44661545753479,0.894726037979126,-0.0001873399935335,0.0005993520361885,0.0006007550006179,0.0134608745574951,0.0216438174247741,0.0008401870727539,0,0,0,0
1.9,1788444978273,0.0,0.0,-0.0001211977869388,0.0001959800720214,0.6692667007446289,0.7430222630500793,0.0,0.0,0.0,0.0,0.0,0.0,-0.0001337444409728,0.0001653144136071,0.44661545753479,0.894726037979126,-0.0001873399935335,0.0005993520361885,0.0006007550006179,0.0134608745574951,0.0216438174247741,0.0008401870727539,0,0,0,0
2.0,1788444978373,0.0,0.0,-0.0001211977869388,0.0001959800720214,0.6692667007446289,0.7430222630500793,0.0,0.0,0.0,0.0,0.0,0.0,-0.0001337444409728,0.0001653144136071,0.44661545753479,0.894726037979126,-0.0001873399935335,0.0005993520361885,0.0006007550006179,0.0134608745574951,0.0216438174247741,0.0008401870727539,0,0,0,0
2.1,1788444978473,0.0,0.0,-0.0001211977869388,0.0001959800720214,0.6692667007446289,0.7430222630500793,0.0,0.0,0.0,0.0,0.0,0.0,-0.0001337444409728,0.0001653144136071,0.44661545753479,0.894726037979126,-0.0001873399935335,0.0005993520361885,0.0006007550006179,0.0134608745574951,0.0216438174247741,0.0008401870727539,0,0,0,0
2.2,1788444978573,0.0,0.0,-0.0001211977869388,0.0001959800720214,0.6692667007446289,0.7430222630500793,0.0,0.0,0.0,0.0,0.0,0.0,-0.0001337444409728,0.0001653144136071,0.44661545753479,0.894726037979126,-0.0001873399935335,0.0005993520361885,0.0006007550006179,0.0134608745574951,0.0216438174247741,0.0008401870727539,0,0,0,0
2.3,1788444978673,0.0,0.0,-0.0001211977869388,0.0001959800720214,0.6692667007446289,0.7430222630500793,0.0,0.0,0.0,0.0,0.0,0.0,-0.0001337444409728,0.0001653144136071,0.44661545753479,0.894726037979126,-0.0001873399935335,0.0005993520361885,0.0006007550006179,0.0134608745574951,0.0216438174247741,0.0008401870727539,0,0,0,0
2.4,1788444978773,0.0,0.0,-0.0001211977869388,0.0001959800720214,0.6692667007446289,0.7430222630500793,0.0,0.0,0.0,0.0,0.0,0.0,-0.0001337444409728,0.0001653144136071,0.44661545753479,0.894726037979126,-0.0001873399935335,0.0005993520361885,0.0006007550006179,0.0134608745574951,0.0216438174247741,0.0008401870727539,0,0,0,0
2.5,1788444978873,0.0,0.0,-0.0001211977869388,0.0001959800720214,0.6692667007446289,0.7430222630500793,0.0,0.0,0.0,0.0,0.0,0.0,-0.0001337444409728,0.0001653144136071,0.44661545753479,0.894726037979126,-0.0001873399935335,0.0005993520361885,0.0006007550006179,0.0134608745574951,0.0216438174247741,0.0008401870727539,0,0,0,0
2.6,1788444978973,0.0,0.0,-0.0001211977869388,0.0001959800720214,0.6692667007446289,0.7430222630500793,0.0,0.0,0.0,0.0,0.0,0.0,-0.0001337444409728,0.0001653144136071,0.44661545753479,0.894726037979126,-0.0001873399935335,0.0005993520361885,0.0006007550006179,0.0134608745574951,0.0216438174247741,0.0008401870727539,0,0,0,0
2.7,1788444979073,0.0,0.0,-0.0001211977869388,0.0001959800720214,0.6692667007446289,0.7430222630500793,0.0,0.0,0.0,0.0,0.0,0.0,-0.0001337444409728,0.0001653144136071,0.44661545753479,0.894726037979126,-0.0001873399935335,0.0005993520361885,0.0006007550006179,0.0134608745574951,0.0216438174247741,0.0008401870727539,0,0,0,0
2.8,1788444979173,0.0,0.0,-0.0001211977869388,0.0001959800720214,0.6692667007446289,0.7430222630500793,0.0,0.0,0.0,0.0,0.0,0.0,-0.0001337444409728,0.0001653144136071,0.44661545753479,0.894726037979126,-0.0001873399935335,0.0005993520361885,0.0006007550006179,0.0134608745574951,0.0216438174247741,0.0008401870727539,0,0,0,0
2.9,1788444979273,0.0,0.0,-0.0001211977869388,0.0001959800720214,0.6692667007446289,0.7430222630500793,0.0,0.0,0.0,0.0,0.0,0.0,-0.0001337444409728,0.0001653144136071,0.44661545753479,0.894726037979126,-0.0001873399935335,0.0005993520361885,0.0006007550006179,0.0134608745574951,0.0216438174247741,0.0008401870727539,0,0,0,0
3.0,1788444979373,0.0,0.0,-0.0001211977869388,0.0001959800720214,0.6692667007446289,0.7430222630500793,0.0,0.0,0.0,0.0,0.0,0.0,-0.0001337444409728,0.0001653144136071,0.44661545753479,0.894726037979126,-0.0001873399935335,0.0005993520361885,0.0006007550006179,0.0134608745574951,0.0216438174247741,0.0008401870727539,0,0,0,0
3.1,1788444979473,0.0,0.0,-0.0001211977869388,0.0001959800720214,0.6692667007446289,0.7430222630500793,0.0,0.0,0.0,0.0,0.0,0.0,-0.0001337444409728,0.0001653144136071,0.44661545753479,0.894726037979126,-0.0001873399935335,0.0005993520361885,0.0006007550006179,0.0134608745574951,0.0216438174247741,0.0008401870727539,0,0,0,0
3.2,1788444979573,0.0,0.0,-0.0001211977869388,0.0001959800720214,0.6692667007446289,0.7430222630500793,0.0,0.0,0.0,0.0,0.0,0.0,-0.0001337444409728,0.0001653144136071,0.44661545753479,0.894726037979126,-0.0001873399935335,0.0005993520361885,0.0006007550006179,0.0134608745574951,0.0216438174247741,0.0008401870727539,0,0,0,0
3.3,1788444979673,0.0,0.0,-0.0001211977869388,0.0001959800720214,0.6692667007446289,0.7430222630500793,0.0,0.0,0.0,0.0,0.0,0.0,-0.0001337444409728,0.0001653144136071,0.44661545753479,0.894726037979126,-0.0001873399935335,0.0005993520361885,0.0006007550006179,0.0134608745574951,0.0216438174247741,0.0008401870727539,0,0,0,0
3.4,1788444979773,0.0,0.0,-0.0001211977869388,0.0001959800720214,0.6692667007446289,0.7430222630500793,0.0,0.0,0.0,0.0,0.0,0.0,-0.0001337444409728,0.0001653144136071,0.44661545753479,0.894726037979126,-0.0001873399935335,0.0005993520361885,0.0006007550006179,0.0134608745574951,0.0216438174247741,0.0008401870727539,0,0,0,0
3.5,1788444979873,0.0,0.0,-0.0001211977869388,0.0001959800720214,0.6692667007446289,0.7430222630500793,0.0,0.0,0.0,0.0,0.0,0.0,-0.0001337444409728,0.0001653144136071,0.44661545753479,0.894726037979126,-0.0001873399935335,0.0005993520361885,0.0006007550006179,0.0134608745574951,0.0216438174247741,0.0008401870727539,0,0,0,0
3.6,1788444979973,0.0,0.0,-0.0001211977869388,0.0001959800720214,0.6692667007446289,0.7430222630500793,0.0,0.0,0.0,0.0,0.0,0.0,-0.0001337444409728,0.0001653144136071,0.44661545753479,0.894726037979126,-0.0001873399935335,0.0005993520361885,0.0006007550006179,0.0134608745574951,0.0216438174247741,0.0008401870727539,0,0,0,0
3.7,1788444980073,0.0,0.0,-0.0001211977869388,0.0001959800720214,0.6692667007446289,0.7430222630500793,0.0,0.0,0.0,0.0,0.0,0.0,-0.0001337444409728,0.0001653144136071,0.44661545753479,0.894726037979126,-0.0001873399935335,0.0005993520361885,0.0006007550006179,0.0134608745574951,0.0216438174247741,0.0008401870727539,0,0,0,0
3.8,1788444980173,0.0,0.0,-0.0001211977869388,0.0001959800720214,0.6692667007446289,0.7430222630500793,0.0,0.0,0.0,0.0,0.0,0.0,-0.0001337444409728,0.0001653144136071,0.44661545753479,0.894726037979126,-0.0001873399935335,0.0005993520361885,0.0006007550006179,0.0134608745574951,0.0216438174247741,0.0008401870727539,0,0,0,0
3.9,1788444980273,0.0,0.0,-0.0001211977869388,0.0001959800720214,0.6692667007446289,0.7430222630500793,0.0,0.0,0.0,0.0,0.0,0.0,-0.0001337444409728,0.0001653144136071,0.44661545753479,0.894726037979126,-0.0001873399935335,0.0005993520361885,0.0006007550006179,0.0134608745574951,0.0216438174247741,0.0008401870727539,0,0,0,0
4.0,1788444980373,0.0,0.0,-0.0001211977869388,0.0001959800720214,0.6692667007446289,0.7430222630500793,0.0,0.0,0.0,0.0,0.0,0.0,-0.0001337444409728,0.0001653144136071,0.44661545753479,0.894726037979126,-0.0001873399935335,0.0005993520361885,0.0006007550006179,0.0134608745574951,0.0216438174247741,0.0008401870727539,0,0,0,0
4.1,1788444980473,0.0,0.0,-0.0001211977869388,0.0001959800720214,0.6692667007446289,0.7430222630500793,0.0,0.0,0.0,0.0,0.0,0.0,-0.0001337444409728,0.0001653144136071,0.44661545753479,0.894726037979126,-0.0001873399935335,0.0005993520361885,0.0006007550006179,0.0134608745574951,0.0216438174247741,0.0008401870727539,0,0,0,0
4.2,1788444980573,0.0,0.0,-0.0001211977869388,0.0001959800720214,0.6692667007446289,0.7430222630500793,0.0,0.0,0.0,0.0,0.0,0.0,-0.0001337444409728,0.0001653144136071,0.44661545753479,0.894726037979126,-0.0001873399935335,0.0005993520361885,0.0006007550006179,0.0134608745574951,0.0216438174247741,0.0008401870727539,0,0,0,0
4.3,1788444980673,0.0,0.0,-0.0001211977869388,0.0001959800720214,0.6692667007446289,0.7430222630500793,0.0,0.0,0.0,0.0,0.0,0.0,-0.0001337444409728,0.0001653144136071,0.44661545753479,0.894726037979126,-0.0001873399935335,0.0005993520361885,0.0006007550006179,0.0134608745574951,0.0216438174247741,0.0008401870727539,0,0,0,0
4.4,1788444980773,0.0,0.0,-0.0001211977869388,0.0001959800720214,0.6692667007446289,0.7430222630500793,0.0,0.0,0.0,0.0,0.0,0.0,-0.0001337444409728,0.0001653144136071,0.44661545753479,0.894726037979126,-0.0001873399935335,0.0005993520361885,0.0006007550006179,0.0134608745574951,0.0216438174247741,0.0008401870727539,0,0,0,0
4.5,1788444980873,0.0,0.0,-0.0001211977869388,0.0001959800720214,0.6692667007446289,0.7430222630500793,0.0,0.0,0.0,0.0,0.0,0.0,-0.0001337444409728,0.0001653144136071,0.44661545753479,0.894726037979126,-0.0001873399935335,0.0005993520361885,0.0006007550006179,0.0134608745574951,0.0216438174247741,0.0008401870727539,0,0,0,0
4.6,1788444980973,0.0,0.0,-0.0001211977869388,0.0001959800720214,0.6692667007446289,0.7430222630500793,0.0,0.0,0.0,0.0,0.0,0.0,-0.0001337444409728,0.0001653144136071,0.44661545753479,0.894726037979126,-0.0001873399935335,0.0005993520361885,0.0006007550006179,0.0134608745574951,0.0216438174247741,0.0008401870727539,0,0,0,0
4.7,1788444981073,0.0,0.0,-0.0001211977869388,0.0001959800720214,0.6692667007446289,0.7430222630500793,0.0,0.0,0.0,0.0,0.0,0.0,-0.0001337444409728,0.0001653144136071,0.44661545753479,0.894726037979126,-0.0001873399935335,0.0005993520361885,0.0006007550006179,0.0134608745574951,0.0216438174247741,0.0008401870727539,0,0,0,0
4.8,1788444981173,0.0,0.0,-0.0001211977869388,0.0001959800720214,0.6692667007446289,0.7430222630500793,0.0,0.0,0.0,0.0,0.0,0.0,-0.0001263367012143,0.0002647377550601,0.4465916156768799,0.894737958908081,0.0009182070444427,0.0021286750969862,-0.0003440937815031,-0.0171482563018798,-0.0242109298706054,-0.0101737976074218,0,0,0,0
4.9,1788444981273,0.0,0.0,-0.0001211977869388,0.0001959800720214,0.6692667007446289,0.7430222630500793,0.0,0.0,0.0,0.0,0.0,0.0,-0.000113071873784,0.0002226969227194,0.4466152191162109,0.8947261571884155,-0.0011014792010672,-0.0012972926299796,-0.0006760758687933,0.026892066001892,-0.0043417811393737,-0.0028619766235351,0,0,0,0
5.0,1788444981373,0.0,0.0,-0.0001211977869388,0.0001959800720214,0.6692667007446289,0.7430222630500793,0.0,0.0,0.0,0.0,0.0,0.0,-0.0001101251691579,0.0002419436350464,0.4466204643249511,0.8947235345840454,0.0010199989233454,0.0005964148301167,0.0008247764215426,-0.010502278804779,0.0007321238517761,0.0240402221679687,0,0,0,0
5.1,1788444981473,0.0,0.0,-0.0001211977869388,0.0001959800720214,0.6692667007446289,0.7430222630500793,0.0,0.0,0.0,0.0,0.0,0.0,-0.0001241778954863,0.0002337163314223,0.4466063976287842,0.8947305083274841,-0.0005727952272304,-0.0003636789699508,-7.4591949348901e-06,0.0199455618858337,-0.0060102343559265,-0.0029077529907226,0,0,0,0
5.2,1788444981573,0.0,0.0,-0.0001211977869388,0.0001959800720214,0.6692667007446289,0.7430222630500793,0.0,0.0,0.0,0.0,0.0,0.0,-0.0001328801736235,0.0002289274707436,0.4466361701488495,0.8947157263755798,-3.4178058813008083e-05,-0.0001596547995185,0.0017300208732837,0.0074517726898193,0.0194630026817321,-0.0082254409790039,0,0,0,0
5.3,1788444981673,0.0,0.0,-0.0001211977869388,0.0001959800720214,0.6692667007446289,0.7430222630500793,0.0,0.0,0.0,0.0,0.0,0.0,-0.0001225378364324,0.0002046776935458,0.4465902745723724,0.894738495349884,-3.724547973067664e-05,0.0013614168284231,-0.0013828731070904,-0.0217393636703491,0.0050097107887268,-0.0029411315917968,0,0,0,0
5.4,1788444981773,0.0,0.0,-0.0001211977869388,0.0001959800720214,0.6692667007446289,0.7430222630500793,0.0,0.0,0.0,0.0,0.0,0.0,-0.0001540007069706,0.0002623349428176,0.4465687870979309,0.8947493433952332,-0.0009046024691921,0.0022113676151935,-0.0018664406049032,0.0208988785743713,-0.0147336721420288,0.0078039169311523,0,0,0,0
5.5,1788444981873,0.0,0.0,-0.0001211977869388,0.0001959800720214,0.6692667007446289,0.7430222630500793,0.0,0.0,0.0,0.0,0.0,0.0,-0.0001433808356523,0.000273760408163,0.4465842843055725,0.8947415947914124,0.0006891507385748,-0.0009098378917848,0.0013428475178571,0.0048468112945556,-0.0150406956672668,0.0131683349609375,0,0,0,0
5.6,1788444981973,0.0,0.0,-0.0001211977869388,0.0001959800720214,0.6692667007446289,0.7430222630500793,0.0,0.0,0.0,0.0,0.0,0.0,-0.00013193115592,0.0002458784729242,0.4465779662132263,0.8947446346282959,-0.0007715410375765,0.0004915552563307,-0.0011813898519938,-0.0227035880088806,-0.0401079654693603,0.005833625793457,0,0,0,0
5.7,1788444982073,0.0,0.0,-0.0001211977869388,0.0001959800720214,0.6692667007446289,0.7430222630500793,0.0,0.0,0.0,0.0,0.0,0.0,-0.0001232046633958,0.0002674683928489,0.4465844929218292,0.8947413563728333,0.000700026089053,0.0006186827153571,0.0002929610663099,-0.0116415619850158,0.0403550863265991,0.0115537643432617,0,0,0,0
5.8,1788444982173,0.0,0.0,-0.0001211977869388,0.0001959800720214,0.6692667007446289,0.7430222630500793,0.0,0.0,0.0,0.0,0.0,0.0,-0.0001232046633958,0.0002674683928489,0.4465844929218292,0.8947413563728333,0.000700026089053,0.0006186827153571,0.0002929610663099,-0.0116415619850158,0.0403550863265991,0.0115537643432617,0,0,0,0
5.9,1788444982273,0.0,0.0,-0.0001211977869388,0.0001959800720214,0.6692667007446289,0.7430222630500793,0.0,0.0,0.0,0.0,0.0,0.0,-0.000125229358673,0.0002016937360167,0.4465886056423187,0.8947393298149109,-3.279431543715515e-05,-0.0003082885275291,-0.0007869646223901,0.0232297182083129,0.0069520473480224,-0.0118951797485351,0,0,0,0
6.0,1788444982373,0.0,0.0,-0.0001211977869388,0.0001959800720214,0.6692667007446289,0.7430222630500793,0.0,0.0,0.0,0.0,0.0,0.0,-0.0001172581687569,0.0002471702173352,0.4465920329093933,0.894737720489502,0.000127502840733,0.0010127756089819,0.0011127142139939,-0.0083950161933898,-0.0135189294815063,-0.0030450820922851,0,0,0,0
6.1,1788444982473,0.0,0.0,-0.0001211977869388,0.0001959800720214,0.6692667007446289,0.7430222630500793,0.0,0.0,0.0,0.0,0.0,0.0,-0.0001172581687569,0.0002471702173352,0.4465920329093933,0.894737720489502,0.000127502840733,0.0010127756089819,0.0011127142139939,-0.0083950161933898,-0.0135189294815063,-0.0030450820922851,0,0,0,0
6.2,1788444982573,0.0,0.0,-0.0001211977869388,0.0001959800720214,0.6692667007446289,0.7430222630500793,0.0,0.0,0.0,0.0,0.0,0.0,-0.0001380527392029,0.0002798251807689,0.4465558528900146,0.8947557210922241,0.00224964812022,0.0007166293014236,0.0009371659126271,-0.0005512237548828,0.0225974917411804,0.0096712112426757,0,0,0,0
6.3,1788444982673,0.0,0.0,-0.0001211977869388,0.0001959800720214,0.6692667007446289,0.7430222630500793,0.0,0.0,0.0,0.0,0.0,0.0,-0.0001629795879125,0.0002995878458023,0.4465131759643554,0.8947769999504089,-0.001601274960542,0.0015453181434849,4.04667886461954e-05,-0.0502454042434692,-0.0291526317596435,-0.0067672729492187,0,0,0,0
6.4,1788444982773,0.0,0.0,-0.0001211977869388,0.0001959800720214,0.6692667007446289,0.7430222630500793,0.0,0.0,0.0,0.0,0.0,0.0,-0.0001394702121615,0.000254850834608,0.4465237259864807,0.8947718143463135,0.000139095379801,-0.0025985694030599,3.548354892707461e-05,0.0080689787864685,0.001428484916687,-0.022735595703125,0,0,0,0
6.5,1788444982873,0.0,0.0,-0.0001211977869388,0.0001959800720214,0.6692667007446289,0.7430222630500793,0.0,0.0,0.0,0.0,0.0,0.0,-0.0001383209601044,0.0002683149650692,0.4465253055095672,0.8947710394859314,-0.0007405002196196,-0.001047672817682,0.0002056485419247,-0.015058696269989,0.0210393071174621,-0.0173015594482421,0,0,0,0
6.6,1788444982973,0.0,0.0,-0.0001211977869388,0.0001959800720214,0.6692667007446289,0.7430222630500793,0.0,0.0,0.0,0.0,0.0,0.0,-0.0001466302201151,0.0003083357587456,0.4465384185314178,0.8947644829750061,4.847615981734716e-05,0.0014363641401545,0.0009507249307923,-0.0232449173927307,-0.0061058402061462,-0.0156164169311523,0,0,0,0
6.7,1788444983073,0.0,0.0,-0.0001211977869388,0.0001959800720214,0.6692667007446289,0.7430222630500793,0.0,0.0,0.0,0.0,0.0,0.0,-0.0001309299841523,0.0003350069746375,0.4465118944644928,0.8947777152061462,-5.226776797678321e-05,0.0018797777918749,-0.0003111307785528,-0.015767753124237,-0.0587163567543029,-0.0086250305175781,0,0,0,0
6.8,1788444983173,0.0,0.0,-0.0001211977869388,0.0001959800720214,0.6692667007446289,0.7430222630500793,0.0,0.0,0.0,0.0,0.0,0.0,-0.0001154253259301,0.0002930108457803,0.4465091228485107,0.8947790861129761,-0.0011165826294601,-0.0011604495801486,-0.0012178286601687,0.0048629641532897,0.0023887157440185,0.0096092224121093,0,0,0,0
6.9,1788444983273,0.0,0.0,-0.0001211977869388,0.0001959800720214,0.6692667007446289,0.7430222630500793,0.0,0.0,0.0,0.0,0.0,0.0,-0.0001423507928848,0.0003141891211271,0.4465131163597107,0.8947770595550537,-6.658516242512373e-05,-0.0010807704945017,-0.0001566307649626,-0.0053045153617858,-0.0134348273277282,0.0005598068237304,0,0,0,0
7.0,1788444983373,0.0,0.0,-0.0001211977869388,0.0001959800720214,0.6692667007446289,0.7430222630500793,0.0,0.0,0.0,0.0,0.0,0.0,-0.000152526423335,0.0003145346418023,0.4465088546276092,0.8947791457176208,-0.0005993383455248,0.0003249924085355,-0.0003173564729819,-0.008854329586029,-0.0260487794876098,0.0561857223510742,0,0,0,0
7.1,1788444983473,0.0,0.0,-0.0001211977869388,0.0001959800720214,0.6692667007446289,0.7430222630500793,0.0,0.0,0.0,0.0,0.0,0.0,-0.0001859795302152,0.0003153951838612,0.4465198516845703,0.8947736024856567,0.0001070789434342,0.000406628845784,0.0012912358122305,-0.0138724446296691,-0.0089955925941467,-0.0155982971191406,0,0,0,0
7.2,1788444983573,0.0,0.0,-0.0001211977869388,0.0001959800720214,0.6692667007446289,0.7430222630500793,0.0,0.0,0.0,0.0,0.0,0.0,-0.0001836260780692,0.0003634626045823,0.4465048611164093,0.8947811722755432,0.0003131504069756,0.0016260745908888,-0.0011317859547509,0.0084642767906188,0.0102216601371765,0.0060625076293945,0,0,0,0
7.3,1788444983673,0.0,0.0,-0.0001211977869388,0.0001959800720214,0.6692667007446289,0.7430222630500793,0.0,0.0,0.0,0.0,0.0,0.0,-0.0001734532415866,0.0004084566608071,0.4465072154998779,0.8947799801826477,0.0009611019911074,4.028831370041048e-05,0.0003892253814604,-0.0052565932273864,0.0221703648567199,0.020461082458496,0,0,0,0
7.4,1788444983773,0.0,0.0,-0.000230738587561,0.0002751619322225,0.6691184043884277,0.7431557178497314,-0.0007495901453116,0.0008683012758047,-4.113031809301578e-07,-0.0012171742273494,0.0056727305054664,-0.0085657639428973,-0.0001982431858778,0.0003623496741056,0.4464922547340393,0.8947873711585999,-0.0003173600924799,-0.0017470563828956,-0.000643938469372,-0.0022331476211547,0.005185842514038,-0.0101308822631835,0,0,0,0
7.5,1788444983873,0.0,0.0,-0.000230738587561,0.0002751619322225,0.6691184043884277,0.7431557178497314,0.0,0.0,0.0,0.0,0.0,0.0,-0.0001754816621541,0.0003565726801753,0.4464812576770782,0.8947929739952087,-0.0006010882637679,0.0013403679125061,0.0012853989998057,-0.0096707940101623,0.0012595057487487,-0.0119457244873046,0,0,0,0
7.6,1788444983973,0.0,0.0,-0.000230738587561,0.0002751619322225,0.6691184043884277,0.7431557178497314,0.0,0.0,0.0,0.0,0.0,0.0,-0.000171217136085,0.0003508226945996,0.4464715719223022,0.8947977423667908,6.301050942978595e-05,-0.0003544912425575,-0.0005425408696799,0.0351329445838928,-0.0130881667137146,-0.0227184295654296,0,0,0,0
7.7,1788444984073,0.0,0.0,-0.000230738587561,0.0002751619322225,0.6691184043884277,0.7431557178497314,0.0,0.0,0.0,0.0,0.0,0.0,-0.0002056453377008,0.0003406852483749,0.4464988708496094,0.8947840332984924,0.0001681764595101,-0.0001822311675504,0.0017158445319155,0.0047542452812194,-0.0177854299545288,-0.019179344177246,0,0,0,0
7.8,1788444984173,0.0,0.0,-0.000230738587561,0.0002751619322225,0.6691184043884277,0.7431557178497314,0.0,0.0,0.0,0.0,0.0,0.0,-0.0002488633617758,0.0003346223384141,0.4464897215366363,0.8947887420654297,-0.0008416236450768,0.0019983119530109,-0.0003289214041534,0.0067560672760009,-0.0350775718688964,0.0184783935546875,0,0,0,0
7.9,1788444984273,0.0,0.0,-0.000230738587561,0.0002751619322225,0.6691184043884277,0.7431557178497314,0.0,0.0,0.0,0.0,0.0,0.0,-0.0002482319250702,0.0003346800804138,0.4465201497077942,0.894773542881012,2.1663849027510957e-05,-8.742531209345204e-06,0.0012771603561084,0.0067869424819946,0.0190697312355041,-0.0136308670043945,0,0,0,0
8.0,1788444984373,0.0,0.0,-0.000230738587561,0.0002751619322225,0.6691184043884277,0.7431557178497314,0.0,0.0,0.0,0.0,0.0,0.0,-0.0003180196508765,0.0003075525164604,0.4465227425098419,0.8947721123695374,0.0008126806334621,-0.0024635580070912,0.0003913848654949,-0.0182384848594665,-0.0029578804969787,-0.011946678161621,0,0,0,0
8.1,1788444984473,0.0,0.0,-0.000230738587561,0.0002751619322225,0.6691184043884277,0.7431557178497314,0.0,0.0,0.0,0.0,0.0,0.0,-0.0003180196508765,0.0003075525164604,0.4465227425098419,0.8947721123695374,0.0008126806334621,-0.0024635580070912,0.0003913848654949,-0.0182384848594665,-0.0029578804969787,-0.011946678161621,0,0,0,0
8.2,1788444984573,0.0,0.0,-0.000230738587561,0.0002751619322225,0.6691184043884277,0.7431557178497314,0.0,0.0,0.0,0.0,0.0,0.0,-0.0003148280084133,0.0002145683392882,0.4465214312076568,0.8947727680206299,-0.0005691275717655,-0.0001096082477804,-0.0011011858694943,0.0052657127380371,0.0265136957168579,0.0007858276367187,0,0,0,0
8.3,1788444984673,0.0,0.0,-0.000230738587561,0.0002751619322225,0.6691184043884277,0.7431557178497314,0.0,0.0,0.0,0.0,0.0,0.0,-0.0003439076244831,0.0002048183232545,0.4465309679508209,0.8947681188583374,-0.0015136689142985,0.0002122234596192,0.0005286706602926,-0.0018684864044189,-0.0053521990776062,0.036574363708496,0,0,0,0
8.4,1788444984773,0.0,0.0,-0.000230738587561,0.0002751619322225,0.6691184043884277,0.7431557178497314,0.0,0.0,0.0,0.0,0.0,0.0,-0.0003069443628191,0.0001522246748208,0.4465287029743194,0.8947692513465881,0.0002122599978468,-0.0016021953528275,0.0011392530891043,-0.004874050617218,0.0323524475097656,-0.0099687576293945,0,0,0,0
8.5,1788444984873,0.0,0.0,-0.000230738587561,0.0002751619322225,0.6691184043884277,0.7431557178497314,0.0,0.0,0.0,0.0,0.0,0.0,-0.0003506997600197,0.0001441864296793,0.4465087056159973,0.8947792649269104,0.000856384169653,-0.0006887901169895,0.000392172576298,-0.0046828985214233,-0.0028520226478576,0.0186376571655273,0,0,0,0
8.6,1788444984973,0.0,0.0,-0.000230738587561,0.0002751619322225,0.6691184043884277,0.7431557178497314,0.0,0.0,0.0,0.0,0.0,0.0,-0.0004581231623888,0.0001172227784991,0.4465065896511078,0.894780158996582,-0.0015984426212376,0.0007186366605885,-4.4550158310904174e-06,0.0155708789825439,0.0227136015892028,-0.0045852661132812,0,0,0,0
8.7,1788444985073,0.0,0.0,-0.000230738587561,0.0002751619322225,0.6691184043884277,0.7431557178497314,0.0,0.0,0.0,0.0,0.0,0.0,-0.0004632137715816,7.253140211105347e-05,0.4464943408966064,0.8947864174842834,-0.0009554037947007,-0.0022076635126751,-0.000671126756055,0.0058259963989257,0.0051739811897277,0.0097055435180664,0,0,0,0
8.8,1788444985173,0.0,0.0,-0.000230738587561,0.0002751619322225,0.6691184043884277,0.7431557178497314,0.0,0.0,0.0,0.0,0.0,0.0,-0.0004784408956766,6.03552907705307e-05,0.4465240836143493,0.8947715163230896,0.0009332043902783,0.0001868238730951,0.0015591653754528,-0.0051099061965942,0.0233429074287414,-0.0297441482543945,0,0,0,0
8.9,1788444985273,0.0,0.0,-0.000230738587561,0.0002751619322225,0.6691184043884277,0.7431557178497314,0.0,0.0,0.0,0.0,0.0,0.0,-0.0004353309050202,8.686259388923645e-05,0.4465053081512451,0.8947808742523193,-0.000218990247693,-0.0009029220124062,0.0009393583803735,0.0040530562400817,0.029740035533905,-0.0045490264892578,0,0,0,0
9.0,1788444985373,0.0,0.0,-0.000230738587561,0.0002751619322225,0.6691184043884277,0.7431557178497314,0.0,0.0,0.0,0.0,0.0,0.0,-0.0004426734521985,7.454492151737213e-05,0.4465039372444153,0.8947815895080566,-0.0002014232489693,-0.0020997135726098,2.7364890830923487e-05,-0.0410007834434509,0.0425267815589904,0.0044260025024414,0,0,0,0
9.1,1788444985473,0.0,0.0,-0.000230738587561,0.0002751619322225,0.6691184043884277,0.7431557178497314,0.0,0.0,0.0,0.0,0.0,0.0,-0.0004350002855062,8.56136903166771e-05,0.4465271830558777,0.8947699666023254,0.0004769637158485,0.0002614232956569,0.0010503191215413,-0.0103055238723754,-0.0330589413642883,-0.0155858993530273,0,0,0,0
9.2,1788444985573,0.0,0.0,-0.000230738587561,0.0002751619322225,0.6691184043884277,0.7431557178497314,0.0,0.0,0.0,0.0,0.0,0.0,-0.0004400126636028,6.482750177383423e-05,0.4465225636959076,0.8947722315788269,-2.664196512295191e-05,-0.0001780084175935,-0.0001367290572003,-0.003457486629486,0.0192201137542724,-0.000990867614746,0,0,0,0
9.3,1788444985673,0.0,0.0,-0.000230738587561,0.0002751619322225,0.6691184043884277,0.7431557178497314,0.0,0.0,0.0,0.0,0.0,0.0,-0.0004391083493828,5.436129868030548e-06,0.446501761674881,0.8947826027870178,0.0002351654106468,0.0006342460787663,-0.001337438053158,0.0008949637413024,-0.0179897546768188,0.0042686462402343,0,0,0,0
9.4,1788444985773,0.0,0.0,-0.000230738587561,0.0002751619322225,0.6691184043884277,0.7431557178497314,0.0,0.0,0.0,0.0,0.0,0.0,-0.0003991667181253,4.727020859718323e-05,0.4463081359863281,0.8948792815208435,0.0027728194241219,-0.0002841273738217,-0.0146507790632841,0.2596957087516784,-0.0156804919242858,0.0682029724121093,141,154,5897,6320
9.5,1788444985873,3.549295663833618,3.6619718074798575,-0.000230738587561,0.0002751619322225,0.6691184043884277,0.7431557178497314,0.0,0.0,0.0,0.0,0.0,0.0,-0.0004531750455498,-2.703350037336349e-05,0.4456483125686645,0.8952080011367798,-0.0047107742425578,0.0054308754787381,0.0048211840232389,0.7746496200561523,0.3856072425842285,-0.1720180511474609,153,145,14142,15270
9.6,1788444985973,4.2253522872924805,4.2253522872924805,-0.0003666453412733,-0.0003120202454738,0.6682936549186707,0.7438974976539612,0.1026969301825862,0.0017378951726156,1.7717668530846428e-06,-0.0143271824344992,-0.0026324824430048,0.0099789500236511,-0.0011012246832251,-0.0018368102610111,0.4459891319274902,0.8950358033180237,-0.0698453480747078,-0.0670112741981279,0.0192783411771285,0.9334037899971008,-0.2145355939865112,-0.0484533309936523,129,235,15668,17826
9.7,1788444986073,5.042253494262695,5.126760482788086,-0.0009762358968146,-0.002665159292519,0.6718694567680359,0.7406640648841858,0.1831161429659606,0.006495209361947,0.0001218935688669,0.0073635168373584,-0.0040507563389837,0.1075199618935585,-0.0011855019256472,-0.0020572170615196,0.4531716704368591,0.8914201855659485,0.0038328046438318,0.028314763235463,0.0704842579700675,-0.2564244866371155,0.1163495779037475,2.5718469619750977,76,48,15167,12963
9.8,1788444986173,4.394366264343262,4.647887229919434,-0.0007848894456401,-0.0019908086396753,0.6751531362533569,0.7376745343208313,0.1758818894387076,0.0059243139406598,8.161260786946254e-06,0.007622153032571,0.0140413725748658,0.0565483719110488,-0.001312106847763,-0.0019647227600216,0.4546366930007934,0.890673816204071,-0.0043296526943569,0.0072163197480205,0.0141496478196745,-0.531842052936554,0.0160409808158874,1.0515785217285156,11,20,9471,7826
9.9,1788444986273,3.070422649383545,3.0422534942626958,-0.0006034182151779,-0.0023316806182265,0.6753312349319458,0.7375107407569885,0.1597904460582474,0.0004436167823511,3.690855320621864e-05,-0.0032919247169047,-0.0129941590130329,-0.0013424635399132,-0.0012993123382329,-0.0018865279853343,0.4537397623062134,0.8911313414573669,0.0018262885102517,0.0026345462638244,-0.0402179092253269,-1.8509225845336916,0.1169694662094116,1.179586410522461,74,70,3194,2893
10.0,1788444986373,0.0,0.6760563254356384,-0.0006034182151779,-0.0023316806182265,0.6753312349319458,0.7375107407569885,0.0808580995042617,-0.0012106344293944,-2.197542649880947e-06,0.0,-3.4974878548865718e-09,0.0,-0.0011655734851956,-0.0022693695500493,0.4537996053695678,0.8911001682281494,0.0005896522216869,-0.0041638212480691,-0.0115185108315173,-0.1869940757751464,-0.0302178859710693,0.0675992965698242,30,34,2414,0
10.1,1788444986473,0.0,0.0,-0.0006034182151779,-0.0023316806182265,0.6753312349319458,0.7375107407569885,-0.0033573609318624,-5.590289172710583e-05,-1.3833176087218447e-06,0.0,-4.8672315067221925e-09,0.0,-0.0011655734851956,-0.0022693695500493,0.4537996053695678,0.8911001682281494,0.0005896522216869,-0.0041638212480691,-0.0115185108315173,-0.1869940757751464,-0.0302178859710693,0.0675992965698242,0,0,0,0
10.2,1788444986573,0.0,0.0,-0.0006034182151779,-0.0023316806182265,0.6753312349319458,0.7375107407569885,0.0025164667150957,4.193186474774383e-05,-6.434569976370209e-06,0.0,-4.864264990800393e-09,0.0,-0.0011236639693379,-0.0022244183346629,0.4538858234882355,0.8910564184188843,-0.0001925410896901,-0.0008309088277709,-0.0014863104902137,0.0128319859504699,0.0406304597854614,0.034010887145996,0,0,0,0
10.3,1788444986673,0.0,0.0,-0.0006034182151779,-0.0023316806182265,0.6753312349319458,0.7375107407569885,0.0,0.0,0.0,0.0,-4.85257434235109e-09,0.0,-0.0011236639693379,-0.0022244183346629,0.4538858234882355,0.8910564184188843,-0.0001925410896901,-0.0008309088277709,-0.0014863104902137,0.0128319859504699,0.0406304597854614,0.034010887145996,0,0,0,0
10.4,1788444986773,0.0,0.0,-0.0006034182151779,-0.0023316806182265,0.6753312349319458,0.7375107407569885,0.0,0.0,0.0,0.0,-4.85257434235109e-09,0.0,-0.0011737393215298,-0.0022279769182205,0.4538775086402893,0.8910605311393738,-0.000239412576229,-0.0001707935888541,0.0009264577907933,-0.024519145488739,-0.0159876942634582,0.0463104248046875,0,0,0,0
10.5,1788444986873,0.0,0.0,-0.0006034182151779,-0.0023316806182265,0.6753312349319458,0.7375107407569885,0.0,0.0,0.0,0.0,-4.852195090165878e-09,0.0,-0.001173841767013,-0.0022454774007201,0.4538718163967132,0.8910633325576782,-0.001448747586343,0.000601801197181,-0.0007688221262842,0.0379971265792846,-0.0051825046539306,0.0787668228149414,0,0,0,0
10.6,1788444986973,0.0,0.0,-0.0006034182151779,-0.0023316806182265,0.6753312349319458,0.7375107407569885,0.0,0.0,0.0,0.0,-4.751976590000595e-09,0.0,-0.0011441139504313,-0.002286672592163,0.4539043009281158,0.8910467624664307,-0.0005934087111283,-0.0019440205989005,0.0002088694051364,0.006548523902893,0.0451627373695373,0.0268430709838867,0,0,0,0
10.7,1788444987073,0.0,0.0,-0.0006034182151779,-0.0023316806182265,0.6753312349319458,0.7375107407569885,0.0,0.0,0.0,0.0,-4.876099080064478e-09,0.0,-0.0011695967987179,-0.0023153191432356,0.4538825750350952,0.8910577893257141,-0.0017680915007619,-0.0006879916318511,-0.0012043230788289,0.0170156359672546,0.0421628355979919,0.0537853240966796,0,0,0,0
10.8,1788444987173,0.0,0.0,-0.0006034182151779,-0.0023316806182265,0.6753312349319458,0.7375107407569885,0.0,0.0,0.0,0.0,-2.4337549753283842e-09,0.0,-0.001174172386527,-0.002242187038064,0.4538813233375549,0.891058623790741,-0.0009536277772545,0.0007199959718646,0.000580033250096,-0.0211943984031677,0.0056280493736267,0.064361572265625,190,282,6808,8339
10.9,1788444987273,2.4788732528686523,3.126760482788086,-0.0004563204711303,-0.0024924725294113,0.6757563352584839,0.7371207475662231,0.0103962512216736,0.0001999840855197,-1.68122033692467e-06,2.721473174460698e-05,-0.0091134458780288,0.0239790249615907,-0.0012742737308144,-0.0021419906988739,0.4556635022163391,0.8901485800743103,-0.0043177246374143,0.027378699326091,0.0699752962009852,1.2080895900726318,-0.1017466783523559,0.1948375701904297,150,242,11009,12877
11.0,1788444987373,3.4084506034851074,3.94366192817688,-0.0006907589267939,-0.0024517870042473,0.6769348978996277,0.7360384464263916,0.0828668589371655,0.0012331764823362,-9.384388571224e-06,-0.0059680547565221,0.0077352463267743,0.0668648704886436,-0.0014475472271442,-0.0020931400358676,0.4575269520282745,0.8891922235488892,-0.0053142855887246,0.004874455488755,0.086331598787741,0.6898019313812256,0.0268809795379638,0.128209114074707,165,257,11413,14682
11.1,1788444987473,4.676056385040283,5.380281925201416,-0.0007067704573273,-0.0029427078552544,0.6839174628257751,0.7295531034469604,0.1937175869918795,0.0004605865534817,-8.63690091426596e-05,-0.0078080985695123,0.0139706954360008,0.1567903906106948,-0.0015372298657894,-0.002521832473576,0.464623749256134,0.8855032920837402,-0.0088340158059639,0.0199605313716592,0.1498561150306447,-0.3491824269294739,0.1799253225326538,0.0987663269042968,54,52,13612,17206
11.2,1788444987573,4.478873252868652,5.88732385635376,-0.0002077529206871,-0.0036195660941302,0.6872866749763489,0.7263772487640381,0.1804852591356672,0.0012046001083127,0.0001390743568125,-0.0028192542959004,-0.0261817220598459,0.1430902928113937,-0.000713100656867,-0.003779562190175,0.475026786327362,0.8799629211425781,0.0035855074364917,0.0108961711203525,0.1914119836995403,0.5226431488990784,0.0796462893486023,-1.8796467781066892,54,52,13612,17206
11.3,1788444987673,4.563380241394043,5.070422649383545,0.0010570414597168,-0.0042168195359408,0.6960275173187256,0.7180019021034241,0.1699226797849872,0.0005558975128896,4.269866891417072e-05,0.0077089648693799,-0.0199015028774738,0.1438019275665283,-0.0002142749726772,-0.0043372232466936,0.4811709523200989,0.8766160607337952,-0.0055451750059424,0.0145562836839585,0.1234949789100938,0.1278437972068786,0.022627830505371,-1.821002960205078,86,118,14000,16490
11.4,1788444987773,4.535211086273193,5.915493011474609,0.000649589463137,-0.0039608469232916,0.6984086036682129,0.7156880497932434,0.1649738498540135,0.0059835358761034,-4.682464148812671e-06,-0.004259985871613,0.0192365013062953,0.138858363032341,-0.0009890794754028,-0.0031053852289915,0.4859865307807922,0.8739603161811829,0.0014245932920451,0.0272784219175509,0.1659634500409121,-0.0163315534591674,-0.1709968447685241,-0.0637788772583007,85,126,13621,14957
11.5,1788444987873,4.647887229919434,5.295774459838867,-0.0005521698622033,-0.00300556095317,0.7041540741920471,0.7100406289100647,0.1785845256427409,-0.001047411180582,-7.270800520602236e-05,-0.004917548969388,0.0227203965187072,0.1746691465377807,-0.0009890794754028,-0.0031053852289915,0.4859865307807922,0.8739603161811829,0.0014245932920451,0.0272784219175509,0.1659634500409121,-0.0163315534591674,-0.1709968447685241,-0.0637788772583007,90,164,14370,16242
11.6,1788444987973,4.422535419464111,5.746479034423828,-0.0034076946321874,-0.0004011979326605,0.7089337110519409,0.7052667737007141,0.1738598234350328,0.0020702766175954,-0.0001296305204595,0.0005831633461639,-0.0262276455760002,0.0762123763561248,-0.0024446193128824,-0.0008494071662425,0.4973919689655304,0.867522120475769,0.0011281399662746,-0.1653035303577659,0.2021704006684713,-0.1832946538925171,0.5552293062210083,-3.4523191452026367,44,59,11055,17720
11.7,1788444988073,4.197183132171631,6.366197109222412,-0.0021590148098766,-0.0011869824957102,0.718108594417572,0.6959266662597656,0.165988992723929,0.0007666550381341,0.0001240952879253,0.0073865558952093,-0.0251057129353284,0.3107046782970428,-0.0021135546267032,-0.0008694222196936,0.5120006203651428,0.8589820861816406,0.0001741684829148,0.0029734709148949,0.3042703071779485,-0.1941773891448974,-0.2238886952400207,1.3922624588012695,74,142,12260,15698
11.8,1788444988173,4.084506988525391,5.915493011474609,-0.0021590148098766,-0.0011869824957102,0.718108594417572,0.6959266662597656,0.165988992723929,0.0007666550381341,0.0001240952879253,0.0073865558952093,-0.0251057129353284,0.3107046782970428,-0.0016116928309202,-0.0006638560444116,0.5223814249038696,0.8527101278305054,0.0158923348223136,-0.0080668416257407,0.2570656716428217,-0.1187902092933654,-0.110700786113739,0.5288839340209961,73,126,12937,14773
11.9,1788444988273,4.253520965576172,5.183098793029785,-0.0002137782284989,0.0013192165642976,0.7361756563186646,0.6767892241477966,0.1708262474255954,-0.0003245525516398,-7.759135506150202e-05,0.0896577686071395,0.0390104129910469,0.2601076662540436,1.5146099030971529e-05,0.0015339590609073,0.5291497707366943,0.8485271334648132,0.0957275503233255,0.0826711395060689,0.2426601553992516,0.5548756122589111,-0.0835455060005188,0.5749225616455078,95,41,14496,11770
12.0,1788444988373,5.295774459838867,5.97183084487915,0.0012947311624884,-0.0003390712954569,0.7395775318145752,0.6730700731277466,0.176715449660433,0.0040644361068084,0.0002004535866107,-0.0318535044789314,-0.0194482635706663,0.0252294167876243,0.0014565614983439,-0.0015018600970506,0.5329078435897827,0.8461706638336182,-0.0079848145805767,-0.0195333498222181,-0.0346290768730473,-0.134468674659729,-0.467397391796112,-0.3326320648193359,62,24,14153,14840
12.1,1788444988473,5.295774459838867,5.97183084487915,0.0017662725877016,-0.0013773902319371,0.7390620708465576,0.6736335754394531,0.1612026085708103,0.0005391654976561,0.0001592905930697,-0.0040846713818609,-0.0304074138402938,-0.0113550247624516,0.0007622856646776,-0.0010331906378269,0.5325888395309448,0.8463731408119202,-0.0168217879042416,0.0380482361765978,-0.0187560131898865,0.297100305557251,0.4888781905174255,-0.2134304046630859,124,172,14592,14603
12.2,1788444988573,4.816901206970215,5.633802890777588,-0.0010276220273226,-0.0016293047228828,0.739359438419342,0.6733081936836243,0.1758544311840039,-0.001660106864368,-7.052410855680064e-05,-0.0536644198000431,0.0270612221211195,0.014439663849771,-0.0017948346212506,-0.0019793417304754,0.5331632494926453,0.8460081219673157,-0.0342394150024537,-0.0309839876828278,0.0142062866159421,0.3274826407432556,-0.1084458827972412,0.0984439849853515,73,56,14249,14822
12.3,1788444988673,5.014084339141846,5.6619720458984375,-0.0021684074308723,-0.0020299851894378,0.7408910989761353,0.6716185808181763,0.1774160074047722,-0.0013778389512802,-8.826403898810874e-05,-0.0118735777214169,0.0134085118770599,0.0547407940030097,-0.0025674542412161,-0.0013883803039789,0.5342605113983154,0.8453148603439331,-0.0134481412560088,0.0363323711320355,0.0519695536363104,-0.1347993612289428,-0.0176668763160705,0.619053840637207,60,126,14574,17156
12.4,1788444988773,4.788732528686523,5.6619720458984375,-0.0021684074308723,-0.0020299851894378,0.7408910989761353,0.6716185808181763,0.1774160074047722,-0.0013778389512802,-8.826403898810874e-05,-0.0118735777214169,0.0134085118770599,0.0547407940030097,-0.0024651382118463,-0.0016827210783958,0.5377310514450073,0.8431111574172974,4.692512191670144e-05,0.0132935990929916,0.0557645801416237,-0.1163170337677002,-0.0729637145996093,-0.0313224792480468,75,126,14541,14013
12.5,1788444988873,4.760563373565674,5.070422649383545,-0.0017814000602811,-0.0026664573233574,0.7434918284416199,0.6687373518943787,0.1739831078796714,0.0018058222432786,-1.067699753039657e-06,-0.0080835241824388,-0.0121688256040215,0.0425956211984157,-0.0029478706419467,-0.0033781006932258,0.5423721671104431,0.8401263952255249,-0.0151975901996405,-0.007328428775961,0.1092345680388207,0.232858657836914,0.0731260180473327,-2.6901779174804688,63,93,13213,17647
12.6,1788444988973,4.450704097747803,5.183098793029785,-0.0020700749009847,-0.0050072656013071,0.7481107711791992,0.6635517477989197,0.1785907929959168,-0.000791124438171,1.6960414961516822e-05,-0.0420805178582668,-0.0206550024449825,0.1438894122838974,-0.0034148758277297,-0.0044699572026729,0.5443201065063477,0.8388587832450867,-0.0651707202861091,-0.0445239039492975,0.1539723546646582,0.2072370052337646,0.3950792551040649,-1.0866422653198242,77,204,13598,18185
12.7,1788444989073,5.098591327667236,4.760563373565674,-0.0024782158434391,-0.0062677334062755,0.7536845803260803,0.6572016477584839,0.1673127432010203,-0.0012821387766258,-0.0001147553622854,0.0062003079801797,0.0323975831270217,0.1953260451555252,-0.0042773410677909,-0.0044876364991068,0.5556391477584839,0.8314005136489868,0.0103251465403147,0.0220661041013354,0.0967720122356431,0.2167607545852661,-0.1859282851219177,-0.3219375610351562,40,50,12964,16892
12.8,1788444989173,4.732394218444824,5.6619720458984375,-0.0028402986936271,-0.0056133847683668,0.7568427324295044,0.6535667181015015,0.1758137275076539,0.0068359081064351,-9.959671599417256e-05,0.0108905099332332,0.0275264754891395,0.1973005682229995,-0.0037226388230919,-0.0042443163692951,0.5570528507232666,0.8304578065872192,0.0128347247069454,0.0127429824267242,0.0373934034884127,-0.0570189356803894,0.0985084176063537,0.201425552368164,124,40,15751,15478
12.9,1788444989273,4.478873252868652,5.97183084487915,-0.0026058000512421,-0.0050502927042543,0.758454442024231,0.6517012715339661,0.1750788854027629,0.0019551886300674,-2.3013052240864017e-05,0.0061899120919406,0.0133446268737316,0.0316997282207012,-0.0043122731149196,-0.0040616914629936,0.5614993572235107,0.827455997467041,-0.0096913664932536,-0.0065299166361428,0.1364609199374783,0.1683648824691772,0.125440776348114,0.3347539901733398,109,156,13712,14869
13.0,1788444989373,4.591549396514893,5.746479034423828,-0.0029823291115462,-0.005506757646799,0.7639556527137756,0.6452383399009705,0.1731914645048793,0.0039663131495907,6.461173657750051e-05,-0.0123085211962461,-0.0135392341762781,0.1381774693727493,-0.0047197509557008,-0.0041765766218304,0.5656137466430664,0.8246461749076843,-0.0114102983225644,0.0392726504261128,0.1404460370831299,0.2332927584648132,-0.3746460676193237,-1.5422239303588867,58,31,13161,15588
13.1,1788444989473,4.563380241394043,6.084506988525391,-0.0027398008387535,-0.0058004627935588,0.7685971856117249,0.6397008299827576,0.1758861004875783,0.0002033180864904,-2.5258411630195063e-05,-0.000918696518056,-0.0158899538218975,0.1480910629034042,-0.0040079392492771,-0.005092560313642,0.570687472820282,0.82114177942276,0.0005291909155282,-0.0372806106234629,0.1511799376696896,-0.3105910420417785,-0.2067421674728393,0.6742105484008789,63,119,13099,14078
13.2,1788444989573,4.422535419464111,5.239436626434326,-0.0024901139549911,-0.0055620279163122,0.7743909358978271,0.6326781511306763,0.1670801900472738,0.0028480021274849,1.630043690573917e-05,0.0184834152460098,0.0073465183377265,0.1728851646184921,-0.0040955524891614,-0.0050431750714778,0.5765024423599243,0.8170697093009949,0.0056842017260771,7.701281398466141e-05,0.1651683010299959,-0.2319119572639465,-0.1301599144935608,0.2112140655517578,108,54,13750,17108
13.3,1788444989673,5.098591327667236,4.788732528686523,-0.0021575377322733,-0.0054524186998605,0.7792879939079285,0.626638650894165,0.1762381432907968,0.0020841669154613,0.0001198485873351,-0.0139939822256565,-0.0168654937297105,0.1324435025453567,-0.0038808630779385,-0.0033070063218474,0.5859000086784363,0.8103673458099365,0.0196565809584562,0.0363318470911696,0.0541381128848644,-0.3041183352470398,-0.0793201923370361,0.171548843383789,108,67,15206,15371
13.4,1788444989773,5.154929637908936,5.070422649383545,-0.002888238755986,-0.0043743113055825,0.7811577916145325,0.624311625957489,0.164202560235213,0.0004822426371528,-9.112303110996408e-05,0.004646411165595,0.0219770669937133,0.0489438101649284,-0.0048617329448461,-0.0023677740246057,0.5868375897407532,0.8096866607666016,-0.0145040468035532,0.0351470540362181,0.0216013203342357,0.3271118402481079,0.1342626810073852,3.2248048782348637,81,99,14574,13209
13.5,1788444989873,4.704225540161133,5.323943614959717,-0.0032294413540512,-0.0040811947546899,0.781328022480011,0.6240990161895752,0.1634329855381902,0.0004545626468803,-5.597951892802094e-05,0.0006707960856147,0.0186884794384241,0.0114559587091207,-0.0060137482360005,-0.0005346937105059,0.5876899361610413,0.809063732624054,-0.0044662768713167,0.0634330163196896,0.0831714651226449,0.2111850976943969,0.2923051714897156,0.6946687698364258,128,20,15211,15267
13.6,1788444989973,5.352112770080566,5.154929637908936,-0.0064470963552594,-0.0015807684976607,0.7829561829566956,0.6220414042472839,0.1771150140313539,0.003035621845271,-0.0001698518319565,-0.0050958483479917,0.0894592478871345,0.1041706800460815,-0.0060137482360005,-0.0005346937105059,0.5876899361610413,0.809063732624054,-0.0044662768713167,0.0634330163196896,0.0831714651226449,0.2111850976943969,0.2923051714897156,0.6946687698364258,84,28,14974,13232
13.7,1788444990073,5.77464771270752,4.8450703620910645,-0.0051936609670519,-0.0023720571771264,0.779280424118042,0.6266493201255798,0.162151471512422,-0.0012626253629668,5.238248201552859e-05,-0.0030387206934392,-0.0247087720781564,-0.1745950132608413,-0.0055038705468177,-0.0011584227904677,0.582907497882843,0.8125191330909729,-0.0071384285034626,-0.0111066068512986,-0.1940159238436654,0.0042899250984191,-0.0625019669532775,-0.5787200927734375,105,98,15835,11975
13.8,1788444990173,5.633802890777588,4.929577350616455,-0.0038317604921758,-0.0025251167826354,0.7736332416534424,0.6336169838905334,0.1681284865894625,-0.0020544138327092,6.077917152362755e-05,0.0275615695863962,-0.0335792303085327,-0.1648633629083633,-0.0044051855802536,-0.001252980902791,0.5762166380882263,0.8172841668128967,0.0427547912561485,-0.0247895743398393,-0.1473863809225548,-0.2303178310394287,-0.0167235136032104,0.2076911926269531,75,94,15997,11790
13.9,1788444990273,5.577464580535889,4.929577350616455,-0.0031569078564643,-0.0023368748370558,0.7715235352516174,0.6361886262893677,0.1749247281977669,-0.0059812290673001,0.0001408997550567,0.0241508185863494,-0.0162287671118974,-0.1390828639268875,-0.0043428549543023,-0.0013763913884758,0.5675314664840698,0.8233392238616943,-0.0050469734210509,0.031915321381958,-0.1584847032486667,-0.1554864645004272,0.4890328645706177,0.4630756378173828,97,28,16341,13281
14.0,1788444990373,5.295774459838867,5.295774459838867,-0.0039456523954868,-0.0023153154179453,0.7656283974647522,0.6432667970657349,0.1728061223734473,-0.0005122661693392,-9.06071223926952e-05,-0.0020607057958841,0.0192669294774532,-0.1423400640487671,-0.0040311068296432,-0.0012438027188181,0.565058708190918,0.8250399827957153,0.0081387694817955,-0.005397521235045,-0.0199312735865588,0.0105260014533996,-0.0419898033142089,0.0426626205444335,66,134,14660,13561
14.1,1788444990473,5.295774459838867,5.295774459838867,-0.0035196193493902,-0.0019195338245481,0.7645081281661987,0.6446016430854797,0.1649180853106168,-0.002129240221249,-1.982597763843629e-05,0.0064298594370484,0.0081992037594318,-0.0141405286267399,-0.0040311068296432,-0.0012438027188181,0.565058708190918,0.8250399827957153,0.0081387694817955,-0.005397521235045,-0.0199312735865588,0.0105260014533996,-0.0419898033142089,0.0426626205444335,66,134,14660,13561
14.2,1788444990573,5.239436626434326,5.183098793029785,-0.0035804505459964,-0.0016850568354129,0.7628456950187683,0.6465684175491333,0.1689646917352411,0.000233998257272,-3.3083683934130455e-05,0.0055652377195656,0.0178695656359195,-0.0427894555032253,-0.0040184557437896,-0.0003631291911005,0.5622839331626892,0.8269344568252563,0.0037492012407376,0.0155602210622565,-0.0251742986620295,-0.0658344626426696,0.0941564440727233,0.3717823028564453,99,113,15112,15823
14.3,1788444990673,5.154929637908936,5.183098793029785,-0.0036951461806893,-0.0015192067949101,0.7626150846481323,0.6468402147293091,0.1759639510155867,-0.0001356553200586,-2.65270218490127e-05,0.0022145884577184,0.0081989904865622,-0.0148781621828675,-0.0033326502889394,-0.0006234096363186,0.5609795451164246,0.827822744846344,0.0085417104237136,-0.0220370725378149,-0.0398730721228477,0.3150566816329956,-0.0305360555648803,-1.957812786102295,105,53,15516,13121
14.4,1788444990773,5.211267471313477,4.760563373565674,-0.00395034160465,0.0002087807515636,0.7604712843894958,0.6493594646453857,0.1683029891776064,0.0019598722481325,-0.000121321840319,0.021618478000164,0.0425806380808353,-0.0424326807260513,-0.0036525931209325,0.0024930890649557,0.5597607493400574,0.8286424875259399,0.0861675810302526,0.1107270624171765,0.0024443956520584,-0.1526564955711364,-0.4053736329078674,0.1130037307739257,78,33,15369,14532
14.5,1788444990873,5.464788913726807,5.436619758605957,-0.0038244291208684,0.0001948260469362,0.759099543094635,0.650963306427002,0.1734213536436712,0.0016741802574575,0.0001439634106816,-0.0462081283330917,-0.0511598028242588,-0.0999424755573272,-0.0039684511721134,0.0009336695075035,0.5550775527954102,0.8317885994911194,-0.0048741923708442,0.0006649939985433,-0.0776150691172802,-0.1655221581459045,0.0565467476844787,-1.523345947265625,84,82,15097,12029
14.6,1788444990973,5.183098793029785,4.619718074798584,-0.0040826746262609,-0.0001138390507549,0.7569840550422668,0.653420627117157,0.1647132285363456,-0.0053757885465728,2.0965388541773394e-05,-0.0031881229951977,-0.0041121481917798,-0.0206368844956159,-0.0036208517849445,0.0006633615121245,0.5548661351203918,0.831931471824646,0.0070123707785246,-0.0208951549393683,-0.0128249568376634,-0.3103649616241455,-0.191096544265747,1.359990119934082,62,113,15043,14962
14.7,1788444991073,5.802816867828369,4.732394218444824,-0.0038767433725297,-0.0001358625013381,0.7533303499221802,0.6576308608055115,0.1660098902134548,-0.0053412208806783,-7.59744757189819e-05,-0.0009131137630902,0.0003299005620647,-0.1499511897563934,-0.0036575300619006,0.000501818023622,0.5490036010742188,0.8358119130134583,-0.0077259458184373,-0.0334895905744809,-0.1648674547063812,-0.0113189220428466,-0.1382408738136291,0.0332574844360351,83,40,15824,12387
14.8,1788444991173,5.380281925201416,4.14084529876709,-0.0038767433725297,-0.0001358625013381,0.7533303499221802,0.6576308608055115,0.1660098902134548,-0.0053412208806783,-7.59744757189819e-05,-0.0009131137630902,0.0003299005620647,-0.1499511897563934,-0.0041920468211174,0.0010812999680638,0.5427352786064148,0.8398927450180054,-0.0032590399230973,0.0617204661535635,-0.1577613392639765,0.2944234609603882,0.0712928175926208,-1.3233022689819336,83,40,15824,12387
14.9,1788444991273,5.492957592010498,4.197183132171631,-0.0042880102992057,-0.000195964006707,0.7429264783859253,0.6693593263626099,0.1601729157761031,-0.0039049306704419,-1.5367328827998343e-05,-0.0025125117972493,-0.0059675048105418,-0.1573473513126373,-0.0043186787515878,0.0009490270167589,0.5348236560821533,0.8449522256851196,-0.0021944597286639,-0.0004390683655378,-0.1464410563685024,0.1075674295425415,0.1260578632354736,-0.9730854034423828,55,66,16384,14534
15.0,1788444991373,5.464788913726807,4.169013977050781,-0.0048215589486062,4.24941536039114e-05,0.7380746603012085,0.6747018098831177,0.1635693943094214,-0.0043785006419154,-5.499863013565426e-05,-0.0032536783255636,0.0131170200183987,-0.1460587084293365,-0.0046421773731708,0.0013977503404021,0.5323173403739929,0.8465309739112854,-0.0012034544429028,0.0261686662782218,-0.1379913342760361,0.1481583714485168,0.083714485168457,0.8642778396606445,55,66,16384,14534
15.1,1788444991473,5.295774459838867,4.0,-0.0048741474747657,-0.0001643598079681,0.7330358028411865,0.6801726222038269,0.1691037274085526,-0.0022755811925726,-8.1420415439352e-06,0.0005749777192249,0.0028685526922345,-0.1622285991907119,-0.0047683613374829,0.0016230782493948,0.5190866589546204,0.8547067642211914,0.0131577703330663,0.0007492637552671,-0.161427051844157,-1.69725501537323,0.0017036199569702,0.4915943145751953,37,17,14318,12363
15.2,1788444991573,2.08450698852539,1.154929518699646,-0.0050082961097359,0.0004014070145785,0.7268702387809753,0.686756432056427,0.0904083200696195,0.0006478976644527,9.13789642806677e-06,0.0108685037121176,-0.0040651885792613,-0.1645737141370773,-0.0047021331265568,0.0017404193058609,0.5168682932853699,0.8560503125190735,0.0084404291372616,0.0049478451045456,-0.1718733917576485,-0.8160879015922546,-0.1584903597831726,-0.8585700988769531,19,49,4308,0
15.3,1788444991673,1.0704225301742554,-1.0140844583511353,-0.0050404984503984,0.0005606561899185,0.7205418944358826,0.693392813205719,-0.0019415873381353,0.0025937847290209,1.4732473595421424e-07,-0.0005845803534612,0.0010175278875976,-0.1884820163249969,-0.00472042709589,0.0018968377262353,0.5081045031547546,0.8612804412841797,-0.00039282121511,0.0026915224108677,-0.1726550762626277,-0.7128206491470337,0.0543698072433471,0.1500358581542968,26,129,2597,-6087
15.4,1788444991773,1.042253494262695,-0.8450704216957092,-0.0051558874547481,0.0004736620467156,0.7146649956703186,0.699447751045227,-0.0061704085381848,0.0019995075973192,-1.49364736693675e-06,-0.004112466238439,0.0041028428822755,-0.2036668211221695,-0.0048797288909554,0.0018305769190192,0.5016876459121704,0.8650332093238831,-0.0064326846194488,0.0050645200727354,-0.2224345331636218,0.0398777723312377,-0.0885180830955505,0.035501480102539,55,97,3835,-5966
15.5,1788444991873,0.7323943376541138,-0.9295774698257446,-0.0053341090679168,0.0005529201589524,0.7057895064353943,0.7084013223648071,0.0019622057360533,0.0048507388501708,-5.915732781273722e-07,0.0020160165149718,0.0047269146889448,-0.2587684690952301,-0.0049141766503453,0.0020009819418191,0.4837599992752075,0.8751847147941589,0.0044840028250679,0.0047417028116745,-0.2566504584550285,-0.0819370150566101,0.025887131690979,-0.1312274932861328,117,71,4589,-5492
15.6,1788444991973,0.8732394576072693,-0.8169013857841492,-0.0052580097690224,0.0005885111168026,0.7000141739845276,0.7141092419624329,-0.0026127771318488,0.0024592959616292,2.4284817813283197e-06,0.003535599913448,-2.6587824322632517e-05,-0.2547979652881622,-0.0046951649710536,0.0018236525356769,0.4749308824539184,0.8800086379051208,0.0036008025078323,-0.0130255173549552,-0.2352594924198617,0.0716266632080078,-0.0991870164871215,0.2779483795166015,101,137,4861,-5543
15.7,1788444992073,0.8732394576072693,-0.8169013857841492,-0.0049529215320944,0.0004939760547131,0.6915626525878906,0.7222992777824402,0.0012528586056923,0.0008286410613322,5.938959921073063e-06,0.0037976664025336,-0.0126775279641151,-0.2225010395050048,-0.0049853781238198,0.0024067861959338,0.4640671014785766,0.885782778263092,-0.0012878292061608,0.0332515282126504,-0.3668000779626293,0.7657456994056702,0.1410192847251892,0.5618724822998047,101,137,4861,-5543
15.8,1788444992173,3.690140962600708,3.1549296379089355,-0.0041459049098193,-0.0006270430749282,0.678948163986206,0.7341742515563965,0.1130744640154295,-0.0002894707018354,0.0001324944608457,-0.0026674985419958,-0.1027929633855819,-0.1005245894193649,-0.0037698298692703,-0.0001406893134117,0.4579730629920959,0.8889580965042114,0.0031965786419748,-0.0181785503213442,-0.0247072219144928,0.9168111681938172,-0.2367922067642212,1.7493314743041992,180,291,13748,12758
15.9,1788444992273,5.267605781555176,5.549295902252197,-0.0028344604652374,-0.0018599348841235,0.6782898902893066,0.7347865700721741,0.1846151588708859,0.002279550412145,0.0002641385776457,0.0031440504826605,-0.0361181274056434,-0.0196989867836236,-0.0027913665398955,-0.001314852386713,0.4583678543567657,0.8887571692466736,0.008171306942304,-0.0168135743298991,0.0261809364060909,-0.1482247710227966,0.0915688276290893,-0.7527475357055664,77,116,14832,14793
16.0,1788444992373,4.563380241394043,4.760563373565674,-0.0016462926287204,-0.0023400546051561,0.6794034838676453,0.7337592244148254,0.1824790259800541,-0.0013236007049434,5.9181218052934746e-05,0.0158776585012674,-0.0366928838193416,0.0453250184655189,-0.0011964170262217,-0.0008706990629434,0.4610437452793121,0.8873762488365173,0.0684836973421867,0.039731817987317,0.0975358723552589,-0.4767842888832092,-0.1978051662445068,0.3844013214111328,108,92,15347,16559
16.1,1788444992473,4.957746505737305,4.901408672332764,-0.0010366603964939,0.0005206280620768,0.6824612617492676,0.7309208512306213,0.1688249269140093,-0.0028133337335692,-0.0002444430989189,0.0732556208968162,0.0753303319215774,0.123987890779972,-0.001013389788568,-0.001878966577351,0.4630798101425171,0.8863140940666199,-0.0581800681758233,-0.0832040447477421,-0.0239569371025024,0.0508009791374206,-0.4160301685333252,-0.1455860137939453,35,49,14073,15987
16.2,1788444992573,4.985915660858154,4.8450703620910645,0.0006894626421853,-0.0027350168675184,0.6855107545852661,0.7280570268630981,0.1634455957693661,0.0003068090263461,0.0001198031022285,0.0153952278196811,-0.0346661247313022,0.1272470355033874,0.0004822770133614,-0.0031472975388169,0.4674066007137298,0.8840367794036865,0.0406244942596206,-0.0415899757267298,0.1530853470496125,0.2961133122444153,0.1753239035606384,-2.0196399688720703,100,50,13415,15821
16.3,1788444992673,4.676056385040283,4.788732528686523,0.0013562340755015,-0.0036414351779967,0.6875852346420288,0.7260933518409729,0.1597449633763596,-0.0003017954564753,8.75508820551101e-05,-0.0168400816619396,-0.0160489082336425,0.0047460584901273,0.0002407832071185,-0.0042266687378287,0.4685819447040558,0.8834099173545837,-0.0248800305052077,-0.0392424852905308,-0.0459734435736009,0.3245589137077331,-0.2131040692329406,0.7665290832519531,89,170,15201,16693
16.4,1788444992773,5.126760482788086,4.816901206970215,-0.000399270793423,-0.0041336826980113,0.6877303719520569,0.7259543538093567,0.1796673390393348,-0.0005060185081646,-0.0001155211219049,-0.0285882763564586,0.0035354436840862,0.0069592311047017,-0.0018722303211688,-0.0040864925831556,0.4691583812236786,0.8831025958061218,-0.0362468248398061,-0.0318755917494814,0.0107766251797806,-0.0966706275939941,0.1776690483093261,0.361490249633789,90,109,14621,15491
16.5,1788444992873,4.929577350616455,4.704225540161133,-0.001480245264247,-0.0040856241248548,0.6874927282333374,0.7261782288551331,0.1713223179462077,0.0005571770626978,-0.0001406927226181,-0.0307846944779157,0.0318788401782512,-0.0131721682846546,-0.0035143168643116,-0.0029883598908782,0.4684600830078125,0.8834726214408875,-0.0151398939423871,0.0811860916025309,-0.0022126486405441,0.1599957346916198,0.017902135848999,0.4275493621826172,98,63,15249,16032
16.6,1788444992973,5.183098793029785,5.436619758605957,-0.0023394173476845,-0.0043561542406678,0.6871414184570312,0.7265068292617798,0.1735571909579824,-0.0004328384214569,4.398001569554514e-05,-0.0104423472657799,-0.0159432981163263,-0.0029575850348919,-0.0033926973119378,-0.004793856292963,0.4680556654930115,0.8836794495582581,-0.022014073706051,-0.0834247667298618,-0.0163030461820177,-0.4023058414459228,0.4148502349853515,0.5119409561157227,118,144,14208,13458
16.7,1788444993073,4.873239517211914,4.957746505737305,-0.0023039681836962,-0.0058010867796838,0.6865286827087402,0.7270758748054504,0.1670691454185826,0.0034933410905326,4.623472571070576e-05,-0.0174641963094472,-0.0069196070544421,-0.0189802329987287,-0.0029318137094378,-0.0038688210770487,0.4687261581420898,0.8833301663398743,0.0098443935180703,-0.0175598582770881,0.008895799455167,-0.1169752478599548,0.4307905435562134,-0.8788051605224609,52,174,14618,16508
16.8,1788444993173,4.873239517211914,5.211267471313477,-0.0020247383508831,-0.0045583113096654,0.6872879862785339,0.7263678312301636,0.1632661232489785,0.0036791720363843,2.974155946738011e-07,0.0,4.867872327452005e-09,0.0,-0.0031008794903755,-0.0031569451093673,0.4699035882949829,0.8827066421508789,0.0017975414625555,0.0181247422669661,0.0431807971733729,0.1704555749893188,-0.0350789427757263,0.7124605178833008,70,128,14697,15685
16.9,1788444993273,5.098591327667236,5.070422649383545,-0.0020588198676705,-0.0039684888906776,0.6886472702026367,0.7250826358795166,0.1711272895314141,-7.728744370809766e-05,-2.016629008344132e-05,0.0027796865906566,0.001643615309149,0.0356376580893993,-0.0034642871469259,-0.002777287736535,0.4719398915767669,0.8816196322441101,-0.0069091156683102,0.0294819666284826,0.0641637668577202,0.0835768580436706,0.0373322963714599,-0.6583833694458008,79,150,14783,15192
17.0,1788444993373,5.070422649383545,4.563380241394043,-0.0027169589884579,-0.0036993336398154,0.6906431317329407,0.7231811881065369,0.1810339860936667,0.0002959304321694,2.165793093854016e-06,-0.0055053401738405,-0.0125914355739951,-0.0056119943037629,-0.0035446407273411,-0.003205893561244,0.4724931120872497,0.8813214302062988,-0.0010965595192219,-0.0322980894598404,-0.0215237854529739,-0.0017537474632263,-0.1303284764289856,-0.4820528030395508,71,76,15828,15099
17.1,1788444993473,5.183098793029785,4.450704097747803,-0.0025983552914112,-0.0040813060477375,0.6886582374572754,0.7250699400901794,0.1716875757951649,-0.001233071506179,7.4150863997309e-07,0.0004179183451924,0.0058299009688198,-0.0579676888883113,-0.0036408482119441,-0.0031516849994659,0.4701884984970093,0.882552981376648,-0.0013516573276852,0.024310617386116,-0.0647690973106476,-0.1815108656883239,0.5030630230903625,0.8619165420532227,68,54,15631,15334
17.2,1788444993573,4.901408672332764,5.154929637908936,-0.0023565941955894,-0.0039007535669952,0.6885433197021484,0.7251809239387512,0.1706008140514149,0.0027109149359975,2.625835314863801e-05,0.0100642256438732,-0.008610675111413,0.0150575106963515,-0.0029995292425155,-0.0031541474163532,0.4705085754394531,0.882384717464447,0.0218105806348393,-0.010298770206142,0.050991524395265,0.1652241349220276,0.0663321614265441,1.765838623046875,109,33,14282,15485
17.3,1788444993673,4.704225540161133,5.098591327667236,-0.0021636721212416,-0.0036754165776073,0.6890657544136047,0.724686324596405,0.1701040495737866,0.000831830468265,3.854162689631785e-05,0.0123163955286145,0.0011409688740968,0.0299309361726045,-0.002661945298314,-0.0008154222741723,0.4722239077091217,0.8814742565155029,0.079227237595907,0.0788677201710409,0.0800079584308349,-0.1144881844520568,-0.2424314022064209,-0.2098255157470703,119,59,15360,15731
17.4,1788444993773,5.97183084487915,4.056337833404541,-0.002655966207385,-0.0013199786189943,0.6913639307022095,0.7225006222724915,0.1743315884063241,-0.0033783473759118,-9.443934191462568e-05,-0.0010915383463725,0.0163586363196373,0.0615430884063243,-0.0040716510266065,-0.0009998576715588,0.4701060056686401,0.8826000094413757,-0.0039237167913432,0.0378409175240216,-0.1653396015838797,0.0209150314331054,-0.2881429195404053,-0.2151441574096679,125,23,17312,11379
17.5,1788444993873,5.577464580535889,3.91549301147461,-0.0036767723504453,-0.0020369258709251,0.6860208511352539,0.7275696992874146,0.1727832920989868,-0.0076162930073407,-3.46656619284529e-05,-0.002751670544967,0.0115553522482514,-0.2210320383310318,-0.0039142621681094,-0.0003062719479203,0.4580863416194916,0.888899028301239,0.0246044469867643,-0.0401094795289738,-0.278485192862249,0.4802275896072387,-0.640975832939148,-4.925357341766357,131,37,18458,12655
17.6,1788444993973,6.0,4.676056385040283,-0.0038123717531561,-0.0013483687071129,0.6789034008979797,0.7342163920402527,0.1503036432045358,-0.0054984728759151,-0.0002193817694958,0.0120640937238931,0.0199273712933063,-0.3061366379261017,-0.0035458886995911,-0.001722733490169,0.450550377368927,0.8927423357963562,-0.0103891103542255,0.0815475964714634,-0.3466181013718582,1.1531639099121094,0.2948846817016601,1.1716279983520508,89,116,17410,13243
17.7,1788444994073,5.239436626434326,5.154929637908936,-0.003694215323776,-0.0023730597458779,0.6678206324577332,0.7443092465400696,0.1580955947428712,-0.0019598683502834,-0.0002195309062241,-0.0190433245152235,0.044962640851736,-0.3434579074382782,-0.0045436006039381,-0.0016284780576825,0.4360997378826141,0.8998854756355286,-0.0106652856335629,0.0061343663349596,-0.1828235367522609,-0.1226752400398254,0.2956604361534118,0.2306909561157226,89,116,17410,13243
17.8,1788444994173,5.239436626434326,5.154929637908936,-0.0044427057728171,-0.0032725555356591,0.6602351665496826,0.751038670539856,0.1797201318106901,0.0050845843192989,2.1422095674242457e-05,-0.0182703509926795,-0.0020402586087584,0.0167273301631212,-0.0053519355133175,-0.0026067364960908,0.4371342957019806,0.8993765711784363,-0.0275428020766518,-0.0133192636026986,0.1085604087645239,0.1714104413986206,0.0619648694992065,-0.3552236557006836,89,116,17410,13243
17.9,1788444994273,4.929577350616455,5.88732385635376,-0.0041985213756561,-0.0041101169772446,0.6620688438415527,0.7494199872016907,0.1699710227917943,0.0021137652412621,0.0001314740652186,-0.0150959501042962,-0.032721497118473,0.0993942394852638,-0.0045356312766671,-0.0033567575737833,0.4416995346546173,0.8971452713012695,0.0217948048694578,-0.014341671424774,0.066251069216018,0.1271485090255737,-0.2639239430427551,-0.7786712646484375,117,97,14524,13133
18.0,1788444994373,4.873239517211914,5.380281925201416,-0.0035086064599454,-0.0044461996294558,0.6652838587760925,0.7465689778327942,0.1659407675733035,0.0040533306804032,4.488210055090722e-05,0.0099824713543057,-0.0105791576206684,0.0638205260038375,-0.0045356312766671,-0.0033567575737833,0.4416995346546173,0.8971452713012695,0.0217948048694578,-0.014341671424774,0.066251069216018,0.1271485090255737,-0.2639239430427551,-0.7786712646484375,117,97,14524,13133
18.1,1788444994473,4.873239517211914,5.380281925201416,-0.0015349105233326,-0.0048470851033926,0.6679869890213013,0.7441555857658386,0.1645527134940372,0.0082845936389153,3.575021480718011e-05,0.0371356233954429,-0.0395675785839557,0.0803607851266861,-0.0045356312766671,-0.0033567575737833,0.4416995346546173,0.8971452713012695,0.0217948048694578,-0.014341671424774,0.066251069216018,0.1271485090255737,-0.2639239430427551,-0.7786712646484375,96,100,14906,14539
18.2,1788444994573,4.8450703620910645,4.929577350616455,-0.0023923723492771,-0.0037147782277315,0.6697452664375305,0.7425777316093445,0.1732735671410757,0.000897900893623,3.857072750051253e-06,-0.0049890708178281,0.0202077236026525,0.0167588628828525,-0.0036138594150543,-0.0031414311379194,0.4485294222831726,0.893755316734314,-0.0114636667575564,-0.0222146670044119,0.0351816668856624,-0.1300768256187439,0.0057743787765502,0.9785547256469728,67,135,14767,16292
18.3,1788444994673,5.380281925201416,5.154929637908936,-0.0026704762130975,-0.0043093268759548,0.6711181402206421,0.7413331866264343,0.1721478901621391,-0.0008659699000628,3.448369856876896e-05,-0.0153864361345767,-0.0194545052945613,0.0468461588025093,-0.0039541320875287,-0.0034744227305054,0.4491300284862518,0.8934508562088013,-0.006533719710615,0.0052285563904174,-0.0006733707376089,-0.0739920735359191,-0.3600465655326843,-0.0932378768920898,67,135,14767,16292
18.4,1788444994773,5.014084339141846,5.295774459838867,-0.0027114213444292,-0.0051936917006969,0.6715720891952515,0.7409161329269409,0.1724582725214243,0.0035408401227923,9.43446776496676e-05,-0.0164615232497453,-0.0261370819061994,0.0152529822662472,-0.0038721449673175,-0.0039857774972915,0.4499478638172149,0.8930375576019287,0.023575485905725,0.0180039165054786,0.0329331132201691,0.0409947037696838,-0.0604335069656372,-0.5857667922973633,132,146,14953,13798
18.5,1788444994873,4.788732528686523,4.647887229919434,-0.0023126672022044,-0.0041034813039004,0.6723133325576782,0.7402517199516296,0.1730306110575969,0.0015403991685851,1.0892463669913096e-05,0.0153820356354117,-0.0011159534333273,0.0106859607622027,-0.0026134131476283,-0.0028997249901294,0.4507075846195221,0.8926631212234497,0.0258240322695908,-0.0107148204110036,0.0068004199242872,-0.201941967010498,-0.1820626854896545,0.3795490264892578,132,146,14953,13798
18.6,1788444994973,5.154929637908936,5.014084339141846,-0.0015082382597029,-0.0010997561039403,0.6732948422431946,0.7393717765808105,0.1646376898174376,-0.0028848274272282,-0.0001608178147709,0.0511185117065906,0.0328262038528919,0.029192404821515,-0.001964071765542,-0.0006536394357681,0.4514645636081695,0.8922866582870483,0.106628853808817,0.1142027858494788,0.0569788323390952,0.4364235997200012,0.0496811866760253,-1.9111762046813965,62,87,15219,16121
18.7,1788444995073,5.126760482788086,5.267605781555176,-0.0023105624131858,-0.0028325014282017,0.6716910600662231,0.7408221960067749,0.1735647965670452,0.0010731882406761,-1.400393108068864e-05,-0.0171082150191068,0.0065991939045488,-0.0413228645920753,-0.0028793197125196,-0.0026471624150872,0.4502576291561126,0.8928900957107544,-0.0025893553998387,-0.0140592053543569,0.0385032415117529,-0.1793893575668335,0.2632617950439453,0.439432144165039,62,87,15219,16121
18.8,1788444995173,4.366197109222412,4.929577350616455,-0.002027767477557,-0.0035064471885561,0.672813355922699,0.7398011684417725,0.1615162765123605,-0.0023586066961316,2.7489437024223983e-05,-0.0051064318977296,-0.0080970879644155,0.044156078249216,-0.002971370704472,-0.0029658982530236,0.4513992667198181,0.8923121690750122,-0.0169137595444504,-0.0235650345794145,0.038473714152702,0.2040221691131591,0.2120780348777771,0.5522851943969727,67,125,13579,18617
18.9,1788444995273,4.901408672332764,5.126760482788086,-0.0019262909190729,-0.0038809683173894,0.6749251484870911,0.7378734350204468,0.1770501112966087,-0.0012106525100497,4.902113667452082e-05,-0.0072562573477625,-0.0149124702438712,0.1195964813232421,-0.0031104879453778,-0.0039896583184599,0.4578884541988373,0.888995349407196,-0.0088879089531173,-0.0108384212063076,0.1094773083466614,0.032879889011383,-0.1140145659446716,1.060991287231445,67,125,13579,18617
19.0,1788444995373,4.901408672332764,5.126760482788086,-0.0019262909190729,-0.0038809683173894,0.6749251484870911,0.7378734350204468,0.1770501112966087,-0.0012106525100497,4.902113667452082e-05,-0.0072562573477625,-0.0149124702438712,0.1195964813232421,-0.0026942994445562,-0.0040088696405291,0.4615920186042785,0.8870792388916016,0.0083289617835108,-0.0155151822122217,0.080729077760834,0.1338472366333007,0.0153896808624267,0.6610927581787109,67,125,13579,18617
19.1,1788444995473,4.8450703620910645,5.126760482788086,-0.0018851932836696,-0.0041982564143836,0.6823835968971252,0.7309798002243042,0.1715604615887939,0.0019727868608819,-3.910064249906404e-06,0.0033591077663004,0.008828810416162,0.0639565363526344,-0.0039747729897499,-0.0018322011455893,0.4631649851799011,0.8862612843513489,-0.0062379012506843,0.0988702580799119,0.0305337977946686,0.5212231874465942,0.0148765444755554,-0.8275356292724609,89,21,14768,15284
19.2,1788444995573,4.788732528686523,5.070422649383545,-0.003604584839195,-0.0025557805784046,0.6837985515594482,0.7296574115753174,0.176441739199826,0.0020880970722334,-5.757131145900031e-05,-0.0014125206507742,-0.0370208360254764,0.0513099022209644,-0.0039338190108537,-0.0020539090037345,0.4650161862373352,0.8852909803390503,-0.0134722460907781,-0.1075632200588304,0.0671781730855214,0.0859624147415161,-0.0021468997001647,-2.094407558441162,66,95,14717,15562
19.3,1788444995673,5.183098793029785,4.8450703620910645,-0.0033345920965075,-0.0030855145305395,0.6850898265838623,0.7284444570541382,0.1794002525660981,0.0011699571921272,0.0001539866579229,-0.0043574124574661,-0.0332332216203212,0.023837000131607,-0.0038164211437106,-0.0028433157131075,0.4661174416542053,0.8847101330757141,-0.0047953112830953,-0.0118567062294082,0.0050134883408144,-0.2838014960289001,0.0169404745101928,0.2850828170776367,66,95,14717,15562
19.4,1788444995773,5.070422649383545,4.788732528686523,-0.0035389414988458,-0.0030709889251738,0.6848960518836975,0.7286257743835449,0.1726139604525652,-0.0016630265345022,-8.868263904722862e-05,0.0009904159232974,0.0588445886969566,-0.0126622468233108,-0.0046355864033102,-0.0013633985072374,0.4655051529407501,0.8850319385528564,-0.0051463924042504,0.0790966591590241,-0.0177194897623493,-0.1018143892288208,-0.1174703240394592,-0.9725179672241212,68,130,15050,15700
19.5,1788444995873,4.873239517211914,4.619718074798584,-0.0052489386871457,-0.001500831451267,0.6847360134124756,0.7287707924842834,0.1778721875318508,0.001879180457665,-0.0002681778934902,-0.007092248648405,0.0963301584124565,-0.0085311336442828,-0.0060266340151429,0.000249445438385,0.4643990695476532,0.88560551404953,-0.0060652609978261,-0.0043326627388511,-0.045737083900216,-0.0305956006050109,0.097211480140686,-1.082768440246582,97,99,15471,12279
19.6,1788444995973,4.873239517211914,4.619718074798584,-0.0058293705806136,-0.0012280957307666,0.684302568435669,0.7291738986968994,0.1706068212934075,0.001252543276668,4.801996337602933e-07,-0.0053598573431372,0.0012713923351839,-0.0181839670985937,-0.0060823168605566,0.0002752309665083,0.4636093080043793,0.8860188722610474,-0.0017293493792928,0.0026575255815096,-0.0444185685316143,-0.0709938406944274,-0.0995401740074157,0.2670783996582031,97,99,15471,12279
19.7,1788444996073,5.323943614959717,5.295774459838867,-0.0045822276733815,-0.0014948826283216,0.6834917664527893,0.7299423813819885,0.1655808332834025,0.0021123824559147,8.980784735820888e-05,0.0359086021780967,-0.0403866544365882,-0.0063608386553823,-0.0060823168605566,0.0002752309665083,0.4636093080043793,0.8860188722610474,-0.0017293493792928,0.0026575255815096,-0.0444185685316143,-0.0709938406944274,-0.0995401740074157,0.2670783996582031,76,94,15086,12510
19.8,1788444996173,5.352112770080566,4.647887229919434,-0.0045822276733815,-0.0014948826283216,0.6834917664527893,0.7299423813819885,0.1655808332834025,0.0021123824559147,8.980784735820888e-05,0.0359086021780967,-0.0403866544365882,-0.0063608386553823,-0.0043502561748027,0.0023458879441022,0.4589402973651886,0.8884533047676086,0.0764411451217296,0.0835735921891673,-0.0891206676812369,0.4330407381057739,-0.091330349445343,0.9196691513061525,161,55,17206,12042
19.9,1788444996273,5.943662166595459,4.14084529876709,-0.0048966608010232,-0.0007306232582777,0.675666093826294,0.7371912002563477,0.1906780731773135,0.006678920050172,0.0001796107073064,-0.0835918635129928,-0.0970224142074585,-0.1899438351392746,-0.0047779334709048,0.0015278486534953,0.4560336172580719,0.8899484276771545,-0.0338645173232418,-0.0239586301555522,-0.1496983984468828,-0.2619563341140747,0.6676892042160034,0.0076055526733398,68,52,15715,14317
20.0,1788444996373,5.943662166595459,4.14084529876709,-0.0045997444540262,-0.0017530516488477,0.671129047870636,0.7413243055343628,0.173709911357739,-0.0030477568535182,7.775596022363437e-05,-0.0141415819525718,-0.0288761686533689,-0.1909050196409225,-0.0047779334709048,0.0015278486534953,0.4560336172580719,0.8899484276771545,-0.0338645173232418,-0.0239586301555522,-0.1496983984468828,-0.2619563341140747,0.6676892042160034,0.0076055526733398,68,52,15715,14317
20.1,1788444996473,5.436619758605957,4.563380241394043,-0.0036540215369313,-0.003638639813289,0.6628783345222473,0.7487093210220337,0.1589415413903093,-0.0045836127909141,2.8191327622633773e-05,0.0280167516320943,-0.0198859591037035,-0.1200101599097251,-0.0044968677684664,-0.0020074993371963,0.4376494884490967,0.899132251739502,0.0195057767500515,0.0462724681782717,-0.1181073911442901,0.5928588509559631,-0.3184794783592224,-0.0994882583618164,68,52,15715,14317
20.2,1788444996573,5.070422649383545,4.197183132171631,-0.0036824662238359,-0.0029178168624639,0.6570591926574707,0.7538244128227234,0.1607300760429321,-0.0070369410845051,-6.481971220168042e-05,0.0101368660107254,0.0049532642588019,-0.1596563011407852,-0.0042289467528462,-0.0014567431062459,0.4288662672042846,0.9033569693565368,0.0130884854927823,0.0312684515047901,-0.1415806486177218,-0.927059292793274,-0.4942476749420166,-0.2548751831054687,97,89,15535,13906
20.3,1788444996673,1.887323975563049,0.7042253613471985,-0.0036824662238359,-0.0029178168624639,0.6570591926574707,0.7538244128227234,0.1607300760429321,-0.0070369410845051,-6.481971220168042e-05,0.0101368660107254,0.0049532642588019,-0.1596563011407852,-0.0042622340843081,-0.0018637757748365,0.4219273626804352,0.9066176414489746,-0.0048477209900925,0.0138071528878749,-0.2217182877440681,-1.0244290828704834,-0.148777961730957,-0.3003005981445312,11,31,3979,0
20.4,1788444996773,0.0,-0.3098591566085815,-0.0036814685445278,-0.0027244230732321,0.6427892446517944,0.7660293579101562,0.0058967513627021,0.0029760991841313,4.200064424740161e-06,0.0004466920800041,0.0066222762688994,-0.1261575669050216,-0.0041018771007657,-0.0019256500527262,0.4119788408279419,0.9111822247505188,0.0016193082172875,-0.0123532561116294,-0.1334139820304844,1.1776065826416016,-0.2450301647186279,-0.1721172332763672,46,103,2760,-6153
20.5,1788444996873,0.0,-1.042253494262695,-0.0035950902383774,-0.0028253642376512,0.636551022529602,0.7712211012840271,-0.0030877384290075,-0.0013791370450504,2.533897598616489e-06,-0.0010014453437179,0.0065603256225585,-0.239642709493637,-0.0041018771007657,-0.0019256500527262,0.4119788408279419,0.9111822247505188,0.0016193082172875,-0.0123532561116294,-0.1334139820304844,1.1776065826416016,-0.2450301647186279,-0.1721172332763672,46,80,4183,-5302
20.6,1788444996973,0.9014084339141846,-0.7887324094772339,-0.0038252770900726,-0.0027836780063807,0.6268707513809204,0.7791089415550232,0.0013529627395393,0.0036704592119185,4.97624988529999e-06,-0.0030773498583585,0.0014709593961015,-0.2480745017528534,-0.0044582039117813,-0.0017096633091568,0.3940301537513733,0.9190850853919984,-0.0039158604856984,0.0010192535075238,-0.2507098849668573,0.079294204711914,0.0960713028907775,0.1493387222290039,46,80,4183,-5302
20.7,1788444997073,0.9295774698257446,-0.9014084339141846,-0.003897150279954,-0.0028489627875387,0.6223560571670532,0.7827193737030029,0.0011088410639762,0.0055232288201046,2.141093830983669e-06,-0.0040584146045148,0.000912454794161,-0.2452045083045959,-0.0046607693657279,-0.0017553679645061,0.3780354559421539,0.925777792930603,-0.003335855399343,0.0030881752953305,-0.2473383730936522,-0.0219736099243164,-0.0231871604919433,-0.012892723083496,90,146,3797,-5316
20.8,1788444997173,0.98591548204422,-0.8450704216957092,-0.003897150279954,-0.0028489627875387,0.6223560571670532,0.7827193737030029,0.0011088410639762,0.0055232288201046,2.141093830983669e-06,-0.0040584146045148,0.000912454794161,-0.2452045083045959,-0.0046834610402584,-0.0017726682126522,0.3710959851741791,0.9285810589790344,-8.959759286869305e-05,0.0010046301232128,-0.2516003908451384,-0.0354761481285095,-0.0064180493354797,-0.0164299011230468,126,88,4821,-3951
20.9,1788444997273,2.7042253017425537,1.5774648189544678,-0.0040586469694972,-0.0029564632568508,0.6013990640640259,0.7989329695701599,-0.0009072772623879,-0.0004940804186059,-1.951660834148769e-07,-0.000505439529661,0.0018715632613748,-0.2629282474517822,-0.0046902876347303,-0.0019091218709945,0.355031818151474,0.9348405599594116,0.0008990799777951,-0.0126136035268088,-0.2661402950246322,1.2681586742401123,0.4515676498413086,-0.188934326171875,163,141,10069,5688
21.0,1788444997373,2.7042253017425537,1.5774648189544678,-0.0040472499094903,-0.0029588593170046,0.5912293195724487,0.8064879179000854,0.0700192125691071,0.0041006745038548,1.0383560927911989e-05,0.0030459032859653,-0.0015843383735045,-0.2052755802869796,-0.0044903131201863,-0.0020611630752682,0.3537077605724334,0.9353430271148682,0.0054493437410614,-0.0084256376685655,-0.0580320499065432,0.6510276794433594,-0.0532253384590148,0.0794677734375,163,141,10069,5688
21.1,1788444997473,4.8450703620910645,6.3380279541015625,-0.0038114618510007,-0.003142864909023,0.5903906226158142,0.8071025609970093,0.152461400617872,-0.000268974582821,-4.527748321887459e-07,0.0,0.0,0.0,-0.0037520108744502,-0.0017644111067056,0.3576360940933227,0.9338518977165222,0.0267364881407662,-0.0369141084750341,0.1501528056334032,-0.2850385904312134,0.3396695852279663,-0.5614738464355469,56,95,13041,14170
21.2,1788444997573,4.8450703620910645,6.3380279541015625,-0.0029253670945763,-0.0030597224831581,0.5979911088943481,0.8014915585517883,0.1649454948456796,0.0051425066688067,4.814672825273333e-05,-0.0004510766011662,-0.011480982415378,0.1737289130687713,-0.0036440938711166,-0.0021237656474113,0.3625980317592621,0.9319361448287964,-0.0012393039803332,0.00776238822257,0.166925450035501,0.0449846982955932,0.1657040119171142,-1.377150535583496,56,95,13041,14170
21.3,1788444997673,4.535211086273193,5.380281925201416,-0.0022053278516978,-0.0041522989049553,0.6041721701622009,0.7968398928642273,0.1781452715725243,3.163250836827453e-05,7.24701707362299e-05,-0.0044290488585829,-0.0244937967509031,0.1591596454381942,-0.0033601373434066,-0.0033497828990221,0.3744266033172607,0.9272444248199464,-0.0018508455167137,0.0112097990185747,0.1497245059232776,0.3328523635864258,0.1017387509346008,-0.4339666366577148,100,154,13479,16813
21.4,1788444997773,4.591549396514893,5.380281925201416,-0.0025080433115363,-0.0037278700619935,0.6103014349937439,0.7921565771102905,0.1683161013070404,0.0032208928398331,-1.264712403216802e-05,0.0052892481908202,0.0190281886607408,0.1599787026643753,-0.0038643255829811,-0.0017088809981942,0.3820316791534424,0.9241396188735962,0.0021709188556136,0.034436042280285,0.1702352603510674,0.4236490726470947,-0.1920803189277649,1.7165918350219729,100,154,13479,16813
21.5,1788444997873,4.535211086273193,6.11267614364624,-0.0042164176702499,-0.0015588391106575,0.6163131594657898,0.7874882817268372,0.1719780051386066,0.00370030760101,-0.0002265099431787,-0.0027020557317882,0.0845187604427337,0.1608182340860366,-0.0038643255829811,-0.0017088809981942,0.3820316791534424,0.9241396188735962,0.0021709188556136,0.034436042280285,0.1702352603510674,0.4236490726470947,-0.1920803189277649,1.7165918350219729,80,137,13590,14324
21.6,1788444997973,4.478873252868652,5.915493011474609,-0.0020143922884017,-0.0043960520997643,0.620089590549469,0.7845160365104675,0.1760656167458691,-2.3986362015811863e-05,0.0004789486219143,-0.0006506059435196,-0.1109111830592155,0.1470949202775955,-0.0024884110316634,-0.0030703879892826,0.3937325477600097,0.9192165732383728,0.0409201631506711,0.0024502716831673,0.1805712427358023,-0.1389190554618835,-0.0529308319091796,-0.7352094650268555,110,44,13888,14866
21.7,1788444998073,5.014084339141846,4.901408672332764,-0.0011949538020417,-0.0037003606557846,0.6283987164497375,0.7778816819190979,0.1818307619595547,0.0024794494179214,6.825656515278542e-05,-0.0293289199471473,-0.0614642389118671,0.0924035906791687,-0.0018451623618602,-0.0026230793446302,0.3980802297592163,0.9173449873924256,-0.0231716790510007,-0.0637396841836735,0.0882390205455809,-0.0846873521804809,0.3056693077087402,0.1966152191162109,99,71,15066,16040
21.8,1788444998173,4.901408672332764,5.154929637908936,-0.0011156436521559,-0.0055173588916659,0.6297969222068787,0.7767393589019775,0.1743852005514977,-0.0015148278348502,0.0001016667993975,-0.0060560149140655,-0.0133608505129814,0.0497775934636592,-0.0024182088673114,-0.0052234642207622,0.4012947678565979,0.9159309267997742,0.0032219773020457,0.0116264062563881,0.0362812909957212,0.2440398335456848,-0.3310871720314026,-1.750288009643555,99,98,14711,13397
21.9,1788444998273,4.788732528686523,5.746479034423828,-0.0010549637954682,-0.0055635375902056,0.6307195425033569,0.7759901881217957,0.1606600247052099,0.0033403340245271,5.472578016095565e-05,0.00094919471303,-0.0033725518733263,0.0505608320236206,-0.0024182088673114,-0.0052234642207622,0.4012947678565979,0.9159309267997742,0.0032219773020457,0.0116264062563881,0.0362812909957212,0.2440398335456848,-0.3310871720314026,-1.750288009643555,135,59,15155,15997
22.0,1788444998373,4.788732528686523,5.746479034423828,-0.0008009080775082,-0.0052281860262155,0.632723867893219,0.7743594646453857,0.1794794473149093,-0.0015483069428365,-0.0001356809059379,0.0143567891791462,0.0260171126574277,0.0661827400326728,-0.0015687830746173,-0.0044494597241282,0.4074642658233642,0.9132090210914612,0.0214213886246108,-0.0079888128904927,0.1276512550693054,-0.1128640174865722,0.1312430500984192,-0.4073657989501953,74,146,13194,15501
22.1,1788444998473,4.788732528686523,5.746479034423828,0.0002818547654896,-0.0046820496208965,0.6373786926269531,0.770536482334137,0.1747496955507425,0.0049218831894342,3.292454802265358e-05,0.0341363996267318,-0.0199714452028274,0.1385340988636016,-0.0005924087017774,-0.0046646567061543,0.4096419215202331,0.912234365940094,0.0545081373194749,-0.0406146524637604,0.1600669512031123,0.0047915577888488,-0.3032046556472778,-0.3100767135620117,74,146,13194,15501
22.2,1788444998573,4.788732528686523,5.746479034423828,0.0005025840364396,-0.0053863897919654,0.6461625099182129,0.7631807327270508,0.1691113402022316,0.0011373013898714,7.277924792919785e-07,-0.0038545462302863,-0.0179865472018718,0.1717317998409271,-0.0009159129112958,-0.0057932203635573,0.4203256070613861,0.907354474067688,-0.0097721648305891,-0.0634157132552129,0.157143086616228,0.4111706018447876,0.1006007194519043,-1.184248924255371,74,146,13194,15501
22.3,1788444998673,4.8450703620910645,5.830986022949219,-0.0001253588125109,-0.00613718573004,0.6501144170761108,0.759811520576477,0.1784590687151124,0.002647918137894,-1.695323967046763e-05,-0.0169219207018613,0.0007249232148751,0.0812994912266731,-0.0018177963793277,-0.0057816272601485,0.4239283502101898,0.9056754112243652,-0.0156154209435385,0.0093852365423983,0.0702971356032676,-0.072535753250122,0.0213392376899719,-1.5462350845336914,116,79,14638,12624
22.4,1788444998773,5.042253494262695,4.732394218444824,-0.0006647200789302,-0.0044747786596417,0.652599573135376,0.7576894760131836,0.1693658791141676,-0.0047371753418765,-0.0001082683936826,0.0086708385497331,0.0451411940157413,0.0357787124812603,-0.0015110103413462,-0.0049164146184921,0.4262924492359161,0.9045707583427428,0.0629164417033144,0.0975924393277895,0.0879427357991391,0.4126244187355041,-0.1498817205429077,-0.0053968429565429,99,56,14516,15647
22.5,1788444998873,4.873239517211914,4.985915660858154,-0.0012985208304598,-0.0039547374472022,0.6541788578033447,0.7563284039497375,0.1698586557664912,-0.0019614736719883,-2.40609781931233e-05,-0.002424681559205,0.0235567353665828,0.0662468299269676,-0.0025764517486095,-0.0029437439516186,0.4293838441371918,0.903113603591919,-0.0014849315765841,0.0354306180680758,0.060857613424066,0.1375417709350586,-0.3254294395446777,-0.396489143371582,122,65,14604,16751
22.6,1788444998973,4.957746505737305,5.014084339141846,-0.0019800669979304,-0.0030826728325337,0.6560468673706055,0.7547112703323364,0.1716144235393542,-0.0021815951885127,-0.0001383082200392,0.0022917338646948,0.0240983460098505,0.0610873214900493,-0.0029264884069561,-0.0024212785065174,0.4314569532871246,0.9021254777908324,-0.0115211033917497,0.0088668768483754,0.0274952189552565,-0.0307524800300598,-0.0286450386047363,0.4126777648925781,122,65,14604,16751
22.7,1788444999073,4.647887229919434,5.154929637908936,-0.0019800669979304,-0.0030826728325337,0.6560468673706055,0.7547112703323364,0.1716144235393542,-0.0021815951885127,-0.0001383082200392,0.0022917338646948,0.0240983460098505,0.0610873214900493,-0.0039214687421917,-0.0016391165554523,0.4351227581501007,0.900361180305481,-0.0125684948403337,0.0306802489447809,0.1182539453514511,-1.7785524129867554,-0.1418023109436035,1.365492820739746,29,93,12104,13407
22.8,1788444999173,2.5352113246917725,3.577464818954468,-0.0029994633514434,-0.0028807162307202,0.6622002124786377,0.7493153810501099,0.0813947423943981,1.2769029037930264e-05,2.11747307006508e-05,0.0027876845560967,-0.0155537007376551,0.1684845834970474,-0.0036410707980394,-0.0020016832277178,0.4374499022960663,0.8992332816123962,0.0061489911458602,-0.0304241810909849,0.1710370531386011,-1.2944209575653076,0.1294639706611633,-0.4720144271850586,98,25,1662,5805
22.9,1788444999273,0.6760563254356384,0.0,-0.0028630695305764,-0.0030644268263131,0.6674641966819763,0.7446301579475403,0.0136112027707377,-0.0015632875385658,-1.8481933495227456e-06,-5.2519855671562254e-05,-0.0029980100225657,0.0951917320489883,-0.0035288268700242,-0.0022194823250174,0.4450508952140808,0.8954956531524658,0.0013499675501244,-0.0027385933266015,0.0431871895797117,0.1427004337310791,0.0095313191413879,0.3214588165283203,117,81,4146,-4474
23.0,1788444999373,0.8169013857841492,-0.98591548204422,-0.002857906743884,-0.0031106565147638,0.6659798622131348,0.7459578514099121,0.007101435104249,0.0010576126700962,-1.3861544212144985e-06,-0.0011537752579897,-0.0012282455572858,-0.082778014242649,-0.0034556556493043,-0.0023318845778703,0.4353474676609039,0.9002529382705688,0.0013683632500803,-0.0050817559643436,-0.2846462230197366,0.1733472943305969,0.1528134942054748,0.3166847229003906,86,84,4558,-5442
23.1,1788444999473,0.8169013857841492,-0.98591548204422,-0.0027739126235246,-0.0031227744184434,0.6519529223442078,0.7582479119300842,-0.0011215118689964,0.0029923895559558,9.352338179019755e-07,-0.0010274500818923,0.0021246024407446,-0.2636330723762512,-0.0034556556493043,-0.0023318845778703,0.4353474676609039,0.9002529382705688,0.0013683632500803,-0.0050817559643436,-0.2846462230197366,0.1733472943305969,0.1528134942054748,0.3166847229003906,86,84,4558,-5442
23.2,1788444999573,0.9014084339141846,-0.7605633735656738,-0.0028300599660724,-0.0029925564303994,0.6456734538078308,0.7636024951934814,-0.0010394268106288,0.0015988896782786,-3.841959512403923e-06,0.0011496488004922,0.0051867351867258,-0.2525318562984466,-0.0035483259707689,-0.0019694007933139,0.4094944298267364,0.912303626537323,0.0018206085253523,0.0065922058391211,-0.2639465856101875,-0.0315926671028137,-0.0401283502578735,0.1001043319702148,64,103,4219,-5945
23.3,1788444999673,0.8169013857841492,-0.7887324094772339,-0.0029312008991837,-0.0026694289408624,0.6316501498222351,0.7752434611320496,-0.0001277312034657,0.0034904687363322,-1.678067532716863e-06,0.0030859175603836,0.0048019844107329,-0.2515331506729126,-0.0035483259707689,-0.0019694007933139,0.4094944298267364,0.912303626537323,0.0018206085253523,0.0065922058391211,-0.2639465856101875,-0.0315926671028137,-0.0401283502578735,0.1001043319702148,78,92,4545,-5591
23.4,1788444999773,2.9577465057373047,1.4929577112197876,-0.0030985169578343,-0.0023782725911587,0.6201410889625549,0.784480631351471,0.0288698738344685,0.0017268155279832,-1.5164524102957906e-05,-0.0011986760655418,0.0114060565829277,-0.3475024402141571,-0.0036110933870077,-0.0013540955260396,0.3908364772796631,0.9204519987106324,0.0006042791288648,0.0237112227466011,-0.3356757792679193,0.9229912161827089,0.0150108933448791,0.2003154754638672,177,268,12952,9213
23.5,1788444999873,5.014084339141846,3.746478796005249,-0.0028917505405843,-0.0005534916417673,0.611650288105011,0.7911226749420166,0.1202599726927261,0.0035780541406624,-5.631886688811941e-05,0.0519013814628124,0.0504342354834079,-0.1534237712621688,-0.0026009613648056,0.0013193488121032,0.3773524463176727,0.92606520652771,0.0823146013784018,0.0941887162344565,-0.0973634122695042,1.5640504360198977,0.0165866613388061,-0.7382402420043945,249,248,19386,17502
23.6,1788444999973,5.830986022949219,5.295774459838867,-0.0036862969864159,-0.0015768882585689,0.6036551594734192,0.7972354292869568,0.1924395001972967,0.0003821448914345,0.0003112885543705,-0.0497134439647197,-0.024090476334095,-0.2114816606044769,-0.0034142499789595,-0.0011920919641852,0.3721275627613067,0.9281745553016664,-0.1002788440424894,-0.1140627275010796,-0.2191236343100026,0.4102898836135864,0.1711745858192443,2.206504821777344,12,75,13279,14833
23.7,1788445000073,4.985915660858154,4.478873252868652,-0.0036636709701269,-0.0016605472192168,0.6032106280326843,0.7975717782974243,0.177610796589107,-0.0072925428941339,1.8863841791026115e-05,-0.0013304587919265,-0.003258439945057,-0.0232447534799575,-0.0034142499789595,-0.0011920919641852,0.3721275627613067,0.9281745553016664,-0.1002788440424894,-0.1140627275010796,-0.2191236343100026,0.4102898836135864,0.1711745858192443,2.206504821777344,62,97,14738,15882
23.8,1788445000173,4.985915660858154,4.478873252868652,-0.0039084306918084,-0.0018480711150914,0.6028997898101807,0.7978051900863647,0.1758887135149741,-0.001809633867274,-3.9211122677973934e-05,-0.0108789103105664,0.014491113834083,-0.0103922765702009,-0.0053228819742798,0.0007754322141408,0.3672524392604828,0.9301058053970336,-0.0145962057358193,0.064235394701636,-0.0456280191760842,-0.9251047372817992,0.2712079286575317,3.475184440612793,62,97,14738,15882
23.9,1788445000273,4.619718074798584,5.154929637908936,-0.0042662336491048,-0.0020956336520612,0.6019601821899414,0.7985119223594666,0.1746239987938804,-0.0001168449560404,-0.0002064580968782,-0.0177915133535861,0.0009513794793747,-0.0482440814375877,-0.0047154547646641,-0.0007946863770484,0.3662673234939575,0.9304973483085632,0.0007875028522703,0.0701448150840931,-0.039948002816598,0.4325596690177917,-0.0494483113288879,-3.9207687377929688,62,97,14738,15882
24.0,1788445000373,4.2816901206970215,5.577464580535889,-0.0043333466164767,-0.0021818864624947,0.6044734120368958,0.796610414981842,0.1816798244454421,-0.0006086777986139,9.38370294464654e-05,-0.0002040586841758,-0.0028882699552923,0.1191092059016227,-0.0043657841160893,-0.0015199044719338,0.3828640282154083,0.9237931370735168,-0.0013185391257438,-0.0203362319899135,0.3592231295714278,-0.143306016921997,0.0077267885208129,-0.0848121643066406,66,48,11700,18320
24.1,1788445000473,3.9718310832977295,6.309859275817871,-0.0043333466164767,-0.0021818864624947,0.6044734120368958,0.796610414981842,0.1816798244454421,-0.0006086777986139,9.38370294464654e-05,-0.0002040586841758,-0.0028882699552923,0.1191092059016227,-0.0043657841160893,-0.0015199044719338,0.3828640282154083,0.9237931370735168,-0.0013185391257438,-0.0203362319899135,0.3592231295714278,-0.143306016921997,0.0077267885208129,-0.0848121643066406,66,48,11700,18320
24.2,1788445000573,3.9718310832977295,6.309859275817871,-0.0032824627123773,-0.0028724337462335,0.629817545413971,0.7767308950424194,0.1752703087143255,0.0038151656534577,-1.039994082497383e-05,-0.0018335242057219,-0.0031531536951661,0.1708727777004242,-0.0038121119141578,-0.0022250283509492,0.4009408354759216,0.9160933494567872,-0.0062245178768677,-0.0331659843670178,0.1315304963851214,-0.2302671074867248,-0.0609703063964843,-1.5651874542236328,66,48,11700,18320
24.3,1788445000673,4.647887229919434,5.183098793029785,-0.0032824627123773,-0.0028724337462335,0.629817545413971,0.7767308950424194,0.1752703087143255,0.0038151656534577,-1.039994082497383e-05,-0.0018335242057219,-0.0031531536951661,0.1708727777004242,-0.0040282076224684,-0.0022652326151728,0.4086474776268005,0.9126806259155272,0.0009983344468409,0.0175333475975322,0.1430404768994867,0.0114931464195251,0.442163348197937,1.7186222076416016,86,43,13499,15476
24.4,1788445000773,2.760563373565674,4.394366264343262,-0.0033189668320119,-0.0030469794292002,0.6386991143226624,0.7694433927536011,0.1701313126232591,0.0009372002368822,-4.206207420115383e-05,0.0034837287385016,0.0123055875301361,0.1473585963249206,-0.0022310297936201,-0.0025160098448395,0.4153343439102173,0.9096626043319702,0.0679577905174476,-0.0630850181259261,0.2228942468229752,-0.2094998955726623,0.3218615651130676,1.4052839279174805,59,61,11781,15650
24.5,1788445000873,0.0,1.5211267471313477,-0.0024513227399438,-0.0028846841305494,0.6486022472381592,0.7611181735992432,0.0865773710616136,-0.0049648206411059,1.8665834966900445e-05,-0.0026877184864133,0.0044815186411142,0.178342267870903,-0.0032024644315242,-0.0020441832020878,0.4252471029758453,0.9050694108009338,-0.0012014517255604,0.0176545872076827,0.2132730553240878,-1.2988312244415283,0.3910455703735351,0.0678300857543945,59,61,11781,15650
24.6,1788445000973,0.0,1.2957746982574463,-0.0028072095010429,-0.0027139743324369,0.6562472581863403,0.7545357942581177,0.0016455842650443,-0.0007794451925854,2.8931722402269144e-06,-0.0014401035150513,0.0029689578805118,0.2000420838594436,-0.0034441035240888,-0.0018045967444777,0.43228480219841,0.9017286896705629,0.002094483643061,0.0116912042740385,0.1169366170149827,-0.4494483470916748,-0.028231918811798,-0.0566673278808593,59,61,11781,15650
24.7,1788445001073,-0.98591548204422,0.3380281627178192,-0.0028072095010429,-0.0027139743324369,0.6562472581863403,0.7545357942581177,0.0016455842650443,-0.0007794451925854,2.8931722402269144e-06,-0.0014401035150513,0.0029689578805118,0.2000420838594436,-0.0034616077318787,-0.0019166935235261,0.4430431127548218,0.8964915871620178,-0.0001593514717619,0.0068551415811967,0.277891638141871,-0.1611867547035217,0.0377261638641357,-0.0542306900024414,128,214,-5079,6379
24.8,1788445001173,-1.0140844583511353,1.6338027715682983,-0.0028666476719081,-0.0029619366396218,0.6730952262878418,0.7395442724227905,0.0058061688422654,-0.0018242324198783,-2.7097292550012163e-06,-0.0041701947338879,-0.0037091267295181,0.257361501455307,-0.0035613719373941,-0.0021191583946347,0.4522391855716705,0.8918870687484741,-0.005606485840965,-0.0100660596576641,0.2660102924295447,0.8787117600440979,0.2407352328300476,-0.0718202590942382,5,204,0,10186
24.9,1788445001273,2.9577465057373047,3.8309860229492183,-0.0030606773216277,-0.0030677795875817,0.6831443309783936,0.730270504951477,0.0812516871348185,0.0021702591831462,1.758370465054408e-05,-0.0049945674836635,-0.0095235025510191,0.25120609998703,-0.0037787184119224,-0.0021530920639634,0.4644841253757477,0.8855707049369812,-0.0007638690546905,0.0016512021787482,0.140565732488608,0.8030547499656677,-0.3613346815109253,-0.7424421310424805,199,221,13851,13824
25.0,1788445001373,5.380281925201416,5.549295902252197,-0.0028046013321727,-0.0030100306030362,0.6859027743339539,0.7276816368103027,0.1572908463554052,0.0032971536176734,-1.0115528516341196e-05,0.0006758549134247,0.002835962222889,0.0292774122208356,-0.0032525407150387,-0.0023854468017816,0.4664773643016815,0.8845239877700806,0.0118780198417109,0.0095984961646719,-0.0449081396535097,0.5660859942436218,0.0908010005950927,-0.5721368789672852,155,135,17830,13621
25.1,1788445001473,5.380281925201416,5.549295902252197,-0.002359248464927,-0.0034770488273352,0.6840064525604248,0.7294638752937317,0.1832422630435664,0.0035316991466714,2.864486402463978e-05,-0.0045631853863596,-0.0188332684338092,-0.0511637963354587,-0.003257199190557,-0.002734750509262,0.4645673036575317,0.8855276107788086,-0.0156180770839703,-0.0343168241631688,-0.0446768055224679,0.2532868981361389,-0.3050089478492737,0.4119834899902344,155,135,17830,13621
25.2,1788445001573,5.549295902252197,4.957746505737305,-0.0020630282815545,-0.0039954120293259,0.6791104674339294,0.734022319316864,0.1705590738131364,0.0013147664847428,-0.0001642895535384,0.0175544526427984,0.0204537473618984,-0.1578568369150161,-0.0028627887368202,-0.0028604362159967,0.4566439092159271,0.8896403908729553,0.0188468226411856,-0.0186954321607138,-0.1566970539085287,0.0053083300590515,0.1857650876045227,1.0745735168457031,77,81,16302,11230
25.3,1788445001673,5.323943614959717,4.422535419464111,-0.001800668076612,-0.0021352800540626,0.6761701107025146,0.7367402911186218,0.1624482211056578,0.0008793953078027,-9.333130218667896e-05,0.0603294000029563,0.0501110106706619,-0.1665196716785431,-0.0029659029096364,-0.0020412690937519,0.4497319757938385,0.8931562900543213,-0.0652147236918574,-0.0234873282653807,-0.1809333090410676,0.5213179588317871,0.3263654112815857,0.8925333023071289,101,113,15354,15711
25.4,1788445001773,5.211267471313477,5.521126747131348,-0.0016032140702009,-0.0037469295784831,0.6687967777252197,0.7434340119361877,0.1707024867823724,-0.0036919506946806,2.919481346164382e-05,1.117781903303694e-05,-0.0263714473694562,-0.0808195173740387,-0.0029659029096364,-0.0020412690937519,0.4497319757938385,0.8931562900543213,-0.0652147236918574,-0.0234873282653807,-0.1809333090410676,0.5213179588317871,0.3263654112815857,0.8925333023071289,101,113,15354,15711
25.5,1788445001873,5.070422649383545,4.535211086273193,-0.0014649723889306,-0.0039047538302838,0.6682751178741455,0.7439025044441223,0.1636255074302345,0.0014922246288553,2.382198665664725e-05,-0.0001651557977311,-0.0085928421467542,-0.0291106775403022,-0.0022813491523265,-0.0033463314175605,0.445146232843399,0.8954487442970276,0.0066624038780198,-0.0128880908915306,-0.0265206585279825,-0.0750119090080261,-0.3249647617340088,1.9148616790771484,122,132,15563,15485
25.6,1788445001973,5.239436626434326,4.8450703620910645,-0.000888334121555,-0.0038783794734627,0.6671802401542664,0.7448857426643372,0.17242203177675,-0.0006232409792441,5.169096337654557e-06,0.0078109609894454,-0.010895662009716,-0.0541477277874946,-0.0026556942611932,-0.0027698427438735,0.4425249099731445,0.8967480659484863,-0.0154881602540777,0.047865423712258,-0.0578531339225062,-0.2970806360244751,-0.2299737930297851,1.882563591003418,96,24,15145,14605
25.7,1788445002073,5.070422649383545,4.816901206970215,-0.001749359536916,-0.0032466412521898,0.6656816005706787,0.7462267875671387,0.1700855029128907,-0.0040745153429821,-4.265448443025409e-05,0.0089033106341958,0.0143919037654995,-0.022221615538001,-0.003044556826353,-0.0024657780304551,0.4409216344356537,0.897537112236023,-0.0180788607206743,-0.0104879782218759,-0.0342671264183942,0.110006034374237,-0.0324122309684753,0.6714887619018555,67,44,14585,15476
25.8,1788445002173,4.985915660858154,4.619718074798584,-0.0027194581925868,-0.0029594278894364,0.6641511917114258,0.7475875020027161,0.178111275720128,-0.0004105934307216,-3.181292541179022e-05,-0.0081063853576779,0.0101577136665582,-0.0188790187239646,-0.0034166947007179,-0.0024783127009868,0.4402002096176147,0.8978897333145142,0.0022464374792775,-0.0436186780723729,-0.0017393157355749,-0.1157691478729248,-0.0292902588844299,-0.2519702911376953,101,114,15039,16378
25.9,1788445002273,4.901408672332764,4.2253522872924805,-0.0027194581925868,-0.0029594278894364,0.6641511917114258,0.7475875020027161,0.1696834089184275,-2.0762136255327264e-05,-2.7298445059674765e-06,0.0,-4.894421756773681e-09,0.0,-0.0035652108490467,-0.0023013483732938,0.4401589334011078,0.8979098796844482,-0.0138948630979929,-0.0118922698443349,-0.0005583503742972,0.3240222334861755,0.1158521175384521,0.5610065460205078,84,131,14868,13778
26.0,1788445002373,4.816901206970215,4.02816915512085,-0.0049049914814531,-0.0011256242869421,0.6629036068916321,0.7486878633499146,0.164681267742144,0.0019033061902653,-0.000252280452367,-0.0102247856557369,0.1372150033712387,-0.0589471273124218,-0.0043383510783314,0.0004390040412545,0.4374053478240967,0.8992539048194885,0.0498728339840631,-0.0736078782707514,-0.1127749344457551,-1.6998318433761597,0.2356831431388855,0.9108896255493164,58,25,13311,7532
26.1,1788445002473,6.02816915512085,1.8591549396514893,-0.0043075652793049,-0.0018457854166626,0.6477064490318298,0.7618756294250488,0.1201769499558726,-0.0052836006391074,-0.000147591609256,0.0029996875673532,0.0327783487737178,-0.5694398283958435,-0.004831239581108,3.0047260224819183e-05,0.4060100018978119,0.9138559103012084,-0.0059639147467107,0.0126962979025176,-0.7725467855064853,0.7774463295936584,-0.1337282061576843,0.1151971817016601,238,95,21690,6436
26.2,1788445002573,8.676055908203125,1.4929577112197876,-0.0043635899201035,-0.001859585638158,0.6140499711036682,0.7892530560493469,0.1660174111122477,-0.0058264167038487,0.0001144712430786,0.0001292076194658,-0.0051289978437125,-0.9709987044334412,-0.0044616600498557,-0.0014115991070866,0.3886559009552002,0.9213711619377136,-0.0088152749182863,-0.0662878345252071,-0.903732043351978,0.6900931596755981,-0.6421797275543213,-1.7477083206176758,135,119,24580,6562
26.3,1788445002673,8.535211563110352,1.6901408433914185,-0.0040784198790788,-0.0015902161831036,0.5741594433784485,0.8187317848205566,0.1817036313381799,-0.0081725397105672,-3.608102378591593e-05,0.0106817474588751,-0.0009654387249611,-1.0275222063064575,-0.0026544136926531,0.0028257239609956,0.3030361533164978,0.9529712200164796,0.1301715988061764,0.175948523864989,-0.9404266800362516,0.2918485403060913,-0.033582866191864,-0.1310901641845703,93,30,22857,6152
26.4,1788445002773,8.394366264343262,1.5492957830429075,-0.0035979836247861,-0.0013141348026692,0.5282426476478577,0.8490848541259766,0.1771467605794934,-0.0101110352890747,-0.0002745679232655,-0.0290947817265987,-0.0315436944365501,-0.9815248250961304,-0.0026544136926531,0.0028257239609956,0.3030361533164978,0.9529712200164796,0.1301715988061764,0.175948523864989,-0.9404266800362516,0.2918485403060913,-0.033582866191864,-0.1310901641845703,93,35,23618,5967
26.5,1788445002873,8.028168678283691,1.887323975563049,-0.0037751295603811,-0.0020964087452739,0.4858418405056,0.8740361332893372,0.1688627879022302,-0.0117660912450061,6.736614878666806e-05,-0.0023219466675072,0.0065217507071793,-1.0167179107666016,-0.0050172638148069,-0.0018889550119638,0.2147202342748642,0.9766609072685242,-0.0379436562820763,-0.0018059429085391,-1.0165044776039982,-0.0906963944435119,-0.1478121876716613,-2.287269592285156,34,150,21847,9058
26.6,1788445002973,8.112675666809082,1.94366192817688,-0.0045174011029303,-0.0033182117622345,0.4446142017841339,0.8957046270370483,0.1781600385769105,-0.0025930702275177,4.26292969504446e-05,0.0039959009736776,0.0281598046422004,-0.9036853313446044,-0.0051492564380168,-0.0028139650821685,0.1958301961421966,0.9806203246116638,-0.0154570907708164,-0.0366842391514274,-0.9087249238083216,-0.0660955309867858,-0.5419908165931702,-2.884994983673096,34,150,21847,9058
26.7,1788445003073,7.267605781555176,2.901408433914185,-0.0044552027247846,-0.0043056616559624,0.4035912454128265,0.9149183630943298,0.1782557750511826,-0.004175805484667,6.976984847278014e-05,-0.0134928300976753,-0.0223717130720615,-0.8460997343063354,-0.0051492564380168,-0.0028139650821685,0.1958301961421966,0.9806203246116638,-0.0154570907708164,-0.0366842391514274,-0.9087249238083216,-0.0660955309867858,-0.5419908165931702,-2.884994983673096,74,105,19891,9770
26.8,1788445003173,7.211267471313477,2.985915422439575,-0.0043066702783107,-0.0043921591714024,0.3747922778129577,0.9270883798599244,0.1826849280308077,-0.0036290515237147,8.74114096810906e-05,-0.0014213743852451,-0.0151871489360928,-0.6317248940467834,-0.0053337570279836,-0.0036319522187113,0.1083455458283424,0.9940924048423768,-0.0111025255449155,-0.027559534924401,-0.6142776119842833,0.0577206015586853,-0.1959502696990966,0.0030441284179687,74,105,19891,9770
26.9,1788445003273,7.070422649383545,3.126760482788086,-0.0037347511388361,-0.0047442088834941,0.3453427255153656,0.938457190990448,0.1804253424555961,-0.004852606027363,4.108574931389535e-05,0.0096332989633083,-0.0007757947896607,-0.6609023213386536,-0.0046088024973869,-0.0040877750143408,0.0687418431043624,0.9976155161857604,0.0079698124241767,-0.0103394951432405,-0.6702368494611722,-0.2256150245666504,-0.1050139665603637,1.114837646484375,25,106,17466,11936
27.0,1788445003373,7.070422649383545,3.126760482788086,-0.0028461995534598,-0.0054958974942564,0.3197847902774811,0.9474700689315796,0.1794332661030986,-0.0030475330460415,5.9347697102914286e-05,0.0144835263490676,-0.0063004083931446,-0.4614800214767456,-0.0045024948194622,-0.004742500372231,0.0576395355165004,0.9983160495758056,0.0011968592321944,-0.0282977726339817,-0.519454107521442,-0.1060442328453064,-0.0081985592842102,0.6125898361206055,17,151,14920,15277
27.1,1788445003473,1.8591549396514893,6.760563373565674,-0.0021355743519961,-0.005448980256915,0.3189549148082733,0.947751760482788,0.1754276940031265,0.0033983254940986,2.478505177377168e-06,0.0290025286376476,-0.0075789587572216,-0.0372889228165149,-0.0033612912520766,-0.0048763146623969,0.0718598812818527,0.9973971843719482,-0.01027122692727,0.0063412915278894,0.5948785986417743,-0.1669785380363464,0.186598539352417,-0.3297367095947265,26,140,5112,21469
27.2,1788445003573,0.9295774698257446,8.676055908203125,-0.0025941785424947,-0.0051967753097414,0.350535899400711,0.9365313053131104,0.1533697671546561,-0.0017368016269169,-8.953413477868313e-05,-0.0247190352529287,0.0301135592162609,0.8173881769180298,-0.0042556961998343,-0.0038570873439311,0.1241942346096038,0.9922413229942322,0.0019265526681268,-0.0033770075606271,1.1187195477889165,0.100842535495758,-0.2966231107711792,-1.263636589050293,63,61,4934,20217
27.3,1788445003673,0.0,7.323943614959717,-0.0028572585433721,-0.0050179525278508,0.4009769260883331,0.9160698652267456,0.1653104738021132,-0.0025790933442951,8.334641108775009e-05,0.0100357737392187,-0.0216803047806024,1.1486847400665283,-0.0038522044196724,-0.0038103368133306,0.1828140914440155,0.9831326007843018,0.0188668172223601,-0.0122975429326443,1.145940450283512,-0.2026931643486023,-0.0664239525794982,-0.1513881683349609,164,130,7104,18671
27.4,1788445003773,1.7183098793029783,8.338027954101562,-0.002167610451579,-0.0048832800239324,0.4660692811012268,0.8847321271896362,0.1474497140852007,-0.0029693384523892,5.322676563259816e-05,0.011652854271233,-0.0117150321602821,0.9164670705795288,-0.0033339262008666,-0.0034840358421206,0.234472393989563,0.9721108675003052,0.0118309677559319,0.0230359678230444,0.8137437089175604,-0.4393407702445984,0.3174871206283569,0.5753564834594727,129,85,6891,21606
27.5,1788445003873,1.8028168678283687,8.197182655334473,-0.0027009239420294,-0.003973389044404,0.5015755891799927,0.8651005029678345,0.1819872885400974,0.0051971513617196,-2.1129706595873314e-05,-0.006949957460165,0.0169950891286134,0.8806324005126953,-0.0033339262008666,-0.0034840358421206,0.234472393989563,0.9721108675003052,0.0118309677559319,0.0230359678230444,0.8137437089175604,-0.4393407702445984,0.3174871206283569,0.5753564834594727,39,83,5581,18212
27.6,1788445003973,1.3521126508712769,6.3380279541015625,-0.0032579796388745,-0.0024881847202777,0.5446149110794067,0.8386762738227844,0.163323062833722,0.0002568726891119,-5.936911894062448e-05,0.0149928098544478,0.0327791608870029,0.9164039492607116,-0.0037324428558349,-0.0013531045988202,0.3080273866653442,0.9513691663742064,0.0162685489019335,0.0328978697320068,0.8337534502757825,-0.0222445130348205,-0.0813716053962707,0.1610088348388672,170,39,7016,14705
27.7,1788445004073,1.4929577112197876,6.507042407989502,-0.0032360875047743,-0.0006562635535374,0.5741869807243347,0.8187174797058105,0.1336024672755908,-0.0024438701759142,-8.841801507550591e-05,0.0192192234098911,0.0423674769699573,0.6538766622543335,-0.0032936418429017,0.0006542904302477,0.3402370512485504,0.9403337240219116,0.01298805555562,0.0417536087075808,0.5521891999683345,0.1543168425559997,0.013287603855133,-1.031052589416504,197,66,7565,14150
27.8,1788445004173,2.7042253017425537,7.436619758605957,-0.0032360875047743,-0.0006562635535374,0.5741869807243347,0.8187174797058105,0.1336024672755908,-0.0024438701759142,-8.841801507550591e-05,0.0192192234098911,0.0423674769699573,0.6538766622543335,-0.0033206157386302,0.0010409746319055,0.3574419915676117,0.933928906917572,-0.0056041983070485,0.0312074281710211,0.6109213200030811,0.9328904151916504,0.49103444814682,-0.839543342590332,59,68,8304,23333
27.9,1788445004273,1.436619758605957,4.816901206970215,-0.0050963563844561,-0.0002992840018123,0.6126085519790649,0.7903699278831482,0.1984447819635114,0.0080273516449972,-7.075867455949793e-05,-0.0574550069868564,0.0470956936478614,0.7619470357894897,-0.0035400232300162,-0.0019415039569139,0.4203207790851593,0.9073665738105774,0.0002305260183966,-0.0142814635928068,0.7010480272993495,-0.7520657777786255,-0.081055998802185,-1.4312734603881836,12,20,2894,11810
28.0,1788445004373,1.436619758605957,4.816901206970215,-0.0029769074171781,-0.0030005606822669,0.6563414931297302,0.7544520497322083,0.1128682709242625,0.000494195275411,5.265805871648781e-06,-0.0065796980634331,-0.0078334165737032,0.5662913918495178,-0.0040183458477258,-0.001967404037714,0.4457378983497619,0.8951523303985596,-0.0107936630053757,-0.0047243551452287,0.4556420741488947,0.0048502087593078,0.0268309116363525,1.1942729949951172,12,20,2894,11810
28.1,1788445004473,0.6197183132171631,3.633802890777588,-0.0032005643006414,-0.0029567859601229,0.6653205156326294,0.746545135974884,0.0807714466925568,-0.0024701220860286,-1.626510230341353e-05,-0.0056904158554971,0.0053889546543359,0.4984051883220672,-0.004114388488233,-0.0021669035777449,0.4556024968624115,0.8901711702346802,-0.007304652633675,-0.0075399796037758,0.4546449383707296,0.3067721724510193,0.1273766756057739,1.1663446426391602,61,106,3322,13313
28.2,1788445004573,0.8169013857841492,3.94366192817688,-0.0033607350196689,-0.0033618812449276,0.6908601522445679,0.7229728102684021,0.092358277983705,0.0058145064528975,2.2829129291189054e-05,-0.0024414306972175,-0.0044265398755669,0.5097564458847046,-0.004344374872744,-0.0021310076117515,0.4864317774772644,0.8737052083015442,0.0075001522917637,-0.0019488048979496,0.3947846772580215,-1.3287135362625122,-0.3318573236465454,-0.3391246795654297,92,68,3347,13156
28.3,1788445004673,0.8169013857841492,3.94366192817688,-0.0035348371602594,-0.0032256455160677,0.7056644558906555,0.708530068397522,0.0340854949617978,-0.0032674299550119,2.5079477968749786e-06,0.0049407724291086,-0.0040579098276793,0.3686979115009308,-0.0043605314567685,-0.001989004202187,0.4968486726284027,0.8678240180015564,0.0004305673094944,0.0023425573871327,0.1711973169469301,-0.1062031388282775,-0.0048248171806335,0.2349061965942382,92,68,3347,13156
28.4,1788445004773,0.0,1.774647831916809,-0.0035606580786406,-0.0032120977994054,0.7142828702926636,0.6998406648635864,0.0285172193620843,0.0021865433885395,1.9064745276940536e-06,-0.0002459959068801,-0.0051197684369981,0.2308358252048492,-0.0042459536343812,-0.00223358720541,0.5041779279708862,0.8635865449905396,-0.0014000029317203,-0.0118636704917444,0.3338927502547107,0.6224895715713501,0.2930576801300049,-0.0485448837280273,245,306,6877,14284
28.5,1788445004873,1.2676056623458862,4.929577350616455,-0.0028874527197331,-0.0034283632412552,0.7308523654937744,0.6825209259986877,0.1145379872390497,0.0082335566490996,2.9545913745709856e-05,0.0093593783676624,-0.0218892395496368,0.5287843942642212,-0.003277382813394,-0.0024667400866746,0.5289338827133179,0.8486530780792236,0.0298734014910927,-0.0151974927466485,0.5679004488172953,-0.2176648378372192,-0.1817107796669006,0.6848382949829102,91,45,8301,16332
28.6,1788445004973,1.94366192817688,4.816901206970215,-0.0016966606490314,-0.0028192729223519,0.7479236125946045,0.6637766361236572,0.1338287847864132,0.0034072239390477,1.5255488144469555e-05,0.027605352923274,-0.0162723325192928,0.527258574962616,-0.0028878152370452,-0.0022896081209182,0.5379374623298645,0.8429766893386841,0.021374147314968,-0.0051975536646991,0.5329781006118918,0.1537249088287353,0.160186231136322,-0.6460666656494141,92,70,7334,15808
28.7,1788445005073,1.97183096408844,4.450704097747803,0.0002007536822929,-0.0032778279855847,0.7632496953010559,0.646095335483551,0.1158922489470918,0.0045316589966602,-1.884088695470896e-05,0.0028449106030166,-0.0168193001300096,0.44559246301651,-0.0013455329462885,-0.0029946193099021,0.5739192962646484,0.8189052939414978,-0.0112674135322582,-0.0083618792110667,0.3874141538862422,0.1664826273918151,0.1482424139976501,-0.4305324554443359,63,175,7045,16596
