time_s,timestamp_ms,wheel_vels__velocity_left,wheel_vels__velocity_right,odom__orient_x,odom__orient_y,odom__orient_z,odom__orient_w,odom__lin_x,odom__lin_y,odom__lin_z,odom__ang_x,odom__ang_y,odom__ang_z,imu__orient_x,imu__orient_y,imu__orient_z,imu__orient_w,imu__angvel_x,imu__angvel_y,imu__angvel_z,imu__acc_x,imu__acc_y,imu__acc_z,wheel_status__current_ma_left,wheel_status__current_ma_right,wheel_status__pwm_left,wheel_status__pwm_right
0.0,1788344033077,0.0,0.0,-0.0050728786736726,0.0002969313063658,-0.2544369399547577,0.967076063156128,0.0,0.0,0.0,0.0,0.0,0.0,-0.0030744522809982,-0.0042380178347229,0.678296685218811,0.7347694635391235,0.0003465969101452,0.0012092403531705,0.0003790749785584,0.0055543780326843,0.0147637724876403,-0.0046329498291015,0,0,0,0
0.1,1788344033177,0.0,0.0,-0.0050728786736726,0.0002969313063658,-0.2544369399547577,0.967076063156128,0.0,0.0,0.0,0.0,0.0,0.0,-0.0030744522809982,-0.0042380178347229,0.678296685218811,0.7347694635391235,0.0003465969101452,0.0012092403531705,0.0003790749785584,0.0055543780326843,0.0147637724876403,-0.0046329498291015,0,0,0,0
0.2,1788344033277,0.0,0.0,-0.0050728786736726,0.0002969313063658,-0.2544369399547577,0.967076063156128,0.0,0.0,0.0,0.0,0.0,0.0,-0.0030744522809982,-0.0042380178347229,0.678296685218811,0.7347694635391235,0.0003465969101452,0.0012092403531705,0.0003790749785584,0.0055543780326843,0.0147637724876403,-0.0046329498291015,0,0,0,0
0.3,1788344033377,0.0,0.0,-0.0050728786736726,0.0002969313063658,-0.2544369399547577,0.967076063156128,0.0,0.0,0.0,0.0,0.0,0.0,-0.0030744522809982,-0.0042380178347229,0.678296685218811,0.7347694635391235,0.0003465969101452,0.0012092403531705,0.0003790749785584,0.0055543780326843,0.0147637724876403,-0.0046329498291015,0,0,0,0
0.4,1788344033477,0.0,0.0,-0.0050728786736726,0.0002969313063658,-0.2544369399547577,0.967076063156128,0.0,0.0,0.0,0.0,0.0,0.0,-0.0030744522809982,-0.0042380178347229,0.678296685218811,0.7347694635391235,0.0003465969101452,0.0012092403531705,0.0003790749785584,0.0055543780326843,0.0147637724876403,-0.0046329498291015,0,0,0,0
0.5,1788344033577,0.0,0.0,-0.0050728786736726,0.0002969313063658,-0.2544369399547577,0.967076063156128,0.0,0.0,0.0,0.0,0.0,0.0,-0.0030744522809982,-0.0042380178347229,0.678296685218811,0.7347694635391235,0.0003465969101452,0.0012092403531705,0.0003790749785584,0.0055543780326843,0.0147637724876403,-0.0046329498291015,0,0,0,0
0.6,1788344033677,0.0,0.0,-0.0050728786736726,0.0002969313063658,-0.2544369399547577,0.967076063156128,0.0,0.0,0.0,0.0,0.0,0.0,-0.0030744522809982,-0.0042380178347229,0.678296685218811,0.7347694635391235,0.0003465969101452,0.0012092403531705,0.0003790749785584,0.0055543780326843,0.0147637724876403,-0.0046329498291015,0,0,0,0
0.7,1788344033777,0.0,0.0,-0.0050728786736726,0.0002969313063658,-0.2544369399547577,0.967076063156128,0.0,0.0,0.0,0.0,0.0,0.0,-0.0030744522809982,-0.0042380178347229,0.678296685218811,0.7347694635391235,0.0003465969101452,0.0012092403531705,0.0003790749785584,0.0055543780326843,0.0147637724876403,-0.0046329498291015,0,0,0,0
0.8,1788344033877,0.0,0.0,-0.0050728786736726,0.0002969313063658,-0.2544369399547577,0.967076063156128,0.0,0.0,0.0,0.0,0.0,0.0,-0.0030744522809982,-0.0042380178347229,0.678296685218811,0.7347694635391235,0.0003465969101452,0.0012092403531705,0.0003790749785584,0.0055543780326843,0.0147637724876403,-0.0046329498291015,0,0,0,0
0.9,1788344033977,0.0,0.0,-0.0050728786736726,0.0002969313063658,-0.2544369399547577,0.967076063156128,0.0,0.0,0.0,0.0,0.0,0.0,-0.0030744522809982,-0.0042380178347229,0.678296685218811,0.7347694635391235,0.0003465969101452,0.0012092403531705,0.0003790749785584,0.0055543780326843,0.0147637724876403,-0.0046329498291015,0,0,0,0
1.0,1788344034077,0.0,0.0,-0.0050728786736726,0.0002969313063658,-0.2544369399547577,0.967076063156128,0.0,0.0,0.0,0.0,0.0,0.0,-0.0030744522809982,-0.0042380178347229,0.678296685218811,0.7347694635391235,0.0003465969101452,0.0012092403531705,0.0003790749785584,0.0055543780326843,0.0147637724876403,-0.0046329498291015,0,0,0,0
1.1,1788344034177,0.0,0.0,-0.0050728786736726,0.0002969313063658,-0.2544369399547577,0.967076063156128,0.0,0.0,0.0,0.0,0.0,0.0,-0.0030744522809982,-0.0042380178347229,0.678296685218811,0.7347694635391235,0.0003465969101452,0.0012092403531705,0.0003790749785584,0.0055543780326843,0.0147637724876403,-0.0046329498291015,0,0,0,0
1.2,1788344034277,0.0,0.0,-0.0050728786736726,0.0002969313063658,-0.2544369399547577,0.967076063156128,0.0,0.0,0.0,0.0,0.0,0.0,-0.0030744522809982,-0.0042380178347229,0.678296685218811,0.7347694635391235,0.0003465969101452,0.0012092403531705,0.0003790749785584,0.0055543780326843,0.0147637724876403,-0.0046329498291015,0,0,0,0
1.3,1788344034377,0.0,0.0,-0.0050728786736726,0.0002969313063658,-0.2544369399547577,0.967076063156128,0.0,0.0,0.0,0.0,0.0,0.0,-0.0030744522809982,-0.0042380178347229,0.678296685218811,0.7347694635391235,0.0003465969101452,0.0012092403531705,0.0003790749785584,0.0055543780326843,0.0147637724876403,-0.0046329498291015,0,0,0,0
1.4,1788344034477,0.0,0.0,-0.0050728786736726,0.0002969313063658,-0.2544369399547577,0.967076063156128,0.0,0.0,0.0,0.0,0.0,0.0,-0.0030744522809982,-0.0042380178347229,0.678296685218811,0.7347694635391235,0.0003465969101452,0.0012092403531705,0.0003790749785584,0.0055543780326843,0.0147637724876403,-0.0046329498291015,0,0,0,0
1.5,1788344034577,0.0,0.0,-0.0050728786736726,0.0002969313063658,-0.2544369399547577,0.967076063156128,0.0,0.0,0.0,0.0,0.0,0.0,-0.0030744522809982,-0.0042380178347229,0.678296685218811,0.7347694635391235,0.0003465969101452,0.0012092403531705,0.0003790749785584,0.0055543780326843,0.0147637724876403,-0.0046329498291015,0,0,0,0
1.6,1788344034677,0.0,0.0,-0.0050728786736726,0.0002969313063658,-0.2544369399547577,0.967076063156128,0.0,0.0,0.0,0.0,0.0,0.0,-0.0030744522809982,-0.0042380178347229,0.678296685218811,0.7347694635391235,0.0003465969101452,0.0012092403531705,0.0003790749785584,0.0055543780326843,0.0147637724876403,-0.0046329498291015,0,0,0,0
1.7,1788344034777,0.0,0.0,-0.0050728786736726,0.0002969313063658,-0.2544369399547577,0.967076063156128,0.0,0.0,0.0,0.0,0.0,0.0,-0.0030744522809982,-0.0042380178347229,0.678296685218811,0.7347694635391235,0.0003465969101452,0.0012092403531705,0.0003790749785584,0.0055543780326843,0.0147637724876403,-0.0046329498291015,0,0,0,0
1.8,1788344034877,0.0,0.0,-0.0050728786736726,0.0002969313063658,-0.2544369399547577,0.967076063156128,0.0,0.0,0.0,0.0,0.0,0.0,-0.0030744522809982,-0.0042380178347229,0.678296685218811,0.7347694635391235,0.0003465969101452,0.0012092403531705,0.0003790749785584,0.0055543780326843,0.0147637724876403,-0.0046329498291015,0,0,0,0
1.9,1788344034977,0.0,0.0,-0.0050728786736726,0.0002969313063658,-0.2544369399547577,0.967076063156128,0.0,0.0,0.0,0.0,0.0,0.0,-0.0030744522809982,-0.0042380178347229,0.678296685218811,0.7347694635391235,0.0003465969101452,0.0012092403531705,0.0003790749785584,0.0055543780326843,0.0147637724876403,-0.0046329498291015,0,0,0,0
2.0,1788344035077,0.0,0.0,-0.0050728786736726,0.0002969313063658,-0.2544369399547577,0.967076063156128,0.0,0.0,0.0,0.0,0.0,0.0,-0.0030744522809982,-0.0042380178347229,0.678296685218811,0.7347694635391235,0.0003465969101452,0.0012092403531705,0.0003790749785584,0.0055543780326843,0.0147637724876403,-0.0046329498291015,0,0,0,0
2.1,1788344035177,0.0,0.0,-0.0050728786736726,0.0002969313063658,-0.2544369399547577,0.967076063156128,0.0,0.0,0.0,0.0,0.0,0.0,-0.0030744522809982,-0.0042380178347229,0.678296685218811,0.7347694635391235,0.0003465969101452,0.0012092403531705,0.0003790749785584,0.0055543780326843,0.0147637724876403,-0.0046329498291015,0,0,0,0
2.2,1788344035277,0.0,0.0,-0.0050728786736726,0.0002969313063658,-0.2544369399547577,0.967076063156128,0.0,0.0,0.0,0.0,0.0,0.0,-0.0030744522809982,-0.0042380178347229,0.678296685218811,0.7347694635391235,0.0003465969101452,0.0012092403531705,0.0003790749785584,0.0055543780326843,0.0147637724876403,-0.0046329498291015,0,0,0,0
2.3,1788344035377,0.0,0.0,-0.0050728786736726,0.0002969313063658,-0.2544369399547577,0.967076063156128,0.0,0.0,0.0,0.0,0.0,0.0,-0.0030744522809982,-0.0042380178347229,0.678296685218811,0.7347694635391235,0.0003465969101452,0.0012092403531705,0.0003790749785584,0.0055543780326843,0.0147637724876403,-0.0046329498291015,0,0,0,0
2.4,1788344035477,0.0,0.0,-0.0050728786736726,0.0002969313063658,-0.2544369399547577,0.967076063156128,0.0,0.0,0.0,0.0,0.0,0.0,-0.0030744522809982,-0.0042380178347229,0.678296685218811,0.7347694635391235,0.0003465969101452,0.0012092403531705,0.0003790749785584,0.0055543780326843,0.0147637724876403,-0.0046329498291015,0,0,0,0
2.5,1788344035577,0.0,0.0,-0.0050728786736726,0.0002969313063658,-0.2544369399547577,0.967076063156128,0.0,0.0,0.0,0.0,0.0,0.0,-0.0030744522809982,-0.0042380178347229,0.678296685218811,0.7347694635391235,0.0003465969101452,0.0012092403531705,0.0003790749785584,0.0055543780326843,0.0147637724876403,-0.0046329498291015,0,0,0,0
2.6,1788344035677,0.0,0.0,-0.0050728786736726,0.0002969313063658,-0.2544369399547577,0.967076063156128,0.0,0.0,0.0,0.0,0.0,0.0,-0.0030744522809982,-0.0042380178347229,0.678296685218811,0.7347694635391235,0.0003465969101452,0.0012092403531705,0.0003790749785584,0.0055543780326843,0.0147637724876403,-0.0046329498291015,0,0,0,0
2.7,1788344035777,0.0,0.0,-0.0050728786736726,0.0002969313063658,-0.2544369399547577,0.967076063156128,0.0,0.0,0.0,0.0,0.0,0.0,-0.0030744522809982,-0.0042380178347229,0.678296685218811,0.7347694635391235,0.0003465969101452,0.0012092403531705,0.0003790749785584,0.0055543780326843,0.0147637724876403,-0.0046329498291015,0,0,0,0
2.8,1788344035877,0.0,0.0,-0.0050728786736726,0.0002969313063658,-0.2544369399547577,0.967076063156128,0.0,0.0,0.0,0.0,0.0,0.0,-0.0030744522809982,-0.0042380178347229,0.678296685218811,0.7347694635391235,0.0003465969101452,0.0012092403531705,0.0003790749785584,0.0055543780326843,0.0147637724876403,-0.0046329498291015,0,0,0,0
2.9,1788344035977,0.0,0.0,-0.0050728786736726,0.0002969313063658,-0.2544369399547577,0.967076063156128,0.0,0.0,0.0,0.0,0.0,0.0,-0.0030744522809982,-0.0042380178347229,0.678296685218811,0.7347694635391235,0.0003465969101452,0.0012092403531705,0.0003790749785584,0.0055543780326843,0.0147637724876403,-0.0046329498291015,0,0,0,0
3.0,1788344036077,0.0,0.0,-0.0050728786736726,0.0002969313063658,-0.2544369399547577,0.967076063156128,0.0,0.0,0.0,0.0,0.0,0.0,-0.0030744522809982,-0.0042380178347229,0.678296685218811,0.7347694635391235,0.0003465969101452,0.0012092403531705,0.0003790749785584,0.0055543780326843,0.0147637724876403,-0.0046329498291015,0,0,0,0
3.1,1788344036177,0.0,0.0,-0.0050728786736726,0.0002969313063658,-0.2544369399547577,0.967076063156128,0.0,0.0,0.0,0.0,0.0,0.0,-0.0030764350667595,-0.0042391484603285,0.6782875061035156,0.7347779870033264,-0.0004302038841737,0.0011549615914304,-0.000409085052415,-0.0016381740570068,-0.0049938559532165,0.0060653686523437,0,0,0,0
3.2,1788344036277,0.0,0.0,-0.0050728786736726,0.0002969313063658,-0.2544369399547577,0.967076063156128,0.0,0.0,0.0,0.0,0.0,0.0,-0.0030768038704991,-0.0042615421116352,0.6782985329627991,0.734767735004425,0.0012170224349888,9.186288286419532e-05,-0.0005318906477405,-0.0127416849136352,-0.0136881470680236,0.0078382492065429,0,0,0,0
3.3,1788344036377,0.0,0.0,-0.0050728786736726,0.0002969313063658,-0.2544369399547577,0.967076063156128,0.0,0.0,0.0,0.0,0.0,0.0,-0.0030598128214478,-0.0042964704334735,0.6783063411712646,0.7347603440284729,-0.0004020766417963,-0.0008554050390683,0.0001898987178498,-0.011697769165039,-0.0422678589820861,0.0221080780029296,0,0,0,0
3.4,1788344036477,0.0,0.0,-0.0050728786736726,0.0002969313063658,-0.2544369399547577,0.967076063156128,0.0,0.0,0.0,0.0,0.0,0.0,-0.0030610123649239,-0.0043084220960736,0.6782885789871216,0.7347766757011414,-0.0014221089242475,-0.0016685881884768,-0.0010682792432467,0.0061451196670532,-0.0114446282386779,-0.0100574493408203,0,0,0,0
3.5,1788344036577,0.0,0.0,-0.0050728786736726,0.0002969313063658,-0.2544369399547577,0.967076063156128,0.0,0.0,0.0,0.0,0.0,0.0,-0.003028561361134,-0.0043053831905126,0.6783064007759094,0.7347603440284729,0.0007731890469883,-0.0012468779561192,0.0012529788721132,-0.0140102505683898,-0.0084047317504882,-0.0010852813720703,0,0,0,0
3.6,1788344036677,0.0,0.0,-0.0050728786736726,0.0002969313063658,-0.2544369399547577,0.967076063156128,0.0,0.0,0.0,0.0,0.0,0.0,-0.0030228411778807,-0.0043060677126049,0.6783056855201721,0.7347609400749207,0.0006929657356762,-0.0013333779175219,0.0010682337846217,-0.0105465650558471,0.0111348032951354,0.0331325531005859,0,0,0,0
3.7,1788344036777,0.0,0.0,-0.0050728786736726,0.0002969313063658,-0.2544369399547577,0.967076063156128,0.0,0.0,0.0,0.0,0.0,0.0,-0.0029929289594292,-0.0042727934196591,0.6783236861228943,0.7347447276115417,0.0015497234474889,0.0006869321387936,0.0006002642935822,-0.0050287842750549,0.0067852735519409,0.0007963180541992,0,0,0,0
3.8,1788344036877,0.0,0.0,-0.0052038608118891,0.000227028504014,-0.2544053196907043,0.9670836925506592,0.0,0.0,0.0,-1.305748287272479e-09,0.0,0.0,-0.0029930351302027,-0.0042514344677329,0.6783427596092224,0.7347272634506226,0.0006564893311163,0.0009150194812748,0.0003409436475307,-0.0028960108757019,-0.0186002850532531,-0.0136604309082031,0,0,0,0
3.9,1788344036977,0.0,0.0,-0.0052038608118891,0.000227028504014,-0.2544053196907043,0.9670836925506592,0.0,0.0,0.0,0.0,0.0,0.0,-0.0029845628887414,-0.0042380047962069,0.6783565878868103,0.7347146272659302,-0.000546335747985,-0.000441000643482,-1.984136072251747e-06,-0.0136200189590454,-0.0333897471427917,0.0132160186767578,0,0,0,0
4.0,1788344037077,0.0,0.0,-0.0051715956069529,0.0002580735599622,-0.2543501555919647,0.9670982956886292,0.0001433588159163,-0.0001665686536372,-2.880811966596455e-07,0.0006760535179637,0.0010976324556395,0.0016553701134398,-0.0030182162299752,-0.0042216451838612,0.6783584356307983,0.7347127795219421,-0.0013449675975135,0.0007629428379181,-0.0003371952948819,-0.0128808617591857,0.0191079378128051,-0.0242834091186523,0,0,0,0
4.1,1788344037177,0.0,0.0,-0.0051715956069529,0.0002580735599622,-0.2543501555919647,0.9670982956886292,0.0,0.0,0.0,0.0,0.0,0.0,-0.0030000321567058,-0.0042431764304637,0.6783479452133179,0.7347224354743958,-4.453514746842083e-06,0.001337549372952,-0.000528924011046,-0.0098657011985778,-0.0096937417984008,-0.0046262741088867,0,0,0,0
4.2,1788344037277,0.0,0.0,-0.0051715956069529,0.0002580735599622,-0.2543501555919647,0.9670982956886292,0.0,0.0,0.0,0.0,0.0,0.0,-0.0029606921598315,-0.0042156372219324,0.6783364415168762,0.7347334027290344,0.0008253742905602,9.206906580178304e-05,-0.0010014731023989,-0.0063944458961486,-0.0016512870788574,-0.0063858032226562,0,0,0,0
4.3,1788344037377,0.0,0.0,-0.0051310835406184,0.0002591526135802,-0.2543604671955108,0.9670958518981934,-3.1015384524667336e-05,3.5914209434820136e-05,-1.549100285428675e-06,0.0012914394028484,0.0003785784938372,-0.000351288676029,-0.0029605105519294,-0.0041770590469241,0.6783601641654968,0.7347117066383362,0.0017705951059222,-0.0002595812538474,0.0001807839819856,-0.0220014452934265,-0.0039928555488586,-0.0010232925415039,0,0,0,0
4.4,1788344037477,0.0,0.0,-0.0050926292315125,0.0002008256269618,-0.2543506920337677,0.9670986533164978,3.210883553560421e-05,-3.735363002828036e-05,-4.4246222602098633e-07,0.0008690922404639,-0.001029482926242,0.0003576823219191,-0.002914784476161,-0.0041760159656405,0.678374171257019,0.734699010848999,0.0014157479127485,-0.0015031796484564,0.0007174301516473,-0.0189891457557678,-0.0100420713424682,-0.0064258575439453,0,0,0,0
4.5,1788344037577,0.0,0.0,-0.0050944946706295,0.0001704688183963,-0.2543341815471649,0.9671029448509216,-5.377755365587992e-06,6.278160841847803e-06,7.415141789848447e-08,-0.0001800873578758,-0.0013198279775679,-7.068898412398994e-05,-0.0029032947495579,-0.0041848747059702,0.6783722043037415,0.7347007393836975,-0.0001993504105647,0.0011053771828659,-0.0007931801018331,-0.0031025409698486,0.0024661421775817,-0.0045499801635742,0,0,0,0
4.6,1788344037677,0.0,0.0,-0.005061550065875,0.0001874412409961,-0.254356324672699,0.9670973420143129,-1.4191147192257516e-05,1.640673101626641e-05,1.9310753872042654e-07,3.261769234086387e-05,-0.0007132446626201,-0.000170722749317,-0.0028647342696785,-0.0041625704616308,0.6783574819564819,0.7347145676612854,0.0010752873214775,-8.021031642593899e-05,-0.0007135716486791,0.0002556443214416,-0.0093149542808532,0.0313367843627929,0,0,0,0
4.7,1788344037777,0.0,0.0,-0.005042471922934,0.0001831126864999,-0.2543785274028778,0.9670916199684144,-8.042474500543466e-05,9.336544871674696e-05,1.100934957931028e-06,0.000784027215559,3.131748962914571e-05,-0.0009213885641656,-0.0028900234028697,-0.0041509550064802,0.6783555746078491,0.7347164154052734,-0.0007102729858586,0.0004512102363812,0.0005376861511831,-0.0135917067527771,0.0052877068519592,0.024200439453125,0,0,0,0
4.8,1788344037877,0.0,0.0,-0.005041167140007,0.0001817883457988,-0.2543533146381378,0.9670982360839844,-1.1425004111596271e-05,1.3406869372521176e-05,1.575726535881395e-07,0.0004868928808718,-0.0001669722259975,-0.000130135245854,-0.0028733219951391,-0.004152207635343,0.6783700585365295,0.7347031235694885,-4.662075095883416e-05,0.0008497967532346,0.0004902973005525,-0.012006402015686,-0.0218193531036376,0.0079374313354492,0,0,0,0
4.9,1788344037977,0.0,0.0,-0.0050413482822477,0.000219861511141,-0.254326581954956,0.9671051502227784,2.0899337779168088e-05,-2.438283676886588e-05,-2.861079746300143e-07,0.0003460152656771,0.0004417563613969,0.0002468365128152,-0.0029382789507508,-0.0041172401979565,0.67836993932724,0.7347031235694885,-0.0010704922578498,0.0022444175450458,-0.0016039069552669,0.0091509222984313,0.0164213180541992,-0.0062417984008789,0,0,0,0
5.0,1788344038077,0.0,0.0,-0.0050398651510477,0.0002535589737817,-0.2543411552906036,0.9671013355255128,3.23011706073818e-05,-3.780282563501874e-05,-4.413524217606153e-07,0.0006716322968713,-0.0001835348957683,0.0003642519586719,-0.0029244199395179,-0.004112709313631,0.6783838272094727,0.7346903681755066,2.656004597500309e-06,-7.957213217449564e-05,0.0008890445116143,-0.0161162018775939,0.0161272883415222,0.00091552734375,0,0,0,0
5.1,1788344038177,0.0,0.0,-0.0050305505283176,0.0002644944470375,-0.2543377578258514,0.9671022891998292,-1.2095608956626732e-06,1.628960462863078e-06,1.8631731521145843e-08,0.0003580221091397,0.0018992848927155,6.040037078491878e-06,-0.0029200911521911,-0.0040858192369341,0.6783820986747742,0.7346920967102051,0.0011773499796893,-0.0004711138442051,-0.0005913928988635,-0.0121710896492004,-0.0075958371162414,-0.0117397308349609,0,0,0,0
5.2,1788344038277,0.0,0.0,-0.0049857352860271,0.0002806680859066,-0.2543435096740722,0.9671010375022888,-4.495579364911098e-05,5.20881343391837e-05,6.049251178894979e-07,0.0009547857916913,0.0006857130792923,-0.0005111982463859,-0.0029374659061431,-0.0040630875155329,0.6783822178840637,0.7346920967102051,-0.0014205539235399,0.0002749451355214,0.0008908186280392,-0.0080232620239257,-0.032823622226715,-0.0046443939208984,0,0,0,0
5.3,1788344038377,0.0,0.0,-0.0050158975645899,0.0002883304841816,-0.2543141841888428,0.96710866689682,5.757495093614806e-05,-6.672784661813435e-05,-7.701754683622232e-07,-0.000382094818633,-0.0001778993173502,0.0006639336352236,-0.002894515171647,-0.0040822122246026,0.6783822774887085,0.7346920371055603,0.0015258266039188,-0.0029505537327855,-0.0010266531238056,-0.0124714374542236,0.0098865032196044,0.0027132034301757,0,0,0,0
5.4,1788344038477,0.0,0.0,-0.0049891723319888,0.0002192863030359,-0.2543364465236664,0.9671029448509216,3.8985113501868215e-06,-4.631292458778742e-06,-5.326656954468335e-08,0.0002468783641234,-0.0012430147035047,3.153627767460421e-05,-0.0028496896848082,-0.0041032955050468,0.6783726215362549,0.7347010970115662,0.000356778062932,-0.0022155780163186,-0.0005445519230993,-0.0079622268676757,-0.004784882068634,-0.0134973526000976,0,0,0,0
5.5,1788344038577,0.0,0.0,-0.0049969688989222,0.0001962834503501,-0.2543458342552185,0.9671003818511964,1.6009753744757956e-05,-1.8825259289053265e-05,-2.185492594555905e-07,-0.0005385003169067,0.0008280992624349,0.0001830126857385,-0.0028744535520672,-0.0040960172191262,0.6783627867698669,0.734710156917572,0.0010617103485762,0.0015235461284083,-0.0003436691160998,-0.0129193067550659,-0.0278919339179992,-0.0082015991210937,0,0,0,0
5.6,1788344038677,0.0,0.0,-0.0049747405573725,0.0002321567153558,-0.2543802261352539,0.96709144115448,-6.179933656836322e-05,7.159309330325003e-05,8.296808733079501e-07,0.0003513663832563,0.0007761263987049,-0.0007068284903652,-0.0028708120808005,-0.0040372153744101,0.6783433556556702,0.7347283959388733,0.0021529301244102,0.000463711860803,0.0001848551729243,0.002224326133728,0.0053174495697021,0.0116987228393554,0,0,0,0
5.7,1788344038777,0.0,0.0,-0.0049826009199023,0.0002440814860165,-0.2543880641460418,0.9670893549919128,-3.571748670432004e-05,4.142863290764426e-05,4.779065512703787e-07,-0.0005321789067238,0.000478603906231,-0.0004030691925436,-0.0028686271980404,-0.0040578981861472,0.6783498525619507,0.7347222566604614,-0.0011611361927504,-0.001563739018567,0.0008305527077223,-0.0250512957572937,-0.023195743560791,0.0169410705566406,0,0,0,0
5.8,1788344038877,0.0,0.0,-0.0049826009199023,0.0002440814860165,-0.2543880641460418,0.9670893549919128,-3.571748670432004e-05,4.142863290764426e-05,4.779065512703787e-07,-0.0005321789067238,0.000478603906231,-0.0004030691925436,-0.0028686271980404,-0.0040578981861472,0.6783498525619507,0.7347222566604614,-0.0011611361927504,-0.001563739018567,0.0008305527077223,-0.0250512957572937,-0.023195743560791,0.0169410705566406,0,0,0,0
5.9,1788344038977,0.0,0.0,-0.0049517205916345,0.0002461879048496,-0.2543700039386749,0.9670943021774292,-1.564869575512776e-05,1.821329405792314e-05,2.0894497118589445e-07,-0.0006988757522776,0.0013301422586664,-0.0001678407134022,-0.0029074475169181,-0.0039975149556994,0.6783453226089478,0.7347265481948853,0.0003735477403713,0.0021770478748072,-0.0004637635416462,-0.0164172649383544,-0.0124958157539367,-0.0225172042846679,0,0,0,0
6.0,1788344039077,0.0,0.0,-0.0049168956466019,0.000309154507704,-0.254391610622406,0.9670886993408204,-3.213754421589152e-05,3.706742758923998e-05,4.2143133260573846e-07,0.0004221967537887,0.0003917107533197,-0.0003704302362166,-0.0028881784528493,-0.0039675422012805,0.6783277988433838,0.7347429990768433,0.0009918270923723,-0.000894341319294,-0.0005016650302887,0.0034977793693542,0.0029300451278686,-0.0062618255615234,0,0,0,0
6.1,1788344039177,0.0,0.0,-0.0049074091948568,0.000289958261419,-0.2543831169605255,0.9670910239219666,4.907161024000822e-05,-5.7051583556329215e-05,-6.430194013444162e-07,-7.294389797607437e-05,-0.0007000536425039,0.0005571356741711,-0.0028521725907921,-0.0039676083251833,0.6783456206321716,0.7347267270088196,0.0010600667987722,-0.0013142878561589,-0.0001851342131477,-0.0131452083587646,-0.0083662271499633,-0.0045270919799804,0,0,0,0
6.2,1788344039277,0.0,0.0,-0.0048851664178073,0.0002883091801777,-0.2543615400791168,0.9670968055725098,8.316817853008082e-05,-9.659196028546096e-05,-1.086001956106237e-06,3.011442822753452e-05,-0.0003538336313795,0.0009503865730948,-0.0028826678171753,-0.0039557283744215,0.6783586740493774,0.7347146272659302,-3.0486756985317426e-06,0.0016187781182351,0.0005130722754492,-0.0161382555961608,0.0027486681938171,-0.0170545578002929,0,0,0,0
6.3,1788344039377,0.0,0.0,-0.0049056624993681,0.0002907530870288,-0.2543683648109436,0.967094898223877,1.2187470202145464e-05,-1.4340649738872065e-05,-1.6118264362130994e-07,-0.0003819623088929,-0.0006859088316559,0.000130084430566,-0.0028933044523,-0.0039848731830716,0.6783501505851746,0.734722375869751,-0.0007156750553743,0.0001073171043414,-0.0003559044876147,0.0051005482673645,0.0139713287353515,0.0099706649780273,0,0,0,0
6.4,1788344039477,0.0,0.0,-0.0049265287816524,0.0002996921539306,-0.2543743252754211,0.9670932292938232,1.2629982743281366e-05,-1.4551167814082997e-05,-1.6523651697864985e-07,0.0004537185304798,-0.0004922861116938,0.0001410325348842,-0.0029281163588166,-0.0039555616676807,0.6783382892608643,0.7347332239151001,-0.0001834049451804,0.0013362060602002,-0.000169444242384,0.0005774497985839,-0.0290784835815429,0.0277633666992187,0,0,0,0
6.5,1788344039577,0.0,0.0,-0.0049135177396237,0.0003675397019833,-0.2543864846229553,0.9670901298522948,2.1351239338695597e-05,-2.4903858582953647e-05,-2.801849425641251e-07,-0.000610624498222,0.0013104182435199,0.0002569053031038,-0.0028975065797567,-0.0039461180567741,0.6783562302589417,0.7347168922424316,0.0003571207535341,-0.0035963832999758,0.0005478901334861,-0.0086454153060913,-0.0079936981201171,0.0044927597045898,0,0,0,0
6.6,1788344039677,0.0,0.0,-0.0048829596489667,0.0003251833841204,-0.2543908059597015,0.9670891165733336,-6.472306803483746e-05,7.507096988503708e-05,8.365418285520044e-07,0.0002465320285409,-0.001921163755469,-0.0007631180342286,-0.0029121087864041,-0.0039227530360221,0.6783345937728882,0.7347369194030762,0.0004884610750229,0.0015947878338032,-0.0008293991764862,0.0152246356010437,-0.0045207738876342,0.009927749633789,0,0,0,0
6.7,1788344039777,0.0,0.0,-0.004867052193731,0.000373005925212,-0.2543976902961731,0.96708744764328,1.5702798751486668e-05,-1.8273737709636585e-05,-2.039244872444843e-07,0.0008718646131455,0.0008069128962233,0.0001890888379421,-0.0029420545324683,-0.0039118640124797,0.6783357858657837,0.7347356677055359,-0.0008977828982214,-7.354129320279475e-05,0.0003567844422404,0.0211609005928039,0.001147449016571,0.0135583877563476,0,0,0,0
6.8,1788344039877,0.0,0.0,-0.0048654088750481,0.000406221661251,-0.2543829083442688,0.9670913219451904,4.282440010163988e-05,-4.986337220380508e-05,-5.573161764021131e-07,0.000247067422606,0.0015460418071597,0.0005045431898906,-0.0029490562155842,-0.0038803145289421,0.6783425807952881,0.7347295880317688,0.0010130570356703,-0.0004093356414255,-0.0003369436146316,0.0127243995666503,-0.027900218963623,0.0134382247924804,0,0,0,0
6.9,1788344039977,0.0,0.0,-0.0048715746961534,0.0004020383930765,-0.2543975710868835,0.96708744764328,-3.597016107001285e-05,4.178490426336893e-05,4.627501711136335e-07,-0.000156090944074,-0.0001468393165851,-0.0004139399970881,-0.0029391767457127,-0.0039087561890482,0.6783380508422852,0.7347337603569031,-0.0001864168018918,-0.0006088115864487,0.0002246821403296,0.0121998190879821,-0.0329618453979492,-0.0063295364379882,0,0,0,0
7.0,1788344040077,0.0,0.0,-0.0048807631246745,0.0003865222097374,-0.254401832818985,0.9670862555503844,-4.5357759011133946e-05,5.2689112764954495e-05,5.866603259309843e-07,-0.000312179676257,0.0004320545995142,-0.0005188665236346,-0.0029645422473549,-0.0038953274488449,0.6783235669136047,0.7347469329833984,8.519044436740358e-05,0.0006516345296188,0.0001020326677392,0.0073103904724121,-0.0651656985282898,0.0133161544799804,0,0,0,0
7.1,1788344040177,0.0,0.0,-0.0048964861780405,0.0003985803923569,-0.2544008791446686,0.9670864343643188,2.830541348015396e-05,-3.3050142549536794e-05,-3.6683762179301524e-07,-0.00064599129837,-0.0003632082080002,0.0003190790594089,-0.0029701478779315,-0.0039412379264831,0.6783372163772583,0.7347341179847717,-0.0008445570595215,-0.0004061394075232,0.0005023649134744,-0.0040432810783386,-0.0105359554290771,0.0027618408203125,0,0,0,0
7.2,1788344040277,0.0,1.2394366264343262,-0.0048749335110187,0.0003786244196817,-0.254386156797409,0.9670904278755188,-1.5046495544046525e-05,1.7307340358635778e-05,1.9414852744271038e-07,0.0013313599629327,0.0002033950877375,-0.000173268126673,-0.0029108710587024,-0.0039735240861773,0.678346574306488,0.7347255945205688,-0.0015545528655137,-0.0047393850655972,0.0005153811830185,0.8799663782119751,0.1662150621414184,-0.0163335800170898,262,236,11316,10475
7.3,1788344040377,2.5352113246917725,4.14084529876709,-0.0051817260682582,7.090589497238398e-05,-0.2505829334259033,0.96808123588562,0.0681546963422893,0.0066605925007719,4.5316217923305335e-05,-0.0076613198034465,-0.0129504865035414,0.1568858921527862,-0.0030715018510818,-0.0041108317673206,0.6842301487922668,0.7292481064796448,4.7859705242393705e-06,0.0239326963507527,0.2800897396583883,0.7876142263412476,-0.1543132066726684,-0.0877504348754882,304,221,13869,16291
7.4,1788344040477,3.91549301147461,7.098591327667236,-0.0052762939594686,0.0004880049382336,-0.2368930876255035,0.9715213179588318,0.1423552774183102,0.0028558261014677,-1.2767209395175656e-05,-0.0040958668105304,0.0022778697311878,0.2928873598575592,-0.0033679557964205,-0.0040923813357949,0.6953843832015991,0.7186185121536255,-0.0010889979356491,0.0080171586207714,0.3606803360974858,0.407241940498352,0.1532801389694214,-0.0546827316284179,222,154,15604,16054
7.5,1788344040577,3.633802890777588,5.85915470123291,-0.0051823430694639,0.0006008865311741,-0.2188678532838821,0.9757405519485474,0.1821639542393797,0.006378349131418,-1.6926469650867524e-06,0.0021103008184581,-0.0031652261968702,0.4336904287338257,-0.0034268284216523,-0.0041906032711267,0.7134461998939514,0.7006891965866089,-0.0075579349280578,0.0034085838618479,0.4233885200615064,-0.0670161843299865,-0.1149067878723144,0.2525815963745117,240,54,15688,18091
7.6,1788344040677,3.94366192817688,5.915493011474609,-0.0053691966459155,0.0006241907249204,-0.208439752459526,0.9780202507972716,0.1686095181977671,0.0096970569152898,1.665539990990153e-05,-0.0071536297909915,-0.0028937039896845,0.4198440611362457,-0.0032040430232882,-0.0042496901005506,0.7161892056465149,0.6978859305381775,0.0098782366827064,-0.0190701317222048,0.3368871321549558,0.1632189750671386,0.2644911408424377,0.04962158203125,238,34,14878,17708
7.7,1788344040777,3.94366192817688,5.915493011474609,-0.0053691966459155,0.0006241907249204,-0.208439752459526,0.9780202507972716,0.1686095181977671,0.0096970569152898,1.665539990990153e-05,-0.0071536297909915,-0.0028937039896845,0.4198440611362457,-0.0032040430232882,-0.0042496901005506,0.7161892056465149,0.6978859305381775,0.0098782366827064,-0.0190701317222048,0.3368871321549558,0.1632189750671386,0.2644911408424377,0.04962158203125,238,34,14878,17708
7.8,1788344040877,3.94366192817688,5.915493011474609,-0.0053691966459155,0.0006241907249204,-0.208439752459526,0.9780202507972716,0.1686095181977671,0.0096970569152898,1.665539990990153e-05,-0.0071536297909915,-0.0028937039896845,0.4198440611362457,-0.0032040430232882,-0.0042496901005506,0.7161892056465149,0.6978859305381775,0.0098782366827064,-0.0190701317222048,0.3368871321549558,0.1632189750671386,0.2644911408424377,0.04962158203125,238,34,14878,17708
7.9,1788344040977,4.11267614364624,6.169013977050781,-0.0053691966459155,0.0006241907249204,-0.208439752459526,0.9780202507972716,0.1686095181977671,0.0096970569152898,1.665539990990153e-05,-0.0071536297909915,-0.0028937039896845,0.4198440611362457,-0.0032040430232882,-0.0042496901005506,0.7161892056465149,0.6978859305381775,0.0098782366827064,-0.0190701317222048,0.3368871321549558,0.1632189750671386,0.2644911408424377,0.04962158203125,238,34,14878,17708
8.0,1788344041077,4.197183132171631,5.521126747131348,-0.0055555012077093,0.0003450398799031,-0.1449401974678039,0.989424765110016,0.1677317118765658,0.0041305117979986,3.4783309423451104e-05,-0.0025907345116138,-0.0086329486221075,0.2549501061439514,-0.0034239199012517,-0.0041951434686779,0.7463753819465637,0.6655032634735107,0.001449479014934,0.003619265464698,0.267610775444933,-0.0258319973945617,-0.361590564250946,0.0486879348754882,242,108,16293,13711
8.1,1788344041177,4.197183132171631,5.521126747131348,-0.0055555012077093,0.0003450398799031,-0.1449401974678039,0.989424765110016,0.1677317118765658,0.0041305117979986,3.4783309423451104e-05,-0.0025907345116138,-0.0086329486221075,0.2549501061439514,-0.0034239199012517,-0.0041951434686779,0.7463753819465637,0.6655032634735107,0.001449479014934,0.003619265464698,0.267610775444933,-0.0258319973945617,-0.361590564250946,0.0486879348754882,215,19,16683,17096
8.2,1788344041277,4.253520965576172,6.422535419464111,-0.0057710288092494,0.0007012825226411,-0.1166173070669174,0.9931598901748656,0.1708976189378832,0.0066508504207579,1.393893074901538e-05,-0.0030054682865738,-0.0032020187936723,0.2836875021457672,-0.0036929128691554,-0.0046157110482454,0.7786102294921875,0.6274800896644592,-0.0053260008151507,-0.0096878924342397,0.2655932301653445,-0.3862689137458801,0.1617502570152282,0.0916748046875,263,103,16272,13834
8.3,1788344041377,4.704225540161133,5.464788913726807,-0.0054373713210225,0.0004272935038898,-0.0965482890605926,0.9953133463859558,0.179361155290688,0.0091257242347528,5.872740395450144e-07,0.0147855225950479,-0.0072225304320454,0.2913741767406463,-0.0029027042910456,-0.0042686751112341,0.7903934717178345,0.6125777363777161,0.0072759510131535,-0.0052120420624935,0.1865233321077478,-0.2950379848480224,0.1059197187423706,0.0016708374023437,286,24,17350,14403
8.4,1788344041477,4.647887229919434,4.985915660858154,-0.0051030935719609,9.806803427636623e-05,-0.085966520011425,0.9962849020957948,0.1629902835196715,0.008477714753627,1.7139273788518109e-06,0.001871207379736,-0.0012488773791119,0.147779956459999,-0.0029119066894054,-0.0042131235823035,0.7945542931556702,0.6071715354919434,-0.0015846965529998,0.0033611554417316,0.1549109697457195,-0.0455101728439331,-0.0002307295799255,-0.1331424713134765,286,106,18355,12626
8.5,1788344041577,4.478873252868652,6.11267614364624,-0.0051030935719609,9.806803427636623e-05,-0.085966520011425,0.9962849020957948,0.1629902835196715,0.008477714753627,1.7139273788518109e-06,0.001871207379736,-0.0012488773791119,0.147779956459999,-0.0027065556496381,-0.0040264893323183,0.7982882261276245,0.6022560000419617,0.0107396402762509,0.0041214910902908,0.214772033428308,-0.4037314653396606,-0.0624774098396301,0.1822309494018554,330,30,17916,12419
8.6,1788344041677,5.098591327667236,5.549295902252197,-0.0044699432328343,-0.0001950598089024,-0.0717289373278617,0.9974141120910645,0.1708674523746144,0.0012594916806952,5.0067906860988966e-05,0.0118114231154322,-0.0126522397622466,0.1978473663330078,-0.0021624956279993,-0.003632771782577,0.8034155964851379,0.5954037308692932,0.0172981685425148,0.0075434075559468,0.1479255289828074,0.1468799114227295,-0.2312760353088379,-0.2632198333740234,292,95,18536,12024
8.7,1788344041777,5.098591327667236,5.549295902252197,-0.0041761850006878,-0.000167394609889,-0.0675163120031356,0.9977093935012816,0.168810290151562,0.0039004378922083,-1.0094548616573344e-05,0.0028252068441361,0.0029367103707045,0.0506653115153312,-0.0020575309172272,-0.0034868633374571,0.8050284385681152,0.593222439289093,0.013677676156011,0.0021349960954208,0.0660234754417905,-0.2052958607673645,-0.1516056656837463,0.0509443283081054,292,95,18536,12024
8.8,1788344041877,5.098591327667236,5.549295902252197,-0.0041761850006878,-0.000167394609889,-0.0675163120031356,0.9977093935012816,0.168810290151562,0.0039004378922083,-1.0094548616573344e-05,0.0028252068441361,0.0029367103707045,0.0506653115153312,-0.0019755652174353,-0.0031652813777327,0.8060524463653564,0.5918323993682861,0.003635712751526,0.0063707753858955,0.0378220587540247,0.3777397274971008,-0.0452648997306823,-0.2011585235595703,304,89,19080,11379
8.9,1788344041977,4.788732528686523,5.042253494262695,-0.0032773904968053,0.0002843593829311,-0.0626354292035102,0.9980310201644896,0.1642179881376023,0.0030478858741657,-3.72451401299155e-05,0.0066522117704153,0.0088112158700823,0.0390714816749095,-0.0019478779286146,-0.0025741457939147,0.8078908920288086,0.5893231630325317,0.0040790931382571,-0.0016817563404616,0.0339416140765409,-0.2067263126373291,0.3756128549575805,-0.0691661834716796,206,56,17239,16293
9.0,1788344042077,4.591549396514893,5.183098793029785,-0.0030444860458374,0.0009698135545477,-0.0585142858326435,0.998281478881836,0.1626092616142088,0.0044517251296213,-5.100381090134315e-05,0.0057170079089701,0.0181673411279916,0.1171224638819694,-0.002760175615549,-0.0019216369837522,0.8122822642326355,0.5832548141479492,-0.0063530424435425,0.0147574564966353,0.170949474274775,0.0383459329605102,0.2137152552604675,0.1657924652099609,284,59,17383,15984
9.1,1788344042177,4.507042407989502,6.084506988525391,-0.0031377994455397,0.0012877495028078,-0.0496046133339405,0.998763144016266,0.1715354194924641,-0.0003500584382437,-1.895186382233878e-06,-0.0001946283009601,-0.0018779508536681,0.2403884381055832,-0.0026944559067487,-0.0018673967570066,0.8189087510108948,0.5739143490791321,0.0038204703372824,0.0012847651551757,0.2668712577961993,-0.1423822045326233,-0.1981897354125976,-0.1539897918701172,326,28,18108,12683
9.2,1788344042277,4.676056385040283,5.098591327667236,-0.003008687403053,0.0016861381009221,-0.0357685908675193,0.999354124069214,0.1603456908283472,0.0078052195600589,-2.753103428095892e-05,0.000457754562376,0.0003467227506916,0.1971544623374939,-0.0029976265504956,-0.0016083857044577,0.8248196840286255,0.5653855800628662,0.0024261644254838,-0.0021522412167273,0.1955549707476966,0.1838003396987915,0.1739600896835327,-0.058685302734375,377,27,19873,13686
9.3,1788344042377,4.816901206970215,5.577464580535889,-0.0030230523552745,0.0018163019558414,-0.0317059569060802,0.9994909763336182,0.165513983246361,0.0011118285835688,6.196925752615513e-06,-0.0011506371665745,0.0052948454394936,0.1837984025478363,-0.0032800659537315,-0.0014633927494287,0.8267587423324585,0.562545120716095,0.0021461609695199,0.0036300156061859,0.0804078498922068,0.0247765779495239,-0.2030547261238098,0.0653572082519531,295,72,19681,11797
9.4,1788344042477,5.014084339141846,4.676056385040283,-0.0029387346003204,0.0024437583051621,-0.0268529318273067,0.9996320605278016,0.1795098369963683,0.0003715449066997,-4.581057815033854e-05,0.0009619032498449,0.0172770973294973,0.0380475409328937,-0.0036251787096261,-0.0011421255767345,0.8287404179573059,0.5596204400062561,-0.0028282641168973,-0.0073248589464453,0.0372424577272304,-0.2677600383758545,0.1936981678009033,0.1707487106323242,299,24,19792,14230
9.5,1788344042577,5.014084339141846,5.464788913726807,-0.0028640343807637,0.0021542666945606,-0.0252628643065691,0.9996744990348816,0.1749069486793988,0.0008620359659021,3.1574263082671885e-05,0.0037334004882723,-0.0195158421993255,0.0414119660854339,-0.0030970126390457,-0.0013985792174935,0.8296345472335815,0.5582965612411499,-0.002499988571359,0.0034043815765751,0.0364900553465066,-0.0582728385925293,-0.2448316812515258,0.2698268890380859,306,49,19469,11499
9.6,1788344042677,4.985915660858154,4.901408672332764,-0.002896275371313,0.0016696868697181,-0.0224699880927801,0.9997419118881226,0.1714540197228442,0.0022061324882878,5.8262507611758026e-06,-0.002732750494033,-0.001707644551061,0.053468968719244,-0.002898696810007,-0.0016278177499771,0.8309124112129211,0.5563933253288269,-0.0022601136115916,-0.0046377224049595,0.0591015653755441,0.1072062849998474,0.3148230314254761,-0.0761909484863281,299,22,19505,13229
9.7,1788344042777,4.929577350616455,5.126760482788086,-0.0029836208559572,0.0012036896077916,-0.019321646541357,0.999808132648468,0.1753046665815044,-0.0004580174637538,3.601614655962709e-05,-0.0012409200426191,-0.0161195416003465,0.0901410654187202,-0.0024251444265246,-0.0020565697923302,0.8330157995223999,0.5532400012016296,-0.0045844352076368,-0.0209734749253317,0.0910304893207681,0.1325960755348205,-0.2946024537086487,0.050734519958496,249,37,18264,13362
9.8,1788344042877,4.873239517211914,4.647887229919434,-0.0030456739477813,0.0006839958950877,-0.0170058161020278,0.999850571155548,0.1666205127696969,0.0027860423025784,5.393189582195727e-05,-0.002179755596444,-0.0210456997156143,0.0923006609082222,-0.0017763003706932,-0.0021901475265622,0.8376697897911072,0.5461697578430176,0.0069701796800004,-0.0147900333909602,0.2940082405268985,0.7479864954948425,0.0385614037513732,-0.0495338439941406,370,36,19669,14059
9.9,1788344042977,4.422535419464111,5.549295902252197,-0.0029023080132901,0.000252098951023,-0.0077813412062823,0.999965488910675,0.176615282446299,0.0006356450009397,4.401051560748991e-05,-0.004945442546159,-0.0105166304856538,0.168283998966217,-0.0004833871498703,-0.0030944207683205,0.8398707509040833,0.5427775382995605,-0.000425990894438,-0.0225268188497676,0.0525499649168676,-0.2380995154380798,0.0669639706611633,-0.1386356353759765,370,36,19669,14059
10.0,1788344043077,4.3380279541015625,6.14084529876709,-0.0028517777100205,-0.0004222511488478,-0.0066687115468084,0.9999735951423644,0.1607793040895641,0.0001871160833811,7.755776233575053e-05,0.0024868515320122,-0.0303320884704589,0.0497517623007297,-0.0012983949854969,-0.0026213154196739,0.8426199555397034,0.5385007858276367,-0.0010827957971433,0.0296360248800177,0.1626402527457812,-0.3652176856994629,0.1924578547477722,0.1508188247680664,286,58,17415,12990
10.1,1788344043177,4.676056385040283,5.380281925201416,-0.0028211770113557,-0.0006471403758041,0.0021952704992145,0.9999934434890748,0.1744758119421648,0.006511277016379,2.4812571693894965e-05,0.0033275627065449,-0.0213497355580329,0.2255845516920089,0.0030844332650303,-0.0053526731207966,0.8520083427429199,0.5234919190406799,-0.0061449941282135,-0.1073225050959962,0.1858753965730028,-0.1521835923194885,-0.1799725294113159,-0.406468391418457,286,58,17415,12990
10.2,1788344043277,4.084506988525391,6.366197109222412,-0.0028211770113557,-0.0006471403758041,0.0021952704992145,0.9999934434890748,0.1744758119421648,0.006511277016379,2.4812571693894965e-05,0.0033275627065449,-0.0213497355580329,0.2255845516920089,0.0046420479193329,-0.0063324822112917,0.8552652597427368,0.5181310772895813,0.0018535245151498,0.0002544240191166,0.2075717471179377,0.0539889335632324,0.1966222524642944,0.062779426574707,317,110,17158,13931
10.3,1788344043377,4.169013977050781,5.6619720458984375,-0.0028797704726457,-0.0057941037230193,0.0327263809740543,0.9994434118270874,0.1673555501226899,0.0110348134037274,-0.0001780929457929,0.0027751331217586,0.0447511449456214,0.2930964827537536,0.0026440862566232,-0.0051273768767714,0.8659994602203369,0.500011682510376,-0.0003163449366391,0.0195404829494151,0.3561997557093636,-0.1934349536895752,0.3033299446105957,-0.045506477355957,240,122,17026,14437
10.4,1788344043477,4.2253522872924805,5.436619758605957,-0.0030088645871728,-0.0043790037743747,0.0501428097486496,0.9987278580665588,0.1766314690261559,0.0079761287807322,-9.185477044324412e-05,-0.0014624334871768,0.0270523112267255,0.3401571810245514,0.0006675720214843,-0.0041400520130991,0.8735069632530212,0.4867936968803406,-0.0091261402038836,0.0432580956839441,0.2693452157554999,0.0160202980041503,-0.3577749729156494,-0.0608100891113281,269,67,16823,16741
10.5,1788344043577,4.14084529876709,5.88732385635376,-0.0030651937704533,-0.0014866351848468,0.0696407854557037,0.997566282749176,0.1631014328578457,0.0095603215263878,-7.082449643997677e-05,0.0029175779782235,0.0244445223361253,0.2652409672737121,-0.0001181773841381,-0.0036194380372762,0.8761857151985168,0.4819599688053131,0.0042828787461603,0.0430315411423861,0.2583234329118562,0.05781090259552,0.5056912899017334,0.1958141326904297,306,31,16685,15424
10.6,1788344043677,3.211267709732056,4.3380279541015625,-0.0029665166512131,-0.0010183220729231,0.0759778469800949,0.9971045851707458,0.1760336203940334,-0.0008393534374263,-7.068432723940134e-05,0.0056344768963754,0.0178362615406513,0.2575041949748993,-0.0016861446201801,-0.002331007272005,0.8844294548034668,0.4666649401187897,0.0128772073295847,0.0689925090006502,0.2946554674343499,-0.7792424559593201,-0.4035193920135498,0.6795501708984375,149,132,9916,7426
10.7,1788344043777,1.1267606019973757,1.7464789152145386,-0.0027009835466742,0.0003789056790992,0.0873836949467659,0.9961710572242736,0.1059223285135914,0.0044552860626389,-2.17437961324499e-05,0.0052349870093166,0.0021081790328025,0.1472084373235702,-0.0017941901460289,-0.0020556058734655,0.8872515559196472,0.4612778723239898,0.0005457979161064,0.0001752049668864,0.0899122924456737,-0.8457993268966675,-0.3499283790588379,0.2324380874633789,101,40,6397,4445
10.8,1788344043877,0.0,0.0,-0.0025592690799385,0.000309336464852,0.0909369811415672,0.9958533644676208,0.0117491121874039,-0.0005608043139751,8.729036606554156e-07,0.0008274081628769,-8.293765858979896e-05,0.0276176519691944,-0.001435512676835,-0.0019697835668921,0.8884974122047424,0.4588751792907715,0.0039690720548138,-0.0074613541819253,0.0006057469116536,0.1765056848526001,0.1257115006446838,0.0219058990478515,0,3,0,0
10.9,1788344043977,0.0,0.0,-0.0025592690799385,0.0003093364066444,0.090937003493309,0.9958533644676208,0.0015271095571262,0.0010508040144937,8.416097856032921e-07,-6.523233064825718e-10,-5.964098992450317e-09,1.1451070349721704e-06,-0.0015215603634715,-0.0019724406301975,0.8884654641151428,0.4589368402957916,-0.0028006712009582,0.0050487471720422,-0.0046379656275193,-0.12205570936203,-0.2221684455871582,0.0865945816040039,0,0,0,0
11.0,1788344044077,0.0,0.0,-0.0025592690799385,0.0003093362902291,0.0909370481967926,0.9958533644676208,0.0,0.0,0.0,-9.840044334907816e-09,-4.081796234345347e-09,8.956626516010147e-07,-0.0014200573787093,-0.0019381791353225,0.8884677886962891,0.458932876586914,-0.0014314309566573,-0.0008637787331192,-0.0044814791854411,0.0309951305389404,-0.0942189693450927,0.0513772964477539,0,0,0,0
11.1,1788344044177,0.0,0.0,-0.0025592690799385,0.0003093362320214,0.0909370556473732,0.9958533644676208,0.0,0.0,0.0,0.0,0.0,0.0,-0.001418899744749,-0.0019231829792261,0.8884853720664978,0.4588987529277801,0.0010704602818677,0.0001310513949169,0.0003622219716508,0.0005804896354675,0.033037781715393,0.0500478744506835,0,0,0,0
11.2,1788344044277,0.0,0.0,-0.0025592690799385,0.0003093362320214,0.0909370556473732,0.9958533644676208,0.0,0.0,0.0,0.0,0.0,0.0,-0.0014597503468394,-0.0018879016861319,0.8884768486022949,0.4589152932167053,0.0007773514125096,-0.000132300295065,-0.0014684715135643,-0.0002202987670898,-0.0481321215629577,0.074869155883789,0,0,0,0
11.3,1788344044377,0.0,0.0,-0.0025592690799385,0.0003093362320214,0.0909370556473732,0.9958533644676208,0.0,0.0,0.0,0.0,0.0,0.0,-0.001457804813981,-0.0018507866188883,0.8884670734405518,0.4589342474937439,0.0016007947626124,0.0002393025433348,0.0005901573846913,-0.0142551064491271,-0.0397084355354309,0.0479440689086914,0,0,0,0
11.4,1788344044477,0.0,0.0,-0.0025592690799385,0.0003093362320214,0.0909370556473732,0.9958533644676208,0.0,0.0,0.0,0.0,0.0,0.0,-0.0014508077874779,-0.0018603978678584,0.8884552121162415,0.4589572548866272,8.076052421509305e-05,0.0007210293096248,-0.00156175056351,0.0070768594741821,-0.0378434658050537,0.0569591522216796,0,0,0,0
11.5,1788344044577,0.0,0.0,-0.0025592690799385,0.0003093362320214,0.0909370556473732,0.9958533644676208,0.0,0.0,0.0,0.0,0.0,0.0,-0.0014799227938055,-0.0018371483311057,0.8884520530700684,0.4589635133743286,0.0003631859255356,0.0008482956975269,5.445942819045139e-06,0.014970064163208,-0.0308234691619873,0.0623836517333984,0,0,0,0
11.6,1788344044677,0.0,0.0,-0.0022868544328957,0.0002376333868596,0.0910998359322547,0.9958390593528748,0.0004431731677773,-0.0005150619194656,-2.637816500668341e-07,0.0082299094647169,-0.0030033877119421,0.0050779534503817,-0.0013943361118435,-0.0017834957689046,0.8884631991386414,0.4589422643184662,0.000745038255836,-0.0003090184054293,-8.94636964491774e-05,-0.0206961631774902,0.0218796133995056,-0.003610610961914,0,0,0,0
11.7,1788344044777,0.0,0.0,-0.0022523349616676,0.0002173062530346,0.0911086425185203,0.995838463306427,-6.539117492407934e-05,7.4943135052123e-05,2.806146752789511e-07,0.0009928494691848,-0.000331369054038,-0.0007453717989847,-0.0013667121529579,-0.0017836224287748,0.8884645104408264,0.4589399397373199,0.0009071594756405,-0.0018232170244499,0.0008684514432131,-0.0411610603332519,-0.0167032480239868,-0.0246553421020507,0,0,0,0
11.8,1788344044877,0.0,0.0,-0.0022522557992488,0.0002086286112898,0.0911201313138008,0.995837390422821,3.94021157124029e-05,-4.551004659276685e-05,-1.691296283715468e-07,-2.8262113119126298e-05,-0.0003420453867875,0.0004541975504253,-0.0013718232512474,-0.0017675263807177,0.8884583115577698,0.4589517712593078,0.0004048753264124,0.0004048033426159,-0.0004509652150748,0.0450179576873779,0.0002800822257995,0.0330476760864257,0,0,0,0
11.9,1788344044977,0.0,0.0,-0.0022483253851532,0.0002309197880094,0.0911131352186203,0.9958379864692688,0.0,0.0,0.0,-0.0007220225525088,0.0010943339439108,4.794030246557668e-06,-0.0013978630304336,-0.0017847120761871,0.8884546756744385,0.4589588046073913,-0.0004683108453656,-0.0002992726658758,-0.0005218285119926,0.0072730779647827,0.0163153409957885,0.0096311569213867,0,0,0,0
12.0,1788344045077,0.0,0.0,-0.00222211307846,0.0002359141799388,0.0911176428198814,0.9958376288414,7.721099376397375e-05,-9.002173323534166e-05,-3.360139455861219e-07,0.0012634276645258,0.0008390018483623,0.0008883224218152,-0.0013830475509166,-0.0017445404082536,0.8884551525115967,0.4589579701423645,0.0012846695047429,0.0003960078940299,0.0005410441141881,-0.0125523805618286,-0.0082106590270996,0.0042800903320312,0,0,0,0
12.1,1788344045177,0.0,0.0,-0.00222211307846,0.0002359141799388,0.0911176428198814,0.9958376288414,7.721099376397375e-05,-9.002173323534166e-05,-3.360139455861219e-07,0.0012634276645258,0.0008390018483623,0.0008883224218152,-0.0014533689245581,-0.0017591584473848,0.8884498476982117,0.4589681327342987,0.0003897394787761,0.0012580287433692,0.0021166601102761,-0.013860285282135,-0.0102721452713012,-0.0154838562011718,0,0,0,0
12.2,1788344045277,0.0,0.0,-0.0022621513344347,0.0002642095205374,0.0911089330911636,0.9958382844924928,8.901986292853387e-05,-0.0001028105212067,-3.736991283809646e-07,0.0002819035435095,-0.0006052312091924,0.0010155722266063,-0.0014386205002665,-0.0017496375367045,0.8884572386741638,0.4589537978172302,0.0007733546368295,0.0002272454810617,-0.0001797053861632,0.0001909732818603,-0.0267167091369628,-0.0369892120361328,0,0,0,0
12.3,1788344045377,0.0,0.0,-0.0022491891868412,0.0002680091420188,0.0911124423146247,0.9958379864692688,0.0,0.0,0.0,0.0001340909511782,-0.0002969616907648,-2.416197958154953e-06,-0.0014620432630181,-0.001700934022665,0.8884630799293518,0.4589426219463348,0.0012914650455718,0.0011622508235442,0.0003536740171517,-0.0100302100181579,-0.0434585809707641,-0.0281124114990234,0,0,0,0
12.4,1788344045477,0.0,0.0,-0.0023794684093445,0.0002531489590182,0.0911256447434425,0.9958364963531494,0.0,0.0,0.0,-0.0020011675078421,-0.0004521028604358,-6.798895356041612e-06,-0.0015181610360741,-0.00196473300457,0.8884636163711548,0.4589403867721557,-0.0030876270559199,-0.0007043693984795,-8.703915088943664e-06,0.0377010107040405,0.0139247775077819,0.0345935821533203,0,0,0,0
12.5,1788344045577,0.0,0.0,-0.0025023715570569,0.0002128670894308,0.0911253690719604,0.9958361983299256,0.0,0.0,0.0,-0.0052582137286663,-0.0012060265289619,-1.553858965053223e-05,-0.0015522083267569,-0.0021084258332848,0.8884631395339966,0.4589404463768005,-0.0026728805981924,-0.000688153702468,-7.190464647383777e-06,0.019109308719635,-0.0095852613449096,0.0197639465332031,0,0,0,0
12.6,1788344045677,0.0,0.0,-0.0026123735588043,0.0001741103915264,0.0911250412464141,0.9958360195159912,0.0,0.0,0.0,-0.0019375780830159,-0.0005008809966966,-1.0904370356001891e-05,-0.0015717912465333,-0.0021997494623064,0.8884628415107727,0.4589405059814453,-0.0025270646733798,-0.0007008602203453,-8.886734560810306e-06,0.0347648859024047,-0.0184727311134338,-0.0019969940185546,0,0,0,0
12.7,1788344045777,0.0,0.0,-0.0027691370341926,0.0001131828175857,0.0911246389150619,0.9958356022834778,0.0,0.0,0.0,-0.0028432002291083,-0.0008526990422978,-8.778763003647327e-06,-0.0015911012887954,-0.0023088520392775,0.8884626030921936,0.4589405655860901,-0.0022633222741834,-0.0007293649793984,-3.912911463390071e-06,0.0051838159561157,0.0015906691551208,0.0162200927734375,0,0,0,0
12.8,1788344045877,0.0,0.0,-0.0028022471815347,9.9067110568285e-05,0.0911246165633201,0.9958354830741882,0.0,0.0,0.0,-0.002217108849436,-0.0007144513074308,-3.857398951367941e-06,-0.0016073510050773,-0.0024200696498155,0.888462245464325,0.4589404463768005,-0.002079303779361,-0.0007319912528771,-3.927505783316688e-06,-0.0097973942756652,-0.0069907307624816,-0.0039863586425781,0,0,0,0
12.9,1788344045977,0.0,0.0,-0.0029605673626065,2.7248752303421497e-05,0.0911245346069336,0.9958350658416748,0.0,0.0,0.0,-0.0034363158047199,-0.0012186572421342,-1.30826856548083e-06,-0.0016268519684672,-0.0025618504732847,0.8884620070457458,0.458940327167511,-0.0015933125744821,-0.000561591913605,-1.416654752525487e-06,-0.0077425837516784,-0.0307203531265258,-0.0073680877685546,0,0,0,0
13.0,1788344046077,0.0,0.0,-0.0029605673626065,2.7248752303421497e-05,0.0911245346069336,0.9958350658416748,0.0,0.0,0.0,-0.0034363158047199,-0.0012186572421342,-1.30826856548083e-06,-0.0016306526958942,-0.0025869756937026,0.8884618878364563,0.4589402675628662,-0.0016792656689184,-0.0005689367236609,-2.0657119278621543e-06,-0.0021984577178955,-0.0234057307243347,-0.0160627365112304,0,0,0,0
13.1,1788344046177,0.0,0.0,-0.0030655872542411,-2.055367804132402e-05,0.0911244004964828,0.9958347678184508,0.0,0.0,0.0,-0.0016344703035429,-0.0005550881032831,-3.947976438212208e-06,-0.0016306526958942,-0.0025869756937026,0.8884618878364563,0.4589402675628662,-0.0016792656689184,-0.0005689367236609,-2.0657119278621543e-06,-0.0021984577178955,-0.0234057307243347,-0.0160627365112304,0,0,0,0
13.2,1788344046277,0.0,0.0,-0.0031789138447493,-6.72812748234719e-05,0.0911244451999664,0.995834469795227,0.0,0.0,0.0,1.4378833235184631e-08,-9.25800058837467e-09,9.480193057243014e-07,-0.0016635879874229,-0.0027675004675984,0.8884614109992981,0.4589400291442871,-0.0012438608582701,-0.0003553882616383,-1.1900308056629738e-06,-0.0322634577751159,-0.003243863582611,-0.0024490356445312,0,0,0,0
13.3,1788344046377,0.0,0.0,-0.0032278606668114,-8.658049046061933e-05,0.0911243632435798,0.9958342909812928,0.0,0.0,0.0,-1.0528988347857648e-08,5.285139437205544e-09,-1.0147467719434644e-06,-0.0016719531267881,-0.0028060879558324,0.8884612917900085,0.4589399695396423,-0.0010384482621204,-0.0002822513940859,-1.484019798188616e-06,-0.0679795742034912,-0.0075929760932922,-0.0219621658325195,0,0,0,0
13.4,1788344046477,0.0,0.0,-0.0032278604339808,-8.658040314912796e-05,0.091124340891838,0.9958342909812928,0.0,0.0,0.0,9.515749077593227e-09,5.789048795890039e-09,-8.89197849573975e-07,-0.0016824258491396,-0.00285922922194,0.888461172580719,0.4589399099349975,-0.0007802416855068,-0.0002361039068719,2.7554817077217995e-09,0.012923240661621,0.0616273283958435,-0.0117044448852539,0,0,0,0
13.5,1788344046577,0.0,0.0,-0.0032278606668114,-8.658034494146705e-05,0.091124340891838,0.9958342909812928,0.0,0.0,0.0,0.0,1.898178725312505e-09,0.0,-0.0016874792054295,-0.0028900373727083,0.8884610533714294,0.4589398503303528,-0.0007526522161564,-0.0002410062366938,2.718593611491743e-09,-0.0143288373947143,0.0170133709907531,0.0367794036865234,0,0,0,0
13.6,1788344046677,0.0,0.0,-0.0032278606668114,-8.658034494146705e-05,0.091124340891838,0.9958342909812928,0.0,0.0,0.0,0.0,8.450409261229196e-10,0.0,-0.0017007682472467,-0.0029464839026331,0.8884609341621399,0.458939790725708,-0.0009696000322923,-0.0001918529788405,-1.9866146849987235e-06,0.0199871659278869,0.0470390319824218,-0.0079288482666015,0,0,0,0
13.7,1788344046777,0.0,0.0,-0.0032278606668114,-8.658034494146705e-05,0.091124340891838,0.9958342909812928,0.0,0.0,0.0,0.0,9.60182711118307e-10,0.0,-0.0017063543200492,-0.0029651196673512,0.8884608149528503,0.4589397311210632,-0.000956899251186,-0.0001796407778507,3.434949064442394e-09,0.06125009059906,0.1132224202156066,0.0121421813964843,0,0,0,0
13.8,1788344046877,0.0,0.0,-0.0032278606668114,-8.658034494146705e-05,0.091124340891838,0.9958342909812928,0.0,0.0,0.0,0.0,1.1631926533084423e-09,0.0,-0.0017181420698761,-0.0030173826962709,0.8884606957435608,0.4589396715164184,-0.0007082932123984,-0.0002125369402623,-1.0953667667551653e-06,-0.0347247123718261,-0.0003858208656311,0.0063457489013671,0,0,0,0
13.9,1788344046977,0.0,0.0,-0.0032278606668114,-8.658034494146705e-05,0.091124340891838,0.9958342909812928,0.0001697463946075,-0.0001647608374161,-9.912534346391058e-07,0.0,9.707937786984644e-10,0.0,-0.0017023710533976,-0.0031442027539014,0.8884275555610657,0.4590030014514923,-0.0029690914294213,-0.0016429591855296,-0.0029564301845587,-0.0125294923782348,0.0866876244544982,-0.0013189315795898,0,0,0,0
14.0,1788344047077,0.0,0.0,-0.0032278606668114,-8.658034494146705e-05,0.091124340891838,0.9958342909812928,-0.0003262446734192,0.0003166626644377,1.9051429858479411e-06,0.0,1.8658206091259903e-09,0.0,-0.0016709985211491,-0.0031664595007896,0.8884685039520264,0.458923727273941,0.0041514785607581,0.0006702542962381,0.0087279217017705,-0.0026735067367553,0.1308701634407043,-0.0457592010498046,0,0,0,0
14.1,1788344047177,0.0,0.0,-0.0032278606668114,-8.658034494146705e-05,0.091124340891838,0.9958342909812928,0.0,0.0,0.0,0.0,1.4338257248169839e-09,0.0,-0.0016594799235463,-0.0031593833118677,0.8884628415107727,0.4589348435401916,0.0004639484286395,-0.0002782595085213,-0.0005005623930176,-0.0156306624412536,-0.0036631226539611,0.0130996704101562,0,0,0,0
14.2,1788344047277,0.0,0.0,-0.0032278606668114,-8.658034494146705e-05,0.091124340891838,0.9958342909812928,-0.0001996331937035,-0.0002056800027959,1.00041845307983e-06,0.0,1.1762396612269301e-09,0.0,-0.0016594799235463,-0.0031593833118677,0.8884628415107727,0.4589348435401916,0.0004639484286395,-0.0002782595085213,-0.0005005623930176,-0.0156306624412536,-0.0036631226539611,0.0130996704101562,0,0,0,0
14.3,1788344047377,0.0,0.0,-0.0032278606668114,-8.658034494146705e-05,0.091124340891838,0.9958342909812928,-0.0001957305804361,-0.0002016591809433,9.808613531030683e-07,0.0,1.1532453880747082e-09,0.0,-0.0017351293936371,-0.0031824177131056,0.888464629650116,0.4589308202266693,-0.0035374983236145,0.0031672646237123,-0.0051225543216073,-0.0771927237510681,-0.0764218568801879,-0.0054779052734375,0,0,0,0
14.4,1788344047477,0.0,0.0,-0.0032278606668114,-8.658034494146705e-05,0.091124340891838,0.9958342909812928,0.0,0.0,0.0,0.0,8.243749571867908e-10,0.0,-0.0016078501939773,-0.0032631978392601,0.888495683670044,0.4588706195354461,-0.0003691027153487,-0.0004193594641621,-0.0002922140439974,0.0151728391647338,0.1024671196937561,-0.0052728652954101,0,0,0,0
14.5,1788344047577,0.0,0.0,-0.0032278606668114,-8.658034494146705e-05,0.091124340891838,0.9958342909812928,0.0002571658841193,-0.0002496127621464,-1.5017495157686903e-06,0.0,1.4707531859059484e-09,0.0,-0.001632391475141,-0.0032858969643712,0.8885195851325989,0.4588238894939422,0.0009809928483707,0.0001844488199761,0.0038305745350435,0.6189099550247192,-0.0058878660202026,0.0292024612426757,0,0,0,0
14.6,1788344047677,0.0,1.3239436149597168,-0.0036326562985777,-0.0006384646985679,0.0917456969618797,0.9957756400108336,0.0062096742587384,-0.0012127062403065,3.562677549524621e-07,-0.0009698324720375,-0.0109419794753193,0.0246348790824413,-0.001632391475141,-0.0032858969643712,0.8885195851325989,0.4588238894939422,0.0009809928483707,0.0001844488199761,0.0038305745350435,0.6189099550247192,-0.0058878660202026,0.0292024612426757,0,0,0,0
14.7,1788344047777,4.619718074798584,5.7183098793029785,-0.0033138925209641,-0.0057020606473088,0.0954034477472305,0.9954168796539308,0.074720881959317,0.0077138160944003,0.0001992922228913,-0.0058268611319363,-0.2027831971645355,0.1458221524953842,0.0212498847395181,-0.0154039524495601,0.8968137502670288,0.441629022359848,-0.0141967989247192,-0.2625061939518259,0.2828377933630377,1.9328773021698,0.1158058047294616,-0.1595392227172851,401,242,19670,16411
14.8,1788344047877,4.619718074798584,5.7183098793029785,-0.0001744634937494,-0.0226513147354125,0.1307727843523025,0.991153597831726,0.1844203363068842,0.0125184619874865,-0.0001490008229691,0.0314062684774398,0.0434620343148708,0.4018643498420715,0.0194890443235635,-0.0127250719815492,0.9054483771324158,0.4238178730010986,0.0202227489775236,0.0163326938026059,0.3378844129921865,-0.0660598278045654,-0.4569222331047058,-0.5570163726806641,389,28,20833,14313
14.9,1788344047977,4.957746505737305,5.464788913726807,-0.0001744634937494,-0.0226513147354125,0.1307727843523025,0.991153597831726,0.1844203363068842,0.0125184619874865,-0.0001490008229691,0.0314062684774398,0.0434620343148708,0.4018643498420715,0.015381384640932,-0.0102616939693689,0.9079777002334596,0.4186103343963623,0.0138842917942418,0.0828308131571689,0.0977749395997777,0.1004447937011718,-0.3087783455848694,0.0432701110839843,232,37,19203,13051
15.0,1788344048077,4.985915660858154,5.746479034423828,-0.0011410907609388,-0.0097762150689959,0.1398872584104538,0.9901185631752014,0.1714047935606747,0.0035497462682267,-0.0004214259155521,0.0020714425481855,0.1362241357564926,0.07211534678936,0.0070436503738164,-0.0059044463559985,0.9101296067237854,0.414221853017807,0.0043550586935763,0.1112118703246747,0.0908275205108382,0.0820313096046447,-0.118868350982666,-0.1175136566162109,320,73,18144,11613
15.1,1788344048177,4.901408672332764,4.8450703620910645,-0.0015983828343451,-0.0059485267847776,0.1440147310495376,0.98955637216568,0.1698436288938682,0.0038450034139944,-0.0001641510065626,-0.002307751448825,0.0736297369003295,0.0992334634065628,0.0040678037330508,-0.0045177526772022,0.9116547107696532,0.4109120965003967,-0.0018253227359387,0.0709101931539002,0.102266552831797,-0.0346081852912902,0.1229546666145324,0.3940963745117187,276,55,18365,14756
15.2,1788344048277,4.901408672332764,4.8450703620910645,-0.0015515020349994,-0.0052336105145514,0.1480914652347564,0.9889585971832277,0.1698220875978664,0.0042043591292037,-0.0001837058016575,0.004963079933077,0.0198536962270736,0.1184710934758186,0.0040678037330508,-0.0045177526772022,0.9116547107696532,0.4109120965003967,-0.0018253227359387,0.0709101931539002,0.102266552831797,-0.0346081852912902,0.1229546666145324,0.3940963745117187,276,55,18365,14756
15.3,1788344048377,4.647887229919434,5.098591327667236,1.2473436072468758e-05,-0.0137586733326315,0.1613317430019378,0.9868043065071106,0.1728981139617512,0.0040628511237189,0.0003744225402065,0.0057853814214468,-0.1378737539052963,0.2327408641576767,0.0116749415174126,-0.0074146147817373,0.9186503291130066,0.3948293626308441,0.0143320576950749,-0.137168289106173,0.2452247479650518,0.2501919865608215,0.0573634505271911,-0.067662239074707,360,36,20320,13244
15.4,1788344048477,4.676056385040283,4.647887229919434,0.0011845177505165,-0.0191770680248737,0.1648162454366684,0.9861370921134948,0.1753173268909249,0.0021773501232442,0.0005632950287542,0.0132099390029907,-0.2217233628034591,0.1411521881818771,0.0198007356375455,-0.0105319945141673,0.9205034971237184,0.3900902867317199,0.0010232183385159,-0.1213375230597825,0.0704322341128097,0.0807026028633117,0.135757565498352,-0.5910749435424805,415,76,20710,15166
15.5,1788344048577,4.901408672332764,5.352112770080566,0.001414893195033,-0.0212457291781902,0.1700559109449386,0.9852043390274048,0.1716396846344441,-0.0020411960620789,3.902639978293328e-06,-0.0085254544392228,0.0329152829945087,0.0867357403039932,0.0181175619363784,-0.0101082166656851,0.9220754504203796,0.3864536881446838,-0.0109541421231914,0.05451464376308,0.0777576567565053,0.1723312139511108,0.3879066109657287,0.5005826950073242,415,76,20710,15166
15.6,1788344048677,5.521126747131348,4.676056385040283,0.001414893195033,-0.0212457291781902,0.1700559109449386,0.9852043390274048,0.1716396846344441,-0.0020411960620789,3.902639978293328e-06,-0.0085254544392228,0.0329152829945087,0.0867357403039932,0.0177460107952356,-0.0097593003883957,0.922895848751068,0.3845168948173523,0.0113548553301273,-0.001738030727542,0.0931791830591659,-0.0294325351715087,-0.0830810070037841,-0.0677194595336914,324,20,18988,12644
15.7,1788344048777,5.154929637908936,5.098591327667236,0.0007103029638528,-0.0198494046926498,0.1726668030023574,0.9847800135612488,0.1714912811886851,0.0027029232130516,-2.630326586602505e-05,-0.0193992331624031,0.0138483317568898,0.010522823780775,0.0170859768986701,-0.0101043917238712,0.9230801463127136,0.3840950727462768,-0.005816538621199,0.0135776688019565,0.0385567126269493,-0.1960053443908691,-0.0840017795562744,-0.1329708099365234,277,33,18735,12655
15.8,1788344048877,5.070422649383545,5.436619758605957,0.0007103029638528,-0.0198494046926498,0.1726668030023574,0.9847800135612488,0.1714912811886851,0.0027029232130516,-2.630326586602505e-05,-0.0193992331624031,0.0138483317568898,0.010522823780775,0.0170724969357252,-0.0101059451699256,0.9239211678504944,0.382068008184433,-0.0033772360910683,-0.0347797007042761,0.0234974871331705,-0.1959666609764099,0.4602218270301819,0.1116514205932617,329,78,19195,11222
15.9,1788344048977,4.788732528686523,4.563380241394043,0.0006899393629282,-0.0203540101647377,0.1760946661233902,0.984162449836731,0.1612411885240389,0.0014629765309516,0.0001748691990431,-0.0039740805514156,-0.0415265560150146,0.0578778609633445,0.0172487571835517,-0.010746531188488,0.9249839186668396,0.3794623613357544,-0.0048370860926059,0.0138237860456079,0.0340013941356191,-0.2524229884147644,0.368732213973999,0.2372875213623047,329,78,19195,11222
16.0,1788344049077,5.098591327667236,4.619718074798584,0.0004284468013793,-0.0205988232046365,0.1770011335611343,0.983994960784912,0.1632067564946896,0.0018093054586828,5.987465326299127e-06,-0.0138918552547693,-0.0097413044422864,0.0456878691911697,0.0172077137976884,-0.0106760188937187,0.9254158735275269,0.3784117102622986,0.0023350632251274,0.0019586853627763,0.0365642026448614,-0.3174356818199157,0.6163689494132996,0.1608943939208984,325,29,20007,14186
16.1,1788344049177,5.070422649383545,4.8450703620910645,0.000290477881208,-0.0202886257320642,0.1826137602329254,0.9829753637313844,0.1702341003121337,-0.0014354390647592,2.8266114330264616e-05,-0.0035805904772132,-0.0135489497333765,0.0689566731452941,0.0173677392303943,-0.010636718943715,0.927329957485199,0.3736901581287384,0.0089713397361872,-0.0059723276818771,0.091280158607343,0.1480955481529235,0.2289075255393982,-0.1629009246826172,397,101,20367,13256
16.2,1788344049277,5.070422649383545,5.070422649383545,0.0004607869777828,-0.0203244294971227,0.184678852558136,0.9825885891914368,0.1652454214043718,0.000146253586556,7.767823595118898e-06,0.0083925668150186,-0.0030421949923038,0.0867514833807945,0.0174705702811479,-0.0104773845523595,0.928485095500946,0.370810717344284,0.0034000740832409,-0.0180552946339449,0.0731825958091834,-0.0321366786956787,-0.3655316233634949,-0.1119852066040039,397,57,21821,10126
16.3,1788344049377,4.788732528686523,4.591549396514893,0.0007762706372886,-0.0208849608898162,0.1888605207204818,0.981781542301178,0.1608101892220287,-0.0014504892318014,0.0001511818913144,0.0064535974524915,-0.0294145587831735,0.0962361171841621,0.0177898090332746,-0.0104983141645789,0.9306646585464478,0.3652898073196411,-0.001906767828934,-0.0039039090616042,0.1329914243241316,0.1414673328399658,-0.018642783164978,-0.0651998519897461,422,30,21157,13662
16.4,1788344049477,4.8450703620910645,5.7183098793029785,0.0007762706372886,-0.0208849608898162,0.1888605207204818,0.981781542301178,0.1608101892220287,-0.0014504892318014,0.0001511818913144,0.0064535974524915,-0.0294145587831735,0.0962361171841621,0.017424926161766,-0.0102105094119906,0.9330598711967468,0.3591536581516266,8.861745256192445e-05,0.0134172657350506,0.1294686272840662,-0.3329557776451111,-0.2659974694252014,0.2435522079467773,377,58,20965,11477
16.5,1788344049577,5.154929637908936,5.633802890777588,0.0010700637940317,-0.0212859716266393,0.2015121579170227,0.9792540669441224,0.1651187851015813,-0.0004848029093736,0.0001352399922308,0.0040006162598729,-0.044121254235506,0.1208850815892219,0.0180495847016572,-0.0105411512777209,0.9350020885467528,0.3540258407592773,-0.0045653486317949,0.0244409963805348,0.1124113960813148,-0.0101317763328552,0.1340281367301941,-0.0125131607055664,374,66,19969,12151
16.6,1788344049677,4.3380279541015625,5.408450603485107,0.0006263158284127,-0.0204285942018032,0.2065379172563552,0.9782251715660096,0.1828678350376929,0.00421210863756,-3.367628114332401e-05,-0.0041321408934891,0.0227690581232309,0.097887210547924,0.0170927867293357,-0.0099294995889067,0.9373920559883118,0.3477146029472351,0.0159167398357195,0.0285535029808363,0.1845957923957737,0.5796520709991455,-0.101412296295166,-0.0243864059448242,283,88,17822,17377
16.7,1788344049777,4.535211086273193,5.464788913726807,0.0006015859544277,-0.0193910077214241,0.2162841558456421,0.9761377573013306,0.1761583828056059,0.0051275740480534,-0.0001789377282359,0.0003533973940648,0.0212418939918279,0.2015761882066726,0.0175762642174959,-0.0101780090481042,0.9415018558502196,0.3363952934741974,0.0072540082498953,-0.0220189492279983,0.2135764339470945,-0.0049278736114501,0.3712611794471741,0.0525856018066406,280,86,17879,12649
16.8,1788344049877,4.535211086273193,5.464788913726807,0.0007603557314723,-0.0199672374874353,0.2197545617818832,0.9753504991531372,0.1885310582592154,-0.0015958358731135,6.066468506373712e-05,0.0067391535267233,-0.0418963432312011,0.2441765516996383,0.0186282470822334,-0.010431763716042,0.943691074848175,0.3301383852958679,0.0067026170103581,-0.045088031953997,0.0696563234395865,0.2117892503738403,0.1030610799789428,-0.1323232650756836,341,93,20448,13298
16.9,1788344049977,5.042253494262695,4.985915660858154,0.0007603557314723,-0.0199672374874353,0.2197545617818832,0.9753504991531372,0.1885310582592154,-0.0015958358731135,6.066468506373712e-05,0.0067391535267233,-0.0418963432312011,0.2441765516996383,0.0179001688957214,-0.0099756186828017,0.9442251920700072,0.3286622762680053,0.0097622413870385,0.0339313336934639,0.0616496364076325,0.0840874910354614,0.4611269831657409,0.2813224792480469,341,93,20448,13298
17.0,1788344050077,5.042253494262695,4.985915660858154,0.001650174614042,-0.0206725690513849,0.233642578125,0.9721013307571412,0.1812890373964356,0.0010756562022613,3.992431073889124e-05,0.0165613386780023,-0.0104952054098248,0.10667035728693,0.016892360523343,-0.0091142747551202,0.9459887146949768,0.3236307799816131,0.0080330620786762,0.090089509415295,0.1560570557947332,0.0567155480384826,-0.1276562213897705,0.1234760284423828,341,93,20448,13298
17.1,1788344050177,4.507042407989502,5.014084339141846,0.0011127367615699,-0.0181176364421844,0.2420817762613296,0.9700860381126404,0.1782704854483569,0.0052888332353623,-9.725435510898604e-05,0.0035251919180154,0.0323844067752361,0.2092769593000412,0.0171138308942317,-0.0090873362496495,0.9507068395614624,0.3094852268695831,0.0084592598691207,-0.0359056107661212,0.1894583953108423,-0.0320167541503906,-0.3344442844390869,-0.2473297119140625,294,59,17894,16012
17.2,1788344050277,4.591549396514893,5.97183084487915,0.0015518409200012,-0.0192358791828155,0.2507107853889465,0.9678696393966676,0.1784756793494604,-4.564500547983021e-05,0.0001173393640407,0.0089537249878048,-0.0322680957615375,0.1884632855653762,0.016339723020792,-0.0086626401171088,0.952304184436798,0.3045895397663116,0.0061804207258539,0.0260109277920331,0.0739606943958532,0.072475790977478,0.588386595249176,0.4023904800415039,363,57,19997,10487
17.3,1788344050377,4.901408672332764,5.352112770080566,0.0011496893130242,-0.0176959689706563,0.257926732301712,0.9660016894340516,0.169603596777251,0.0026402203336289,-8.997593647018934e-05,-0.002508016070351,0.0191628132015466,0.0808557644486427,0.0155577342957258,-0.0085594663396477,0.9530205130577089,0.3023847639560699,0.0006748400842092,0.0034177987830161,0.0961047872791233,0.0021890401840209,0.1589959859848022,-0.034616470336914,279,132,19133,13057
17.4,1788344050477,4.8450703620910645,5.183098793029785,0.0011851547751575,-0.0174923799932003,0.2592848539352417,0.9656417369842528,0.1775500897741617,0.0021227571331972,-2.4544959407479678e-05,0.004538198467344,0.00745549518615,0.0572862103581428,0.0155046470463275,-0.0084416130557656,0.9534846544265748,0.3009240925312042,0.0052817162758864,-0.0148905766569835,0.0304992313716431,0.0992235541343689,0.2242408990859985,-0.0738153457641601,279,132,19133,13057
17.5,1788344050577,4.8450703620910645,5.042253494262695,0.0005138451233506,-0.0164852049201726,0.2610656321048736,0.9651801586151124,0.1720656262500903,0.0057107002444394,-0.0001927218291177,-0.0042367372661828,0.0484044775366783,0.0548068135976791,0.0134106250479817,-0.0081288572400808,0.9546703100204468,0.2972520291805267,0.0037759565896973,0.0423049158371595,0.1020223997670107,-0.2787750959396362,0.6193147897720337,0.5150108337402344,262,20,18739,13775
17.6,1788344050677,4.816901206970215,5.154929637908936,0.0002100600395351,-0.0148412398993968,0.2689779102802276,0.9630319476127625,0.170491830315787,0.000460672542341,-6.555207197224171e-05,0.0009564592037349,0.0097609022632241,0.1089143604040145,0.012887205928564,-0.0079347183927893,0.9570199251174928,0.2896271347999573,-0.000923442656898,-0.0111214569264582,0.0958369950663796,0.0586193799972534,-0.2332987189292907,-0.0953702926635742,307,21,19432,13350
17.7,1788344050777,5.126760482788086,5.549295902252197,-4.389905370771885e-05,-0.014065726660192,0.2735016644001007,0.961768627166748,0.1673077116029981,0.0004287360425404,-0.00011408754973,0.0011537144891917,0.0397162996232509,0.1072498708963394,0.0116615081205964,-0.0073437634855508,0.9586125612258912,0.2843802869319916,0.010442267548487,0.0136393944919109,0.103686092844935,0.1137244701385498,0.3340219259262085,0.1917409896850586,309,40,18506,12014
17.8,1788344050877,4.985915660858154,4.957746505737305,8.5117993876338e-05,-0.0137809421867132,0.2761291861534118,0.9610217213630676,0.1777153023601789,-8.200850478765896e-05,-1.0206735509992169e-05,0.0097594400867819,0.009313752874732,0.1115075200796127,0.0109878657385706,-0.0071916095912456,0.9593936204910278,0.2817649245262146,-0.0037378494099196,0.0297562134782886,0.0875185573886474,0.3018060326576233,0.1115582585334777,0.0703973770141601,316,82,18842,14233
17.9,1788344050977,4.816901206970215,5.380281925201416,-0.0004869892727583,-0.0127051016315817,0.2810522019863128,0.9596083164215088,0.1726967780990692,0.0028762100915708,-8.733914452677144e-05,-0.0075892643071711,0.0219749584794044,0.0936991199851036,0.0104238772764801,-0.0070167602971196,0.9605520367622375,0.2778164446353912,0.0109549126229268,-0.0025867551926942,0.0796930358739525,-0.1637346148490905,0.0990321040153503,-0.1945858001708984,297,33,19335,12605
18.0,1788344051077,4.901408672332764,4.985915660858154,-6.089033558964729e-05,-0.0130750369280576,0.2842505872249603,0.9586607813835144,0.1655419001511404,0.0014630229058981,7.001543909783917e-05,0.0066324425861239,-0.0246501136571168,0.0776939466595649,0.0114201810210943,-0.0072231441736221,0.9624934792518616,0.2709680199623108,-0.0015154701481439,-0.0379311672059977,0.1141325250251795,-0.0716230869293212,-0.0813381671905517,-0.3618707656860351,297,33,19335,12605
18.1,1788344051177,4.816901206970215,5.154929637908936,-6.089033558964729e-05,-0.0130750369280576,0.2842505872249603,0.9586607813835144,0.1655419001511404,0.0014630229058981,7.001543909783917e-05,0.0066324425861239,-0.0246501136571168,0.0776939466595649,0.0106448400765657,-0.0068273972719907,0.963649570941925,0.2668702304363251,0.0070708243325099,0.0132819848643097,0.114708053117998,-0.0574645400047302,-0.3584137558937073,0.1431074142456054,305,26,19532,13531
18.2,1788344051277,4.929577350616455,4.957746505737305,0.0002182892058044,-0.012551087886095,0.2952744960784912,0.9553300142288208,0.1681304990778525,0.0020506581150922,-1.0667173924562936e-05,0.017012296244502,0.002555089071393,0.122904472053051,0.0111209703609347,-0.0062591601163148,0.9650076031684875,0.2619113624095917,0.0116668693479889,-0.0149970396935018,0.0833077758637413,-0.095201551914215,0.4036648273468017,0.1427736282348632,366,66,19434,14012
18.3,1788344051377,4.8450703620910645,5.577464580535889,0.0008928230963647,-0.0128105534240603,0.3001505732536316,0.9538053870201112,0.1743737175721934,0.0042841608234107,4.022463876269293e-05,0.0088097490370273,-0.0082042207941412,0.0847992822527885,0.0111585482954978,-0.0059615261852741,0.9662861227989196,0.2571598291397095,0.0049118541072016,0.009372951861597,0.0851181452636072,0.1954711675643921,0.4336035847663879,-0.9301786422729492,323,34,19708,11942
18.4,1788344051477,5.014084339141846,5.126760482788086,0.0012753715272992,-0.0123478835448622,0.3056431412696838,0.9520652294158936,0.1795543269259316,-0.0004969500119164,7.952980315761338e-05,0.0104852216318249,-0.0513219200074672,0.052765604108572,0.0117477001622319,-0.0056900037452578,0.9669870734214784,0.2544911205768585,0.0108338055666121,-0.0848936610831835,0.0476321261788377,-0.2208560705184936,-0.2777801156044006,-0.258554458618164,337,57,20350,12370
18.5,1788344051577,5.126760482788086,5.070422649383545,0.0012753715272992,-0.0123478835448622,0.3056431412696838,0.9520652294158936,0.1795543269259316,-0.0004969500119164,7.952980315761338e-05,0.0104852216318249,-0.0513219200074672,0.052765604108572,0.0147965941578149,-0.0064653875306248,0.9674534201622008,0.2525334656238556,0.001124877972207,-0.0568773844297513,0.0251997633458814,-0.1845466494560241,-0.1789156198501587,-0.0641746520996093,383,29,22521,10138
18.6,1788344051677,5.352112770080566,4.563380241394043,0.0026793354190886,-0.0161742810159921,0.3078877031803131,0.951281487941742,0.1729900161196625,0.0023093100613464,0.0001386168698563,0.005072180647403,-0.0552742965519428,0.0257612764835357,0.0152467731386423,-0.0064200954511761,0.9675015211105348,0.252323567867279,0.0146227489251052,-0.0386202263105289,0.01923630586556,0.529384970664978,-0.5117886066436768,-0.2223539352416992,386,24,22620,10698
18.7,1788344051777,3.2957746982574463,1.94366192817688,0.0029457500204443,-0.0177580304443836,0.3039489388465881,0.9525182843208312,0.1649676631997595,-0.003802235335024,0.0001349265407333,-0.0100236348807811,-0.0361392423510551,-0.1009079441428184,0.0123400948941707,-0.0061640162020921,0.96502685546875,0.2617881298065185,-0.0045870907811487,0.1055441194275581,-0.1556153064878712,-0.771405816078186,0.0303806066513061,0.2289981842041015,386,24,22620,10698
18.8,1788344051877,2.197183132171631,0.7605633735656738,0.0022387471981346,-0.0161746032536029,0.3020781278610229,0.9531433582305908,0.1454839764630804,-0.0015885927200836,-0.000107638692052,-0.0107346447184681,0.0816727727651596,-0.0927925258874893,0.0090591441839933,-0.0054207704961299,0.9637038111686708,0.2667650878429413,-0.0092009191822544,0.1358143159959365,-0.2068612605485501,-0.8024827241897583,0.1175748109817504,-0.0309715270996093,386,24,22620,10698
18.9,1788344051977,0.0,-0.7605633735656738,-0.0011360764037817,-0.0060403333045542,0.2884504497051239,0.9574750661849976,0.0101641474881758,-0.0038385020145738,-2.375862065469221e-06,-0.0011460946407169,0.1539020538330078,-0.1656284779310226,0.0027756011113524,-0.003801105543971,0.9597795009613036,0.2807155847549438,-0.0060486110730796,-0.0608526366665758,-0.2110256396807275,-0.1322306394577026,-0.1066254377365112,0.1933965682983398,426,209,11003,-7903
19.0,1788344052077,0.3661971688270569,-0.8169013857841492,-0.0005344203673303,-0.0083482945337891,0.2746903598308563,0.961496353149414,-0.0022067929562719,-0.0039103013182618,-1.2106239970030774e-05,-0.0031143333762884,-0.1426562964916229,-0.1912771761417389,0.0061087859794497,-0.0047653941437602,0.9584990739822388,0.2849904894828796,0.0003570106460396,-0.138647073332687,-0.1793677530124997,-0.6043353080749512,-0.0401729941368103,-0.0144643783569335,375,242,10986,-8364
19.1,1788344052177,0.6197183132171631,-0.9014084339141846,0.000313286203891,-0.0118739763274788,0.269660621881485,0.9628821015357972,-0.0029608167546393,-0.001194649187297,-1.279941390219573e-05,-0.0078308787196874,-0.1451708227396011,-0.2102289348840713,0.0160785615444183,-0.0081986654549837,0.953895092010498,0.2995973825454712,-0.0159931395740677,-0.1551350977861662,-0.2463580623594342,-0.4519856572151184,-0.1052088141441345,-0.3988189697265625,375,242,10986,-8364
19.2,1788344052277,2.929577350616455,1.6619718074798584,0.0017726609949022,-0.0180106423795223,0.2606468796730041,0.9652645587921144,-0.0009719104131852,-0.0034442823195351,5.313384581554173e-07,-0.0093111572787165,-0.1402870565652847,-0.2140647023916244,0.017303355038166,-0.008647090755403,0.952782154083252,0.3030377924442291,-0.0031719114833093,0.0048134369358743,-0.008039379246866,0.4557357430458069,-0.0889695286750793,-0.0050439834594726,375,242,10986,-8364
19.3,1788344052377,3.4084506034851074,2.7042253017425537,0.0020672820974141,-0.0192338861525058,0.2575972974300384,0.9660587310791016,0.0465077745682701,0.0060154998731386,2.5752147781135663e-06,0.0002129576605511,-0.0024530496448278,0.023071801289916,0.0176979973912239,-0.0087111061438918,0.954136312007904,0.2987220585346222,0.001225044946075,-0.0163550555855439,0.1417405923328378,0.9153333902359008,0.1022910475730896,-0.0788288116455078,525,94,20667,10240
19.4,1788344052477,5.239436626434326,5.070422649383545,0.0020388807170093,-0.0195658560842275,0.2650633454322815,0.9640303254127502,0.1239778263308907,0.0007203653395518,3.215220565673708e-06,-0.0033564874902367,-0.001177457626909,0.2080550193786621,0.017482154071331,-0.0084862811490893,0.9570393562316896,0.2893063724040985,0.0186604441057576,0.019471497630739,0.2746302121655272,0.570818305015564,-0.2064834833145141,0.0755262374877929,447,80,22347,14924
19.5,1788344052577,5.633802890777588,4.676056385040283,0.002254283754155,-0.0193018354475498,0.2711351215839386,0.9623451232910156,0.1545940867843622,0.0080279025032323,1.664004754266589e-05,0.0169249791651964,0.007484698202461,0.2664550542831421,0.0161892194300889,-0.0080504715442657,0.9591719508171082,0.2822452485561371,-0.0052182101902009,0.0468558155652902,0.0355204950163618,0.0299654006958007,-0.2869524359703064,0.421915054321289,386,50,22609,11000
19.6,1788344052677,5.633802890777588,5.267605781555176,0.002254283754155,-0.0193018354475498,0.2711351215839386,0.9623451232910156,0.1545940867843622,0.0080279025032323,1.664004754266589e-05,0.0169249791651964,0.007484698202461,0.2664550542831421,0.0167698003351688,-0.0078833503648638,0.9588093757629396,0.2834452986717224,0.0038878187141697,0.0138187979454034,-0.0268633809990266,0.2430047392845153,-0.0411387681961059,0.1289691925048828,344,66,19681,10919
19.7,1788344052777,5.239436626434326,4.985915660858154,0.0023260279558598,-0.0184603501111269,0.2772426307201385,0.9606197476387024,0.1711300844275827,0.0050802228900647,-2.3929603379005945e-06,-0.0017237970605492,0.001643634866923,0.0106913689523935,0.0166283007711172,-0.0082317190244793,0.9589964151382446,0.2828104794025421,-0.0032508366787199,0.0361718620485081,0.0086050659664565,-0.2215399742126464,-0.0285557508468627,0.2235965728759765,341,88,20454,12190
19.8,1788344052877,5.183098793029785,4.788732528686523,0.0020670539233833,-0.0186381004750728,0.2776029109954834,0.96051287651062,0.1671848292767142,0.0031590194616989,-9.884555109647358e-05,-0.0038336890283972,0.0181500129401683,0.0054056611843407,0.0168920494616031,-0.0082996515557169,0.9591746926307678,0.2821874320507049,0.0008716953023751,-0.0113358347043908,0.0267296562415119,0.0861940383911132,-0.0305463075637817,-0.1673612594604492,368,22,20608,12671
19.9,1788344052977,5.154929637908936,4.478873252868652,0.0024589987006038,-0.0191984809935092,0.2786676287651062,0.960192620754242,0.1727364998279673,0.0023043845027386,4.402233225436179e-07,0.0045345802791416,-0.0169818047434091,0.014470481313765,0.0177729446440935,-0.0083111133426427,0.9592920541763306,0.2817336022853851,0.0014401319488907,-0.0486158062897897,0.0043400989354846,-0.1225041151046752,-0.1156201958656311,-0.2248029708862304,368,22,20608,12671
20.0,1788344053077,1.94366192817688,1.8591549396514893,0.0002510426566004,-0.011475152336061,0.2811816334724426,0.959585964679718,0.0928767458971543,0.0008878537203476,-0.0003567144686375,0.0005893603083677,0.2131339758634567,0.0228280015289783,0.0098072122782468,-0.0059632798656821,0.9601178169250488,0.2793602645397186,0.0008149563371089,0.2658035699253103,0.0136102347446038,-1.186540961265564,-0.1534422636032104,-0.1039810180664062,116,77,7609,1540
20.1,1788344053177,0.0,-0.5070422291755676,0.0002510426566004,-0.011475152336061,0.2811816334724426,0.959585964679718,0.0928767458971543,0.0008878537203476,-0.0003567144686375,0.0005893603083677,0.2131339758634567,0.0228280015289783,0.0009753890335559,-0.0030248258262872,0.9608070850372314,0.2771995067596435,0.0054345580115282,-0.0125989021925482,-0.0014440248898165,0.303264319896698,0.3457250595092773,0.0140810012817382,156,244,4225,-4891
20.2,1788344053277,0.8450704216957092,-0.8169013857841492,-0.0022471456322818,-0.0021866073366254,0.283976286649704,0.9588261246681212,0.0073304326586917,-0.0013589484295114,-1.7891672701468594e-05,0.004758114926517,0.1359689086675644,0.081529714167118,0.0032906839624047,-0.0038300519809126,0.9589008092880248,0.2836965024471283,-0.0038193354936446,-0.0728179014930867,-0.2030001918497386,0.0949508547782898,0.1354410052299499,0.1067304611206054,257,315,8555,-8433
20.3,1788344053377,0.0,-0.7887324094772339,-0.0003715443890541,-0.0091960886493325,0.2719406187534332,0.9622700214385986,-0.0008425811691883,0.0013194984655266,4.655449882154177e-06,-0.006064343266189,-0.1460665464401245,-0.1673853248357772,0.0168557167053222,-0.00822873134166,0.9547805190086364,0.2967192828655243,-0.0019544347337318,-0.3145818385642527,-0.2464098759934901,0.1551239490509033,0.2515822649002075,0.8396453857421875,294,274,13428,-8716
20.4,1788344053477,3.4084506034851074,2.5352113246917725,0.0027550600934773,-0.0211116857826709,0.2627116739749908,0.9646394848823548,0.0267544233651361,0.0032112048957833,7.05935464248963e-05,-0.0085689648985862,-0.3904047906398773,-0.209786519408226,0.0208392962813377,-0.0093100909143686,0.9548378586769104,0.2962495684623718,0.0254093977011363,0.0043258506142597,0.1251137119870949,0.3322845101356506,-0.3153522610664367,-0.0049104690551757,294,274,13428,-8716
20.5,1788344053577,4.676056385040283,4.056337833404541,0.0027550600934773,-0.0211116857826709,0.2627116739749908,0.9646394848823548,0.0267544233651361,0.0032112048957833,7.05935464248963e-05,-0.0085689648985862,-0.3904047906398773,-0.209786519408226,0.0203330311924219,-0.0089653693139553,0.9571515917778016,0.2887334823608398,0.0056328708861593,0.0146786085648682,0.216667832625075,0.5130939483642578,-0.0421460270881652,-0.0831680297851562,491,236,22436,14365
20.6,1788344053677,5.295774459838867,4.873239517211914,0.00330386380665,-0.0213926993310451,0.2756940424442291,0.9610016942024232,0.1642613110088267,0.0045133581220973,-1.235083705310068e-05,0.0073167392984032,0.0196334905922412,0.1993887722492218,0.0196390654891729,-0.0086147552356123,0.9587598443031312,0.2834071815013885,0.0087817705805391,0.0345636099157026,0.1792373542715413,0.6342513561248779,-0.3319353461265564,-0.0112028121948242,481,139,22498,15238
20.7,1788344053777,5.492957592010498,5.802816867828369,0.0032425648532807,-0.0203076153993606,0.2805800139904022,0.9596103429794312,0.184079806387426,0.0051411166646982,-8.658192110609616e-05,0.0068722362630069,0.0393417105078697,0.0839267000555992,0.018476178869605,-0.0081604290753602,0.9597820043563844,0.2800190448760986,0.0029335238579016,0.0429310287771935,0.0614969610113622,-0.6592597961425781,0.3345542550086975,-0.2196292877197265,249,38,18182,13619
20.8,1788344053877,4.929577350616455,5.690140724182129,0.00264473259449,-0.0180295221507549,0.2818524241447449,0.9592847228050232,0.1796025792573864,0.0017164395877544,-0.0003711326942421,0.0029407741967588,0.0748373866081237,0.0419215150177478,0.017946284264326,-0.0074445158243179,0.9609004259109496,0.2762118875980377,-0.0010990499831083,-0.062830699537354,-0.0008527810648777,0.4772269129753113,-0.894435465335846,-0.1248273849487304,249,38,18182,13619
20.9,1788344053977,3.91549301147461,4.873239517211914,0.0034745607990771,-0.019424607977271,0.2842627763748169,0.9585433602333068,0.1619799690578615,0.0033517479029039,1.758299924143461e-06,8.867160516956575e-08,5.541975323097858e-09,5.674982730852207e-06,0.0164929069578647,-0.0069685848429799,0.9612220525741576,0.2751937210559845,0.0075888113940892,0.1199383257540135,0.0628066910442658,-0.2920736670494079,0.1500838994979858,-0.1030721664428711,238,21,15122,8172
21.0,1788344054077,0.7887324094772339,2.507042169570923,0.0011786944232881,-0.0115363281220197,0.2888237833976745,0.9573120474815368,0.11312931955241,0.0061576769786374,-0.0002848055903913,0.001939388224855,0.2115872502326965,0.1304742991924286,-0.0014912467449903,-0.0020583225414156,0.9652019739151,0.2614932358264923,-0.0046493582746936,0.2846002272909051,0.3136721835812416,-1.1258914470672607,0.2120411992073059,-2.883739471435547,123,32,2757,7730
21.1,1788344054177,-0.7887324094772339,1.6901408433914185,0.0011786944232881,-0.0115363281220197,0.2888237833976745,0.9573120474815368,0.11312931955241,0.0061576769786374,-0.0002848055903913,0.001939388224855,0.2115872502326965,0.1304742991924286,-0.001003535464406,-0.0017280457541346,0.968121349811554,0.2504738271236419,0.0124297528401778,-0.0120024207170173,0.3286039090972323,0.0993155837059021,-0.1772446036338806,-0.2560014724731445,112,93,-7385,5997
21.2,1788344054277,-1.9154930114746092,1.7464789152145386,-0.0020031433086842,0.0001019511255435,0.3154473304748535,0.9489410519599916,0.0054354900475353,-0.005098123764827,3.577612379297529e-07,0.0027928664349019,0.0069801923818886,0.2803589403629303,-0.0010277293622493,-0.0015945034101605,0.9709479808807372,0.2392832338809967,0.0042486938085525,-0.0014431729588286,0.3892340773047171,0.0737329721450805,0.8075459599494934,-0.1263990402221679,108,92,-7829,7621
21.3,1788344054377,-1.7183098793029783,2.0,-0.0018347883597016,0.0001868399558588,0.3559383451938629,0.9345076084136964,0.0098310353572757,0.0015538128753224,1.6121476501089594e-06,0.0042378506623208,-0.0043939240276813,0.5285354852676392,-0.0011492725461721,-0.0014457646757364,0.9790568947792052,0.2035783380270004,0.0032451776961814,-0.0057194519748303,0.4834273394088623,0.0239299535751342,0.0661395788192749,-0.0324125289916992,154,85,-7066,5158
21.4,1788344054477,-1.436619758605957,1.5774648189544678,-0.0018233903683722,0.0001859462354332,0.3659093081951141,0.9306487441062928,0.0038211260817744,0.0014601405438395,-7.102672503772687e-07,5.526984023163095e-05,-0.0008931737975217,0.425060361623764,-0.0010681021958589,-0.0014972770586609,0.9844737648963928,0.1755226105451584,-0.0038949690489397,-0.0101151506684838,0.4557549707270575,0.0732824802398681,-0.0345466136932373,0.0534629821777343,152,158,-7861,6289
21.5,1788344054577,-1.408450722694397,1.380281686782837,-0.0018929906655102,0.0001037624897435,0.3863153457641601,0.9223648309707642,0.0025958837833524,0.0004526844873429,-1.826011341274417e-06,-0.0044294372200965,-0.0037457786966115,0.4780800342559814,-0.0010681021958589,-0.0014972770586609,0.9844737648963928,0.1755226105451584,-0.0038949690489397,-0.0101151506684838,0.4557549707270575,0.0732824802398681,-0.0345466136932373,0.0534629821777343,152,158,-7861,6289
21.6,1788344054677,-1.183098554611206,1.0140844583511353,-0.0019542227964848,-2.236460568383336e-05,0.4053810238838196,0.9141457676887512,0.0040686121351258,-0.0010892664357859,-1.2503349153949904e-06,-0.0009537597652524,-0.0045230011455714,0.4282746613025665,-0.0010283244773745,-0.0016952119767665,0.9905661344528198,0.1370209157466888,-0.0014610149651254,0.0001083994234997,0.2967883181921235,-0.0436490178108215,0.1728880405426025,0.161900520324707,146,146,-6784,6150
21.7,1788344054777,-1.211267590522766,1.2676056623458862,-0.0020497730001807,-7.996079511940479e-05,0.422761470079422,0.9062386751174928,0.0028570320450772,0.0003508739247907,3.725474618496274e-07,-0.0042850919999182,-0.0027230407577008,0.3455896377563476,-0.0009673135355114,-0.0015512891113758,0.9927738308906556,0.1199866458773613,0.009791947759429,-0.0038294420884001,0.4294217342535554,0.1375548243522644,0.6188058853149414,0.1351680755615234,133,103,-6880,5393
21.8,1788344054877,-1.0985915660858154,1.2676056623458862,-0.0019309064373373,-0.0001426292583346,0.4408006966114044,0.897602915763855,0.0028473467948777,0.0027644402643822,-2.691967184653655e-07,-0.0047987913712859,-0.0047397147864103,0.4004214107990265,-0.0009673135355114,-0.0015512891113758,0.9927738308906556,0.1199866458773613,0.009791947759429,-0.0038294420884001,0.4294217342535554,0.1375548243522644,0.6188058853149414,0.1351680755615234,133,103,-6880,5393
21.9,1788344054977,-1.380281686782837,1.3521126508712769,-0.001905025797896,-0.0002213677507825,0.4557472169399261,0.8901071548461914,0.0014092012727235,0.001226010154891,9.93007803819346e-07,-0.0019749011844396,-0.0018087158678099,0.3428800106048584,-0.0008435044437646,-0.0018118591979146,0.9959964752197266,0.0893701463937759,-0.0067471884333344,-0.0021897115309577,0.3623027181983639,0.1034460663795471,-0.2170563340187072,0.0527772903442382,158,133,-6170,5448
22.0,1788344055077,-1.380281686782837,1.3521126508712769,-0.0019736022222787,-0.0002667809021659,0.4711983203887939,0.8820250630378723,0.0045576061112467,-0.0018423353417507,1.6396660263890604e-06,-8.432397407887038e-06,-0.0007495952304452,0.3711134195327759,-0.0008283918723464,-0.0018054936081171,0.997355580329895,0.0726500675082206,-0.0001654113119298,-0.0018503616818737,0.3642068352142759,0.0895349979400634,-0.0805368423461914,-0.045485496520996,73,93,-5142,4836
22.1,1788344055177,-0.8169013857841492,0.9014084339141846,-0.0019373297691345,-0.0002804526593536,0.4818455874919891,0.8762539625167847,0.0053076907131464,-0.0001725782509476,1.3948932557757487e-06,0.0005072410567663,-0.0015425598248839,0.3613122999668121,-0.0007395660504698,-0.0016787191852927,0.9987366795539856,0.0502163358032703,0.0025713475676614,-0.0016812131947396,0.3224379255475283,0.0437468290328979,-0.1142250299453735,0.0225753784179687,58,86,-5010,4104
22.2,1788344055277,-0.7042253613471985,0.6760563254356384,-0.001754518947564,-0.0003297565272077,0.5011166930198669,0.8653779029846191,0.0006803458640471,-0.0052985049234139,-4.98471931156563e-07,0.0005028618033975,-0.0023873494938015,0.2578851282596588,-0.0007019797340035,-0.0016398876905441,0.9993591904640198,0.0357491597533226,0.0008896329544113,-0.0001937941480341,0.2456989929488656,0.0398609638214111,-0.0076503753662109,0.0768775939941406,125,91,-5347,5041
22.3,1788344055377,0.0,1.5492957830429075,-0.0017739296890795,-0.0002910529146902,0.505992591381073,0.8625358939170837,0.0012683870876654,-0.0025520720177864,2.240489330557652e-06,-3.055754496017471e-05,0.0013194856001064,0.2207894027233123,-0.0006508938968181,-0.0016265632584691,0.9997423887252808,0.0226300619542598,-0.0012134032518275,-0.0050791493298163,0.2494884783833728,1.1063780784606934,0.0913175344467163,-0.0830011367797851,2,219,0,10980
22.4,1788344055477,2.422535181045532,4.816901206970215,-0.0017057253280654,-0.0003555919392965,0.5219227075576782,0.852990984916687,0.021288978260136,0.0019453864388161,5.176773856239863e-06,-0.0010184058919548,-0.0049816332757472,0.270018607378006,0.0004220986738801,0.0017745159566402,-0.999997854232788,0.0009598098695278,-0.004912659023008,-0.0102470444312833,0.4136758748626055,1.0937341451644895,-0.1824743151664734,-0.1325979232788086,184,261,11612,18219
22.5,1788344055577,2.422535181045532,4.816901206970215,-0.0017408673884347,-0.0004408883978612,0.533699095249176,0.8456724882125854,0.0711885560833946,0.0012275034078135,7.73575627302017e-07,-0.0025123432278633,-0.0023398480843752,0.4207402169704437,-0.0001506600528955,0.0012749675661325,-0.9998194575309752,0.0189616028219461,0.0110086888624603,-0.0140459776920809,0.3581154553487222,-0.1739152669906616,-0.1317108869552612,-0.4411525726318359,184,261,11612,18219
22.6,1788344055677,4.3380279541015625,5.633802890777588,-0.0008507258608005,-0.0009104490745812,0.5562016367912292,0.8310464024543762,0.1805304935960127,0.0073581708958483,3.572291910055288e-05,0.0130932824686169,-0.0151896942406892,0.3700436651706695,-0.0001506600528955,0.0012749675661325,-0.9998194575309752,0.0189616028219461,0.0110086888624603,-0.0140459776920809,0.3581154553487222,-0.1739152669906616,-0.1317108869552612,-0.4411525726318359,86,60,12509,17579
22.7,1788344055777,4.478873252868652,6.422535419464111,-5.744941881857813e-05,-0.0009292846079915,0.5673568248748779,0.8234714269638062,0.1863659775041589,-0.0039274965061489,2.563535809220071e-05,0.0137213906273245,-0.0130206942558288,0.2630535960197449,-0.0013873809948563,0.0002573495730757,-0.999008059501648,0.0445091873407363,0.0046676839188711,-0.0166736053439412,0.2401195656430489,-0.0477179288864135,0.1236481666564941,-0.2764177322387695,67,68,11723,17716
22.8,1788344055877,4.197183132171631,6.3380279541015625,0.0004356882418505,-0.0011422235984355,0.571642279624939,0.820501983165741,0.1722231162932576,0.0017793181497059,4.420393394563704e-05,0.0129855601117014,-0.0205794852226972,0.2341751903295517,-0.0017037168145179,0.0002558100968599,-0.9983872175216676,0.0567448884248733,-0.0030187456502848,0.0002488709328148,0.2653081782465754,-0.2105670571327209,0.2180318236351013,0.0919733047485351,80,127,12515,15238
22.9,1788344055977,4.169013977050781,5.690140724182129,0.00092937448062,-0.0016285076271742,0.5890717506408691,0.8080786466598511,0.1700200388054672,0.0029978552519676,-9.086468129226188e-06,0.0065259933471679,-0.0051680831238627,0.2863900065422058,-0.0019742110744118,9.56142321228981e-05,-0.997959315776825,0.0638235434889793,0.0061327563451318,-0.0112224525432661,0.2814111905299383,0.171753704547882,0.1286661624908447,0.2412252426147461,112,146,12903,17335
23.0,1788344056077,4.169013977050781,5.690140724182129,0.0013167555443942,-0.0019665032159537,0.599124014377594,0.8006527423858643,0.1779394200836962,-0.0016892536622248,3.77418080466582e-06,0.0014766987878829,-0.0141346864402294,0.2479037344455719,-0.0022421004250645,0.0005272356793284,-0.9968188405036926,0.0796675682067871,-0.0284396233410242,0.0190117861057485,0.2464434310319054,-0.6959493160247803,-0.064468502998352,-0.3030900955200195,112,146,12903,17335
23.1,1788344056177,4.704225540161133,5.042253494262695,0.0018497348064556,-0.0044327592477202,0.6106101870536804,0.7919166684150696,0.1623225198090455,0.0212044340620695,0.0001603835181899,-0.0172265898436307,-0.1007468551397323,0.354951947927475,-0.0022421004250645,0.0005272356793284,-0.9968188405036926,0.0796675682067871,-0.0284396233410242,0.0190117861057485,0.2464434310319054,-0.6959493160247803,-0.064468502998352,-0.3030900955200195,258,54,16551,16064
23.2,1788344056277,4.422535419464111,6.2253522872924805,0.0049434690736234,-0.0091100605204701,0.6188812851905823,0.7854161262512207,0.1626164953764931,0.0054727265483291,0.0003411690517417,-0.0096261017024517,-0.0365818887948989,0.110652707517147,-0.0091208722442388,0.0011159600690007,-0.9947270750999452,0.1021454483270645,-0.0090910121245493,0.0582474336164455,0.1370044223298359,0.1230861544609069,0.1817979216575622,-0.0821075439453125,245,103,17971,12196
23.3,1788344056377,5.492957592010498,4.704225540161133,0.0022419588640332,-0.0061575192958116,0.6243202686309814,0.7811409831047058,0.1728742014472224,0.0061804714236676,-0.0002505083096477,0.0002503762661945,0.1238603219389915,0.1695594489574432,-0.0024302145466208,0.001983081921935,-0.9942257404327391,0.1072628870606422,-8.221531309830298e-05,0.0218597766502155,-0.0123249400068152,-0.5989499688148499,-0.6697845458984375,0.9159555435180664,310,29,20752,10953
23.4,1788344056477,5.633802890777588,4.788732528686523,-0.0007219539256766,-0.0030010165646672,0.6212083101272583,0.7836393713951111,0.1638959946237696,0.0033135556530162,2.536466209278166e-05,-0.006479375064373,0.0033148750662803,-0.1714792549610138,-0.0020768931135535,0.0023463033139705,-0.9949318766593932,0.1005030274391174,-0.0110261093664471,0.0053437849779391,-0.1801369458811621,-0.019678771495819,-0.0308005213737487,0.2959566116333008,285,34,19653,13149
23.5,1788344056577,5.943662166595459,3.802816867828369,-0.000892394571565,-0.0031694315839558,0.6171067357063293,0.7868725061416626,0.1600768763457805,-0.0012721830885347,3.397724492920896e-06,-0.0083121731877326,-0.0004499573551584,-0.1749190986156463,-0.0021722670644521,0.0024719471111893,-0.9953479766845704,0.0962895154953002,-0.0056880752146099,-0.0028874065358241,-0.1695232798762159,0.1784543991088867,0.1279848217964172,-0.1683359146118164,283,38,20630,12332
23.6,1788344056677,5.88732385635376,4.422535419464111,-0.0011502584675326,-0.0032638937700539,0.6116719245910645,0.7911039590835571,0.1775789994278596,0.0046452913153027,-1.4539465166858214e-05,-0.0087812524288892,0.0029165409505367,-0.1812047213315963,-0.0016031619161367,0.0032496629282832,-0.9966250061988832,0.0820095017552375,-0.0129593005086642,0.0036114966521403,-0.2185234634760021,-0.545017421245575,0.0432211756706237,0.2111415863037109,296,26,20951,10489
23.7,1788344056777,5.577464580535889,4.366197109222412,-0.0011502584675326,-0.0032638937700539,0.6116719245910645,0.7911039590835571,0.1775789994278596,0.0046452913153027,-1.4539465166858214e-05,-0.0087812524288892,0.0029165409505367,-0.1812047213315963,-0.0018083257600665,0.0037119155749678,-0.9969513416290284,0.0779173374176025,-0.0218752457810844,-0.0151177821739312,-0.0877199608906883,0.461404800415039,-0.1253297924995422,-0.2479839324951172,267,124,19784,13109
23.8,1788344056877,5.436619758605957,4.8450703620910645,-0.0019372241804376,-0.0040797647088766,0.6016721129417419,0.7987304329872131,0.1656899896807683,0.003170598018626,7.925652757785912e-07,-0.0079488335177302,-0.0247322339564561,-0.0313156098127365,-0.0028471229597926,0.0041311681270599,-0.997090756893158,0.0760580971837043,-0.010878482295581,-0.0032036588697415,-0.0506014962966926,0.2847387790679931,-0.131820797920227,0.2081212997436523,319,23,21043,10911
23.9,1788344056977,5.239436626434326,4.478873252868652,-0.0019144328543916,-0.0047345282509922,0.5988180041313171,0.8008688688278198,0.1582141322262475,-0.0023560581320713,3.516246081808236e-05,-0.0015757459914311,-0.0021637105382978,-0.0820061489939689,-0.002694453112781,0.0040834806859493,-0.9973219037055968,0.0729739144444465,0.0049980654365725,-0.0026144111389678,0.010290943754891,-0.3230245113372803,0.4783205389976501,0.0139551162719726,290,71,19379,14362
24.0,1788344057077,5.239436626434326,5.014084339141846,-0.002017302904278,-0.0044868420809507,0.5986291170120239,0.8010112047195435,0.1745513110699785,0.0016559874103015,2.17595104722517e-06,0.0029184103477746,-0.0005693725543096,0.0206393860280513,-0.002694453112781,0.0040834806859493,-0.9973219037055968,0.0729739144444465,0.0049980654365725,-0.0026144111389678,0.010290943754891,-0.3230245113372803,0.4783205389976501,0.0139551162719726,290,71,19379,14362
24.1,1788344057177,5.492957592010498,4.901408672332764,-0.002017302904278,-0.0044868420809507,0.5986291170120239,0.8010112047195435,0.1745513110699785,0.0016559874103015,2.17595104722517e-06,0.0029184103477746,-0.0005693725543096,0.0206393860280513,-0.0027275821194052,0.0043168673291802,-0.997221052646637,0.0743248537182807,-0.0027175841630978,-0.0149225145105926,0.0131181209959399,0.1078286170959472,-0.3091204762458801,0.0221900939941406,373,39,21875,9897
24.2,1788344057277,5.6619720458984375,4.929577350616455,-0.0002446596045047,-0.0068623963743448,0.5955423712730408,0.8032945394515991,0.1670495545448176,-0.0030998795507631,0.0001756991656201,0.0070951958186924,-0.0701493918895721,-0.10795409232378,-0.0080571919679641,0.0035701384767889,-0.997781217098236,0.0659922435879707,0.0139406977794261,-0.070730058260027,-0.0975316512858771,0.3539509773254394,0.2162612080574035,0.0114040374755859,289,63,20851,10081
24.3,1788344057377,5.126760482788086,5.380281925201416,0.0009259935468435,-0.0083408402279019,0.5931149125099182,0.8050740957260132,0.1508853578154718,-0.0073836606398438,0.0001801956403619,0.0017023193649947,-0.0729555785655975,-0.1176233887672424,-0.00959949567914,0.0032597156241536,-0.9978530406951904,0.0647035986185073,-0.0027904531870013,0.0173012810195859,0.0371523062848192,0.0431854724884033,-0.0841470956802368,-0.054300308227539,287,103,18753,12089
24.4,1788344057477,4.901408672332764,5.690140724182129,0.0026706208009272,-0.0101124932989478,0.5908291935920715,0.8067288994789124,0.1705007423547397,-8.150431198955146e-05,3.690446834055462e-05,0.0026601876597851,-0.0190692171454429,-0.0259741805493831,-0.0062193488702178,0.0034831129014492,-0.9975010752677916,0.0702915415167808,0.0014877375668458,0.0655910356223085,0.1091113533603557,0.1726930141448974,-0.47368323802948,0.0761251449584961,326,58,18459,11656
24.5,1788344057577,4.901408672332764,4.816901206970215,0.0003493162803351,-0.0069818906486034,0.5966887474060059,0.8024423122406006,0.177001356529125,0.0006641385863808,-0.000136656088966,0.0020675240084528,0.0451359860599041,0.1156963184475898,-0.0062193488702178,0.0034831129014492,-0.9975010752677916,0.0702915415167808,0.0014877375668458,0.0655910356223085,0.1091113533603557,0.1726930141448974,-0.47368323802948,0.0761251449584961,308,60,18572,14607
24.6,1788344057677,5.014084339141846,5.464788913726807,0.0009595584124326,-0.0074218739755451,0.6004344820976257,0.7996389269828796,0.1765297940044751,0.0006969430707523,4.647466843853426e-05,0.0043067196384072,-0.0245147384703159,0.0925163105130195,-0.0085475388914346,0.0031852284446358,-0.996836483478546,0.0789551883935928,-0.0097595566544083,-0.048218168787607,0.0682834183226242,-0.0518231391906738,-0.2851681709289551,-0.2082996368408203,304,51,19497,11223
24.7,1788344057777,4.8450703620910645,5.183098793029785,0.0027874484658241,-0.0099533488973975,0.6054788827896118,0.7957941889762878,0.1754199130431097,0.0005422075270933,0.0001191470377122,0.0045153181999921,-0.0416134074330329,0.1069201976060867,-0.0104861129075288,0.0029883310198783,-0.9963021278381348,0.0852240473031997,0.0012919553476902,-0.0347181542143865,0.1264471623188442,-0.1635240316390991,0.032050609588623,0.0701618194580078,346,77,19029,13508
24.8,1788344057877,5.042253494262695,5.014084339141846,0.0036616886500269,-0.0113909021019935,0.6103602647781372,0.7920336127281189,0.1677338585750746,0.0006245930104938,0.0001303024219011,-0.0037613522727042,-0.0350852571427822,0.0973229184746742,-0.0121090915054082,0.0031988220289349,-0.9959099888801576,0.0894794836640358,-0.0144328820344172,-0.0412249158529558,0.0900629137043422,0.1271268725395202,-0.2578867077827453,-0.0322389602661132,316,70,19581,12817
24.9,1788344057977,5.042253494262695,4.816901206970215,0.0047935219481587,-0.0132288932800292,0.6128650307655334,0.7900623679161072,0.1726837454932043,0.0023045139494427,0.0001375283093813,0.0042084134183824,-0.0561804808676242,0.051209345459938,-0.0144701283425092,0.0030198348686099,-0.9956693053245544,0.091783732175827,0.0019818602839308,-0.076641866691839,0.0454438330112764,-0.1132861971855163,0.1575601696968078,0.1553611755371093,300,96,18685,14579
25.0,1788344058077,4.704225540161133,4.760563373565674,0.0068070814013481,-0.0156504213809967,0.6151873469352722,0.7881961464881897,0.1671785004860567,0.0036265652463906,0.0002019027441833,0.0054878797382116,-0.0627554655075073,0.0781069099903106,-0.0171370971947908,0.002711241133511,-0.995306432247162,0.0952053368091583,-0.0038271334946336,-0.0370380419646566,0.0894800070435716,-0.2229936122894287,0.1828105449676513,0.1067142486572265,317,42,19438,14828
25.1,1788344058177,4.788732528686523,4.929577350616455,0.0072503732517361,-0.0161878801882267,0.6190119981765747,0.7851812839508057,0.1670347121320504,0.0038489746573471,4.957725915065362e-05,0.0076602753251791,-0.0088782664388418,0.1086637377738952,-0.0172575507313013,0.0024764304980635,-0.9946526288986206,0.1017955914139747,0.0091941037616642,0.0093976125321493,0.1127722127673596,0.1004868149757385,-0.2246729731559753,-0.0577821731567382,314,23,19349,14268
25.2,1788344058277,5.183098793029785,4.929577350616455,0.0069096619263291,-0.0149343824014067,0.6232547760009766,0.7818456292152405,0.175846904625904,0.0007373464438785,-8.388138779913486e-05,0.012901279143989,0.0288295671343803,0.0886574313044548,-0.0158384721726179,0.0023439675569534,-0.9943320155143738,0.1051070019602775,-0.0058691026924871,0.0369521483787197,0.0347763653414161,-0.1590713262557983,0.0597588419914245,0.0963525772094726,275,31,19035,12983
25.3,1788344058377,5.126760482788086,5.492957592010498,0.0065595270134508,-0.0147397415712475,0.6242257356643677,0.7810773849487305,0.1693198843535241,0.0014410138918099,-2.193597955317104e-06,-0.0013924546074122,-0.0040182415395975,0.0184590015560388,-0.016364162787795,0.0021905452013015,-0.9941843152046204,0.1064194962382316,0.0082384293496524,-0.0189153893952168,0.0224251848921378,0.17208993434906,-0.3076396584510803,0.0287084579467773,311,43,20260,10190
25.4,1788344058477,5.211267471313477,4.535211086273193,0.0072674914263188,-0.0152110932394862,0.6247498393058777,0.7806430459022522,0.1666755941041101,0.0011689311835897,4.474368877424783e-05,0.0065786023624241,-0.0213811360299587,0.0089017804712057,-0.0167445447295904,0.0018208287656307,-0.9941723346710204,0.1064789071679115,0.0024036074991017,0.0148684460362259,-0.0029079583985987,-0.0615015029907226,0.1960123181343078,-0.0451269149780273,351,90,20293,13522
25.5,1788344058577,5.323943614959717,4.647887229919434,0.0074387295171618,-0.0143986828625202,0.6252089738845825,0.7802890539169312,0.1792144015127689,0.0021194594906708,-0.0001212426206794,0.0197739452123641,0.0344819575548172,0.023498659953475,-0.0161452982574701,0.0014945417642593,-0.9941105246543884,0.1071508601307869,-0.001982622966393,-0.0023681510827338,0.0008572920344697,0.1789200901985168,-0.0921841263771057,-0.0881462097167968,296,65,19830,12996
25.6,1788344058677,5.380281925201416,4.591549396514893,0.0074935229495167,-0.0145165100693702,0.6252099871635437,0.780285656452179,0.1685230373201992,0.0019033720655816,-8.334114827857124e-08,0.0,0.0,0.0,-0.0156453046947717,0.0012766867876052,-0.9940497279167176,0.1077900826930999,0.0033660435687362,0.0268333877889372,0.0121955800554774,0.3644262552261352,-0.0139090418815612,0.105722427368164,344,28,19664,13115
25.7,1788344058777,5.436619758605957,4.929577350616455,0.0077892034314572,-0.0143519630655646,0.625912606716156,0.779722273349762,0.1709935957081713,-0.0009046682061029,-4.204234801576952e-07,0.0043357056565582,-0.0106652770191431,0.0149032985791563,-0.0164519976824522,0.0010046157985925,-0.9941408038139344,0.1068288758397102,0.0048877571958436,-0.0011669158551025,-0.0698693347823875,-0.1850930452346801,-0.1564264297485351,-0.0297565460205078,331,24,21787,9442
25.8,1788344058877,5.605633735656738,4.676056385040283,0.0087353158742189,-0.0150882042944431,0.6234477758407593,0.7816706299781799,0.1660261891473371,0.0006015399866261,9.283284530748314e-05,0.0041782585904002,-0.0393352210521698,-0.0791225060820579,-0.0175615698099136,0.0006755664944648,-0.994527280330658,0.1029889807105064,0.0017967021277822,0.0025786959944197,-0.0990524447742899,0.3297321796417236,0.2719035148620605,-0.2493305206298828,412,20,21242,10582
25.9,1788344058977,5.380281925201416,4.535211086273193,0.008370236493647,-0.0149188842624425,0.6198787093162537,0.784511148929596,0.1674781306185514,-0.0005764285127715,-3.968794976125074e-05,-0.0096104368567466,0.0256748031824827,-0.0945626720786094,-0.0172536689788103,0.0009756973013281,-0.9949156641960144,0.0992177128791809,-0.0012414554519058,-0.0188870672555108,-0.057852580890249,-0.3863067030906677,0.1021696925163269,0.0703496932983398,343,22,19512,13545
26.0,1788344059077,5.211267471313477,4.507042407989502,0.0087309423834085,-0.0153876906260848,0.6190321445465088,0.785166323184967,0.1688211717473737,0.0021099126405436,-1.1393717035595614e-06,0.0,0.0,0.0,-0.0180395934730768,0.000985343940556,-0.9948633313179016,0.0996019840240478,0.0014483168121438,-0.0145178437246717,0.0261380416806655,-0.2702388167381286,-0.108993113040924,-0.1111888885498046,335,46,19823,13872
26.1,1788344059177,5.295774459838867,4.732394218444824,0.0088057471439242,-0.015623758547008,0.6195467114448547,0.7847548127174377,0.1682304066944021,-0.0012957113697966,-3.535316547510373e-07,-0.0019709782209247,-0.0062790270894765,0.0149913802742958,-0.0182430911809206,0.0011421237140893,-0.994821548461914,0.099979892373085,-0.0118220851796668,-0.0184431690819987,-0.0018464366193715,-0.074657917022705,0.1815177202224731,0.0035133361816406,377,99,19958,13036
26.2,1788344059277,5.211267471313477,4.478873252868652,0.009202629327774,-0.0166656523942947,0.6198840737342834,0.7844624519348145,0.1660768430027576,0.002731856952297,5.454912216591775e-05,-0.0048022149130702,-0.0261812284588813,0.015711797401309,-0.0184840112924575,0.0015991050750017,-0.9947786927223206,0.1003554090857505,-0.0080813417011809,0.0250832504088724,-0.0023334047575863,0.1439801454544067,0.1236529350280761,0.2372245788574218,399,27,20399,13905
26.3,1788344059377,5.464788913726807,4.732394218444824,0.0090311598032712,-0.0166620351374149,0.6201149225234985,0.7842819690704346,0.1604230848604741,0.0014077865564995,1.1586125630792772e-06,-0.0061288271099328,0.0052335867658257,0.0143011519685387,-0.0198206324130296,0.0015562372282147,-0.994806170463562,0.0998267158865928,-0.00853493865741,-0.0576560314734981,-0.0615991683430217,-0.1766388416290283,-0.3000847697257995,0.1499452590942382,376,24,22050,10413
26.4,1788344059477,5.830986022949219,4.02816915512085,0.0096525568515062,-0.0182983577251434,0.6171440482139587,0.7865781784057617,0.1614862251707078,-2.698055877890617e-06,0.0002551770660761,-0.0097355591133236,-0.0314695835113525,-0.0927032008767128,-0.0205474998801946,0.0018429737538099,-0.9952350854873656,0.0952972620725631,-0.0123425028133046,0.0135729695332791,-0.1287915108909748,0.1900537610054016,-0.0007249116897583,0.2527809143066406,421,25,23539,10528
26.5,1788344059577,5.802816867828369,3.802816867828369,0.0095801372081041,-0.0185638703405857,0.6112902760505676,0.7911306619644165,0.169386722883908,-0.0054280819507472,1.0743184171578777e-06,-0.0041786786168813,-0.0062820194289088,-0.1767146289348602,-0.0208268892019987,0.0018265452235937,-0.9961732029914856,0.0848642066121101,-0.0009327648047971,0.0007847893116024,-0.1842052575168865,-0.0887287259101867,-0.1416347026824951,-0.1035194396972656,385,19,23439,11329
26.6,1788344059677,5.88732385635376,4.02816915512085,0.0097663030028343,-0.0188216976821422,0.6040481925010681,0.7966656684875488,0.1705009887050685,-0.0010492591879143,3.169760556956918e-06,-0.0075575546361505,-0.0108672240749001,-0.1892957538366317,-0.0211005043238401,0.0018920041620731,-0.9966325759887696,0.079213872551918,-0.0091487299694931,-0.0130327327876432,-0.1932767645740699,-0.250428557395935,-0.1057076454162597,-0.2524242401123047,405,26,22461,11228
26.7,1788344059777,5.521126747131348,4.901408672332764,0.0100311273708939,-0.0188084654510021,0.5985221266746521,0.8008226752281189,0.1657404000454602,0.0012628262284807,6.978437511321124e-05,0.0051447199657559,-0.0117899263277649,-0.110863521695137,-0.0204184744507074,0.0017141783609986,-0.997201681137085,0.0718964263796806,-0.0038551628261282,0.0588303652529106,-0.103254476894297,-0.0191740989685058,-0.1971237063407898,0.0882186889648437,329,52,21550,10131
26.8,1788344059877,5.436619758605957,4.253520965576172,0.008780007250607,-0.0171092692762613,0.5935443639755249,0.8045715093612671,0.1635354725740818,0.0019793540262878,-7.873890376884237e-05,-0.0055423700250685,0.0323752835392952,-0.1034894213080406,-0.0187220349907875,0.0017138328403234,-0.9976153373718262,0.0664093196392059,0.0068503955161499,0.0260245751784029,-0.0566999653774209,-0.2303055524826049,-0.4807382822036743,-0.1587753295898437,394,24,21928,12190
26.9,1788344059977,5.464788913726807,4.873239517211914,0.0082643255591392,-0.0164436902850866,0.5914322137832642,0.8061447143554688,0.178296849217644,-0.0017373584074801,-6.162242780663894e-05,-0.0069132223725318,0.0076581118628382,-0.0584393963217735,-0.0184651892632246,0.0018964577466249,-0.99782794713974,0.0632052272558212,-0.000515743758326,-0.0078078771088912,-0.074666882060081,0.1606035828590393,0.2136679887771606,0.0867691040039062,395,63,22256,10157
27.0,1788344060077,5.633802890777588,4.985915660858154,0.0079101473093032,-0.0159996375441551,0.5882588624954224,0.8084757328033447,0.1636939819337624,0.0027556050866575,-5.068058498602944e-05,-0.0012132819974794,0.0282273758202791,-0.0995305702090263,-0.0177866034209728,0.0019144862890243,-0.997975528240204,0.0610324144363403,-0.0015495773395762,0.0402519731205939,-0.074550529534796,0.107072114944458,-0.0217881202697753,0.2684755325317383,377,58,21625,9626
27.1,1788344060177,5.577464580535889,4.563380241394043,0.0085084671154618,-0.0165185127407312,0.5851346254348755,0.8107233047485352,0.166721344601692,-0.0008256545141348,4.796927828439574e-05,0.0038918224163353,-0.0338219441473484,-0.0813843756914138,-0.0180197488516569,0.0017577009275555,-0.998376965522766,0.0539965666830539,-0.0083020326772798,0.0131533995132347,-0.0844523305670753,0.0964263081550598,0.1054778099060058,0.3661365509033203,394,79,21770,11414
27.2,1788344060277,5.746479034423828,4.901408672332764,0.0080187702551484,-0.0158921983093023,0.5806044936180115,0.813991129398346,0.1762802658483143,0.004290531930884,-9.39762610472615e-06,-0.0050595039501786,0.0105674462392926,-0.1031285375356674,-0.0179098490625619,0.0018263952806591,-0.9985650181770324,0.0504365526139736,-0.0050334845255658,-0.018505893396664,-0.0728125010630882,-0.3301236629486084,-0.0953900218009948,-0.1651382446289062,309,29,20857,10063
27.3,1788344060377,5.352112770080566,4.366197109222412,0.0077609228901565,-0.0158950351178646,0.5772551894187927,0.8163722157478333,0.1864008968344893,0.0030590648139075,-2.437814028669382e-05,-0.0070053106173872,0.008245101198554,-0.1017720103263855,-0.0172711871564388,0.0021792761981487,-0.9987837672233582,0.0461306162178516,-0.0112607631431804,0.0189242952391327,-0.0656709507231048,0.0055119395256042,0.1044380664825439,0.0296192169189453,293,106,19642,14467
27.4,1788344060477,5.436619758605957,4.507042407989502,0.0066451826132833,-0.0148868542164564,0.5761470198631287,0.8171834945678711,0.1816576330768095,0.0019301592725277,-0.0001577081452949,-0.0026905098930001,0.0288862194865942,-0.0045308815315365,-0.0168803185224533,0.0022747116163372,-0.9988718032836914,0.0443297997117042,-0.0017297141936428,-0.0336763305113586,-0.0791481698678803,-0.509316623210907,0.0862337946891784,-0.1294431686401367,344,49,20300,11180
27.5,1788344060577,2.450704336166382,4.0,0.0069600585848093,-0.0151876285672187,0.5747787952423096,0.8181383013725281,0.1605419839500338,0.0008039602116379,3.084965947735388e-06,-0.000904818996787,0.0159420203417539,-0.0068334271200001,-0.014007712714374,0.0024839611724019,-0.998827874660492,0.0462670251727104,0.0003482633009214,0.1268576242570036,0.1280316461876858,-0.5407042503356934,-0.1699851751327514,-0.2041454315185547,142,71,8195,10003
27.6,1788344060677,0.0,3.2676055431365967,-0.0007918177871033,-0.0042719133198261,0.5845048427581787,0.8113784790039062,0.0955985691324089,0.0018130462757898,-0.0005705261606602,0.0046150684356689,0.3106624186038971,0.2829725742340088,0.0007602619007229,0.0033354815095663,-0.9981299638748168,0.0610326938331127,-0.0069740990954713,0.3619043036947091,0.417206902165715,-2.025220394134521,-0.6277217864990234,3.2005929946899414,1,72,0,10513
27.7,1788344060777,-2.0281689167022705,2.197183132171631,-0.0029205970931798,-0.0009816247038543,0.6020577549934387,0.798446536064148,0.0501397126755904,-0.0016274764146622,1.5887693311733455e-05,0.0108681982383131,0.0075288275256752,0.4805916547775268,0.0006399480625987,0.0027815392240881,-0.996160626411438,0.0874974131584167,0.0084048996976967,-0.0045847305106943,0.5341541176289708,-0.8752722144126892,0.8099160194396973,-1.154977798461914,290,122,-11599,9206
27.8,1788344060877,-2.873239517211914,2.676056385040283,-0.0027278345078229,-0.0008336335304193,0.6265966892242432,0.7793384790420532,-0.0047831723557697,-0.0030721652837484,1.5225669414718718e-07,0.0033412848133593,-0.0086469948291778,0.7414693832397461,0.0008132038637995,0.0027874503284692,-0.9925001263618468,0.1222089231014251,-0.0035738636565481,0.0020659473209185,0.84670593790174,0.0426716208457946,-0.4133505225181579,-0.0019483566284179,96,164,-8587,8788
