time_s,timestamp_ms,wheel_vels__velocity_left,wheel_vels__velocity_right,odom__orient_x,odom__orient_y,odom__orient_z,odom__orient_w,odom__lin_x,odom__lin_y,odom__lin_z,odom__ang_x,odom__ang_y,odom__ang_z,imu__orient_x,imu__orient_y,imu__orient_z,imu__orient_w,imu__angvel_x,imu__angvel_y,imu__angvel_z,imu__acc_x,imu__acc_y,imu__acc_z,wheel_status__current_ma_left,wheel_status__current_ma_right,wheel_status__pwm_left,wheel_status__pwm_right
0.0,1788342890901,0.0,0.0,-0.0055884271860122,0.0027684480883181,-0.475316047668457,0.8797930479049683,0.0,0.0,0.0,0.0,9.432765679662223e-09,0.0,-0.0052630929276347,-0.0032403850927948,0.5016965866088867,0.8650216460227966,-0.0004864927946992,0.0008433488780616,-9.872559875929007e-05,-0.0066461563110351,0.0096551179885864,0.0172510147094726,0,0,0,0
0.1,1788342891001,0.0,0.0,-0.0055884271860122,0.0027684480883181,-0.475316047668457,0.8797930479049683,0.0,0.0,0.0,0.0,7.814886515689068e-09,0.0,-0.0052423365414142,-0.0032565686851739,0.5016880631446838,0.8650265336036682,0.0007033109816083,-0.0016141713341181,-0.0004300347478488,0.0054079890251159,-0.0336830019950866,0.0278759002685546,0,0,0,0
0.2,1788342891101,0.0,0.0,-0.0055884271860122,0.0027684480883181,-0.475316047668457,0.8797930479049683,0.0,0.0,0.0,0.0,6.581097000690761e-09,0.0,-0.0052526211366057,-0.003228560090065,0.5017145872116089,0.8650113344192505,-0.000804602554381,-0.0001119652980469,-0.0003173888263622,0.0221489071846008,0.0183379650115966,0.0209321975708007,0,0,0,0
0.3,1788342891201,0.0,0.0,-0.0055884271860122,0.0027684480883181,-0.475316047668457,0.8797930479049683,0.0,0.0,0.0,0.0,1.1632613983181272e-08,0.0,-0.0052240239456295,-0.0032518822699785,0.5017440319061279,0.8649942874908447,0.0007162626767742,-0.0018883292790994,0.0026435922229085,0.0070840716361999,-0.0016542077064514,0.0172529220581054,0,0,0,0
0.4,1788342891301,0.0,0.0,-0.0055884271860122,0.0027684480883181,-0.475316047668457,0.8797930479049683,0.0,0.0,0.0,0.0,9.302117298659596e-09,0.0,-0.0052417926490306,-0.0032600499689579,0.5017422437667847,0.8649951219558716,-0.0004713854833473,-0.0016605565053716,-0.000614158202606,0.0124755501747131,-0.0013133287429809,0.0280466079711914,0,0,0,0
0.5,1788342891401,0.0,0.0,-0.0055884271860122,0.0027684480883181,-0.475316047668457,0.8797930479049683,0.0,0.0,0.0,0.0,7.697345871804373e-09,0.0,-0.005157196894288,-0.0032497132197022,0.5017428398132324,0.8649953007698059,0.0018756949605704,-0.0010743916618891,-0.0007819571327887,0.008188247680664,-0.0011247992515563,0.0442075729370117,0,0,0,0
0.6,1788342891501,0.0,0.0,-0.0055884271860122,0.0027684480883181,-0.475316047668457,0.8797930479049683,0.0,0.0,0.0,0.0,6.710990874125855e-09,0.0,-0.0051699178293347,-0.0032612169161438,0.5017712712287903,0.8649787902832031,3.738730133745741e-05,-0.0003136482186534,0.0017938105407676,-0.0026267170906066,0.0226566791534423,0.0173568725585937,0,0,0,0
0.7,1788342891601,0.0,0.0,-0.0055884271860122,0.0027684480883181,-0.475316047668457,0.8797930479049683,0.0,0.0,0.0,0.0,1.1533406230057608e-08,0.0,-0.0051403399556875,-0.0032600089907646,0.5017637014389038,0.864983320236206,0.0029730251691698,-0.0005188139321175,0.0013717128255158,-0.0118579268455505,0.0060593485832214,-0.0060768127441406,0,0,0,0
0.8,1788342891701,0.0,0.0,-0.0055884271860122,0.0027684480883181,-0.475316047668457,0.8797930479049683,0.0,0.0,0.0,0.0,9.391809108194591e-09,0.0,-0.0051353517919778,-0.0033443970605731,0.5017620325088501,0.8649840354919434,0.0003780321019308,-0.0035270277917119,-0.0006240075289048,-0.0115634799003601,-0.0291574001312255,0.0027704238891601,0,0,0,0
0.9,1788342891801,0.0,0.0,-0.0055884271860122,0.0027684480883181,-0.475316047668457,0.8797930479049683,0.0,0.0,0.0,0.0,9.391809108194591e-09,0.0,-0.0051505919545888,-0.0032996796071529,0.5017894506454468,0.8649681210517883,0.0007991953059233,0.0022957942494912,0.0012326493999887,0.0288417339324951,0.0154787302017211,0.0227518081665039,0,0,0,0
1.0,1788342891901,0.0,0.0,-0.0055459197610616,0.0025988004636019,-0.4751529693603515,0.8798819184303284,0.0005413814463288,-0.0006283596982715,1.1881972475775663e-09,0.0039365258999168,-0.0043408861383795,0.0061640008352696,-0.0051406025886535,-0.0033609066158533,0.5017852187156677,0.8649704456329346,-0.0008347802697333,0.0009501218057666,0.0001614072863667,0.0116012096405029,-0.030608594417572,-0.0259504318237304,0,0,0,0
1.1,1788342892001,0.0,0.0,-0.0055425879545509,0.0026168851181864,-0.4751433134078979,0.8798871040344238,3.753996441971987e-05,-4.381460298508629e-05,-4.829362967432745e-09,-0.0002256334410049,0.0006950960378162,0.0004409688117448,-0.005105122923851,-0.0033713392913341,0.5018244981765747,0.8649479150772095,-0.0007374928209667,-0.0012738281581411,-0.0009895980950449,-0.0230558514595031,-0.0311750769615173,-0.0116300582885742,0,0,0,0
1.2,1788342892101,0.0,0.0,-0.0055425879545509,0.0026168851181864,-0.4751433134078979,0.8798871040344238,0.0,0.0,0.0,0.0,-1.1562996782288336e-08,0.0,-0.0050790850073099,-0.0033714221790432,0.5018540024757385,0.8649308681488037,0.0005926236857475,0.0016194518672847,0.0007963699164903,-0.0178891420364379,0.0043747425079345,-0.0294456481933593,0,0,0,0
1.3,1788342892201,0.0,0.0,-0.0055425879545509,0.0026168851181864,-0.4751433134078979,0.8798871040344238,0.0,0.0,0.0,0.0,-4.6428700883893725e-09,0.0,-0.0050393333658576,-0.0033586267381906,0.5018490552902222,0.8649340867996216,0.0007691978048419,0.0003253529683132,2.2536902124057143e-05,0.0034785270690917,0.0052657127380371,-0.0042695999145507,0,0,0,0
1.4,1788342892301,0.0,0.0,-0.0055425879545509,0.0026168851181864,-0.4751433134078979,0.8798871040344238,0.0,0.0,0.0,0.0,-9.443162696243236e-09,0.0,-0.0049757901579141,-0.0034162458032369,0.5018333792686462,0.8649433255195618,0.0012165988258836,-0.0024575139519222,-0.0001042130646657,-0.0197026133537292,-0.0312897562980651,0.0242986679077148,0,0,0,0
1.5,1788342892401,0.0,0.0,-0.0055425879545509,0.0026168851181864,-0.4751433134078979,0.8798871040344238,0.0,0.0,0.0,0.0,-6.664887308716061e-09,0.0,-0.0049697868525981,-0.0034031467512249,0.5018419623374939,0.8649383783340454,-0.000644952959009,-0.0020759979234511,-0.0001084625587598,-0.0140795111656188,-0.0062178373336791,-0.0169019699096679,0,0,0,0
1.6,1788342892501,0.0,0.0,-0.0055425879545509,0.0026168851181864,-0.4751433134078979,0.8798871040344238,0.0,0.0,0.0,0.0,-9.008185308800876e-09,0.0,-0.0049461284652352,-0.0035021025687456,0.5018405318260193,0.8649389743804932,0.0001615181193649,-0.0020182847143947,-0.0003886165661837,0.0020139813423156,0.0249516367912292,-0.0329036712646484,0,0,0,0
1.7,1788342892601,0.0,0.0,-0.0055425879545509,0.0026168851181864,-0.4751433134078979,0.8798871040344238,0.0,0.0,0.0,0.0,-9.26247079036102e-09,0.0,-0.0049579478800296,-0.0034744571894407,0.501839280128479,0.8649397492408752,0.0002250963216925,0.0018410684570118,-7.902767035741751e-05,-0.0135893821716308,0.0211882591247558,-0.0077934265136718,0,0,0,0
1.8,1788342892701,0.0,0.0,-0.0055425879545509,0.0026168851181864,-0.4751433134078979,0.8798871040344238,0.0,0.0,0.0,0.0,-9.26247079036102e-09,0.0,-0.0049579478800296,-0.0034744571894407,0.501839280128479,0.8649397492408752,0.0002250963216925,0.0018410684570118,-7.902767035741751e-05,-0.0135893821716308,0.0211882591247558,-0.0077934265136718,0,0,0,0
1.9,1788342892801,0.0,0.0,-0.0055425879545509,0.0026168851181864,-0.4751433134078979,0.8798871040344238,0.0,0.0,0.0,0.0,-9.26247079036102e-09,0.0,-0.0049579478800296,-0.0034744571894407,0.501839280128479,0.8649397492408752,0.0002250963216925,0.0018410684570118,-7.902767035741751e-05,-0.0135893821716308,0.0211882591247558,-0.0077934265136718,0,0,0,0
2.0,1788342892901,0.0,0.0,-0.0055425879545509,0.0026168851181864,-0.4751433134078979,0.8798871040344238,0.0,0.0,0.0,0.0,-9.26247079036102e-09,0.0,-0.0049579478800296,-0.0034744571894407,0.501839280128479,0.8649397492408752,0.0002250963216925,0.0018410684570118,-7.902767035741751e-05,-0.0135893821716308,0.0211882591247558,-0.0077934265136718,0,0,0,0
2.1,1788342893001,0.0,0.0,-0.0055425879545509,0.0026168851181864,-0.4751433134078979,0.8798871040344238,0.0,0.0,0.0,0.0,-9.261157174478283e-09,0.0,-0.0049405945464968,-0.0033604921773076,0.5018754005432129,0.8649192452430725,0.0005944551066494,4.514522788339274e-05,0.0016894733014031,0.0063275098800659,-0.0090134739875793,-0.0024671554565429,0,0,0,0
2.2,1788342893101,0.0,0.0,-0.0054611344821751,0.0024414588697254,-0.4750587344169616,0.8799337148666382,0.0003405475841566,-0.0003955989372694,-5.645777918678595e-09,0.0062430263496935,-0.0046802358701825,0.0038576920051127,-0.0049148090183734,-0.0034035230055451,0.501876711845398,0.8649184703826904,0.0001540073234506,-0.0021822483522467,2.6088264248497705e-05,-0.0217136144638061,-0.0324068069458007,0.0171680450439453,0,0,0,0
2.3,1788342893201,0.0,0.0,-0.0054621812887489,0.0024234426673501,-0.4750373363494873,0.8799453377723694,8.505232634640435e-05,-9.897952363471064e-05,-7.896773853054997e-09,0.0003061702882405,-0.0006602910580113,0.0009722443064674,-0.0049411887302994,-0.0034152697771787,0.5018870234489441,0.8649123311042786,-0.0014218334310979,-0.001292160737096,-0.0008928722945453,0.057371437549591,0.0094350576400756,0.0282182693481445,0,0,0,0
2.4,1788342893301,0.0,0.0,-0.0054496149532496,0.0024741122033447,-0.4750525653362274,0.8799371123313904,-4.31327929284094e-05,5.000875694442237e-05,6.1804066786710465e-09,0.0003411442739889,0.0021439781412482,-0.0004746613558381,-0.0049231043085455,-0.0033547477796673,0.5018864870071411,0.8649129271507263,0.0011184655874737,-0.0006539744581017,0.0006108617095339,0.0043693780899047,0.022966980934143,0.0156221389770507,0,0,0,0
2.5,1788342893401,0.0,0.0,-0.0054127890616655,0.0024909880012273,-0.4750704169273376,0.8799276351928711,-6.922159415790482e-05,8.03149597683578e-05,6.048780048481021e-09,-0.0002624507760629,0.0011231468524783,-0.0007809443050064,-0.0049256281927227,-0.003341638483107,0.5018821358680725,0.8649156093597412,0.0004785505878344,-0.0016012042541643,0.000895323247803,-0.0204980373382568,0.0319280624389648,0.001255989074707,0,0,0,0
2.6,1788342893501,0.0,0.0,-0.0054127890616655,0.0024909880012273,-0.4750704169273376,0.8799276351928711,-6.922159415790482e-05,8.03149597683578e-05,6.048780048481021e-09,-0.0002624507760629,0.0011231468524783,-0.0007809443050064,-0.0049480143934488,-0.0033523589372634,0.5018615126609802,0.8649274110794067,-0.0002314565901375,-0.0008737463579418,-0.0008690462449922,-0.0222381353378295,-0.0142492055892944,-0.004317283630371,0,0,0,0
2.7,1788342893601,0.0,0.0,-0.0054127890616655,0.0024909880012273,-0.4750704169273376,0.8799276351928711,-6.922159415790482e-05,8.03149597683578e-05,6.048780048481021e-09,-0.0002624507760629,0.0011231468524783,-0.0007809443050064,-0.0049464907497167,-0.0033240662887692,0.5018894672393799,0.8649112582206726,0.0006222552350724,0.0009420412036767,0.0012978858777075,0.0016132593154907,-0.0162621140480041,-0.0240535736083984,0,0,0,0
2.8,1788342893701,0.0,0.0,-0.005439393222332,0.0024054134264588,-0.4750303030014038,0.8799493312835693,4.653260129471324e-05,-5.401199780759871e-05,-8.64633218649113e-09,0.0008152993978001,-0.0001156253711087,0.0005330501007847,-0.0048531210049986,-0.0033795032650232,0.5019425749778748,0.8648807406425476,0.0007094889716881,5.7587247723091615e-05,-9.504926939243344e-05,-0.0253941416740417,-0.0137504935264587,-0.0079250335693359,0,0,0,0
2.9,1788342893801,0.0,0.0,-0.0054076095111668,0.002344881882891,-0.4749857783317566,0.8799737691879272,3.325441826733964e-05,-3.862694359849638e-05,-4.280744425941507e-09,0.0018193809082731,-0.0006136505398899,0.0003692546160891,-0.0048178909346461,-0.0033762538805603,0.5019446015357971,0.8648797869682312,0.0008306427439298,-0.0002227570232272,0.000221308540055,0.0048508048057556,-0.0090024471282958,-0.002486228942871,0,0,0,0
3.0,1788342893901,0.0,0.0,-0.0054076095111668,0.002344881882891,-0.4749857783317566,0.8799737691879272,3.325441826733964e-05,-3.862694359849638e-05,-4.280744425941507e-09,0.0018193809082731,-0.0006136505398899,0.0003692546160891,-0.0048405146226286,-0.0033581871539354,0.5019381046295166,0.8648834228515625,-0.0004983220386631,0.0012822725764815,-0.000346458244282,0.0125660896301269,-0.0177778601646423,-0.0007152557373046,0,0,0,0
3.1,1788342894001,0.0,0.0,-0.0053656948730349,0.0023994874209165,-0.4750070571899414,0.8799623847007751,-7.136932250839426e-05,8.295337896515573e-05,-9.932837169667366e-09,7.355070465564495e-06,0.002568976720795,-0.0007905567763373,-0.0048534516245126,-0.0033741556107997,0.5019115805625916,0.864898681640625,-0.0007797884168306,-0.001275840166483,-0.001279584198593,0.0106498599052429,-0.0191239714622497,-0.0150909423828125,0,0,0,0
3.2,1788342894101,0.0,0.0,-0.0054004047997295,0.0023799410555511,-0.4750199317932129,0.8799552917480469,-9.93535041105596e-05,0.0001152141337631,-1.5196385082484634e-09,-0.0003649669233709,-0.0007439737091772,-0.0011537889949977,-0.0048534516245126,-0.0033741556107997,0.5019115805625916,0.864898681640625,-0.0007797884168306,-0.001275840166483,-0.001279584198593,0.0106498599052429,-0.0191239714622497,-0.0150909423828125,0,0,0,0
3.3,1788342894201,0.0,0.0,-0.0054202717728912,0.0023714902345091,-0.475008100271225,0.8799614906311035,-8.460524135422322e-05,9.806698626470172e-05,1.2999217307887842e-09,-0.0008237803122028,-0.0010666174348443,-0.0009843835141509,-0.0048842616379261,-0.0033520106226205,0.5019009709358215,0.8649048209190369,-0.000649380142372,0.0021373240278311,-0.0013015926021904,-0.0211008191108703,-0.0046456456184387,-0.002507209777832,0,0,0,0
3.4,1788342894301,0.0,0.0,-0.0054152989760041,0.0023698154836893,-0.4749975800514221,0.8799672722816467,0.00011984612637,-0.0001390409460033,4.8016520435285844e-09,0.0009454119135625,-0.001000064308755,0.0013591593597084,-0.0048410221934318,-0.0034056734293699,0.5019509196281433,0.8648759722709656,-0.000484242759574,-0.0009835129886259,0.0007732272722403,0.0135498642921447,-0.0047720670700073,0.0244817733764648,0,0,0,0
3.5,1788342894401,0.0,0.0,-0.0053899064660072,0.0023630857467651,-0.4750058650970459,0.8799629807472229,1.940896163209448e-05,-2.2258267644166232e-05,-4.044451293920202e-09,0.0012281246017664,-0.0008461476536467,0.0002133626694558,-0.0048410221934318,-0.0034056734293699,0.5019509196281433,0.8648759722709656,-0.000484242759574,-0.0009835129886259,0.0007732272722403,0.0135498642921447,-0.0047720670700073,0.0244817733764648,0,0,0,0
3.6,1788342894501,0.0,0.0,-0.0053543159738183,0.0023962596897035,-0.4750070571899414,0.8799624443054199,-5.499285679035706e-05,6.36511564744971e-05,-4.171012283022331e-09,0.0003808123874478,0.001351466984488,-0.0006110416725277,-0.0048764655366539,-0.0032859193161129,0.5019558072090149,0.8648733496665955,0.0005134509474707,0.0012030000962034,0.001452704353107,-0.0056028366088867,-0.0376667976379394,0.027902603149414,0,0,0,0
3.7,1788342894601,0.0,0.0,-0.0053736763074994,0.0024271830916404,-0.4749930799007416,0.8799697756767273,9.322823251581904e-05,-0.0001086330215471,2.0072276605711684e-08,-0.0003515779389999,0.0007120276568457,0.0010801984462887,-0.0048802392557263,-0.0033097481355071,0.5019373893737793,0.8648838400840759,0.0011002779847592,-0.0004712050458778,0.0011578284007206,-0.0005621910095214,0.0075950026512146,0.0155210494995117,0,0,0,0
3.8,1788342894701,0.0,0.0,-0.0053835283033549,0.0024445001035928,-0.4750119149684906,0.8799595236778259,-7.5387143983778e-05,8.761420446697436e-05,3.509675419051108e-09,-0.0006821741117164,0.0004311959492042,-0.0008623167523182,-0.0048868544399738,-0.0033376393839716,0.5019219517707825,0.8648926615715027,-6.092969274450063e-06,0.002736163053663,-0.0019002346923864,0.0367379784584045,-0.0136043429374694,0.0262632369995117,0,0,0,0
3.9,1788342894801,0.0,0.0,-0.0054173301905393,0.0023895967751741,-0.4750094711780548,0.8799607753753662,-3.593134232389408e-05,4.166724585182202e-05,4.618632025012444e-09,-0.0001449078554287,-0.0011610873043537,-0.0004291343211662,-0.0048868544399738,-0.0033376393839716,0.5019219517707825,0.8648926615715027,-6.092969274450063e-06,0.002736163053663,-0.0019002346923864,0.0367379784584045,-0.0136043429374694,0.0262632369995117,0,0,0,0
4.0,1788342894901,0.0,0.0,-0.0054173301905393,0.0023895967751741,-0.4750094711780548,0.8799607753753662,-3.593134232389408e-05,4.166724585182202e-05,4.618632025012444e-09,-0.0001449078554287,-0.0011610873043537,-0.0004291343211662,-0.004888198338449,-0.0034004002809524,0.501919686794281,0.8648937344551086,-0.0015010967021286,-0.0003472826438818,0.0001549038498688,-0.0163586735725402,-0.0218165516853332,-0.000777244567871,0,0,0,0
4.1,1788342895001,0.0,0.0,-0.0054544229060411,0.0023818968329578,-0.4750189185142517,0.879955530166626,-4.549814646686624e-06,5.090798176761223e-06,-8.832690764739947e-09,-0.001127756666392,-0.0005843442631885,-5.746507304138504e-05,-0.0049076899886131,-0.0033833291381597,0.5019409656524658,0.8648813962936401,-0.0004451541193147,0.0013123864599929,0.0013319238311966,0.0182238221168518,-0.0127688646316528,0.024449348449707,0,0,0,0
4.2,1788342895101,0.0,0.0,-0.0054544229060411,0.0023818968329578,-0.4750189185142517,0.879955530166626,-4.549814646686624e-06,5.090798176761223e-06,-8.832690764739947e-09,-0.001127756666392,-0.0005843442631885,-5.746507304138504e-05,-0.0049005029723048,-0.0034427130594849,0.5019834637641907,0.864856481552124,0.0002019198278457,-0.0034772564244343,0.0023813819709706,0.0081992149353027,0.0183033943176269,0.0083961486816406,0,0,0,0
4.3,1788342895201,0.0,0.0,-0.0054544229060411,0.0023818968329578,-0.4750189185142517,0.879955530166626,-4.549814646686624e-06,5.090798176761223e-06,-8.832690764739947e-09,-0.001127756666392,-0.0005843442631885,-5.746507304138504e-05,-0.0049157887697219,-0.0034305965527892,0.5019668936729431,0.8648660182952881,-0.000228726602769,0.0005844717637666,-0.0006074487199065,-0.0021928548812866,-0.004834234714508,-0.0096702575683593,0,0,0,0
4.4,1788342895301,0.0,0.0,-0.0055293487384915,0.0024069584906101,-0.4749598205089569,0.8799868822097778,-8.944821364095258e-06,1.0436433666723623e-05,5.579864683738274e-09,-0.0015041206497699,0.000529320212081,-9.272548777516933e-05,-0.0049643451347947,-0.0034913569688796,0.5019838809967041,0.8648557662963867,0.0001158068078339,0.0027604860354943,-8.739995629335456e-05,-0.0045473575592041,-0.0142402052879333,0.0046596527099609,0,0,0,0
4.5,1788342895401,0.0,0.0,-0.0055807991884648,0.0023680471349507,-0.474950224161148,0.8799917101860046,6.596471443223784e-05,-7.643965878106235e-05,1.26866453577607e-08,-0.0002573559759184,-0.0009809696348384,0.0007483792142011,-0.0049712257459759,-0.0034888833761215,0.5019656419754028,0.8648662567138672,-0.0003099884175981,0.0039758542641653,-0.0005892155580661,0.0027574896812438,-0.0249031782150268,-0.0007667541503906,0,0,0,0
4.6,1788342895501,0.0,0.0,-0.0055738654918968,0.0024322767276316,-0.4749539494514465,0.8799896836280823,6.854862123619741e-05,-7.972263929959537e-05,-3.6691386937042845e-09,-0.0008898597443476,0.0032214836683124,0.0008332855650223,-0.0049442518502473,-0.0035139704123139,0.5020135045051575,0.8648386001586914,0.0008219237769311,-0.0020700652946088,0.001573630087972,0.007460594177246,-0.0215261578559875,0.0010452270507812,0,0,0,0
4.7,1788342895601,0.0,0.0,-0.0056111956946551,0.0023666240740567,-0.4749408662319183,0.879996657371521,-6.403639940365178e-05,7.434718484367524e-05,6.512490430492118e-09,-0.0002494386280886,-0.0013652750058099,-0.0007534699980169,-0.0049575669690966,-0.0035260524600744,0.5020124316215515,0.8648390769958496,0.0007171987168926,0.0004166017007691,0.0011207815795587,0.0163989067077636,-0.039061427116394,-0.0187749862670898,0,0,0,0
4.8,1788342895701,0.0,0.0,-0.0056252679787576,0.002380147576332,-0.4749431908130646,0.8799952864646912,-2.3251555230344877e-05,2.678695952868819e-05,5.292244920493004e-09,-0.0009195210295729,0.0003598995972424,-0.0002614268450997,-0.0049917716532945,-0.0035387789830565,0.5019922852516174,0.8648505210876465,-0.0012141164782441,0.0010546044922144,-9.345832587624934e-05,-0.0121956467628479,0.0137959122657775,-0.0347661972045898,0,0,0,0
4.9,1788342895801,0.0,0.0,-0.0056349285878241,0.0024142132606357,-0.4749161601066589,0.880009651184082,0.0001139275253759,-0.0001320820620628,-2.3453860629992172e-09,-0.0010565513512119,0.0010796508286148,0.0013187841977924,-0.0050256690010428,-0.0035708043724298,0.5019919276237488,0.8648504018783569,-0.0010433676869664,-0.0012485442008288,-0.0006224371739873,0.0288336873054504,-0.0232563018798828,0.0226163864135742,0,0,0,0
5.0,1788342895901,0.0,0.0,-0.0056726336479187,0.0024135925341397,-0.4749442040920257,0.87999427318573,-8.884634872878735e-05,0.000103220150894,-3.4644935751769904e-10,-0.0010550828883424,-0.0005854338523931,-0.0010291845537722,-0.0050343377515673,-0.0035397605970501,0.5020074248313904,0.8648414611816406,0.0010123538932659,3.56357974752647e-05,0.0010774515031158,0.0025274753570556,0.0125567317008972,0.0101442337036132,0,0,0,0
5.1,1788342896001,0.0,0.0,-0.0056490646675229,0.0024418272078037,-0.474924236536026,0.8800052404403687,8.401412037258218e-05,-9.770188749709016e-05,-5.317587771298249e-09,0.000596631609369,0.0007518890197388,0.0009740467066876,-0.0050161434337496,-0.0035929745063185,0.5019894242286682,0.8648518323898315,-0.0005075368501251,-0.0025415179880012,-0.0009744942284051,-0.0147055983543396,0.0200111269950866,-0.0042142868041992,0,0,0,0
5.2,1788342896101,0.0,0.0,-0.0056490646675229,0.0024418272078037,-0.474924236536026,0.8800052404403687,8.401412037258218e-05,-9.770188749709016e-05,-5.317587771298249e-09,0.000596631609369,0.0007518890197388,0.0009740467066876,-0.0049440087750554,-0.0035996371880173,0.5020132064819336,0.8648384213447571,0.0016087555156141,-0.0009840089517569,0.0018500530558857,-0.0137495398521423,0.0062111616134643,0.011885643005371,0,0,0,0
5.3,1788342896201,0.0,0.0,-0.0056490646675229,0.0024418272078037,-0.474924236536026,0.8800052404403687,8.401412037258218e-05,-9.770188749709016e-05,-5.317587771298249e-09,0.000596631609369,0.0007518890197388,0.0009740467066876,-0.0049237525090575,-0.0037098946049809,0.5020299553871155,0.8648282885551453,-0.0005025394933415,-0.0041768361584387,0.0004235862152114,-0.0068355798721313,0.0033687353134155,0.0100917816162109,0,0,0,0
5.4,1788342896301,0.0,0.0,-0.0057463482953608,0.0022607531864196,-0.4749087989330292,0.8800133466720581,-1.8049699874928583e-05,2.108785667993169e-05,7.429783774137844e-10,-0.0001074030151357,0.0008092993521131,-0.000202067210921,-0.0049308110028505,-0.0037173395976424,0.5020226240158081,0.8648325204849243,-0.0003283460498693,-9.479315620349228e-05,-0.0002821888624521,0.0039114952087402,-0.0268954038619995,-0.0097723007202148,0,0,0,0
5.5,1788342896401,0.0,0.0,-0.0057429722510278,0.0022516502067446,-0.4748888611793518,0.8800241351127625,5.836862519097675e-05,-6.771483489744405e-05,1.623121086861767e-09,0.0002151611552108,-0.0001926583063323,0.0006648342241533,-0.0049559585750103,-0.003741268068552,0.5020125508308411,0.8648380041122437,-0.0003141108582867,0.0009407613224373,0.0004268150222834,-0.0321541428565979,0.0007435083389282,-0.0168981552124023,0,0,0,0
5.6,1788342896501,0.0,0.0,-0.0057764891535043,0.0022744052112102,-0.4749252200126648,0.8800042271614075,1.5413331824391108e-05,-1.780470111449213e-05,2.2743977360826196e-09,-0.0004839787143282,0.0015869498020038,0.0001969430013559,-0.0049400897696614,-0.0037856725975871,0.5019859671592712,0.8648534417152405,-1.3471501571077711e-05,-0.0004685495607944,-0.0012599037300731,-0.0025451779365539,0.0242252945899963,-0.0077857971191406,0,0,0,0
5.7,1788342896601,0.0,0.0,-0.0057837665081024,0.0022244658321142,-0.4749322235584259,0.8800005316734314,5.069408794434969e-06,-5.880626570908446e-06,1.4577166225255788e-08,0.0010602232068777,0.0001729468785924,6.337450031423941e-05,-0.0048855738714337,-0.0037992885336279,0.5020189881324768,0.8648345470428467,0.0010343018601236,-0.0019384834649096,0.0014855332101262,0.0128192901611328,0.0340786576271057,0.0245923995971679,0,0,0,0
5.8,1788342896701,0.0,0.0,-0.005797401536256,0.0021611326374113,-0.4749402701854706,0.8799962997436523,-7.173405705608401e-05,8.308857429843155e-05,-2.22000954763951e-09,0.0003413897356949,0.0006992174312472,-0.0008144331513904,-0.0048855738714337,-0.0037992885336279,0.5020189881324768,0.8648345470428467,0.0010343018601236,-0.0019384834649096,0.0014855332101262,0.0128192901611328,0.0340786576271057,0.0245923995971679,0,0,0,0
5.9,1788342896801,0.0,0.0,-0.0057544480077922,0.0021432845387607,-0.4749435484409332,0.8799948692321777,-0.0001125302446924,0.0001307357532693,-8.232441742643542e-10,-0.0002537780674174,-0.0004107765853404,-0.00129505910445,-0.0048621306195855,-0.0037584146484732,0.5020087361335754,0.8648407459259033,0.0003955332544599,0.0008213188795514,0.0017524135658401,-0.0189974308013916,-0.0205351114273071,0.0045557022094726,0,0,0,0
6.0,1788342896901,0.0,0.0,-0.0057580387219786,0.002138206269592,-0.4749070405960083,0.8800145983695984,0.000151170098295,-0.0001754095945214,3.120471893941737e-09,0.0005957619287073,-0.0012696215417236,0.001720072235912,-0.004846503958106,-0.0037980042397975,0.5020251274108887,0.8648311495780945,-0.0002492226888249,-0.0016573558882325,0.0007362372493881,-0.0090442299842834,0.0172985792160034,0.0065174102783203,0,0,0,0
6.1,1788342897001,0.0,0.0,-0.0057627041824162,0.0021744831465184,-0.4748952090740204,0.8800207376480103,4.409624907182144e-05,-5.1091619224205456e-05,-1.2373921143127328e-08,-0.0002453392371535,0.0011920508695766,0.0005179558065719,-0.0048608807846903,-0.0038041863590478,0.5020353198051453,0.8648250699043274,-0.0002947483087129,-0.002016307654322,-0.0007467967838028,-0.0089758038520812,-0.0344540476799011,-0.0026845932006835,0,0,0,0
6.2,1788342897101,0.0,0.0,-0.0057694213464856,0.0021696086041629,-0.474895179271698,0.880020797252655,3.405904238863036e-07,-5.865410707185186e-07,-7.72169609160906e-09,-0.0001464020460844,-0.0003045397461391,1.2133813243053735e-06,-0.0048608807846903,-0.0038041863590478,0.5020353198051453,0.8648250699043274,-0.0002947483087129,-0.002016307654322,-0.0007467967838028,-0.0089758038520812,-0.0344540476799011,-0.0026845932006835,0,0,0,0
6.3,1788342897201,0.0,0.0,-0.0058118500746786,0.0021705050021409,-0.4748844802379608,0.8800262212753296,2.275031468772097e-05,-2.642846511043637e-05,-5.939398724905995e-10,-0.0008108534966595,-0.0004173675260972,0.0002553768572397,-0.0048887329176068,-0.0038352152332663,0.5020642280578613,0.8648080229759216,-0.0001443763927273,-0.0002166313093872,3.1329253772182485e-05,-0.0146006345748901,0.0111766457557678,0.0082635879516601,0,0,0,0
6.4,1788342897301,0.0,0.0,-0.0058118500746786,0.0021705050021409,-0.4748844802379608,0.8800262212753296,2.275031468772097e-05,-2.642846511043637e-05,-5.939398724905995e-10,-0.0008108534966595,-0.0004173675260972,0.0002553768572397,-0.004834720864892,-0.0038077635690569,0.5020843148231506,0.8647967576980591,0.0008432016436767,0.0002083910757348,-0.0005272592429981,-0.0003920793533325,0.0237492322921752,0.0090703964233398,0,0,0,0
6.5,1788342897401,1.5211267471313477,3.436619758605957,-0.0057813045568764,0.0021228482946753,-0.4743731617927551,0.8803023099899292,0.0024708461828598,-0.001589666987325,-4.195978936896728e-08,0.0013370339293032,-0.0011211936362087,0.0196243077516555,-0.0048094587400555,-0.0037335231900215,0.5084007382392883,0.8610990643501282,-0.0001079157463236,0.0104012685833305,0.2085980194451595,0.6552759408950806,0.3029384016990661,-0.0015602111816406,214,253,8347,13454
6.6,1788342897501,2.197183132171631,4.788732528686523,-0.0057420814409852,0.0021747003775089,-0.4637407660484314,0.8859496116638184,0.0969890239652709,0.0008148215827665,1.5106683319666649e-05,-0.0019587185233831,-0.0002658490848261,0.2851309776306152,-0.0048213982954621,-0.003815047442913,0.512346088886261,0.8587570190429688,-0.0031649976048683,-0.0059569109987592,0.2982577379474833,0.6205272674560547,0.0366744399070739,-0.0691051483154296,147,148,9551,17726
6.7,1788342897601,3.239436626434326,6.704225540161133,-0.0054555777460336,0.002259160624817,-0.4435077905654907,0.8962510824203491,0.1662729965018058,0.0024697061294142,8.824242947399849e-06,0.0076385964639484,-0.0027085959445685,0.525626540184021,-0.0044788736850023,-0.0032914811745285,0.5499738454818726,0.835163414478302,0.0110933619533569,-0.0099900648467022,0.6414698911270834,-0.2151228785514831,-0.10835862159729,-0.1552858352661132,121,141,10842,22390
6.8,1788342897701,3.183098554611206,6.704225540161133,-0.0052400026470422,0.0020444374531507,-0.4319820702075958,0.9018646478652954,0.1846944304485898,0.0026477279357795,-4.083473252699332e-06,0.0137629564851522,-0.0080972285941243,0.6020815372467041,-0.0043831476941704,-0.0033212387934327,0.5574183464050293,0.8302135467529297,0.0043248373353041,-0.008527392142553,0.596848813433755,-0.0955187082290649,0.1701002717018127,-0.0175294876098632,86,141,10281,17411
6.9,1788342897801,3.774647951126098,6.2253522872924805,-0.0051457262597978,0.002014618134126,-0.4183216691017151,0.9082821607589722,0.175141954723489,-0.0048589047544247,-2.930717799264022e-07,0.0041009136475622,-0.0028050795663148,0.597373366355896,-0.0042712464928627,-0.0029105767607688,0.5845152735710144,0.8113662600517273,0.0208130166371246,0.0089329455923626,0.3371190710295604,-0.0649740695953369,-0.1050736308097839,-0.1641216278076172,198,109,13278,17148
7.0,1788342897901,3.746478796005249,6.02816915512085,-0.0049872128292918,0.0021908737253397,-0.3894294500350952,0.9210402369499208,0.1746162622022996,0.0054074806482483,2.67287001238812e-05,0.0055938968434929,-0.0047207823954522,0.3051639795303345,-0.0044661415740847,-0.0027146199718117,0.5937522649765015,0.8046309947967529,-0.0040194059104542,0.0121512729343906,0.3985768308021824,-0.3337659239768982,0.0414091944694519,0.2276620864868164,55,145,10411,16458
7.1,1788342898001,4.02816915512085,6.394366264343262,-0.0044065946713089,0.0022014514543116,-0.3681401014328003,0.9297572374343872,0.1679725345368468,0.0026817075992128,-4.02445709488531e-06,0.0108379060402512,-0.0044885324314236,0.4596018493175506,-0.0039955889806151,-0.0027806721627712,0.6126406788825989,0.7903465628623962,-0.0012291735049777,-0.0055044918332117,0.3823897803722865,0.0916409492492675,-0.3718112111091614,-0.0841894149780273,55,145,10411,16458
7.2,1788342898101,3.88732385635376,6.11267614364624,-0.0040318123064935,0.0019768103957176,-0.3446849584579468,0.9387076497077942,0.1709106287520321,0.0006975464537269,3.960756425786109e-05,0.0125657599419355,0.0006777361268177,0.3220860064029693,-0.0034273862838745,-0.0023864265531301,0.6256427764892578,0.7800986170768738,0.0149200896225291,-0.0013219997415484,0.3788512294305438,0.0670677423477172,0.1639723777770996,-0.0318784713745117,68,201,11862,18035
7.3,1788342898201,4.2816901206970215,6.2253522872924805,-0.0037687674630433,0.0018194272415712,-0.3359155058860779,0.9418827891349792,0.1685365224565813,0.0016474158227005,3.684166432335716e-05,0.0118704587221145,-0.0039497818797826,0.3732080459594726,-0.0034846169874072,-0.002232008613646,0.6297562122344971,0.7767819166183472,0.00341694422619,0.0089553503602405,0.3532154781049303,0.1408805251121521,0.0595822930335998,-0.2459392547607422,122,163,12240,16549
7.4,1788342898301,4.309859275817871,6.591549396514893,-0.0035492936149239,0.0020168614573776,-0.3271718621253967,0.9449560046195984,0.170992770318304,0.0003555034481801,4.139765086059724e-06,0.005326263140887,0.0086561255156993,0.3628164827823639,-0.0033063227310776,-0.0020992299541831,0.6442463397979736,0.7648081183433533,0.0021119729194411,-0.0057955099307352,0.2922346074559728,-0.0547904372215271,0.2437038421630859,0.6435918807983398,147,119,12375,14629
7.5,1788342898401,4.14084529876709,5.436619758605957,-0.0035573265049606,0.001973015256226,-0.2999206185340881,0.9539554119110109,0.177742004372103,-0.0010193832852702,1.2291349224829449e-05,-0.0086326329037547,0.0027304000686854,0.2460290044546127,-0.003541350364685,-0.0020015491172671,0.6565293669700623,0.7542895078659058,-0.0091644264140463,0.0022351995808405,0.2465597057795207,-0.1810164451599121,0.1050876379013061,-0.1204566955566406,115,116,13104,18480
7.6,1788342898501,4.197183132171631,5.7183098793029785,-0.0035019144415855,0.0019167319405823,-0.2887671589851379,0.957391083240509,0.1751914870393109,0.0025138140164979,4.3861331223766e-06,-0.0021701734513044,0.0008352269651368,0.2398679256439209,-0.0033704806119203,-0.0020426837727427,0.6639792919158936,0.747740626335144,-0.003317377179877,0.0008741499140916,0.235886049083774,-0.1459597945213318,-0.0928863883018493,0.349374771118164,97,58,12753,17698
7.7,1788342898601,4.253520965576172,6.253520965576172,-0.0034913020208477,0.0019899229519069,-0.2759111821651459,0.9611746668815612,0.1734464937460629,-0.0013455851072049,-5.283847558264769e-05,0.0045011974871158,0.0020536493975669,0.280583769083023,-0.0033335061743855,-0.0015740990638732,0.682776689529419,0.730617880821228,0.0136872386381828,-0.0093100069525588,0.2718147248324216,-0.0186318159103393,0.1587462425231933,-0.1470050811767578,104,126,13090,14450
7.8,1788342898701,4.197183132171631,6.197183132171631,-0.0032041077502071,0.002113071270287,-0.2621236741542816,0.9650266170501708,0.1643900598260088,0.0059915193064088,5.573525013702429e-06,-0.000863556866534,0.0026129896286875,0.2517642676830292,-0.0035909423604607,-0.0015010833740234,0.6871724128723145,0.726483941078186,-0.0057546601918645,0.0083548497131347,0.2414417331824036,0.3153665661811828,-0.1392443776130676,-0.4512815475463867,91,152,12022,18556
7.9,1788342898801,4.3380279541015625,5.521126747131348,-0.0033461018465459,0.0020217690616846,-0.2502316534519195,0.96817809343338,0.1796330584369889,-0.0009592285692156,-8.070849031550706e-06,0.0013421861222013,-0.0118905678391456,0.2625344097614288,-0.0034612976014614,-0.0017973892390727,0.6956318616867065,0.7183878421783447,0.0069537102318922,-0.0193947050354504,0.2484696328150021,0.1081694364547729,0.1705216765403747,0.2681207656860351,89,129,12154,18080
8.0,1788342898901,3.4084506034851074,5.7183098793029785,-0.0032705506309866,0.0019756662659347,-0.2448407858610153,0.9695558547973632,0.1775169443139838,-0.0026269720272497,-9.77249534157203e-06,0.003567163599655,-0.0021183507051318,0.2531813681125641,-0.0032689189538359,-0.0012722294777631,0.7059904932975769,0.7082126140594482,0.0077355625083893,-0.0075503841352571,0.233155938795366,-1.261677861213684,0.0551168918609619,0.0593166351318359,89,129,12154,18080
8.1,1788342899001,1.6338027715682983,1.97183096408844,-0.0027595581486821,0.0023331134580075,-0.2320503294467926,0.9726970791816713,0.0698249201793803,-0.0021407417363165,3.852919223902752e-06,0.0008377950871363,0.0058442777954041,0.0760036185383796,-0.0034160744398832,-0.0010820319876074,0.7086479067802429,0.7055532336235046,-0.0008348817152701,0.0044235252045923,0.0071411846752655,-0.7323676347732544,-0.119994044303894,0.1042156219482421,10,12,3631,4537
8.2,1788342899101,0.0,0.0,-0.0026746848598122,0.0023804064840078,-0.2311082482337951,0.9729214906692504,-0.0050308728029687,0.0013281497041068,-7.121214669759631e-09,0.0,-4.6485508775617745e-09,0.0,-0.0032398831099271,-0.0012044580653309,0.7089402079582214,0.7052600979804993,0.0012604005929502,0.0027777592692576,0.0024951444343332,-0.0628285408020019,-0.0072221159934997,0.0121231079101562,5,0,0,0
8.3,1788342899201,0.0,0.0,-0.0027667037211358,0.0020725475624203,-0.2307895123958587,0.9729976058006288,0.0023458550114848,-0.0009101844648575,6.610906132751607e-07,-0.0007580255623906,-0.0128845013678073,0.0130783002823591,-0.0032082209363579,-0.0012245448306202,0.708953857421875,0.7052464485168457,0.0003659332814872,-0.0016647774777077,0.0008725768341899,0.0262222290039062,-0.0056995749473571,0.0409803390502929,0,0,0,0
8.4,1788342899301,0.0,0.0,-0.0027503522578626,0.002082057762891,-0.2307272106409073,0.973012387752533,0.0,0.0,0.0,0.0,0.0,0.0,-0.0031962813809514,-0.0012724380940198,0.7089635729789734,0.7052367925643921,6.230501279219609e-06,0.0021770741622597,-0.0004956933156264,-0.0339035987854003,-0.0070807337760925,0.062448501586914,0,0,0,0
8.5,1788342899401,0.0,0.0,-0.0027553718537092,0.0020599116105586,-0.230697363615036,0.9730194807052612,0.0001068919459441,-0.0001239835609461,-2.107504068559694e-09,7.304454811674077e-06,-0.0009100242750719,0.0012214526068419,-0.0031965309754014,-0.001320787705481,0.7089431285858154,0.7052571773529053,-0.0017102052062913,-0.0016812153833199,-0.0014439463258329,0.022939383983612,0.0188469290733337,0.0356855392456054,0,0,0,0
8.6,1788342899501,0.0,0.0,-0.0027956415433436,0.002073501702398,-0.2307456284761428,0.97300785779953,-0.000145319985922,0.0001688777447353,-4.0690484798374085e-09,-0.0014186381595209,0.0001373342820443,-0.00166859512683,-0.0031522838398814,-0.0013559414073824,0.7089505195617676,0.7052499055862427,-0.0001280912916972,-0.0025021064288409,0.0001552966412573,0.0379483103752136,0.0005916953086853,0.0787363052368164,0,0,0,0
8.7,1788342899601,0.0,0.0,-0.0027956415433436,0.002073501702398,-0.2307456284761428,0.97300785779953,0.0,0.0,0.0,0.0,-2.2846924352393212e-09,0.0,-0.0031740656122565,-0.0013337926939129,0.7089686989784241,0.7052314877510071,0.0002204944950958,0.0007584215056897,0.00025049188845,0.0008641481399536,-0.0119167566299438,0.0606794357299804,0,0,0,0
8.8,1788342899701,0.0,0.0,-0.0027956415433436,0.002073501702398,-0.2307456284761428,0.97300785779953,0.0,0.0,0.0,0.0,-3.051700891987252e-09,0.0,-0.0031054047867655,-0.0013435948640108,0.7089859247207642,0.7052145004272461,0.0013661166365836,-0.0012837415099308,0.0015045518476366,0.0001189708709716,0.0179739594459533,0.0068006515502929,0,0,0,0
8.9,1788342899801,0.0,0.0,-0.0027956415433436,0.002073501702398,-0.2307456284761428,0.97300785779953,0.0,0.0,0.0,0.0,-2.328881532065452e-09,0.0,-0.0030686641111969,-0.0013244738802313,0.7089864611625671,0.7052140831947327,0.0012313489430192,7.554521784526937e-05,-0.0009487518354449,-0.0012009739875793,0.0127807259559631,0.0262126922607421,0,0,0,0
9.0,1788342899901,0.0,0.0,-0.0027956415433436,0.002073501702398,-0.2307456284761428,0.97300785779953,0.0,0.0,0.0,0.0,-2.328881532065452e-09,0.0,-0.0030205128714442,-0.0013429503887891,0.7090284824371338,0.7051721215248108,-0.0005282210829597,-0.0015706396641294,-0.0002485452489062,-0.0368956923484802,-0.0150001645088195,0.0091800689697265,0,0,0,0
9.1,1788342900001,0.0,0.0,-0.0027956415433436,0.002073501702398,-0.2307456284761428,0.97300785779953,0.0,0.0,0.0,0.0,-2.3008017713266327e-09,0.0,-0.0030400333926081,-0.0013691121712327,0.7090458869934082,0.7051544785499573,-0.0001306183082875,0.0002140535721839,0.0014138234915929,-0.0123227834701538,-0.0020084381103515,0.0050935745239257,0,0,0,0
9.2,1788342900101,0.0,0.0,-0.0027956415433436,0.002073501702398,-0.2307456284761428,0.97300785779953,0.0,0.0,0.0,0.0,-2.3844228813629798e-09,0.0,-0.0030075926333665,-0.0013857595622539,0.7090551257133484,0.7051452994346619,0.0004033624306519,-0.0009963370747484,0.0016785687641937,-0.0026274323463439,-0.0045427083969116,0.032754898071289,0,0,0,0
9.3,1788342900201,0.0,0.0,-0.0027956415433436,0.002073501702398,-0.2307456284761428,0.97300785779953,0.0,0.0,0.0,0.0,-2.2908714925051754e-09,0.0,-0.0029633166268467,-0.0014359233900904,0.7090680599212646,0.7051323652267456,-0.0001347079181725,-0.0027777082667482,0.0012218076907116,-0.0052239298820495,0.0030903220176696,0.0003242492675781,0,0,0,0
9.4,1788342900301,0.0,0.0,-0.0027956415433436,0.002073501702398,-0.2307456284761428,0.97300785779953,0.0,0.0,0.0,0.0,-1.934535198699905e-09,0.0,-0.0029580406844615,-0.0014335131272673,0.70906662940979,0.705133855342865,0.0002745111515712,-0.0001028682316916,-0.0001039284051524,0.0133479833602905,0.0337380766868591,-0.0067920684814453,0,0,0,0
9.5,1788342900401,0.0,0.0,-0.0027956415433436,0.002073501702398,-0.2307456284761428,0.97300785779953,0.0,0.0,0.0,0.0,-3.900392897548954e-09,0.0,-0.002974072471261,-0.0014386866241693,0.7090530395507812,0.7051473259925842,-0.0001292129860004,0.0005316867497507,0.0013936308204067,-0.0054945945739746,-0.0106568336486816,-0.0031232833862304,0,0,0,0
9.6,1788342900501,0.0,0.0,-0.0027956415433436,0.002073501702398,-0.2307456284761428,0.97300785779953,0.0,0.0,0.0,0.0,-2.34301511525814e-09,0.0,-0.0029707755893468,-0.0014660963788628,0.7090508341789246,0.7051495909690857,-0.001369539840224,7.866380403642536e-05,-0.000820183698294,0.0321159362792968,-0.0009125471115112,0.0223302841186523,0,0,0,0
9.7,1788342900601,0.0,0.0,-0.0027956415433436,0.002073501702398,-0.2307456284761428,0.97300785779953,0.0,0.0,0.0,0.0,-2.3155168893396194e-09,0.0,-0.0029614334926009,-0.0015427116304636,0.7090750932693481,0.705125093460083,-0.0010619533095955,-0.0007262620191715,-3.952562553624392e-06,-0.0068016052246093,0.0019954442977905,0.0168046951293945,0,0,0,0
9.8,1788342900701,0.0,0.0,-0.0027956415433436,0.002073501702398,-0.2307456284761428,0.97300785779953,0.0,0.0,0.0,0.0,-3.828400263472531e-09,0.0,-0.0029727378860116,-0.001584474928677,0.7090750336647034,0.7051250338554382,-0.0010929241730344,-0.0005824039268424,-3.017378850032728e-06,-0.0237922072410583,0.0207127928733825,0.013101577758789,0,0,0,0
9.9,1788342900801,0.0,0.0,-0.0029215558897703,0.0017029368318617,-0.2305438816547393,0.9730560779571532,0.0005611871662222,-0.0006513457809926,5.6325076506810965e-09,-0.0011518659302964,-0.0120545700192451,0.0063661905005574,-0.0029986863955855,-0.001643082126975,0.7090749144554138,0.7051249146461487,-0.0009359110321437,-0.0002867535680035,-1.957888577248468e-06,-0.0149760842323303,0.0354185104370117,-0.037602424621582,0,0,0,0
10.0,1788342900901,0.0,0.0,-0.002977349795401,0.0016973528545349,-0.2305438667535781,0.973055899143219,0.0,0.0,0.0,-0.0015616582240909,-0.0004992909962311,-2.4583553113188827e-06,-0.003020848147571,-0.0016796616837382,0.709074854850769,0.7051248550415039,-0.0007911337140842,-0.0001785409639802,-1.189228376832219e-06,-0.0359976887702941,-0.0209848284721374,0.0199146270751953,0,0,0,0
10.1,1788342901001,0.0,0.0,-0.0030294589232653,0.0016985449474304,-0.230543777346611,0.9730557203292848,-2.73275456509697e-07,5.443174782167835e-07,3.092121128423507e-09,-0.0007496934849768,-0.0001340461603831,-6.090735951147508e-06,-0.0030439738184213,-0.0017096605151891,0.7090747356414795,0.7051247358322144,-0.0006165343770455,-3.533172046017756e-05,4.382523027251841e-10,0.0135622024536132,-0.0053421854972839,0.00372314453125,0,0,0,0
10.2,1788342901101,0.0,0.0,-0.0030620633624494,0.0017049561720341,-0.2305437326431274,0.97305566072464,0.0,0.0,0.0,-0.0007783292676322,-8.469054591841996e-06,0.0,-0.0030600409954786,-0.0017245588824152,0.7090746760368347,0.7051246762275696,-0.0005315193790693,4.228469238212951e-05,-1.4894299248824288e-06,-0.0019860863685607,-0.0161139965057373,-0.025303840637207,0,0,0,0
10.3,1788342901201,0.0,0.0,-0.0030743691604584,0.0017091286135837,-0.230543851852417,0.9730555415153505,-2.688691789160587e-07,5.355403289061765e-07,3.0999230842681943e-09,-0.000520232017152,4.9204256356460974e-05,-6.591778401343618e-06,-0.0030802283436059,-0.0017407462000846,0.7090746164321899,0.7051246166229248,-0.0004506649323068,6.10817059868086e-05,-1.9782691237146e-06,0.0053552389144897,0.0304361581802368,-0.0050487518310546,0,0,0,0
10.4,1788342901301,0.0,0.0,-0.0031072727870196,0.0017228929791599,-0.2305437922477722,0.9730554819107056,0.0,0.0,0.0,-0.0004011094279121,0.000106340899947,0.0,-0.0030945912003517,-0.0017494745552539,0.7090746164321899,0.7051246166229248,-0.0003772229080968,0.0001137327423459,-8.861949806528865e-10,0.0166826844215393,-0.0163447856903076,-0.0424051284790039,0,0,0,0
10.5,1788342901401,0.0,0.0,-0.0031206239946186,0.0017312506679445,-0.2305438071489334,0.9730554223060608,-2.657266606179621e-07,5.292802779541635e-07,3.115877375532474e-09,-0.0003699480730574,0.000129123989609,-1.7767447388905566e-06,-0.003120495006442,-0.001761719584465,0.7090744972229004,0.7051244974136353,-0.0002478768316835,8.721089105495996e-05,-3.519935624989135e-10,-0.0014610886573791,-0.0331124067306518,0.015848159790039,0,0,0,0
10.6,1788342901501,0.0,0.0,-0.0031352175865322,0.0017408656422048,-0.2305438369512558,0.9730553030967712,-3.171924894016254e-07,6.317906408889681e-07,3.741855257500345e-09,-0.0001826648658607,5.372024679672904e-05,-2.827817525030696e-06,-0.0031249178573489,-0.0017643636092543,0.7090744972229004,0.7051244974136353,-0.000267757802924,6.8201929239971e-05,-3.405755667643284e-10,-0.0033934712409973,-0.0131298303604125,-0.0271244049072265,0,0,0,0
10.7,1788342901601,0.0,0.0,-0.0031436197459697,0.001744169392623,-0.2305437475442886,0.973055362701416,0.0,0.0,0.0,-0.0001109346412704,6.5613462538749445e-06,5.810116476823168e-07,-0.0031249178573489,-0.0017643636092543,0.7090744972229004,0.7051244974136353,-0.000267757802924,6.8201929239971e-05,-3.405755667643284e-10,-0.0033934712409973,-0.0131298303604125,-0.0271244049072265,0,0,0,0
10.8,1788342901701,0.0,0.0,-0.0031511839479207,0.0017420307267457,-0.2305437177419662,0.9730553030967712,0.0,0.0,0.0,-8.904926653485745e-05,-7.933707820484415e-05,0.0,-0.0031317379325628,-0.0017773509025573,0.7090744972229004,0.7051244974136353,-7.268106502141087e-05,-0.0001091032553796,1.5830883677062883e-10,0.0363513827323913,0.0358311533927917,-0.0006618499755859,0,0,0,0
10.9,1788342901801,0.0,0.0,-0.003154911333695,0.0017362276557832,-0.2305435538291931,0.973055362701416,2.6974337887739257e-07,-5.372805444367613e-07,-3.206085139141373e-09,-5.38649910595268e-05,-0.0001827109663281,5.410805442807032e-06,-0.0031248964369297,-0.0017906436696648,0.7090744376182556,0.7051244378089905,-6.213690453999823e-05,-0.0001968056271171,-1.4167256260445551e-06,-0.0202893614768981,-0.0322703719139099,0.0014457702636718,0,0,0,0
11.0,1788342901901,0.0,0.0,-0.003154911333695,0.0017362276557832,-0.2305435538291931,0.973055362701416,0.0,0.0,0.0,0.0,-2.3079929079017347e-09,0.0,-0.0031234472990036,-0.0017939256504178,0.7090744376182556,0.7051244378089905,-8.677416129583664e-05,-0.0002221276149597,2.899834775727205e-10,-0.013223111629486,-0.0230867266654968,0.0138750076293945,0,0,0,0
11.1,1788342902001,0.0,0.0,-0.0031652317848056,0.0017215015832334,-0.2305435091257095,0.9730554223060608,0.0,0.0,0.0,0.0,2.3158814865809063e-09,0.0,-0.0031211609020829,-0.0018119821324944,0.7090744376182556,0.7051244378089905,-0.0002301651496588,-0.0002190156830676,-2.7049076101684816e-06,-0.0046736598014831,-0.0304735302925109,0.0047626495361328,0,0,0,0
11.2,1788342902101,0.0,0.0,-0.0031898624729365,0.0017083483980968,-0.2305434048175811,0.973055362701416,2.82842386359475e-07,-5.633719097997544e-07,-3.3961514369603572e-09,-0.0005687096272595,-0.0004135447379667,2.5215842924808385e-06,-0.0031253891065716,-0.0018334323540329,0.7090744376182556,0.7051244378089905,-0.0003948681871259,-0.0002390485797737,-1.1910205533456212e-06,0.0202602744102478,-0.0127205848693847,-0.0207834243774414,0,0,0,0
11.3,1788342902201,0.0,0.0,-0.0032095813658088,0.0017026126151904,-0.2305435389280319,0.9730551838874816,-2.681244087017556e-07,5.340564837703637e-07,3.239031333909514e-09,-0.0007164813578128,-0.0004061134823132,-9.561488695908338e-06,-0.0031348709017038,-0.0018638428300619,0.7090743780136108,0.7051243782043457,-0.0005498449295408,-0.0002704321817182,-1.9560594918966703e-06,-0.0054298639297485,0.0068202018737792,0.0043544769287109,0,0,0,0
11.4,1788342902301,0.0,0.0,-0.0032336914446204,0.0016970944125205,-0.2305434793233871,0.9730551242828368,2.7058237067815104e-07,-5.389517719061517e-07,-3.293459438402583e-09,-0.0008979951380752,-0.0004422701604198,0.0,-0.0031437603756785,-0.0018890937790274,0.7090743184089661,0.7051243185997009,-0.0006415643554019,-0.000303533115073,-1.2303123058978644e-06,-0.0075134634971618,-0.0063945651054382,-0.0080490112304687,0,0,0,0
11.5,1788342902401,0.0,0.0,-0.0032336914446204,0.0016970944125205,-0.2305434793233871,0.9730551242828368,2.7058237067815104e-07,-5.389517719061517e-07,-3.293459438402583e-09,-0.0008979951380752,-0.0004422701604198,0.0,-0.0031555574387311,-0.0019167400896549,0.7090742588043213,0.7051242589950562,-0.0006290601466624,-0.0002455040389594,-2.0823365235068298e-06,0.0033705830574035,-0.0065069794654846,0.0476589202880859,0,0,0,0
11.6,1788342902501,0.0,0.0,-0.003286515828222,0.0016880263574421,-0.2305434644222259,0.9730549454689026,0.0,0.0,0.0,-0.000960407720413,-0.0003757229133043,-2.923949296018691e-06,-0.0031736670061945,-0.0019490588456392,0.7090741395950317,0.7051241397857666,-0.000535005497668,-0.0001123723536758,-1.0181436835487255e-06,0.0115538835525512,0.0277814865112304,-0.0320920944213867,0,0,0,0
11.7,1788342902601,0.0,0.0,-0.0033100419677793,0.0016865514917299,-0.2305433303117752,0.9730550050735474,0.0,0.0,0.0,-1.3548902000337646e-09,1.6258681512226758e-08,0.0,-0.0031819716095924,-0.0019601043313741,0.7090741395950317,0.7051241397857666,-0.0004532790878937,-4.6472625817456205e-05,3.1534529358288656e-10,0.0011532306671142,0.0403017401695251,-0.0190849304199218,0,0,0,0
11.8,1788342902701,0.0,0.0,-0.0033100419677793,0.0016865514917299,-0.2305433303117752,0.9730550050735474,0.0,0.0,0.0,-1.3548902000337646e-09,1.6258681512226758e-08,0.0,-0.0032013859599828,-0.0019781338050961,0.7090740203857422,0.705124020576477,-0.0003418804497649,2.7355719107864105e-05,-2.802724560129541e-10,-0.0108749866485595,-0.008753478527069,0.0163354873657226,0,0,0,0
11.9,1788342902801,0.0,0.0,-0.0033100419677793,0.0016865514917299,-0.2305433303117752,0.9730550050735474,0.0,0.0,0.0,0.0,1.639919200435713e-09,0.0,-0.0032154377549886,-0.0019852556288242,0.7090740203857422,0.705124020576477,-0.0002171484051381,0.0001097155293112,-4.4228838790066233e-10,0.011418879032135,-0.0074372887611389,-0.0047435760498046,0,0,0,0
12.0,1788342902901,0.0,0.0,-0.0033100419677793,0.0016865514917299,-0.2305433303117752,0.9730550050735474,0.0,0.0,0.0,0.0,2.9148865543504603e-09,0.0,-0.0032154377549886,-0.0019852556288242,0.7090740203857422,0.705124020576477,-0.0002171484051381,0.0001097155293112,-4.4228838790066233e-10,0.011418879032135,-0.0074372887611389,-0.0047435760498046,0,0,0,0
12.1,1788342903001,0.0,0.0,-0.0033100419677793,0.0016865514917299,-0.2305433303117752,0.9730550050735474,0.0,0.0,0.0,0.0,2.314964664407171e-09,0.0,-0.0032307729125022,-0.0019899336621165,0.7090739607810974,0.7051239609718323,-0.0001099200201869,2.452498900227963e-05,-5.249072969477709e-11,-0.0107617974281311,0.0081075429916381,-0.0194025039672851,0,0,0,0
12.2,1788342903101,1.3521126508712769,1.380281686782837,-0.0033100419677793,0.0016865514917299,-0.2305433303117752,0.9730550050735474,0.0,0.0,0.0,0.0,2.887870609313836e-09,0.0,-0.0032312190160155,-0.0019857669249176,0.709072470664978,0.7051254510879517,0.0001705128439608,0.0002105553576889,-0.0001327252537244,-0.0108886361122131,-0.0109076499938964,0.0247669219970703,194,272,8421,11243
12.3,1788342903201,3.436619758605957,5.183098793029785,-0.00344790937379,0.0015543407062068,-0.2284446954727172,0.973549485206604,0.0675650865420226,0.0033949113704831,9.890655570640396e-06,-0.0029456382617354,-0.0046933074481785,0.0601383000612258,-0.0030665462836623,-0.0020286981016397,0.7119010090827942,0.7022701501846313,0.0064234133322785,-0.0030348203098307,0.1140742584685671,0.9601483345031738,-0.242071270942688,-0.0952386856079101,152,248,12223,14026
12.4,1788342903301,4.169013977050781,4.8450703620910645,-0.0031531965360045,0.0014427222777158,-0.2228060364723205,0.9748566746711732,0.1636584651086425,0.0008587103346933,8.569135649309768e-06,0.0047323573380708,-0.0012028107885271,0.1353751271963119,-0.0026174923405051,-0.00180484354496,0.7188630700111389,0.695144534111023,0.0090791748822825,-0.016537233216418,0.1698989159401009,-0.032152771949768,0.261938214302063,-0.0316877365112304,193,225,15760,19415
12.5,1788342903401,4.676056385040283,6.0,-0.0028007084038108,0.001560615375638,-0.2148052752017974,0.9766516089439392,0.189885401206103,-0.0003020110918008,4.533765238390328e-05,0.0044568814337253,0.0009382997523061,0.1616807878017425,-0.0027226088568568,-0.0015644533559679,0.7210813164710999,0.6928433179855347,0.0049252905828638,0.0116252390093602,0.1599306587461645,-0.0757947564125061,-0.2594218850135803,0.0380306243896484,91,69,13483,14541
12.6,1788342903501,4.619718074798584,5.577464580535889,-0.002957790158689,0.0012793964706361,-0.2082143425941467,0.9780779480934144,0.172925922315502,-0.0005763583649885,2.6478051005651037e-06,-0.0076886247843503,-0.0030347702559083,0.1522795259952545,-0.0027650762349367,-0.0018018893897533,0.7265978455543518,0.6870550513267517,-0.0032863602097133,0.0099687461043634,0.1331645611303059,-0.3742119073867798,-0.1817896366119384,-0.0069427490234375,83,60,12353,17464
12.7,1788342903601,4.084506988525391,6.450704097747803,-0.0029861410148441,0.0011916591320186,-0.2028395235538482,0.979206681251526,0.1805356888441102,-0.000893190737105,-1.5602336641796403e-05,-0.0003755120560526,-0.0031504651997238,0.1586435735225677,-0.0023149838671088,-0.0021091410890221,0.7345435619354248,0.6785544157028198,0.0033802389314031,-0.0109522194257495,0.2847832741043526,0.0631018280982971,0.0946220159530639,0.0539875030517578,79,87,12690,15364
12.8,1788342903701,3.9718310832977295,5.464788913726807,-0.003208651440218,0.0008481267141178,-0.1840475797653198,0.9829117655754088,0.1715699585867011,0.0053926752136242,1.2787160257579752e-05,-0.007130513433367,0.0022918360773473,0.267934650182724,-0.0025271978229284,-0.0023627094924449,0.7436102628707886,0.6686044335365295,-0.0091223695712944,0.0072819447988213,0.2476565698775801,-0.1820465922355651,0.2474956512451172,-0.1953649520874023,124,142,13345,18643
12.9,1788342903801,4.056337833404541,6.0,-0.0037284491118043,0.0009478382999077,-0.1718027591705322,0.985123872756958,0.1796992071777127,0.0023918413476166,-2.726016631886644e-05,-0.0104810763150453,0.000785794632975,0.2499354481697082,-0.0027648229151964,-0.0026898849755525,0.75130695104599,0.6599417328834534,-0.0012119614602192,-0.0068580847264823,0.2705923686391283,-0.1807305216789245,0.1135963797569274,0.2136430740356445,124,142,13345,18643
13.0,1788342903901,3.6056337356567374,5.830986022949219,-0.0038491021841764,0.0014500183751806,-0.1546753048896789,0.9879568219184875,0.1735481274932701,0.0046927079417202,-5.735562715953185e-06,-0.0090582277625799,0.0111796259880065,0.4065355956554413,-0.0033013233914971,-0.00237672124058,0.7654485702514648,0.6434842944145203,0.0048177557497609,0.002088211933485,0.3848913337845114,0.0054407715797424,-0.2121191620826721,0.1497383117675781,121,137,12663,19509
13.1,1788342904001,4.14084529876709,6.084506988525391,-0.0038491021841764,0.0014500183751806,-0.1546753048896789,0.9879568219184875,0.1735481274932701,0.0046927079417202,-5.735562715953185e-06,-0.0090582277625799,0.0111796259880065,0.4065355956554413,-0.0030012698844075,-0.0024583311751484,0.7712755799293518,0.6364895105361938,0.0048728137127745,-0.013126906486816,0.3744158896269902,-0.0139768123626708,0.3191189765930176,0.2793302536010742,146,133,13242,16081
13.2,1788342904101,4.056337833404541,6.422535419464111,-0.00403554411605,0.0017552418867126,-0.1224821731448173,0.9924609661102296,0.1797268013176067,-0.0021996743926069,-5.447379925780989e-05,-0.0048751877620816,0.0073549472726881,0.2414960712194442,-0.0034557627514004,-0.0025051580742001,0.7868577241897583,0.6171196103096008,0.0073704336719973,0.0044588776483262,0.2408691069920116,0.0598347187042236,-0.1178413033485412,-0.3868370056152344,84,80,12520,18098
13.3,1788342904201,4.197183132171631,6.366197109222412,-0.0041454210877418,0.0014880439266562,-0.1103757321834564,0.9938801527023317,0.1715172037648339,0.0032749072771256,5.141539778951024e-05,-0.0068138842470943,-0.0139135112985968,0.2456642538309097,-0.0031156996265053,-0.0028925985097885,0.7921411991119385,0.6103230118751526,0.0057337593145987,-0.0246645657489591,0.2630221944059875,-0.0720285773277282,-0.1427922844886779,0.0044460296630859,83,152,12696,15311
13.4,1788342904301,4.450704097747803,6.2816901206970215,-0.0043350355699658,0.0011254702694714,-0.102730818092823,0.9946991205215454,0.1772989622342465,-0.0042259121373082,7.764669688328047e-05,-0.0051400745287537,-0.0136110493913292,0.2525980770587921,-0.0031113717705011,-0.0032062325626611,0.8002119064331055,0.5997008085250854,0.0014736271838629,-0.0123096604359188,0.2401578012384173,0.2697452902793884,0.3868580460548401,0.3285121917724609,94,160,12685,15382
13.5,1788342904401,4.197183132171631,5.690140724182129,-0.0043922122567892,0.0012957421131432,-0.0843281671404838,0.9964275360107422,0.1690593349682258,0.0029591997266005,-8.757218124738747e-05,-0.0020533283241093,0.0084378411993384,0.2509075701236725,-0.0031854324042797,-0.0031453482806682,0.8062286376953125,0.591587245464325,-0.0042243104283896,-0.0126184647839294,0.2582107569766496,-0.2090832591056823,0.143464982509613,0.5047397613525391,114,114,12662,17538
13.6,1788342904501,4.169013977050781,5.633802890777588,-0.0043698470108211,0.0007329834043048,-0.0730155780911445,0.9973209500312804,0.1662279567381076,0.0068884947815687,3.19169503502365e-05,-0.0014722369378432,-0.0197780579328537,0.2470390051603317,-0.0030140159651637,-0.0033929273486137,0.8171346783638,0.5764289498329163,-0.0079012726687073,-0.0081009874176839,0.2440785702619213,0.0389947891235351,0.2349213361740112,0.0779609680175781,108,57,12737,17544
13.7,1788342904601,4.619718074798584,6.169013977050781,-0.0042103286832571,0.0007843368221074,-0.0618676617741584,0.9980751276016236,0.1692925811556511,0.0029341214786012,-1.1923595208925706e-05,0.0067667397670447,0.0022239293903112,0.1908360421657562,-0.0025412095710635,-0.0030236709862947,0.821199357509613,0.5706276893615723,0.0212873435865122,-0.0034135909118069,0.1512501537545295,0.1364473700523376,-0.102313220500946,0.2886409759521484,133,129,13645,13603
13.8,1788342904701,4.535211086273193,5.97183084487915,-0.0038203061558306,0.0005689672543667,-0.0552372522652149,0.9984657764434814,0.1749855059046551,0.001688244315218,-3.9296511760344325e-05,0.0119700552895665,0.0035999517422169,0.1468047052621841,-0.0023620259016752,-0.0028381561860442,0.8238571882247925,0.5667853951454163,0.0086581780141945,-0.0032810610973385,0.1263739787269309,0.1106601357460022,-0.0898923873901367,0.4197549819946289,106,145,13842,14512
13.9,1788342904801,4.929577350616455,4.816901206970215,-0.00317786145024,0.0005163041641935,-0.0467369183897972,0.9989020228385924,0.1735844157168077,0.0006855505366902,-3.535676813375564e-05,0.0159116741269826,0.0018095372943207,0.1496576219797134,-0.0017458703368902,-0.0022744396701455,0.8278713822364807,0.560910701751709,0.0108087351863701,0.0002961312664427,0.0274473710182199,0.0379961729049682,-0.2528771162033081,-0.1000995635986328,99,143,13376,17153
14.0,1788342904901,4.901408672332764,5.042253494262695,-0.0030707838013768,0.0003720708191394,-0.0459731332957744,0.9989379048347472,0.1683622652659074,-0.0010348175495321,3.895802996222032e-05,0.0056764711625874,-0.0070825857110321,0.0382474437355995,-0.0013877395540475,-0.0022652735933661,0.8283051252365112,0.5602709650993347,0.0043561253180445,-0.0133135682785282,0.0182830912396652,-0.2356743812561035,-0.060567021369934,0.1966676712036132,105,172,14720,16082
14.1,1788342905001,4.3380279541015625,6.0,-0.0025714081712067,-0.000200426482479,-0.0431855246424675,0.9990637302398682,0.1700959848937962,0.0004779190459833,-4.403821906531459e-06,0.0040618050843477,0.0013637895463034,0.0468901842832565,-0.0008406871929764,-0.0022315923124551,0.8324277997016907,0.5541285276412964,0.0140620503365177,-0.007461521175065,0.1902264670547525,-0.1265599131584167,-0.2180420756340026,-0.2240962982177734,106,84,13946,14891
14.2,1788342905101,4.535211086273193,5.183098793029785,-0.0022434419952332,-0.0005640953313559,-0.0355273447930812,0.999366044998169,0.1677636366421693,0.001675071022669,1.5286929723633064e-05,0.0123361377045512,-0.0127676092088222,0.1839753091335296,-0.0008406871929764,-0.0022315923124551,0.8324277997016907,0.5541285276412964,0.0140620503365177,-0.007461521175065,0.1902264670547525,-0.1265599131584167,-0.2180420756340026,-0.2240962982177734,120,150,13843,16803
14.3,1788342905201,4.563380241394043,5.943662166595459,-0.0021976553834974,-0.000821953988634,-0.0300488974899053,0.9995456337928772,0.1778949591954408,0.0004992857956938,2.8749146688005986e-05,0.0016808054642751,-0.0077191251330077,0.1577087938785553,-0.0002522626891732,-0.0024897158145904,0.8390873670578003,0.5439908504486084,0.0005515062530393,-0.005706478978459,0.161157384875715,-0.0233843922615051,-0.120849609375,-0.3025693893432617,127,96,13447,14625
14.4,1788342905301,4.507042407989502,6.084506988525391,-0.0019301110878586,-0.0014602398732677,-0.0189197622239589,0.9998180866241456,0.1701904578695396,0.0006914774648493,1.3216919802956713e-05,0.0118538876995444,-0.0097690839320421,0.1598638445138931,0.0006174677982926,-0.0023071439936757,0.8451362252235413,0.5345457792282104,0.0102986387228418,-0.0100821755494978,0.1579222072664886,-0.2047773003578186,0.0020552277565002,0.1287984848022461,84,85,13775,13766
14.5,1788342905401,4.535211086273193,5.098591327667236,-0.0016963409725576,-0.0022872830741107,-0.0069973636418581,0.9999715089797974,0.1761839897997499,-0.0011051720190762,-1.6925262329931173e-05,0.003235405543819,-0.0056142592802643,0.1521396487951278,0.0010234303772449,-0.0026034004986286,0.8492223024368286,0.5280281901359558,0.0062036606601141,-0.0076672463688784,0.1741619400331601,-0.1857107281684875,0.1141201257705688,0.2011623382568359,135,93,13585,17248
14.6,1788342905501,4.366197109222412,5.88732385635376,-0.0017186638433486,-0.0022326605394482,-0.0048191719688475,0.9999844431877136,0.1687032524743308,0.0024026323063817,-2.396747030276484e-05,-0.0011801614891737,0.0033870129846036,0.1452412009239196,0.0011195065453648,-0.0028924942016601,0.8520874977111816,0.5233901739120483,0.0022583801838413,0.0206628857580165,0.1459565811436765,-0.0660277009010315,-0.0825175046920776,0.0892038345336914,112,112,14278,14913
14.7,1788342905601,4.591549396514893,5.183098793029785,-0.0022091674618422,-0.0029113648924976,0.0031633162871003,0.999988317489624,0.1780290426461752,0.0020735658321967,5.861495539191502e-05,-0.0081743886694312,-0.0105858910828828,0.1334259361028671,0.0015874449163675,-0.00370280072093,0.8557414412498474,0.5173879265785217,-0.0093919439998897,-0.0130233344248175,0.1473885691390754,0.2001664638519287,0.2284489274024963,0.0801191329956054,135,37,15432,15114
14.8,1788342905701,4.760563373565674,5.943662166595459,-0.0027636445593088,-0.0032156622037291,0.0083675766363739,0.9999560117721558,0.1774645697412244,-0.0013961020739442,-2.6592819372167404e-05,-0.0084775313735008,0.0068430975079536,0.0370347164571285,0.0012970613315701,-0.0040368111804127,0.8568801283836365,0.5154982805252075,-0.001032101734773,0.0029352127237499,0.0291093033522638,0.3147961497306824,-0.1637831926345825,0.1774940490722656,107,174,15067,12781
14.9,1788342905801,4.901408672332764,5.323943614959717,-0.0031482838094234,-0.0038616685196757,0.0099522797390818,0.9999380707740784,0.1747441655508919,-0.0003939493406948,2.7296419441711548e-05,-0.0054952721111476,-0.0134922219440341,0.0343420542776584,0.0017381198704242,-0.0047857323661446,0.8579068183898926,0.5137800574302673,-0.0053396917994117,-0.0129761947959903,0.0407681915436194,-0.3125250339508056,-0.0513525605201721,0.1826601028442382,67,68,14368,14752
15.0,1788342905901,4.929577350616455,5.267605781555176,-0.0032284567132592,-0.0040005422197282,0.0106679089367389,0.9999298453330994,0.1682632325972451,0.0023520819685058,2.553651275756158e-05,-0.0026548928581178,-0.0047279372811317,0.0241038259118795,0.0016094408929347,-0.004963956773281,0.858894944190979,0.5121253132820129,-0.0016096516936792,0.0060160800069882,0.0643217570723585,-0.069433569908142,-0.12736576795578,0.0892820358276367,130,32,14267,14971
15.1,1788342906001,4.901408672332764,5.577464580535889,-0.00340934866108,-0.003968121483922,0.0122866434976458,0.9999108910560608,0.1690679294196543,-0.0018244248685122,1.943208690583774e-06,-0.0114376442506909,0.0019080090569332,0.1063927486538887,0.0018471414223313,-0.004962327890098,0.8600757718086243,0.510138988494873,0.0023887855249046,-0.0050025216843834,0.0406876061858109,0.0757954120635986,0.1451708078384399,0.0995597839355468,113,61,14179,16385
15.2,1788342906101,5.042253494262695,6.253520965576172,-0.0032249998766928,-0.0041790180839598,0.0154984053224325,0.9998659491539,0.1694344844872671,0.0014603683775135,2.016400500743348e-05,0.0017288696253672,-0.0005623686593025,0.0352655909955501,0.0018206313252449,-0.0048118429258465,0.8613391518592834,0.5080043077468872,0.0021032795799278,0.0163796905077199,0.0701351575383022,-0.0205564498901367,0.0004062056541442,-0.1526174545288086,140,126,13891,11821
15.3,1788342906201,5.042253494262695,6.253520965576172,-0.0029185158200562,-0.0040840986184775,0.0192401614040136,0.99980229139328,0.171162757539373,-0.0009800315132413,2.99216200293176e-05,0.0076069729402661,-0.0013354234397411,0.0685323551297187,0.0023599676787853,-0.004553529433906,0.8630690574645996,0.5050598382949829,0.0088815371598574,-0.0117458185382373,0.0412840703328898,-0.2086601853370666,0.067129373550415,0.1168622970581054,140,126,13891,11821
15.4,1788342906301,4.816901206970215,4.873239517211914,-0.0026004614774137,-0.0046845036558806,0.0208237878978252,0.9997687935829164,0.1732653147533308,0.0011964483585318,4.798704547272865e-05,0.0033396868966519,-0.0262459479272365,0.0303895678371191,0.0025310618802905,-0.0045340061187744,0.8636719584465027,0.5040276050567627,0.0040044319023409,0.0076466617257189,0.036656955395912,-0.0856475234031677,-0.0140457153320312,0.1741981506347656,95,80,14883,16469
15.5,1788342906401,4.788732528686523,5.802816867828369,-0.0026004614774137,-0.0046845036558806,0.0208237878978252,0.9997687935829164,0.1732653147533308,0.0011964483585318,4.798704547272865e-05,0.0033396868966519,-0.0262459479272365,0.0303895678371191,0.0023951567709445,-0.0040338607504963,0.8651697039604187,0.5014573931694031,0.0087488538095894,0.00240439438604,0.0347292658808296,0.0157600045204162,-0.1582859754562378,0.3682327270507812,92,159,14906,13143
15.6,1788342906501,5.014084339141846,5.464788913726807,-0.0021506249904632,-0.0040533919818699,0.0250225979834795,0.9996763467788696,0.1712699745374623,0.0002624789909295,-2.653003735802704e-05,0.0048212530091404,0.0069096121005713,0.0255856458097696,0.0024213250726461,-0.0040006330236792,0.8659121990203857,0.5001742243766785,0.000482600118762,-0.006931264316845,0.0749710329683354,0.1153622269630432,0.0187861919403076,0.399022102355957,130,129,14244,14160
15.7,1788342906601,4.676056385040283,5.549295902252197,-0.0020888266153633,-0.0035386814270168,0.0329617522656917,0.9994481205940248,0.1700634616037888,0.0035391921518147,-6.213489306110788e-05,-0.0027039826381951,0.0202229805290699,0.1690983921289444,0.0020135715603828,-0.0035911370068788,0.8709098100662231,0.4914256632328033,0.0069791274413123,-0.0025199085615642,0.1345820746201406,0.0552785396575927,0.0501071214675903,0.0846481323242187,107,151,13072,16034
15.8,1788342906701,4.422535419464111,5.492957592010498,-0.0019624379929155,-0.0031164118554443,0.0401109084486961,0.9991884827613832,0.1772806511462166,-0.0012923401710223,-2.4259470283655964e-05,0.0007699488196521,0.0139224231243133,0.1544467210769653,0.0012746937572956,-0.0030421605333685,0.8756269216537476,0.4829769730567932,0.0007437995667942,0.0173873830681635,0.1281620359663842,0.0017792582511901,0.2209470868110656,0.0402173995971679,121,142,14154,16311
15.9,1788342906801,4.507042407989502,5.88732385635376,-0.0019107855623587,-0.0021225176751613,0.0489869862794876,0.9987953305244446,0.1728818668400939,-0.0004126475389612,-9.760021624618296e-05,0.0024560510646551,0.027360338717699,0.1502985805273056,0.0008423337712883,-0.0027762725949287,0.8767444491386414,0.480947881937027,0.0020363004508345,0.0328295555186785,0.1514994913451649,0.0640274286270141,-0.2298381328582763,-0.0639276504516601,110,182,14255,14153
16.0,1788342906901,5.154929637908936,5.492957592010498,-0.0020837904885411,-0.0014495035866275,0.0532705411314964,0.9985769391059875,0.1692347034067104,-0.0024078420288341,-4.727336690442089e-05,-0.0038200586568564,0.0160029418766498,0.0552080646157264,0.0002995347604155,-0.0025525037199258,0.8791422843933105,0.4765524268150329,-0.0018560404547963,0.0159198125177283,0.0890715544108795,0.3324968814849853,-0.3541902303695678,-0.0533514022827148,110,182,14255,14153
16.1,1788342907001,4.788732528686523,4.732394218444824,-0.0022575014736503,-0.0007876520394347,0.0540932640433311,0.998533010482788,0.1880057122092545,-0.0006478711910265,-8.200899120911972e-05,-0.0056920908391475,0.0277487784624099,0.0342724286019802,-0.0011019855737686,-0.0021299887448549,0.8800505995750427,0.4748738408088684,0.0049159883025781,0.0229762265946989,0.0465140065677317,-0.0146135687828063,-0.1577287316322326,-0.1195535659790039,88,134,14866,16793
16.2,1788342907101,4.816901206970215,5.126760482788086,-0.0025898304302245,0.0006037098937667,0.0567995309829711,0.998382031917572,0.1725917950835648,-0.0038551666714339,-1.8218144145608085e-05,-0.0085749644786119,0.0172746442258358,0.0443932004272937,-0.0028656208887696,-0.0019039027392864,0.8818230032920837,0.4715679287910461,-0.0115162713851676,0.0122033682766908,0.0514370028720779,-0.1042107939720153,0.0120740532875061,0.0444774627685546,82,76,14736,15755
16.3,1788342907201,4.816901206970215,5.126760482788086,-0.0034342783037573,0.0019402485340833,0.0596137158572673,0.9982137680053712,0.1773620637681279,9.7959261095727e-05,-7.315321568504172e-05,-0.0149802369996905,0.0216970089823007,0.0521737784147262,-0.0028656208887696,-0.0019039027392864,0.8818230032920837,0.4715679287910461,-0.0115162713851676,0.0122033682766908,0.0514370028720779,-0.1042107939720153,0.0120740532875061,0.0444774627685546,82,76,14736,15755
16.4,1788342907301,4.591549396514893,6.169013977050781,-0.0035967410076409,0.0027894296217709,0.0589103735983371,0.9982529282569884,0.1754656164324961,0.0013035320980711,-4.324725670932268e-05,-0.0061078611761331,0.0219666454941034,-0.0175318717956542,-0.0051761120557785,-0.0014219973236322,0.8819798231124878,0.4712566137313843,-0.0141056909735631,0.0139526938729983,0.0222710243634386,-0.1164140105247497,0.1317538022994995,0.2211828231811523,64,229,12983,14736
16.5,1788342907401,4.366197109222412,5.577464580535889,-0.004053936805576,0.004217647947371,0.0621087215840816,0.9980522394180298,0.17287639029772,0.001525797204674,-0.0001135733400117,-0.0138269318267703,0.0317955799400806,0.136465385556221,-0.0057247672230005,-0.0009598117321729,0.886459231376648,0.4627703428268432,0.0046586785533751,0.0039963309320554,0.1707793671241418,0.1992688775062561,-0.1445778012275695,-0.2517938613891601,64,229,12983,14736
16.6,1788342907501,4.563380241394043,6.0,-0.0038254628889262,0.0046077328734099,0.0704601109027862,0.9974966049194336,0.1747526239921916,-0.0017296830793359,-1.3294254593287777e-05,0.0009290168527513,0.0149117298424243,0.1591649502515792,-0.0059358207508921,-0.0008510835468769,0.8871762752532959,0.4613916873931885,-0.0007231315717992,0.0206355512365977,0.1382979078913624,-0.1682751178741455,0.1518750190734863,0.1458854675292968,105,99,13462,14315
16.7,1788342907601,4.478873252868652,5.633802890777588,-0.0039002392441034,0.0048382245004177,0.0751098021864891,0.9971559047698976,0.1745775793830351,0.0016365843845457,-5.329289593958686e-06,-0.0023607772309333,0.006375818978995,0.1357648074626922,-0.0061244200915098,-0.0009118085727095,0.8915087580680847,0.4529612064361572,-0.00158156123779,0.0083274035119601,0.1585560665658191,-0.0458166003227233,0.2810081243515014,-0.252145767211914,76,150,13597,15630
16.8,1788342907701,4.8450703620910645,5.521126747131348,-0.0034744122531265,0.0040498045273125,0.0846094861626625,0.9963999390602112,0.1646608637569717,-5.412756763198866e-05,5.7814252210254e-05,0.0058014681562781,-0.0103022847324609,0.0239932313561439,-0.0049942219629883,-0.0010409671813249,0.8939396739006042,0.4481582939624786,-0.0025893623822392,-0.016952480791026,0.0204339982574687,-0.039764404296875,-0.0946006178855896,0.0012378692626953,91,99,14644,13671
16.9,1788342907801,4.985915660858154,5.239436626434326,-0.0033933506347239,0.0035818135365843,0.0856771618127822,0.9963107705116272,0.1850675406892281,0.0012105958551456,7.811910998082759e-05,0.0015956182032823,-0.0208084527403116,0.0467281937599182,-0.0042587099596858,-0.0013384483754634,0.8947492241859436,0.4465466439723968,-0.0068929406133718,-0.0113874562244075,0.038911731325981,0.1174695491790771,0.042947232723236,-0.1525716781616211,85,142,14612,14960
17.0,1788342907901,4.788732528686523,4.873239517211914,-0.0033345515839755,0.0029907755088061,0.086761973798275,0.9962189793586732,0.175386197085231,-0.0005837825019124,8.029629614664553e-05,0.0001185961373266,-0.0189060978591442,0.0344054549932479,-0.0040691429749131,-0.0014640670269727,0.8954235315322876,0.4451945126056671,0.002009937819902,-0.0007685449195575,0.052647474372644,-0.0218866467475891,-0.0832979679107666,0.0927915573120117,93,128,14589,16130
17.1,1788342908001,4.8450703620910645,4.816901206970215,-0.0032370954286307,0.0025268518365919,0.0891100019216537,0.996013343334198,0.1760683307756858,-0.001793435312788,-1.4187964922838749e-06,0.0039962856099009,-0.0066498578526079,0.0550278164446353,-0.0034981602802872,-0.0017393883317708,0.8963838815689087,0.443261444568634,-0.0032826715275259,-0.0074535272593993,0.0243485244739506,-0.066335916519165,-0.0273424386978149,-0.0400047302246093,84,97,14435,16264
17.2,1788342908101,5.070422649383545,5.633802890777588,-0.0033627008087933,0.0018011006759479,0.091512456536293,0.9957966804504396,0.1749244455914308,-0.0009446277578197,6.799582141838595e-05,-0.0037952593993395,-0.0146498549729585,0.0446850806474685,-0.0030769929289817,-0.0021313996985554,0.8972042798995972,0.4416000247001648,-0.0080861096307193,-0.0210464378340065,0.0446165257529201,0.1198992729187011,-0.141117513179779,0.4608736038208008,120,69,13621,13710
17.3,1788342908201,5.070422649383545,5.633802890777588,-0.0031631023157387,0.0011622935999184,0.0945654436945915,0.9955129623413086,0.176675367106905,0.0001958335615513,2.1353713046259025e-05,0.0054865689016878,-0.0200280956923961,0.0677664503455162,-0.0026441197842359,-0.0020892042666673,0.8981435894966125,0.4396894872188568,0.0027990072590883,-0.0325138538645713,0.0703634485922414,0.1885424852371215,-0.0602471232414245,0.2080078125,120,69,13621,13710
17.4,1788342908301,4.760563373565674,4.873239517211914,-0.0031574997119605,0.0004940337967127,0.0965774804353714,0.9953203797340392,0.1611802432865131,0.0029540824957308,8.247665688691056e-06,-0.0018785652937367,-0.0044629350304603,0.0347300469875335,-0.0021392423659563,-0.0023984750732779,0.8991186022758484,0.4376933872699737,-0.0015288679079477,0.0139061207876133,0.0344978096638162,-0.2071712017059326,-0.0392263531684875,0.1554822921752929,48,213,13175,14612
17.5,1788342908401,4.816901206970215,5.7183098793029785,-0.00322080636397,0.0004320642037782,0.0998963862657547,0.99499249458313,0.1668381898709301,0.00195411300428,1.1441314791447232e-05,-0.002877821912989,-0.0026454383041709,0.133904293179512,-0.0016797129064798,-0.0025777779519557,0.902022659778595,0.4316778481006622,0.0139631425826215,-0.011180856023552,0.0322054736152764,0.2564067840576172,-0.1877760291099548,-0.1875638961791992,94,143,14913,13238
17.6,1788342908501,5.042253494262695,5.408450603485107,-0.0033072615042328,-6.034466787241399e-05,0.1041573509573936,0.9945553541183472,0.1813397330128722,0.0019671009094277,1.0798096657228576e-05,-0.0099803088232874,-0.0049789152108132,0.0299647748470306,-0.0017249109223484,-0.0030376333743333,0.902594804763794,0.4304769337177276,-0.0115336299406076,-0.0043138491936332,0.0205000312303571,-0.1205775737762451,0.1212543249130249,0.1203327178955078,120,160,15093,13604
17.7,1788342908601,4.957746505737305,4.647887229919434,-0.0034791736397892,-4.839798202738166e-05,0.1047198697924614,0.994495689868927,0.1688604222020427,-0.000988730234798,-6.722786565327075e-06,-0.0066550159826874,0.0010938027407974,0.022160105407238,-0.0010685343295335,-0.003143073990941,0.9022067785263062,0.4312910139560699,-0.0084185131535728,-0.0171694166322373,-0.0519455240644833,0.1145717501640319,-0.3732181787490845,0.2354288101196289,131,82,16378,14981
17.8,1788342908701,5.492957592010498,5.211267471313477,-0.0031590356957167,-0.0005193962715566,0.1049502119421958,0.9944722652435304,0.1782411826216321,-0.0024729437370731,3.9086814032793276e-09,0.0060452441684901,-0.0063554299995303,-0.0059949159622192,-0.001084666699171,-0.0029234290122985,0.9013664722442628,0.4330458045005798,0.008892681950041,0.0007778564340884,-0.0543342495501946,0.0176153779029846,-0.242868959903717,0.3866825103759765,123,58,14516,12997
17.9,1788342908801,5.380281925201416,5.295774459838867,-0.0030679227784276,-0.0006022069137543,0.1015215292572975,0.9948284029960632,0.1691070475320346,-0.0012555765662882,1.3715709385863589e-05,0.0049889925867319,0.0008796272450126,-0.0552715696394443,-0.0008992673829197,-0.0030171377584338,0.9005727171897888,0.4346939623355865,0.0023339090805683,0.004215658746285,-0.0388436402028814,0.0861594080924987,-0.1449062228202819,-0.2953529357910156,137,69,14817,12886
18.0,1788342908901,5.267605781555176,5.154929637908936,-0.0029792820569127,-0.0010802251053974,0.0978798568248748,0.9951931834220886,0.1691312375121531,-0.0003800466501312,4.6191517612285e-05,0.0040649189613759,-0.0066658938303589,-0.0611268915235996,-0.0006728870794177,-0.0030147302895784,0.8994017243385315,0.4371120631694793,0.0042112850485079,0.0019999202216381,-0.0485187076743754,-0.1877127289772033,-0.0401462316513061,-0.0438299179077148,99,182,15266,13484
18.1,1788342909001,5.070422649383545,5.295774459838867,-0.0029792820569127,-0.0010802251053974,0.0978798568248748,0.9951931834220886,0.1691312375121531,-0.0003800466501312,4.6191517612285e-05,0.0040649189613759,-0.0066658938303589,-0.0611268915235996,-0.0004682950675487,-0.0026984298601746,0.8984325528144836,0.4391030371189117,0.0116731573555983,-0.0072727301672595,-0.042507844755915,-0.0044271349906921,-0.0812864899635315,-0.079686164855957,101,160,15482,13227
18.2,1788342909101,5.070422649383545,5.295774459838867,-0.0026219359133392,-0.0011094457004219,0.0942236557602882,0.9955469965934752,0.1649889881366378,0.0015329142251291,1.3640263062100096e-05,-0.0016739016864448,-0.0067753442563116,-0.0798642560839653,-0.0005266591906547,-0.0026902463287115,0.8972731232643127,0.4414673447608948,0.0057848621103099,0.0151308825879428,-0.0419909328896371,0.0108067989349365,0.0518304705619812,0.107950210571289,103,62,15917,12752
18.3,1788342909201,4.507042407989502,4.02816915512085,-0.0024473995435982,-0.0012354212813079,0.0915262401103973,0.995798885822296,0.1636497169241291,-0.0003234939738181,2.9656370624631674e-05,0.003747604554519,-0.0113422153517603,-0.0426648184657096,-0.0003602793440222,-0.0026924749836325,0.8966683745384216,0.4426944553852081,-0.0020859180320736,0.0087733825256926,-0.0506167832688826,-0.7569228410720825,0.0346471667289733,0.2484912872314453,27,32,11043,8373
18.4,1788342909301,2.6478872299194336,1.154929518699646,-0.0024025444872677,-0.00141247571446,0.0875144600868225,0.9961593151092528,0.1051839418897811,0.0002777947813992,1.252162655110834e-05,0.0019725211896002,-0.0116720935329794,-0.1264325231313705,0.0001754770055413,-0.0030013993382453,0.8918055295944214,0.4524089097976684,-0.0031196235077432,-0.0068006520088741,-0.2229663687697773,-0.5341306328773499,-0.0147057175636291,0.1282901763916015,18,54,5323,1265
18.5,1788342909401,1.5211267471313477,0.0,-0.0024698150809854,-0.001673721242696,0.0775959193706512,0.9969804286956788,0.0144990991056598,0.0036377012406837,1.0124553656525711e-06,-0.0013800436863675,-0.002037227153778,-0.2036661207675933,0.0001754770055413,-0.0030013993382453,0.8918055295944214,0.4524089097976684,-0.0031196235077432,-0.0068006520088741,-0.2229663687697773,-0.5341306328773499,-0.0147057175636291,0.1282901763916015,16,0,3955,0
18.6,1788342909501,0.7323943376541138,-1.154929518699646,-0.0024465036112815,-0.0017536386149004,0.0664406046271324,0.9977858662605286,-0.0015401569648669,0.0002902190398258,8.740853065120439e-07,-0.0008216641726903,0.0148993181064724,-0.236093133687973,0.0001836596056818,-0.0029873196035623,0.8849855065345764,0.4656089246273041,-0.0010809880039613,0.0142796928669582,-0.2454220039825947,-0.1271550059318542,0.0869956016540527,0.1058731079101562,110,75,3759,-4768
18.7,1788342909601,0.8732394576072693,-0.8169013857841492,-0.0024356278590857,-0.0015938599826768,0.0626876428723335,0.9980289340019226,-0.0047553811271847,0.0001903540689739,2.6141739645328984e-07,0.0010385976638644,0.0112917833030223,-0.2522837519645691,-0.0002077789977192,-0.002731766551733,0.8783830404281616,0.4779495298862457,-0.0016512129928381,0.0141956420856914,-0.2576858446602782,-0.4706052541732788,0.1006581783294677,-0.0095024108886718,107,66,6692,-2981
18.8,1788342909701,1.211267590522766,-0.591549277305603,-0.0024927374906837,-0.0013752377126365,0.042545810341835,0.9990904331207277,0.0226733086302959,-0.0025906925139035,-3.107497713241456e-06,-0.0013141834642738,0.000937333505135,-0.2997270226478576,-0.0002077789977192,-0.002731766551733,0.8783830404281616,0.4779495298862457,-0.0016512129928381,0.0141956420856914,-0.2576858446602782,-0.4706052541732788,0.1006581783294677,-0.0095024108886718,222,2,9180,0
18.9,1788342909801,3.126760482788086,2.169013977050781,-0.0024733727332204,-0.0015282632084563,0.0357311181724071,0.9993571639060974,0.0619977150438293,0.002620625961195,3.691102485501093e-06,0.0001658011897234,-0.0054746125824749,-0.2738288044929504,-0.0001872787252068,-0.0025817649438977,0.8698870539665222,0.4932442605495453,0.0126451369648723,0.0137559620699925,-0.1175559404772159,0.5410298109054565,0.1699318885803222,-0.1552038192749023,183,200,14149,13382
19.0,1788342909901,5.183098793029785,5.154929637908936,-0.0025160759687423,-0.0012878048000857,0.0322872549295425,0.9994746446609496,0.1541977185267026,0.0032252254472719,-1.4520399141219716e-05,-0.0092170303687453,0.0053335865959525,-0.043209858238697,-0.0008192351087927,-0.0025182422250509,0.8705471754074097,0.492077887058258,0.0029426755802392,0.0178771323034785,0.0994440900522854,-0.2593750953674316,-0.063994288444519,-0.1338462829589843,83,107,14153,16766
19.1,1788342910001,4.957746505737305,5.7183098793029785,-0.0025160759687423,-0.0012878048000857,0.0322872549295425,0.9994746446609496,0.1541977185267026,0.0032252254472719,-1.4520399141219716e-05,-0.0092170303687453,0.0053335865959525,-0.043209858238697,-0.0011287964880466,-0.002195137552917,0.8717221617698669,0.4899943768978119,-0.0009157543124322,0.0016783397436078,0.0494926453419474,0.1586166024208068,0.1740621328353881,-0.1090316772460937,83,107,14153,16766
19.2,1788342910101,2.8450703620910645,4.0,-0.0025160759687423,-0.0012878048000857,0.0322872549295425,0.9994746446609496,0.1541977185267026,0.0032252254472719,-1.4520399141219716e-05,-0.0092170303687453,0.0053335865959525,-0.043209858238697,-0.0020177764818072,-0.0022858483716845,0.8736181855201721,0.4866024851799011,-0.0086215033326336,0.0132302233670434,0.1194429439895697,-1.40530264377594,0.0467225909233093,-0.3414554595947265,67,21,2620,10178
19.3,1788342910201,0.0,2.816901445388794,-0.0029204266611486,0.0005100179696455,0.045073315501213,0.9989793300628662,0.1219837789760693,-0.0027806106346678,-2.322308905417571e-05,-0.0012674953322857,0.0062150442972779,0.1956476122140884,-0.0021031070500612,-0.0022500855848193,0.8838410377502441,0.4677773714065552,-0.0038991674073814,0.0049654259342684,0.4691376903986846,-0.4381003975868225,-0.2328734397888183,-0.0701026916503906,127,46,-6321,7854
19.4,1788342910301,-1.4929577112197876,2.873239517211914,-0.0027347705326974,0.0005103628500364,0.0833152085542678,0.9965193271636964,0.0222269964671136,-0.0008274265084917,1.7603317771575726e-06,0.0062359138391911,-0.0043885521590709,0.5597638487815857,-0.0019117798656225,-0.0021472759544849,0.8874506950378418,0.4608936309814453,0.0115627732683609,-0.0097271402316828,0.5198311102917892,-0.1437508463859558,0.2051403522491455,-0.0230875015258789,127,46,-6321,7854
19.5,1788342910401,-2.0281689167022705,1.6056338548660278,-0.0024525297340005,0.0007875728188082,0.1139428988099098,0.9934839606285096,-0.0081760403915622,-0.0086879747247742,-9.275052361146286e-07,0.0073462999425828,0.0068128434941172,0.6163809895515442,-0.0019420078024268,-0.0015992019325494,0.9109137058258056,0.4125891327857971,0.0033104948971441,-8.182576602879797e-05,0.5249480348851386,-0.2059700489044189,0.309555172920227,0.0203466415405273,149,121,-7917,8284
19.6,1788342910501,-1.887323975563049,1.8591549396514893,-0.0024103061296045,0.0008595953113399,0.1392984986305236,0.9902471899986268,0.002613678352978,0.0007869536423694,-4.0340347130881953e-08,-0.0012472281232476,-9.09887603484094e-05,0.5579200983047485,-0.0020097158849239,-0.0015996014699339,0.9177072644233704,0.3972490131855011,0.0001835053531638,0.002623373959355,0.5660644460701627,-0.1842287182807922,-0.2721173167228699,-0.0052814483642578,16,56,-5444,5124
19.7,1788342910601,-1.380281686782837,1.211267590522766,-0.0022375739645212,0.0006033054087311,0.1660857200622558,0.9861086010932922,0.0076267538712365,-0.0022400508056668,1.057143177615881e-06,0.0005573697853833,-0.0067170704714953,0.4802568256855011,-0.0016663260757923,-0.0015352917835116,0.929414689540863,0.3690302670001983,0.0048237045272405,0.001483497623979,0.3799121706325041,-0.1079582571983337,-0.0667114853858947,0.0800428390502929,120,67,-6682,6613
19.8,1788342910701,-1.380281686782837,1.211267590522766,-0.0021600381005555,0.0004562985850498,0.1894049197435379,0.9818965792655944,0.0023478744902264,0.0033937494442368,-2.2369057356261347e-07,-0.0010899831540882,-0.0030510134529322,0.4519051909446716,-0.0014667324721813,-0.0016101356595754,0.9374712705612184,0.3480558693408966,0.0003342998612512,-0.0101263855236807,0.4793477851534981,0.2266920208930969,0.0145075917243957,-0.1275520324707031,89,125,-6342,6752
19.9,1788342910801,-1.436619758605957,1.3521126508712769,-0.0019493902800604,0.000194736465346,0.2121303230524063,0.977239429950714,0.0025782637640136,-0.0067907550216912,5.37870274461144e-08,0.0022107597906142,-0.0070831310003995,0.4721649587154388,-0.0010118298232555,-0.0015790238976478,0.946164846420288,0.3236798048019409,0.0026038929687785,-0.0084109499246976,0.4636294066797589,-0.0230806469917297,0.0480877757072448,-0.0648765563964843,80,117,-6969,6518
20.0,1788342910901,-1.4929577112197876,1.3521126508712769,-0.0018135055433958,-9.77571471594274e-05,0.2325652241706848,0.9725791215896606,-0.0018569115371378,-0.0052022324600181,-1.1277486631136042e-07,0.0008795890607871,-0.0040312455967068,0.4479194283485412,-0.0008035954087972,-0.0016075111925601,0.9533711671829224,0.301795095205307,0.0003270590428349,-0.0061142711809627,0.4728185494784395,-0.0661475658416748,-0.1567407250404358,0.1767311096191406,103,138,-6218,6430
20.1,1788342911001,-1.042253494262695,0.9295774698257446,-0.0017284802161157,-0.0003174083540216,0.2533805668354034,0.9673650860786438,0.0035751206372203,-0.0041371415249878,5.111217565397084e-07,-0.0007606938015669,-0.0048689749091863,0.3819595575332641,-0.0006244694814085,-0.0016066106036305,0.9560099244117736,0.2933294475078583,0.0023511707248073,-0.0086568951429622,0.4111762825740183,0.3118960857391357,-0.1460943222045898,-0.0670051574707031,71,145,-4804,5306
20.2,1788342911101,-1.1267606019973757,1.2394366264343262,-0.0016769961221143,-0.000344010797562,0.2668514847755432,0.9637361764907836,0.0036553074739414,0.0027286030876181,5.843352135658694e-08,-0.0004185783909633,-0.0053058126941323,0.3362601101398468,-0.0005800146609544,-0.0016188472509384,0.9613837003707886,0.2752062082290649,-0.0003561005919353,-0.0056696722060075,0.3691277880476342,-0.1680544018745422,0.0905365347862243,0.0320997238159179,74,67,-6025,5845
20.3,1788342911201,-1.1267606019973757,1.1267606019973757,-0.0016769961221143,-0.000344010797562,0.2668514847755432,0.9637361764907836,0.0036553074739414,0.0027286030876181,5.843352135658694e-08,-0.0004185783909633,-0.0053058126941323,0.3362601101398468,-0.0005735717713832,-0.0016107177361845,0.9696192741394044,0.2446133941411972,-0.0018552012103884,0.0033536697803879,0.3476616595287892,-0.0793509483337402,-0.3021565079689026,0.2515745162963867,103,94,-5721,5975
20.4,1788342911301,-1.0985915660858154,1.0985915660858154,-0.0016416014404967,-0.0004403687489684,0.3037094473838806,0.9527631402015686,0.0011340900835198,-0.0039921926438813,1.1895576736407133e-07,-0.0007257680408656,-0.0042596920393407,0.3412336707115173,-0.0005864705890417,-0.0016688359901309,0.9733912348747252,0.2291426211595535,-0.0013869338539666,0.0014812851475008,0.3673082782691347,-0.1628191471099853,0.0343509316444397,-0.0812721252441406,90,145,-5884,6090
20.5,1788342911401,-0.9295774698257446,0.7323943376541138,-0.001831748522818,-0.0003251135640311,0.3207937479019165,0.947147250175476,0.0015146864206415,0.000918093451653,-1.8191830058348937e-07,-0.0037498548626899,0.0029472331516444,0.3533130884170532,-0.0007456764578819,-0.0017998870462179,0.976759135723114,0.2143309414386749,-0.0047380422963448,-0.0007231980142664,0.1933371458614285,-0.0417933464050293,0.0609673261642456,0.3338861465454101,86,120,-3692,4680
20.6,1788342911501,-0.8169013857841492,0.9295774698257446,-0.0018742450047284,-0.0003668354474939,0.3260063529014587,0.9453656077384948,0.0039792287683241,-0.0034890812157883,-6.757501580328652e-08,-0.0023985053412616,-0.0015646492829546,0.2393380105495453,-0.0006322218105196,-0.0018773665651679,0.9791783690452576,0.2029924690723419,-0.0015744896065442,0.0001750177438508,0.2967809649560305,0.2023791670799255,-0.5060908198356628,0.039189338684082,94,134,-4831,4866
20.7,1788342911601,-0.591549277305603,0.0,-0.0019251154735684,-0.0004547985154204,0.3389254808425903,0.9408111572265624,0.0019399888547158,-9.528439122281016e-05,6.162756090568449e-07,-0.0009443075978197,-0.0038106478750705,0.2672529220581054,-0.000696956180036,-0.0018279533833265,0.9796029925346376,0.2009334713220596,0.001735934126668,0.0034440224639831,0.1046237690963545,0.1018752455711364,-0.2263756394386291,-0.0640068054199218,0,8,0,0
20.8,1788342911701,3.126760482788086,4.056337833404541,-0.0019872474949806,-0.0004497678019106,0.3444000482559204,0.938820779323578,0.0748392265493224,0.0064660128241592,8.067498791323383e-06,-0.0041377870365977,0.0124630443751811,0.136461392045021,-0.0008171992376446,-0.0017402386292815,0.9813562631607056,0.1921881586313247,0.0055813819737629,0.0198454504610064,0.1850945670874896,0.5838909149169922,0.3382951617240906,0.3411817550659179,184,182,11216,15278
20.9,1788342911801,4.732394218444824,6.647887229919434,-0.0019630875904113,-0.0001663077855482,0.3523228764533996,0.935876488685608,0.1456807122115211,0.0085817310740232,-1.0031240794714467e-05,-0.0004881664353888,0.0046839085407555,0.1927073150873184,-0.0011028032749891,-0.0016690539196133,0.9833331108093262,0.1818020641803741,-0.0010765059173705,0.0133292940789877,0.2457014968618915,-0.0688272714614868,0.3261988759040832,0.1067962646484375,66,71,11716,15447
21.0,1788342911901,4.14084529876709,6.507042407989502,-0.0017223869217559,4.600733518600464e-05,0.3656599819660187,0.9307469129562378,0.181773756612718,-0.000793460533709,1.1554858973144498e-05,0.0091816643252968,-0.0062280530110001,0.264115035533905,-0.0011028032749891,-0.0016690539196133,0.9833331108093262,0.1818020641803741,-0.0010765059173705,0.0133292940789877,0.2457014968618915,-0.0688272714614868,0.3261988759040832,0.1067962646484375,99,120,12766,14707
21.1,1788342912001,4.197183132171631,6.535211086273193,-0.0011854616459459,-0.000242599271587,0.3780040442943573,0.9258031845092772,0.1668486075307697,0.0022552261493214,3.447380294896156e-05,0.0053364313207566,-0.0077617419883608,0.2544808387756347,-3.7721358239650726e-05,-0.0010675806552171,0.9873549342155457,0.1585215628147125,0.0117828761628648,-0.0272010488203753,0.2594212295390661,0.1218824386596679,-0.1858450174331665,-0.0943279266357421,82,130,12449,14612
21.2,1788342912101,4.309859275817871,5.746479034423828,-0.0006430280627682,-0.0010358347790315,0.3888461291790008,0.9213019609451294,0.1702462836529847,0.006120428643517,5.863936484094921e-05,0.0046659475192427,-0.0238179843872785,0.2595163583755493,0.0005633933469653,-0.0010811546817421,0.988987147808075,0.1479967832565307,0.0054752725401629,-0.0208222974689988,0.2742298434314204,0.356641411781311,-0.1185437440872192,-0.2212543487548828,90,172,12326,17634
21.3,1788342912201,4.309859275817871,5.746479034423828,-9.226187830790876e-05,-0.001527945511043,0.4013045728206634,0.9159433841705322,0.1759195908624058,-0.001077565660121,5.430057411770253e-05,0.0101959034800529,-0.0198309365659952,0.2751941084861755,0.0005633933469653,-0.0010811546817421,0.988987147808075,0.1479967832565307,0.0054752725401629,-0.0208222974689988,0.2742298434314204,0.356641411781311,-0.1185437440872192,-0.2212543487548828,52,34,12098,17280
21.4,1788342912301,4.422535419464111,5.380281925201416,0.000367516069673,-0.0021131143439561,0.4069945514202118,0.9134280681610109,0.1800269118190167,-0.0025470212938419,1.623670039876146e-05,-0.0024917523842304,-0.020414950326085,0.1239538714289665,0.0020754365250468,-0.0008029760792851,0.9918646812438964,0.127277210354805,0.0004741177369503,-0.0001417924530197,0.1437069565637152,-0.0956382751464843,-0.0846607685089111,-0.13714599609375,86,56,13765,16207
21.5,1788342912401,4.591549396514893,5.746479034423828,0.0003980992478318,-0.0023745042271912,0.4115723967552185,0.9113739132881165,0.175118205214513,0.0013976536293262,3.196689091707341e-05,-0.0019489352125674,-0.007273836992681,0.1437657922506332,0.0025313626974821,-0.0008232854306697,0.9927623867988586,0.1200653761625289,0.0017741217320281,-0.0015117843200407,0.1543327828134113,0.1037240028381347,0.3258346319198608,-0.0256433486938476,103,196,13386,15370
21.6,1788342912501,4.619718074798584,6.2253522872924805,0.0003980992478318,-0.0023745042271912,0.4115723967552185,0.9113739132881165,0.175118205214513,0.0013976536293262,3.196689091707341e-05,-0.0019489352125674,-0.007273836992681,0.1437657922506332,0.0029829805716872,-0.000920602120459,0.9936219453811646,0.1127201169729232,-0.0081674964737408,-0.0032599615300185,0.142160849012828,0.0212730765342712,-0.2724008560180664,-0.1232595443725586,75,74,13203,15943
21.7,1788342912601,4.619718074798584,6.2253522872924805,0.000879245926626,-0.0032852524891495,0.4281312227249145,0.9037101864814758,0.1679263149509482,0.0060471888382711,1.5534100699786374e-05,0.0030377267394214,-0.0109802298247814,0.1680662035942077,0.0029829805716872,-0.000920602120459,0.9936219453811646,0.1127201169729232,-0.0081674964737408,-0.0032599615300185,0.142160849012828,0.0212730765342712,-0.2724008560180664,-0.1232595443725586,71,196,13334,15065
21.8,1788342912701,5.042253494262695,4.8450703620910645,0.0010259128175675,-0.0034813410602509,0.4329214990139007,0.9014242887496948,0.1727063339104516,-0.0018752422918407,-1.1683914514429425e-05,-0.0003040250740014,0.0055502806790173,0.0606564879417419,0.0034097051247954,-0.0014268057420849,0.9948601722717284,0.1011905446648597,-0.0149288221479127,-0.0021080485137582,0.0226459542744105,-0.0871956348419189,0.1668610572814941,0.2609643936157226,142,75,15166,12849
21.9,1788342912801,4.8450703620910645,5.042253494262695,0.0003765823785215,-0.0037405653856694,0.4345743954181671,0.9006280899047852,0.1678795809138058,0.0034752823239094,-1.602484394902363e-05,-0.0157197918742895,0.003342084120959,0.0502662286162376,0.003391190432012,-0.0016600620001554,0.9949740171432496,0.1000620499253273,-0.0114922680514372,-0.0003071231032826,0.056731567927507,0.1466763019561767,-0.1791180372238159,-0.0903520584106445,83,141,14297,15694
22.0,1788342912901,4.507042407989502,6.11267614364624,0.0003001621225848,-0.0036559232976287,0.4353960752487182,0.9002314805984497,0.1677428961956612,0.002733855613452,-8.738125300149872e-06,-0.0014451321912929,0.005428887438029,0.0457611717283725,0.0030614379793405,-0.0014418428763747,0.9957677125930786,0.091843195259571,0.0080027384525762,0.0060805238867676,0.1832828417328945,0.178639531135559,-0.4002275466918945,0.0829830169677734,76,171,13192,14371
22.1,1788342913001,4.901408672332764,5.183098793029785,0.0003164788940921,-0.0034139298368245,0.4432092607021332,0.8964115381240845,0.1767902266190679,0.0025654077234734,-2.348627582874852e-05,0.0020269902888685,0.0039694863371551,0.1770758926868438,0.0033114766702055,-0.0019914032891392,0.9959917664527892,0.089361622929573,-0.0085376252166125,0.0015781432324064,0.0043753285949128,-0.1034466028213501,0.1853173971176147,-0.2347326278686523,122,94,14588,15738
22.2,1788342913101,4.985915660858154,5.521126747131348,3.37621895596385e-05,-0.0037078484892845,0.4452675879001617,0.8953899145126343,0.1769223880932334,-2.5272575582408183e-05,-1.126842047387948e-05,-0.0044817449524998,0.0062113679014146,0.034485388547182,0.0027434257790446,-0.0018999874591827,0.9961904883384703,0.0871400162577629,0.0006262602103207,0.0231470401248965,0.047984353900805,0.0194146037101745,-0.0944129824638366,-0.2878561019897461,122,94,14588,15738
22.3,1788342913201,4.985915660858154,5.521126747131348,-0.0004457556642591,-0.0036960740108042,0.4475439786911011,0.894254207611084,0.170526281848248,0.0016861925679289,1.3405604738888647e-09,-0.0111226523295044,0.0017199331196025,0.0335566848516464,0.0027434257790446,-0.0018999874591827,0.9961904883384703,0.0871400162577629,0.0006262602103207,0.0231470401248965,0.047984353900805,0.0194146037101745,-0.0944129824638366,-0.2878561019897461,122,94,14588,15738
22.4,1788342913301,4.760563373565674,5.549295902252197,-0.0004457556642591,-0.0036960740108042,0.4475439786911011,0.894254207611084,0.170526281848248,0.0016861925679289,1.3405604738888647e-09,-0.0111226523295044,0.0017199331196025,0.0335566848516464,0.0021216422319412,-0.0027254978194832,0.9965448975563048,0.0829844921827316,-0.0110452015573428,0.0183394350096507,0.0542077848529468,-0.0540822744369506,-0.0124387145042419,-0.2733259201049804,96,65,14202,16105
22.5,1788342913401,4.760563373565674,5.549295902252197,-0.0015844707377254,-0.0031001151073724,0.452558696269989,0.8917278051376343,0.1826650894992829,-0.0002653088471786,-2.7062668343224977e-05,-0.0040096291340887,0.0121517740190029,0.0825735181570053,0.0021216422319412,-0.0027254978194832,0.9965448975563048,0.0829844921827316,-0.0110452015573428,0.0183394350096507,0.0542077848529468,-0.0540822744369506,-0.0124387145042419,-0.2733259201049804,96,65,14202,16105
22.6,1788342913501,5.014084339141846,4.873239517211914,-0.0016798657597973,-0.0033871890045702,0.4541653394699096,0.8909093737602234,0.1722510216797085,0.0014433640129476,5.764086870341134e-06,-0.0060337572358548,-0.0062223025597631,0.0514830984175205,0.0014360398054122,-0.0032192897051572,0.9969305992126464,0.078211486339569,-0.0032342437313745,0.0188626195945109,-0.0106015956215792,-0.0743184685707092,-0.1673706173896789,0.3330669403076172,43,217,14031,16149
22.7,1788342913601,5.014084339141846,5.577464580535889,-0.0020092334598302,-0.0028297961689531,0.4541200399398803,0.8909337520599365,0.164432128723364,0.0028195999643514,-9.576343194494648e-06,0.0030594780109822,0.0075728334486484,0.0052095456048846,0.0013997219502925,-0.0031900648027658,0.9968751668930054,0.0789170637726783,0.0012465898762947,0.0020235226691717,-0.0351827765002049,-0.0479108691215515,0.1840141415596008,-0.0911874771118164,92,176,13714,14253
22.8,1788342913701,4.985915660858154,5.380281925201416,-0.0020174996461719,-0.0025388114154338,0.4565057456493377,0.8897145986557007,0.1713663038649032,-0.001536649699422,1.7881968353989912e-08,0.0082369977608323,0.0026400373317301,0.0066594593226909,0.0009012054651975,-0.0030504325404763,0.9971598386764526,0.0752475336194038,-0.0006606904142836,0.0163012414949404,0.0201446740324647,-0.1011421084403991,0.0727218985557556,0.3249549865722656,114,161,14137,14738
22.9,1788342913801,4.985915660858154,5.154929637908936,-0.0021184831857681,-0.0019903404172509,0.4580359160900116,0.8889288902282715,0.1781376461588962,-0.0015181396730122,-3.977223182575244e-05,0.006205950397998,0.0096529899165034,0.0305106863379478,0.0010361038148403,-0.0026501528918743,0.997308611869812,0.0732630565762519,0.0114125167556688,-0.0027322295594612,0.0206195835184588,-0.1138461232185363,0.0288832783699035,0.3103895187377929,118,29,14352,15141
23.0,1788342913901,4.929577350616455,4.816901206970215,-0.0017535996157675,-0.0023251995444297,0.4587765634059906,0.888546884059906,0.1784167484908631,0.0028515310532178,7.723882384913566e-05,0.0050087124109268,-0.0136311696842312,0.0242765937000513,0.0010291961953043,-0.0026225978508591,0.9973191618919371,0.0731204226613044,0.001749059105475,0.0005499218460228,0.0092126430577205,-0.0272849202156066,-0.2638898491859436,0.1800193786621093,66,100,13994,16472
23.1,1788342914001,4.760563373565674,4.760563373565674,-0.0016266156453639,-0.0022334875538945,0.4602569341659546,0.8877814412117004,0.1728393985285255,0.0001580482494213,-2.152784717113956e-06,0.0023786211386322,-0.0019010360119864,0.0516689196228981,0.0009045777842402,-0.0024135578423738,0.9975943565368652,0.0692746192216873,0.003893075315141,0.0103988431931068,0.0401743180425119,0.1648138761520385,-0.2335569858551025,-0.2812261581420898,107,155,14945,12994
23.2,1788342914101,4.985915660858154,4.929577350616455,-0.0016501920763403,-0.0021356465294957,0.4633805155754089,0.8861553072929382,0.1790378269144689,0.0002810513845119,1.1537286516928513e-05,-0.0029393001459538,-0.0052383933216333,0.0361593924462795,0.000958302989602,-0.0024783601984381,0.9977113604545592,0.0675658956170082,0.0017201824317894,-0.0010932236215957,0.0374746824467106,0.0307295322418212,0.1049816012382507,-0.19024658203125,107,155,14945,12994
23.3,1788342914201,4.507042407989502,5.352112770080566,-0.0015793440397828,-0.0020139403641223,0.4642966091632843,0.8856760263442993,0.1775623848502635,0.0034490578215838,-9.087600799201717e-08,0.0057568890042603,0.0034674743656069,0.0494600534439086,0.0008190823718905,-0.0023724567145109,0.997849702835083,0.0654954016208648,0.004990749323005,0.0071097168634447,0.1047559584212243,-0.1358335018157959,0.2447128891944885,0.3417301177978515,67,54,13047,16635
23.4,1788342914301,3.0985915660858154,4.535211086273193,-0.0020402225200086,-0.0014948508469387,0.471194714307785,0.8820255398750305,0.1732781434780728,0.0004557210021462,-6.839962442556302e-05,-0.0025209193117916,0.003509662579745,0.1818153262138366,-0.0003912551328539,-0.0028404714539647,0.998648166656494,0.0518998317420482,-0.0108862188741007,0.0158471655294159,0.1474070539576668,-2.0191802978515625,0.1753586530685424,0.1342277526855468,9,43,6361,8607
23.5,1788342914401,0.0,0.98591548204422,-0.0025363753084093,-0.0013239668915048,0.4832942187786102,0.8754532933235168,0.033736646199767,0.0026644631925093,4.129683418963903e-06,0.000262226734776,-0.0052965600043535,0.2001966387033462,-0.0002028560265898,-0.0028786202892661,0.9988572001457214,0.047708410769701,-0.001403788595698,-0.0093847442920071,0.1949587048477079,-1.1228362321853638,0.041177213191986,0.1402463912963867,54,11,1151,1943
23.6,1788342914501,0.0,0.0,-0.0024852287024259,-0.0014535493683069,0.4863891899585724,0.8737374544143677,-0.0022368843457789,0.0012342606824603,-6.252685058685524e-09,-0.0026593573857098,-0.0015909799840301,0.0312114991247653,-2.7631409466266632e-05,-0.0027896938845515,0.9992303252220154,0.0391277968883514,0.0049636055335548,0.0008396418752118,0.1696654407912106,0.1207638382911682,0.1290642023086547,0.147592544555664,10,0,0,0
23.7,1788342914601,0.0,0.0,-0.0023980913683772,-0.0014513806672766,0.4891891777515411,0.8721731305122375,0.0016545921039381,0.0005789923458111,-1.1122218629792212e-08,0.0,4.285462207320734e-09,0.0,-2.7631409466266632e-05,-0.0027896938845515,0.9992303252220154,0.0391277968883514,0.0049636055335548,0.0008396418752118,0.1696654407912106,0.1207638382911682,0.1290642023086547,0.147592544555664,10,0,0,0
23.8,1788342914701,1.2394366264343262,-0.8450704216957092,-0.0022706547752022,-0.0017161397263407,0.4849954843521118,0.8745120167732239,0.0023858352339473,0.0009045945416707,-2.873078959889555e-07,-0.0042283097282052,-0.0104881078004837,-0.1935234069824218,-4.5307911932468414e-05,-0.002731597982347,0.9985551238059998,0.0536690577864646,0.0031320481830781,0.0296747828446673,-0.25266633653511,0.4135192632675171,-0.0973405241966247,1.2408990859985352,30,157,3569,-5555
23.9,1788342914801,0.8450704216957092,-0.8169013857841492,-0.0022436182480305,-0.001631362363696,0.4717386364936828,0.8817341327667236,-0.0009707264901706,-0.0003868679420933,-4.058319317560596e-08,0.0011430869344621,0.0075727761723101,-0.2582555413246155,0.0001734253019094,-0.0027458667755126,0.9980993270874025,0.0615651682019233,0.0003777075406425,0.0008651172339523,-0.2409838127546663,0.3581279516220093,-0.1486823558807373,0.1468038558959961,74,118,4170,-5461
24.0,1788342914901,0.8732394576072693,-0.7887324094772339,-0.0022894809953868,-0.0015419644769281,0.4669564366340637,0.8842759728431702,-0.000570871050855,0.0005971732504154,8.699129608265403e-08,-1.7667804058874026e-05,0.0055825468152761,-0.2621195018291473,3.437325358390808e-05,-0.0027624312788248,0.9977359771728516,0.0671963766217231,-0.0014776625692372,0.00809467757973,-0.2985018431063154,0.1215927600860595,-0.1429812312126159,0.1860313415527343,83,80,3707,-5331
24.1,1788342915001,0.9014084339141846,-0.7887324094772339,-0.0023558111861348,-0.0013389632804319,0.4495034515857696,0.8932745456695557,-0.007455569947303,0.0030599112307729,-6.391211421819526e-07,0.0035626809112727,-0.0024220813065767,-0.223112940788269,-0.0001581311225891,-0.0026733838021755,0.9961912631988524,0.0871544629335403,0.0019764514173646,0.0065189576425498,-0.2298009673701225,0.279131531715393,-0.0683057904243469,-0.0020666122436523,160,67,4120,-4841
24.2,1788342915101,0.6760563254356384,-0.7323943376541138,-0.0023590477649122,-0.0012802416458725,0.4444962739944458,0.8957766890525818,-0.0009082916960433,0.0018356605571296,-2.540615288920853e-08,0.0009113539126701,0.0027730809524655,-0.2247741669416427,-0.0002956138923764,-0.0025930795818567,0.9949535727500916,0.1003031358122825,0.0008780180237271,0.0078727340713415,-0.243884525047922,-0.2127325534820556,0.0450621247291564,0.0641975402832031,163,110,5440,-5198
24.3,1788342915201,1.8028168678283687,1.9154930114746092,-0.0023630065843462,-0.0010926651302725,0.4318552911281585,0.9019391536712646,-0.007405281456003,-0.0006511840703096,6.880469186828957e-07,-0.0001131761528085,0.0024641340132802,-0.0558621957898139,-0.0001657735556364,-0.0025843707844614,0.994655191898346,0.1032203882932663,0.0009991572685244,-0.001076376280514,0.0052157450410614,0.8467605710029602,0.0750138759613037,0.0207891464233398,163,110,5440,-5198
24.4,1788342915301,4.535211086273193,4.450704097747803,-0.0024352511391043,-0.001022542011924,0.4311601519584656,0.9022716283798218,0.0980648606627907,-0.0015414978503085,-4.587591180130942e-06,-0.0014214032562449,0.0039337840862572,-0.0314166769385337,-0.0002900725230574,-0.0029766904190182,0.9945491552352904,0.1042256206274032,-0.0070531738008345,-0.0113746298617165,0.0206573688699989,0.9646888971328736,-0.0920953750610351,-0.1521368026733398,168,245,13383,13715
24.5,1788342915401,5.239436626434326,6.11267614364624,-0.0027349893935024,-0.0011528796749189,0.4317042529582977,0.9020103216171264,0.167165711723213,6.08566742851287e-05,-1.6103590570241005e-08,-0.0071466160006821,-0.001025139237754,0.0338648296892643,-0.000534483231604,-0.0028770845383405,0.9948240518569946,0.1015705838799476,0.0019804962611332,0.0035756542215801,0.0705614557086893,-0.4623209238052368,-0.0739773511886596,0.3471946716308594,103,40,15107,12963
24.6,1788342915501,5.154929637908936,4.873239517211914,-0.0027406569570302,-0.0010418958263471,0.4332993626594543,0.9012452363967896,0.1678982000744267,5.876963819380818e-05,-1.7649002015627978e-08,0.0,5.626580978912443e-09,0.0,-0.0003211088478565,-0.0031484859064221,0.9947765469551086,0.1020271703600883,-0.0113724252389017,-0.0044790688357367,-0.0266310195642507,0.0472488403320312,0.1339424848556518,-0.1290702819824218,92,58,14788,15182
24.7,1788342915601,5.070422649383545,4.929577350616455,-0.0030220143962651,-0.0011576570104807,0.4328600466251373,0.9014553427696228,0.1705723959543629,0.0003048235168512,7.31454726376476e-09,0.0,-4.681310450393994e-09,0.0,-0.0004282761365175,-0.0034324247390031,0.994765043258667,0.1021308898925781,-0.0053426010043314,-0.0026663256714435,0.0053409809401449,0.0574001669883728,-0.1110158562660217,0.1358060836791992,140,49,14865,15029
24.8,1788342915701,5.014084339141846,4.788732528686523,-0.0029358374886214,-0.001475537661463,0.4334888458251953,0.9011529088020324,0.1839782034971897,-0.0005081972473913,2.4516533874876985e-05,-0.0024583081249147,-0.0133391944691538,0.0284963026642799,-0.0004341676831245,-0.0034479675814509,0.9946926236152648,0.102832905948162,-0.0110837384608739,0.0020369062591604,-0.0532768282639871,-0.084615409374237,0.043271780014038,0.260167121887207,118,160,14935,15768
24.9,1788342915801,4.8450703620910645,5.323943614959717,-0.0031249460298568,-0.0013445402728393,0.4324521124362945,0.9016505479812622,0.1742886301034993,-0.0006457227453911,-1.627495266977769e-05,-0.0045195175334811,0.0081011783331632,-0.0456845536828041,-0.0007720990106463,-0.003110334277153,0.994959831237793,0.1002230122685432,0.0022643459802046,0.0138579350969002,0.0483190473024937,-0.0334594249725341,-0.2678870558738708,-0.218785285949707,81,129,14506,17007
25.0,1788342915901,4.8450703620910645,5.323943614959717,-0.0030393749475479,-0.0010108314454555,0.4344727396965027,0.900679349899292,0.1656800529291822,-0.0017272926585195,1.3724082752626345e-08,0.0,7.459374451457279e-09,0.0,-0.0007317345589399,-0.0031277863308787,0.9949252009391784,0.10056634247303,-0.0005174976129352,-0.0016067597780107,-0.0135883506460566,0.0301644206047058,0.1580061316490173,-0.0589561462402343,81,129,14506,17007
25.1,1788342916001,5.014084339141846,5.126760482788086,-0.0031233532354235,-0.0012342020636424,0.4357233047485351,0.9000743627548218,0.1751207013716405,0.0019422998444044,7.684885447997283e-06,-0.0032183625735342,-0.0128667075186967,0.0673014298081398,-0.0005986308678984,-0.0031987642869353,0.9952350854873656,0.0974502936005592,0.0053812639665345,-0.0019079129965266,0.0537112815213502,0.0902257561683654,-0.267922580242157,0.1352119445800781,119,153,14400,13885
25.2,1788342916101,5.070422649383545,4.957746505737305,-0.0028551677241921,-0.0010959377977997,0.4377148151397705,0.8991086483001709,0.1749087439688031,0.0016126314937151,4.032069281597348e-05,0.0124710975214838,-0.0066070626489818,0.0531250536441803,-0.0004817005246877,-0.0028449306264519,0.99538654088974,0.0959028899669647,0.010059990405,-0.0018931023000749,0.0455928468899145,0.1676758527755737,-0.1369420289993286,0.1825160980224609,111,43,14048,15553
25.3,1788342916201,4.676056385040283,5.098591327667236,-0.0027259048074483,-0.0010086558759212,0.4387659430503845,0.8985966444015503,0.1721235404121417,0.000157003709862,4.692116667509864e-10,0.0,-4.619930216165358e-09,0.0,-0.0005767904222011,-0.0028006928041577,0.995429754257202,0.0954545140266418,0.0022374271505147,0.0062621242026496,0.0289255093615203,0.0228548049926757,0.1171357631683349,-0.1992368698120117,67,136,12604,17691
25.4,1788342916301,4.704225540161133,5.126760482788086,-0.0024546303320676,-0.0011566411703824,0.4407100975513458,0.8976453542709351,0.1762248088839757,-0.0018436472120734,2.182057682266537e-05,0.012053195387125,-0.0174682978540658,0.1463494747877121,-0.0001557227224111,-0.002670188434422,0.9958756566047668,0.0906893089413642,-0.0044553837805237,0.0006961415049067,0.0654184055135587,0.0525248646736145,0.0301864147186279,0.0537118911743164,139,144,14682,14546
25.5,1788342916401,4.704225540161133,5.126760482788086,-0.0020770363043993,-0.0013779238797724,0.4444087445735931,0.895820677280426,0.1737730657455092,-8.807585756130312e-05,5.278367601124031e-05,0.0053957509808242,-0.0063976678065955,0.0463388264179229,0.0002884529531002,-0.0026802802458405,0.9960400462150574,0.0888653099536895,-0.0092020408472872,-0.006842470441232,0.036392582849638,0.0154522657394409,-0.0216824412345886,-0.1458950042724609,118,130,14274,13353
25.6,1788342916501,4.704225540161133,5.126760482788086,-0.0019130405271425,-0.0018578108865767,0.4465037882328033,0.894777774810791,0.1738428333597479,0.0018599759579518,1.4899740007443814e-05,0.0074398377910256,-0.0089162895455956,0.0460147857666015,0.0005924804136157,-0.0026559699326753,0.9962631464004515,0.0863267630338668,0.0003250366197174,-0.0003356251083959,0.0560830271232826,0.1408706903457641,0.0745484828948974,-0.1974220275878906,104,70,14760,14027
25.7,1788342916601,4.788732528686523,4.788732528686523,-0.0016692874487489,-0.0024352208711206,0.4485604465007782,0.8937476873397827,0.1788081357055338,-0.0012832057318892,2.384813513303885e-05,0.0025274497456848,-0.0206652712076902,0.0609878078103065,0.0012652399018406,-0.0027130898088216,0.9964151382446288,0.0845460444688797,0.0018030416495655,-0.0259705102400801,0.0216257758196536,-0.2050220370292663,-0.1783243417739868,0.1675777435302734,112,147,14754,16427
25.8,1788342916701,4.901408672332764,5.154929637908936,-0.001670422963798,-0.0025692149065434,0.4493884146213531,0.8933311700820923,0.1707926419148843,0.0002357851048322,2.689730839939257e-10,-0.0023579611442983,-0.004796645604074,0.0365369394421577,0.0011860663071274,-0.0025315145030617,0.9966853260993958,0.0813062414526939,-0.002833746475136,0.025268609930581,0.0525820833482087,0.0163369178771972,-0.0839440822601318,-0.0131797790527343,76,76,14207,16234
25.9,1788342916801,5.098591327667236,4.760563373565674,-0.0015440883580595,-0.0022492150310426,0.4520923495292663,0.8919669985771179,0.1728875522892572,-0.0005474862546968,-3.509739183601214e-05,0.0007624516147188,0.0040392777882516,0.0198617074638605,0.0011577634140849,-0.0025541009381413,0.9967410564422609,0.0806194245815277,-0.0016470216963192,0.0017075628162795,0.0476125044781558,0.1101089119911193,-0.1065314412117004,-0.3723745346069336,76,76,14207,16234
26.0,1788342916901,5.211267471313477,4.450704097747803,-0.0017589437775313,-0.002273038495332,0.4509203135967254,0.8925595879554749,0.1731494493291035,-0.0027914961725247,-1.1378054739208746e-05,-0.0081894509494304,0.003170394571498,-0.0526698380708694,0.0007779169827699,-0.0026023099198937,0.996534526348114,0.0831365808844566,0.0024102693815833,0.0110082609639858,-0.0653924869063733,-0.0694808363914489,-0.1651493906974792,0.133641242980957,107,176,15668,15718
26.1,1788342917001,4.929577350616455,5.77464771270752,-0.0021049878560006,-0.0013428861275315,0.4507288336753845,0.8926573991775513,0.1787330928458539,0.003429171332895,1.3315979561265518e-08,0.0020566468592733,0.0304860901087522,0.030397817492485,-1.2332573533058168e-05,-0.0026607858017086,0.9967164993286132,0.0809272527694702,-0.0052936222467439,0.0154784211473732,0.0858374199752579,0.0107543468475341,0.037023901939392,0.0411148071289062,111,86,14607,16617
26.2,1788342917101,5.098591327667236,5.380281925201416,-0.0022857696749269,-0.0013908692635595,0.4525182843208313,0.8917511105537415,0.1765606240159588,-0.0006475082552212,-1.4580278077485046e-05,-0.006117473822087,0.0011284900829195,0.0672396570444107,-0.000523024238646,-0.002304496243596,0.9967753291130066,0.0802086070179939,0.0102796329421378,0.0037859871450567,-0.0008328556780163,-0.073552131652832,0.1611413955688476,-0.1991987228393554,119,147,15233,13700
26.3,1788342917201,4.816901206970215,5.154929637908936,-0.0023306088987737,-0.0007266389438882,0.4543274343013763,0.8908314108848572,0.1628521391111498,0.0023767730774518,-2.558496504811413e-05,0.008645074442029,0.0055525503121316,0.0744474753737449,-0.0005981596186757,-0.0023657120764255,0.9969332218170166,0.0782195478677749,0.0014169461982389,0.0061698585200268,0.0854756052226212,0.0873403549194336,-0.0579861998558044,0.1288270950317382,140,41,14634,15543
26.4,1788342917301,5.183098793029785,4.816901206970215,-0.0023220065049827,-0.0009944722987711,0.4564014971256256,0.8897704482078552,0.1489957721406847,-0.0010413120962936,7.943890339944332e-06,-0.0011875638738274,-0.0054132603108882,0.0529887750744819,3.855302929878235e-05,-0.0024802107363939,0.9970784783363342,0.0763442888855934,-0.0018932311691752,-0.0133150233505299,-0.0452499284093758,1.5013450384140017,-0.2547490000724792,-0.2077770233154297,197,244,16549,15069
26.5,1788342917401,5.183098793029785,5.352112770080566,-0.0020899234805256,-0.0011962259886786,0.4545752704143524,0.8907049894332886,0.1783973365658593,0.0006379986283336,3.0674297260827415e-05,0.0045675029978156,-0.01115348841995,-0.0816661939024925,-0.0003774408251047,-0.0024432716891169,0.996885359287262,0.0788264721632003,-0.0043092939685492,0.0206835496698797,-0.0534135742536843,-0.0033074617385864,-0.1968219876289367,0.1084060668945312,197,244,16549,15069
26.6,1788342917501,5.154929637908936,4.929577350616455,-0.0020899234805256,-0.0011962259886786,0.4545752704143524,0.8907049894332886,0.1783973365658593,0.0006379986283336,3.0674297260827415e-05,0.0045675029978156,-0.01115348841995,-0.0816661939024925,-0.0003977036103606,-0.0024495162069797,0.9966624975204468,0.0815944895148277,-0.0001484430298634,-0.0027889699327221,-0.0495736902591722,0.2359260320663452,0.0586971640586853,0.0307016372680664,115,162,15552,14155
26.7,1788342917601,5.154929637908936,4.929577350616455,-0.0020899234805256,-0.0011962259886786,0.4545752704143524,0.8907049894332886,0.1783973365658593,0.0006379986283336,3.0674297260827415e-05,0.0045675029978156,-0.01115348841995,-0.0816661939024925,-0.0003977036103606,-0.0024495162069797,0.9966624975204468,0.0815944895148277,-0.0001484430298634,-0.0027889699327221,-0.0495736902591722,0.2359260320663452,0.0586971640586853,0.0307016372680664,115,162,15552,14155
26.8,1788342917701,5.126760482788086,5.239436626434326,-0.0021699673961848,-0.0007516151526942,0.442644715309143,0.8966941237449646,0.1696152446705811,-0.0021885561866379,2.8275120031110644e-05,-0.0099549610167741,0.0030826714355498,-0.19131700694561,-0.0006519965827465,-0.0020173154771327,0.9956582188606262,0.093061089515686,0.0119067790796914,0.0133603908525672,-0.0271570295850928,-0.2626298069953918,-0.1905750632286071,-0.7073440551757812,97,68,15308,13018
26.9,1788342917801,4.2253522872924805,4.929577350616455,-0.0020492253825068,-0.0007035579765215,0.4410088360309601,0.8975001573562622,0.1754078759268067,-0.0013444049959436,-9.640968663148746e-06,0.0036610634997487,0.0017782998038455,-0.0160654075443744,-0.0007289368659257,-0.0019371379166841,0.9955509901046752,0.0942019522190094,0.008571257386975,0.0313178856789356,-0.0467011516886157,-0.0040190815925598,-0.2597264051437378,-0.8366031646728516,97,68,15308,13018
27.0,1788342917901,2.5915493965148926,4.2253522872924805,-0.0020497438963502,-0.000445396581199,0.4395720362663269,0.8982048630714417,0.1755197271139595,0.0035028881200769,-4.81774653628503e-05,0.0037143884692341,0.0076810382306575,-0.0522085651755332,-0.0005047218874096,-0.0020388700067996,0.9956963658332824,0.0926518589258194,-0.0018334858705247,0.006692387346606,0.1203788228501135,-1.3588324785232544,0.0283538103103637,0.2853555679321289,21,121,9165,11861
27.1,1788342918001,-0.3380281627178192,3.211267709732056,-0.0019660722464323,-0.0006676450138911,0.4415944516658783,0.8972123265266418,0.1239097695831114,0.0051203975748864,4.406495830440743e-06,-0.0009304684936068,-0.0094719436019659,0.088525965809822,-6.880145519971848e-05,-0.0019701058045029,0.9974257349967957,0.0716795921325683,0.0003999344982082,-0.0020180515989885,0.5928817040146264,-0.5235752463340759,-0.0782963633537292,-0.0714044570922851,75,113,-2324,12012
27.2,1788342918101,-3.1549296379089355,2.5352113246917725,-0.00181316700764,-0.0009046198101714,0.4765923023223877,0.8791221380233765,0.0437399404213482,0.0014131224927462,-7.660669065185492e-08,-0.0029092300683259,0.0064786709845066,0.6047167181968689,-0.0001721261069178,-0.0019035888835787,0.9995749592781068,0.0290892366319894,0.0040401960625861,0.0045213941069756,0.843478019866276,-0.6222959756851196,0.3208463788032532,-0.0286426544189453,161,132,-11370,10797
