time_s,timestamp_ms,wheel_vels__velocity_left,wheel_vels__velocity_right,odom__orient_x,odom__orient_y,odom__orient_z,odom__orient_w,odom__lin_x,odom__lin_y,odom__lin_z,odom__ang_x,odom__ang_y,odom__ang_z,imu__orient_x,imu__orient_y,imu__orient_z,imu__orient_w,imu__angvel_x,imu__angvel_y,imu__angvel_z,imu__acc_x,imu__acc_y,imu__acc_z,wheel_status__current_ma_left,wheel_status__current_ma_right,wheel_status__pwm_left,wheel_status__pwm_right
0.0,1788185727968,0.0,0.0,-0.0078158602118492,0.0019607967697083,0.4444479346275329,0.8957685232162476,0.0,0.0,0.0,0.0,0.0,0.0,-0.0043735345825552,0.0062747178599238,-0.221083402633667,0.9752249717712402,-2.5715337137486904e-05,9.096830575075571e-05,9.570916131894729e-07,-0.0171913504600524,-0.0017129182815551,-0.0010442733764648,0,0,0,0
0.1,1788185728068,0.0,0.0,-0.0078158602118492,0.0019607967697083,0.4444479346275329,0.8957685232162476,0.0,0.0,0.0,0.0,0.0,0.0,-0.0043735345825552,0.0062747178599238,-0.221083402633667,0.9752249717712402,-2.5715337137486904e-05,9.096830575075571e-05,9.570916131894729e-07,-0.0171913504600524,-0.0017129182815551,-0.0010442733764648,0,0,0,0
0.2,1788185728168,0.0,0.0,-0.0078158602118492,0.0019607967697083,0.4444479346275329,0.8957685232162476,0.0,0.0,0.0,0.0,0.0,0.0,-0.0043735522776842,0.0062763793393969,-0.221083402633667,0.9752249717712402,-2.4003928066915053e-05,0.0001009015213299,-3.881036448410753e-11,-0.0151666402816772,-0.0232394933700561,0.0060634613037109,0,0,0,0
0.3,1788185728268,0.0,0.0,-0.0078158602118492,0.0019607967697083,0.4444479346275329,0.8957685232162476,0.0,0.0,0.0,0.0,0.0,0.0,-0.0043721478432416,0.006286434829235,-0.2210833728313446,0.9752248525619508,1.5177582460805018e-05,0.0001894287640355,9.93258942002761e-07,-0.0180267691612243,0.0014808773994445,0.0138101577758789,0,0,0,0
0.4,1788185728368,0.0,0.0,-0.0078158602118492,0.0019607967697083,0.4444479346275329,0.8957685232162476,0.0,0.0,0.0,0.0,0.0,0.0,-0.004371072165668,0.0062894616276025,-0.2210833728313446,0.9752248525619508,2.53317582771972e-05,0.0002126307425171,9.934829010956656e-07,0.0074546933174133,0.0230218768119812,-0.003875732421875,0,0,0,0
0.5,1788185728468,0.0,0.0,-0.0078158602118492,0.0019607967697083,0.4444479346275329,0.8957685232162476,0.0,0.0,0.0,0.0,0.0,0.0,-0.004371072165668,0.0062894616276025,-0.2210833728313446,0.9752248525619508,2.53317582771972e-05,0.0002126307425171,9.934829010956656e-07,0.0074546933174133,0.0230218768119812,-0.003875732421875,0,0,0,0
0.6,1788185728568,0.0,0.0,-0.0078158602118492,0.0019607967697083,0.4444479346275329,0.8957685232162476,0.0,0.0,0.0,0.0,0.0,0.0,-0.004371072165668,0.0062894616276025,-0.2210833728313446,0.9752248525619508,2.53317582771972e-05,0.0002126307425171,9.934829010956656e-07,0.0074546933174133,0.0230218768119812,-0.003875732421875,0,0,0,0
0.7,1788185728668,0.0,0.0,-0.007528880611062,0.0020793168805539,0.4445630013942718,0.8957135081291199,0.0,0.0,0.0,0.0,0.0,0.0,-0.0043559111654758,0.006334020756185,-0.2210830748081207,0.9752247333526612,-5.663375396478326e-05,0.0002180854147271,1.3053013909890676e-06,0.0049431324005126,-0.0068947076797485,0.0033493041992187,0,0,0,0
0.8,1788185728768,0.0,0.0,-0.007528880611062,0.0020793168805539,0.4445630013942718,0.8957135081291199,0.0,0.0,0.0,0.0,0.0,0.0,-0.0043559111654758,0.006334020756185,-0.2210830748081207,0.9752247333526612,-5.663375396478326e-05,0.0002180854147271,1.3053013909890676e-06,0.0049431324005126,-0.0068947076797485,0.0033493041992187,0,0,0,0
0.9,1788185728868,0.0,0.0,-0.007528880611062,0.0020793168805539,0.4445630013942718,0.8957135081291199,0.0,0.0,0.0,0.0,0.0,0.0,-0.0043559111654758,0.006334020756185,-0.2210830748081207,0.9752247333526612,-5.663375396478326e-05,0.0002180854147271,1.3053013909890676e-06,0.0049431324005126,-0.0068947076797485,0.0033493041992187,0,0,0,0
1.0,1788185728968,0.0,0.0,-0.007528880611062,0.0020793168805539,0.4445630013942718,0.8957135081291199,0.0,0.0,0.0,0.0,0.0,0.0,-0.0043559111654758,0.006334020756185,-0.2210830748081207,0.9752247333526612,-5.663375396478326e-05,0.0002180854147271,1.3053013909890676e-06,0.0049431324005126,-0.0068947076797485,0.0033493041992187,0,0,0,0
1.1,1788185729068,0.0,0.0,-0.007528880611062,0.0020793168805539,0.4445630013942718,0.8957135081291199,0.0,0.0,0.0,0.0,0.0,0.0,-0.0043653985485434,0.0063575152307748,-0.2210830152034759,0.975224494934082,-6.901736919382381e-05,7.230073104114504e-05,-1.0005184094941534e-10,0.0130180716514587,0.0113995671272277,0.0016918182373046,0,0,0,0
1.2,1788185729168,0.0,0.0,-0.007528880611062,0.0020793168805539,0.4445630013942718,0.8957135081291199,0.0,0.0,0.0,0.0,0.0,0.0,-0.0043698009103536,0.0063608484342694,-0.2210830152034759,0.975224494934082,-0.0001191526228894,2.5507848299644425e-05,-4.575412331625369e-11,8.744001388549805e-05,0.0100797414779663,0.0045480728149414,0,0,0,0
1.3,1788185729268,0.0,0.0,-0.007528880611062,0.0020793168805539,0.4445630013942718,0.8957135081291199,0.0,0.0,0.0,0.0,0.0,0.0,-0.0043744333088397,0.0063620079308748,-0.2210830152034759,0.975224494934082,-9.982278932894711e-05,-5.267014772953439e-06,-9.714293772475683e-07,-0.019765019416809,0.008344829082489,-0.0087108612060546,0,0,0,0
1.4,1788185729368,0.0,0.0,-0.007528880611062,0.0020793168805539,0.4445630013942718,0.8957135081291199,0.0,0.0,0.0,0.0,0.0,0.0,-0.004377806559205,0.0063646091148257,-0.2210829854011535,0.9752243757247924,-3.3767285331050817e-05,4.051160206663551e-05,-1.5667115231415982e-11,0.0020339488983154,-0.0102093815803527,0.0211820602416992,0,0,0,0
1.5,1788185729468,0.0,0.0,-0.007528880611062,0.0020793168805539,0.4445630013942718,0.8957135081291199,0.0,0.0,0.0,0.0,0.0,0.0,-0.0043792854994535,0.0063675427809357,-0.2210829854011535,0.9752243757247924,-3.565658892812693e-05,5.082960549328732e-05,-2.7255290525742035e-11,0.0004776120185852,0.0096491575241088,-0.013747215270996,0,0,0,0
1.6,1788185729568,0.0,0.0,-0.007528880611062,0.0020793168805539,0.4445630013942718,0.8957135081291199,0.0,0.0,0.0,0.0,0.0,0.0,-0.0043790284544229,0.0063689900562167,-0.2210829854011535,0.9752243757247924,3.043104728156132e-06,4.503866812757104e-05,9.318618386874364e-07,0.009352684020996,0.0057178139686584,0.0078725814819335,0,0,0,0
1.7,1788185729668,0.0,0.0,-0.007528880611062,0.0020793168805539,0.4445630013942718,0.8957135081291199,0.0,0.0,0.0,0.0,0.0,0.0,-0.0043762326240539,0.0063661830499768,-0.2210829854011535,0.9752243757247924,8.117986671998298e-05,-9.618478866979664e-05,-1.1873709766517015e-10,-0.0061489343643188,-0.0146233439445495,-0.011610984802246,0,0,0,0
1.8,1788185729768,0.0,0.0,-0.007528880611062,0.0020793168805539,0.4445630013942718,0.8957135081291199,0.0,0.0,0.0,0.0,0.0,0.0,-0.0043693948537111,0.00635636318475,-0.2210830152034759,0.975224494934082,0.000179279938188,-0.0001392303972589,-3.737044984062917e-10,0.0042860507965087,-0.0190581083297729,-0.0195446014404296,0,0,0,0
1.9,1788185729868,0.0,0.0,-0.007528880611062,0.0020793168805539,0.4445630013942718,0.8957135081291199,0.0,0.0,0.0,0.0,0.0,0.0,-0.0043638655915856,0.0063485205173492,-0.2210830450057983,0.9752246141433716,0.0001703306775798,-0.0001710503478093,-3.8881893324752845e-10,0.0201444029808044,0.029458999633789,-0.020151138305664,0,0,0,0
2.0,1788185729968,0.0,0.0,-0.007528880611062,0.0020793168805539,0.4445630013942718,0.8957135081291199,0.0,0.0,0.0,0.0,0.0,0.0,-0.0043607167899608,0.0063425255939364,-0.2210830450057983,0.9752246141433716,0.0001405443477134,-0.0001754709448886,-3.7002383956333955e-10,-0.0072016716003417,0.014947235584259,0.0179252624511718,0,0,0,0
2.1,1788185730068,0.0,0.0,-0.007528880611062,0.0020793168805539,0.4445630013942718,0.8957135081291199,0.0,0.0,0.0,0.0,0.0,0.0,-0.0043556028977036,0.0063334181904792,-0.2210830748081207,0.9752247333526612,0.0001713223064061,-0.0001759133676395,-9.973254633151057e-07,-0.0127676129341125,-0.0159864425659179,0.0234708786010742,0,0,0,0
2.2,1788185730168,0.0,0.0,-0.007528880611062,0.0020793168805539,0.4445630013942718,0.8957135081291199,0.0,0.0,0.0,0.0,0.0,0.0,-0.0043504973873496,0.0063195656985044,-0.2210830897092819,0.9752247333526612,9.21647608288595e-05,-0.0001915746653445,-1.4841718502281609e-06,0.0048959255218505,-0.0064296126365661,0.0109128952026367,0,0,0,0
2.3,1788185730268,0.0,0.0,-0.007528880611062,0.0020793168805539,0.4445630013942718,0.8957135081291199,0.0,0.0,0.0,0.0,0.0,0.0,-0.0043501928448677,0.0063095865771174,-0.221083179116249,0.9752248525619508,4.0707652325891913e-05,-0.0001966501109211,-1.514420523611485e-06,0.0029901266098022,0.0011231303215026,0.004866600036621,0,0,0,0
2.4,1788185730368,0.0,0.0,-0.007528880611062,0.0020793168805539,0.4445630013942718,0.8957135081291199,0.0,0.0,0.0,0.0,0.0,0.0,-0.0043530268594622,0.006299608387053,-0.2210833430290222,0.9752248525619508,-4.970358912802412e-05,-0.0001947453300092,-3.998636990393204e-06,0.0081320405006408,0.0108566880226135,-0.0049018859863281,0,0,0,0
2.5,1788185730468,0.0,0.0,-0.007528880611062,0.0020793168805539,0.4445630013942718,0.8957135081291199,0.0,0.0,0.0,0.0,0.0,0.0,-0.0043578129261732,0.0062900260090827,-0.2210834771394729,0.9752248525619508,-4.662470786556987e-05,-0.000241008715759,-4.771905763914319e-06,-0.012318730354309,2.6702880859375e-05,-0.0050830841064453,0,0,0,0
2.6,1788185730568,0.0,0.0,-0.007528880611062,0.0020793168805539,0.4445630013942718,0.8957135081291199,0.0,0.0,0.0,0.0,0.0,0.0,-0.0043616527691483,0.0062803160399198,-0.2210835963487625,0.9752248525619508,-3.4057488806780814e-05,-0.0002524056995458,-3.916635426985668e-06,-0.0035432577133178,-0.0162309408187866,-0.001260757446289,0,0,0,0
2.7,1788185730668,0.0,0.0,-0.007528880611062,0.0020793168805539,0.4445630013942718,0.8957135081291199,0.0,0.0,0.0,0.0,0.0,0.0,-0.0043676989153027,0.006268722936511,-0.2210837602615356,0.9752248525619508,-7.852415655668786e-05,-0.0001667626639284,-3.932716306656104e-06,0.0218454003334045,0.0093904137611389,0.0114145278930664,0,0,0,0
2.8,1788185730768,0.0,0.0,-0.007528880611062,0.0020793168805539,0.4445630013942718,0.8957135081291199,0.0,0.0,0.0,0.0,0.0,0.0,-0.0043732812628149,0.0062621664255857,-0.2210839092731475,0.9752248525619508,-8.032518157864794e-05,-0.0001258592517242,-4.011799814859853e-06,0.0007073283195495,-0.0085213780403137,0.0110092163085937,0,0,0,0
2.9,1788185730868,0.0,0.0,-0.007528880611062,0.0020793168805539,0.4445630013942718,0.8957135081291199,0.0,0.0,0.0,0.0,0.0,0.0,-0.0043792389333248,0.0062598930671811,-0.2210839241743087,0.9752248525619508,-0.00010071153285,-2.0088159077905916e-05,-9.900675521059243e-07,-0.000308871269226,0.0007719993591308,-0.0016183853149414,0,0,0,0
3.0,1788185730968,0.0,0.0,-0.007528880611062,0.0020793168805539,0.4445630013942718,0.8957135081291199,0.0,0.0,0.0,0.0,0.0,0.0,-0.0043833442032337,0.0062619671225547,-0.2210839241743087,0.9752248525619508,-9.243129208318543e-05,4.331964671802882e-05,-6.00377561128896e-11,0.0163149237632751,0.0079254508018493,-0.0017004013061523,0,0,0,0
3.1,1788185731068,0.0,0.0,-0.007528880611062,0.0020793168805539,0.4445630013942718,0.8957135081291199,0.0,0.0,0.0,0.0,0.0,0.0,-0.0043857023119926,0.0062639536336064,-0.2210839241743087,0.9752248525619508,-9.486652355553474e-05,4.608499749778466e-05,-6.681569166337253e-11,-0.0070152878761291,-0.0062953233718872,0.0017061233520507,0,0,0,0
3.2,1788185731168,0.0,0.0,-0.0073578925803303,0.0020857297349721,0.4446263015270233,0.8956834673881531,0.0,0.0,0.0,0.0,0.0,0.0,-0.0043914057314395,0.006270395591855,-0.2210838943719864,0.9752247333526612,-0.0001026221199895,9.933499163292552e-05,-2.0488142883706327e-10,-0.0189775228500366,-0.0043224692344665,0.0052928924560546,0,0,0,0
3.3,1788185731268,0.0,0.0,-0.0073578925803303,0.0020857297349721,0.4446263015270233,0.8956834673881531,0.0,0.0,0.0,0.0,0.0,0.0,-0.0043914057314395,0.006270395591855,-0.2210838943719864,0.9752247333526612,-0.0001026221199895,9.933499163292552e-05,-2.0488142883706327e-10,-0.0189775228500366,-0.0043224692344665,0.0052928924560546,0,0,0,0
3.4,1788185731368,0.0,0.0,-0.0073578925803303,0.0020857297349721,0.4446263015270233,0.8956834673881531,0.0,0.0,0.0,0.0,0.0,0.0,-0.0043914057314395,0.006270395591855,-0.2210838943719864,0.9752247333526612,-0.0001026221199895,9.933499163292552e-05,-2.0488142883706327e-10,-0.0189775228500366,-0.0043224692344665,0.0052928924560546,0,0,0,0
3.5,1788185731468,0.0,0.0,-0.0073578925803303,0.0020857297349721,0.4446263015270233,0.8956834673881531,0.0,0.0,0.0,0.0,0.0,0.0,-0.0043914057314395,0.006270395591855,-0.2210838943719864,0.9752247333526612,-0.0001026221199895,9.933499163292552e-05,-2.0488142883706327e-10,-0.0189775228500366,-0.0043224692344665,0.0052928924560546,0,0,0,0
3.6,1788185731568,0.0,0.0,-0.0073578925803303,0.0020857297349721,0.4446263015270233,0.8956834673881531,0.0,0.0,0.0,0.0,0.0,0.0,-0.0043850550428032,0.006290441378951,-0.221083864569664,0.9752246141433716,0.0001745771995203,3.880914738189364e-05,1.1306747040441924e-06,0.0219473838806152,-0.0175618529319763,0.0056791305541992,0,0,0,0
3.7,1788185731668,0.0,0.0,-0.0073578925803303,0.0020857297349721,0.4446263015270233,0.8956834673881531,0.0,0.0,0.0,0.0,0.0,0.0,-0.0043788477778434,0.00628840085119,-0.221083864569664,0.9752246141433716,0.0002115899901916,-3.0619407477209295e-05,9.309533781715716e-07,-0.0125409364700317,0.0180216431617736,0.0003557205200195,0,0,0,0
3.8,1788185731768,0.0,0.0,-0.0073578925803303,0.0020857297349721,0.4446263015270233,0.8956834673881531,0.0,0.0,0.0,0.0,0.0,0.0,-0.0043615270406007,0.0062791761010885,-0.2210839241743087,0.9752248525619508,0.0002907968409747,-0.000106523784002,9.407663433381528e-07,-0.0006263852119445,0.0279207229614257,-0.0192890167236328,0,0,0,0
3.9,1788185731868,0.0,0.0,-0.0073578925803303,0.0020857297349721,0.4446263015270233,0.8956834673881531,0.0,0.0,0.0,0.0,0.0,0.0,-0.0043465802446007,0.0062660444527864,-0.2210839539766311,0.9752249717712402,0.0002830575539638,-0.0001896842311429,-8.670558297867887e-10,-0.0141754746437072,-0.0083298683166503,0.004281997680664,0,0,0,0
4.0,1788185731968,0.0,0.0,-0.0073578925803303,0.0020857297349721,0.4446263015270233,0.8956834673881531,0.0,0.0,0.0,0.0,0.0,0.0,-0.0043368740007281,0.0062546776607632,-0.2210839837789535,0.9752250909805298,0.0002097589567844,-0.000162989530851,-5.134493915043888e-10,0.0183061957359313,-0.0150731205940246,0.0046825408935546,0,0,0,0
4.1,1788185732068,0.0,0.0,-0.0073578925803303,0.0020857297349721,0.4446263015270233,0.8956834673881531,0.0,0.0,0.0,0.0,0.0,0.0,-0.0043325331062078,0.0062479376792907,-0.2210839837789535,0.9752250909805298,0.0001201150049061,-0.0001239526638624,-2.9763303313761656e-10,0.0043394565582275,-0.0106946229934692,-0.0203638076782226,0,0,0,0
4.2,1788185732168,0.0,0.0,-0.0073578925803303,0.0020857297349721,0.4446263015270233,0.8956834673881531,0.0,0.0,0.0,0.0,0.0,0.0,-0.0043319473043084,0.0062413373962044,-0.2210840135812759,0.9752252101898192,4.450469979794311e-06,-7.853239761977234e-05,-1.0011652428603766e-06,0.0044595003128051,-0.0135976076126098,-0.0022497177124023,0,0,0,0
4.3,1788185732268,0.0,0.0,-0.0073578925803303,0.0020857297349721,0.4446263015270233,0.8956834673881531,0.0,0.0,0.0,0.0,0.0,0.0,-0.004334857687354,0.0062386142089962,-0.2210840135812759,0.9752252101898192,-7.013140289594077e-05,-4.469014544234896e-05,-1.109302860918615e-06,0.0010965466499328,-0.0040424466133117,-0.0070123672485351,0,0,0,0
4.4,1788185732368,0.0,0.0,-0.0073578925803303,0.0020857297349721,0.4446263015270233,0.8956834673881531,0.0,0.0,0.0,0.0,0.0,0.0,-0.0043360190466046,0.0062385015189647,-0.2210840135812759,0.9752252101898192,-7.419500096829588e-05,-2.454970814069241e-05,2.7190640642592816e-11,0.0173848867416381,0.0050494670867919,-0.0157489776611328,0,0,0,0
4.5,1788185732468,0.0,0.0,-0.0073578925803303,0.0020857297349721,0.4446263015270233,0.8956834673881531,0.0,0.0,0.0,0.0,0.0,0.0,-0.0043360190466046,0.0062385015189647,-0.2210840135812759,0.9752252101898192,-7.419500096829588e-05,-2.454970814069241e-05,2.7190640642592816e-11,0.0173848867416381,0.0050494670867919,-0.0157489776611328,0,0,0,0
4.6,1788185732568,0.0,0.0,-0.0073578925803303,0.0020857297349721,0.4446263015270233,0.8956834673881531,0.0,0.0,0.0,0.0,0.0,0.0,-0.0043458612635731,0.0062436778098344,-0.2210839837789535,0.9752250909805298,-0.000163235941975,7.3962369906879e-05,-5.963593671739497e-07,0.021747887134552,0.0042935609817504,-0.0073451995849609,0,0,0,0
4.7,1788185732668,0.0,0.0,-0.0073578925803303,0.0020857297349721,0.4446263015270233,0.8956834673881531,0.0,0.0,0.0,0.0,0.0,0.0,-0.0043502710759639,0.0062638241797685,-0.2210723608732223,0.9752276539802552,-5.939218083441046e-05,0.0010475191242927,0.0007473818080108,0.050012469291687,-0.025987684726715,0.0354061126708984,55,11,4237,870
4.8,1788185732768,4.0,0.0,-0.0071806232444942,0.0021595549769699,0.4368998110294342,0.8994789719581604,0.0360203601289187,-0.0029682840830067,-2.2783291235304007e-06,0.0068618291988968,0.0058458102867007,-0.3131742179393768,-0.0042491797357797,0.005951577797532,-0.2372551262378692,0.9714198112487792,0.0036386025253106,-0.0144816829763996,-0.5038036187712023,0.6161244511604309,0.1146437525749206,-0.0729379653930664,183,50,15532,7096
4.9,1788185732868,6.2816901206970215,1.183098554611206,-0.0064604328945279,0.0017870224546641,0.4144211411476135,0.9100605249404908,0.1096326640047781,-0.0058656022864054,2.3554920028615448e-05,0.0221534334123134,-0.0192303992807865,-0.5193740725517273,-0.0034638596698641,0.0049030557274818,-0.2604256570339203,0.9654752016067504,0.0447144951091095,-0.0323063284648233,-0.5519720696185031,0.3737800717353821,-0.5403686165809631,-0.2188224792480468,202,5,22035,3554
5.0,1788185732968,8.845070838928223,1.7183098793029783,-0.0052297692745924,0.0013393844710662,0.3738350570201874,0.9274795055389404,0.1462154826966047,-0.0003775544802357,-5.642325923425791e-05,0.0059434021823108,-0.0089503461495041,-0.9399262070655824,-0.0032388400286436,0.0042247250676155,-0.297971248626709,0.9545600414276124,0.0029150237785011,-0.0451428637922485,-1.0064123165219214,0.2994561195373535,-0.4739043712615967,-0.2009725570678711,129,70,24886,6188
5.1,1788185733068,8.197182655334473,2.11267614364624,-0.0052574821747839,0.0008251131512224,0.3283859491348266,0.944528579711914,0.1829299785402103,-0.0126113055964932,8.995088256279112e-06,-0.0001951072918018,-0.0073838620446622,-1.0754610300064087,-0.0035862429067492,0.0039488850161433,-0.3440622091293335,0.9389317631721495,-0.0005411932368333,-0.0105096688289214,-1.0680367764501058,0.0880365371704101,-0.0394766330718994,-0.1048603057861328,49,62,22321,7497
5.2,1788185733168,8.0,1.97183096408844,-0.0054789981804788,0.000718604773283,0.3044018745422363,0.9525277018547058,0.1860021092317325,-0.0061487161589711,-1.154932716486256e-05,-0.0074622798711061,0.003749910974875,-1.0345261096954346,-0.0037193987518548,0.0040661599487066,-0.3726071715354919,0.9279728531837464,0.001788753082311,0.0039572709572941,-0.980342141816572,-0.373105525970459,-0.2408167123794555,0.6341028213500977,49,62,22321,7497
5.3,1788185733268,8.0,1.97183096408844,-0.0056082587689161,0.0012679971987381,0.2626357674598694,0.9648779630661012,0.1316169269335825,0.0005825047382853,-1.0324069929266794e-05,-0.0024550675880163,0.0050994968041777,-0.6768742203712463,-0.0034602219238877,0.0045109344646334,-0.3984687626361847,0.917164385318756,0.0035285465479474,0.0189697168645036,-0.8140520297457127,-0.6904667019844055,0.0792634487152099,-0.2909421920776367,49,62,22321,7497
5.4,1788185733368,8.0,1.97183096408844,-0.0056622801348567,0.001114057842642,0.2528057694435119,0.9674997925758362,0.0944027108728788,-0.0021982225733319,-3.948939932572388e-06,-0.0032282450702041,-0.0040752002969384,-0.502328097820282,-0.0039518103003501,0.004186519421637,-0.4282183349132538,0.9036570191383362,0.0009670507640755,-0.0011380018744043,-0.2811582223344704,-0.6490588188171387,0.2025685906410217,-0.0189886093139648,49,62,22321,7497
5.5,1788185733468,0.0,0.0,-0.0056752497330307,0.0007658979156985,0.2363558858633041,0.971649706363678,-0.0056957144206784,0.0021007750653562,1.0444684745506965e-07,-2.342437710467493e-08,0.0,0.0,-0.0039784917607903,0.0041147246956825,-0.4298944771289825,0.9028610587120056,0.0010065418310053,0.0021021716237835,0.0352253562252453,0.0515779256820678,0.0409124493598938,-0.0309686660766601,0,0,0,0
5.6,1788185733568,0.0,0.0,-0.0056752497330307,0.0007658979156985,0.2363558858633041,0.971649706363678,-0.0056957144206784,0.0021007750653562,1.0444684745506965e-07,-2.342437710467493e-08,0.0,0.0,-0.0039843069389462,0.0041012959554791,-0.4296966791152954,0.902955174446106,5.391725362643604e-06,-0.0010692836552066,0.0148197263236775,0.0727178454399108,-0.0059477686882019,0.0030536651611328,0,0,0,0
5.7,1788185733668,0.0,0.0,-0.0056776986457407,0.0006764241261407,0.2370184361934662,0.9714882969856262,0.0,0.0,0.0,0.0,0.0,0.0,-0.0040199272334575,0.0041541615501046,-0.4296378493309021,0.9029828310012816,-9.68557613521092e-05,-0.0007587940146003,-0.0008851043688514,0.0033528208732604,-0.0210004448890686,-0.0062875747680664,0,0,0,0
5.8,1788185733768,0.0,0.0,-0.0056776986457407,0.0006764241261407,0.2370184361934662,0.9714882969856262,0.0,0.0,0.0,0.0,0.0,0.0,-0.0039926683530211,0.0041919769719243,-0.4296033978462219,0.9029991626739502,0.000371782250709,0.0013675511023135,-0.0003425626890774,-0.0101286172866821,-0.0175886750221252,-0.0027418136596679,0,0,0,0
5.9,1788185733868,0.0,0.0,-0.0056776986457407,0.0006764241261407,0.2370184361934662,0.9714882969856262,0.0,0.0,0.0,0.0,0.0,0.0,-0.0040000425651669,0.0041822427883744,-0.4295612871646881,0.9030191898345948,-0.0012126951154753,0.0006005298396859,0.0003072361119072,-0.0104601979255676,0.007505178451538,0.0207118988037109,0,0,0,0
6.0,1788185733968,0.0,0.0,-0.0056776986457407,0.0006764241261407,0.2370184361934662,0.9714882969856262,0.0,0.0,0.0,0.0,0.0,0.0,-0.0040019331499934,0.0041897296905517,-0.4295293092727661,0.9030343890190125,-0.0002887635670466,-0.000107407371394,0.0003125304017183,0.0022562146186828,0.0166029334068298,0.0154180526733398,0,0,0,0
6.1,1788185734068,0.0,0.0,-0.0056776986457407,0.0006764241261407,0.2370184361934662,0.9714882969856262,0.0,0.0,0.0,0.0,0.0,0.0,-0.0040101259946823,0.0042308392003178,-0.4295340776443481,0.903031885623932,-0.0001066092590602,0.000240677696145,0.0004773222941875,-0.0131403803825378,-0.000760793685913,-0.0098638534545898,43,24,2388,1439
6.2,1788185734168,2.676056385040283,1.4929577112197876,-0.0057518179528415,0.0004829571116715,0.2358564585447311,0.971770703792572,0.007924738131811,7.430105149356761e-05,6.880058995332899e-08,-0.0033108626957982,-0.0047016302123665,-0.0343191549181938,-0.0040235128253698,0.0042149256914854,-0.4335062205791473,0.9011317491531372,0.0058028743711511,0.0207480523953989,-0.1027370968126603,0.5616734027862549,0.0632684826850891,-0.2208166122436523,187,246,12490,9306
6.3,1788185734268,4.535211086273193,2.985915422439575,-0.0058576152659952,0.0006644933018833,0.2288594245910644,0.97344172000885,0.1020180743187352,0.0007922686449674,6.997911326601669e-06,-0.0033313331659883,-1.3239283362054266e-05,-0.1998719871044159,-0.0041031930595636,0.0042861001566052,-0.4425175786018371,0.8967402577400208,0.0011891060688219,0.002114002615771,-0.2988831585467466,-0.0116108059883117,-0.2161949276924133,-0.6753082275390625,101,77,14719,8827
6.4,1788185734368,4.2816901206970215,2.422535181045532,-0.0058877002447843,0.0007517095655202,0.2226364910602569,0.9748833775520324,0.1349071692300661,-0.00191976224109,-1.350282057735924e-05,0.0001329506776528,0.0051999604329466,-0.2609449625015259,-0.0041707400232553,0.0042125796899199,-0.446730762720108,0.8946487903594971,-0.0012164290680542,-0.0046467491064401,-0.3138283852417123,-0.018308937549591,0.3173598051071167,-0.1001300811767578,17,30,11302,7232
6.5,1788185734468,3.94366192817688,2.05633807182312,-0.0060060760006308,0.0003534845309332,0.2072762548923492,0.9782640337944032,0.1180533802768966,1.4716420399556254e-05,-5.169131556935017e-06,-0.0018014175584539,0.0001829291286412,-0.2980003952980041,-0.0043095452710986,0.0041999816894531,-0.4654996395111084,0.8850276470184326,0.003669495484777,0.004151373274633,-0.2285331564814374,-0.1152783036231994,-0.007958710193634,0.2537393569946289,73,109,11608,8075
6.6,1788185734568,3.577464818954468,2.5352113246917725,-0.0058964700438082,0.0004819825990125,0.1901736259460449,0.9817326664924622,0.0989406145394317,-0.0018749187146461,1.4116563773745348e-05,0.0038489769212901,-0.0031649137381464,-0.2049687802791595,-0.0042616017162799,0.0041037555783987,-0.4725909233093261,0.8812621235847473,0.0035064566455766,0.0012816602162518,-0.2243797286435592,0.0432003736495971,0.021992027759552,0.9029483795166016,53,84,11234,9049
6.7,1788185734668,3.1549296379089355,2.11267614364624,-0.0059503735974431,0.0005437263753265,0.180720254778862,0.9835163950920104,0.1130627814739209,0.0022817909302625,-1.4519806910808097e-05,-0.0019091136055067,0.001902409014292,-0.1708922833204269,-0.0043343165889382,0.0041871927678585,-0.4819767773151397,0.8761632442474365,-0.0069071061651386,-0.0084875196749213,-0.1697903302373566,-0.4314824342727661,-0.2201184630393982,0.0952138900756836,41,52,9714,7388
6.8,1788185734768,2.985915422439575,2.197183132171631,-0.0060436846688389,0.0004639284452423,0.1761687844991684,0.9843413829803468,0.0889782135914135,-0.0059296648073307,3.67606681596592e-06,-0.0039531355723738,-0.0013996515190228,-0.1850764155387878,-0.0039908112958073,0.004463474266231,-0.488726258277893,0.8724166750907898,0.0104331970739669,0.0092510282199195,-0.0627177565766965,-0.1503239274024963,-0.1233521699905395,-0.1366758346557617,52,84,9620,6616
6.9,1788185734868,2.8450703620910645,1.154929518699646,-0.0057511227205395,0.00078843801748,0.1683607995510101,0.9857083559036256,0.0862759412128936,0.0003328654721306,8.695999502472755e-07,0.0007376642315648,-0.0050631100311875,-0.1199722215533256,-0.0039701331406831,0.0041990000754594,-0.4945957362651825,0.8691039681434631,0.0015312563879606,-0.000457879369339,-0.1701663006204139,-0.4744375944137573,-0.2851693034172058,0.1252431869506836,54,27,8715,2820
7.0,1788185734968,2.901408433914185,1.8591549396514893,-0.005621472839266,0.000681992212776,0.1562971770763397,0.9876938462257384,0.0614862033290863,-0.005297513859953,3.2289317176458417e-06,0.0022127144038677,-0.0009224638924933,-0.2531587481498718,-0.0039237774908542,0.004146384075284,-0.5042098164558411,0.8635623455047607,-0.0066735972677668,0.0093935534189797,-0.2456619742578573,0.1462198495864868,0.1314563751220703,0.3452358245849609,54,51,9280,6796
7.1,1788185735068,2.450704336166382,1.408450722694397,-0.0055870530195534,0.0011875687632709,0.1495143175125122,0.988743007183075,0.0763831477208417,-0.0074585184793504,-1.697450305271836e-05,0.0046143666841089,0.0145724304020404,-0.1321713477373123,-0.0035716919228434,0.0044876560568809,-0.5118999481201172,0.8590259552001953,0.0005375183500496,0.0074215658907313,-0.1961631612932521,-0.340309739112854,-0.1358250379562378,-0.2669200897216797,36,28,8036,5138
7.2,1788185735168,2.281690120697021,1.183098554611206,-0.0053825848735868,0.0012733545154333,0.1423735171556472,0.989797592163086,0.0552776718460723,-0.0029628160385313,4.380099585039584e-06,0.0086507936939597,-0.0001824638893594,-0.1185447126626968,-0.0034461421892046,0.0043443664908409,-0.5168003439903259,0.8560881018638611,-0.001411178043604,-0.0023243731858794,-0.1345712918867682,0.4827507734298706,0.0426865220069885,0.0571174621582031,66,70,9115,5927
7.3,1788185735268,2.3380281925201416,1.4647886753082275,-0.0054476354271173,0.0011861673556268,0.134732112288475,0.9908663034439088,0.0612360634377097,-0.0037411183699283,8.687025405961026e-06,0.0016265558078885,0.001411453471519,-0.1614333838224411,-0.0032995622605085,0.0044612176716327,-0.522925853729248,0.8523600697517395,0.0077926701490462,0.0180720537133869,-0.1374980294373095,-0.0443987250328063,0.0811983346939086,0.0621528625488281,94,43,9011,5244
7.4,1788185735368,2.422535181045532,1.380281686782837,-0.0054430128075182,0.0013104722602292,0.1260955482721328,0.9920023083686828,0.0623346489629384,-0.0021628181884898,7.115976961797238e-06,-0.0017132931388914,-0.0020747040398418,-0.1657374948263168,-0.0033478820696473,0.0044949566945433,-0.5298029780387878,0.8481022119522095,0.0030747440517287,0.0100207049322891,-0.1621491893921633,-0.0849532485008239,-0.0612783432006835,0.126047134399414,61,19,6926,3911
7.5,1788185735468,2.11267614364624,1.042253494262695,-0.0053203175775706,0.0010964208049699,0.1199657693505287,0.9927631616592408,0.0590463892444275,-0.0040718869889238,-2.2333717669215976e-06,-0.0016336516709998,-0.009762261994183,-0.1270409375429153,-0.0035340934991836,0.0043156696483492,-0.537044882774353,0.8435352444648743,-0.006783124246109,0.0016983524623718,-0.194416925512119,-0.1849882006645202,-0.2132905721664428,-0.0941429138183593,54,25,5760,4744
7.6,1788185735568,1.6619718074798584,1.211267590522766,-0.0054054791107773,0.0013421765761449,0.1132958903908729,0.9935457110404968,0.0379239009730159,-0.0025208684718551,-9.91224195491052e-06,0.004708269611001,0.0118972556665539,-0.1217111274600029,-0.0032276073470711,0.0045486129820346,-0.5402838587760925,0.8414644002914429,0.0023664853313798,0.0083775231782984,-0.0301308206476515,0.2794310450553894,0.1108729839324951,-0.029703140258789,60,107,6185,5673
7.7,1788185735668,1.7464789152145386,1.3521126508712769,-0.0053753997199237,0.0014874138869345,0.1126903668045997,0.9936145544052124,0.0362008619657118,-0.0008214111712327,-5.255290877965938e-06,0.0018994082929566,0.0057580531574785,-0.0243229158222675,-0.003203721717,0.0046680262312293,-0.5408147573471069,0.8411226868629456,-0.0041599048542929,0.0076824765873073,-0.0448911878057854,-0.0488413572311401,-0.2078791856765747,-0.0432472229003906,46,50,6240,5608
7.8,1788185735768,0.98591548204422,1.9154930114746092,-0.0053105587139725,0.0019794274121522,0.1097473204135894,0.9939433336257936,0.0481730305499965,-0.0030296778593778,-7.899387641068945e-06,0.0036434011999517,0.0073314276523888,-0.0289573743939399,-0.00285498611629,0.0048514027148485,-0.5427291393280029,0.839888870716095,0.002083075415258,-0.0017786370241038,0.0036433635500053,0.2834031581878662,0.3063240647315979,-0.190530776977539,8,112,4002,8174
7.9,1788185735868,0.0,1.154929518699646,-0.0052317837253212,0.0019023828208446,0.1155729219317436,0.9932833909988404,0.0570295103242902,0.0006586402172357,7.601595869382329e-06,-0.000542759837117,-0.0119198402389884,0.1630425155162811,-0.0027507115155458,0.0048842513933777,-0.5361019372940063,0.8441346883773804,0.0009699650792843,0.0030087784826147,0.1754989560391193,-0.7499546408653259,-0.0019442439079284,0.085637092590332,6,8,0,3247
8.0,1788185735968,0.0,1.0140844583511353,-0.0052267555147409,0.0018431802745908,0.1262342035770416,0.9919849634170532,0.0129856794277971,0.0002139120997455,9.698422188212182e-07,-0.0035910594742745,-0.0037065320648252,0.2215887904167175,-0.0028588958084583,0.0047908024862408,-0.5279597640037537,0.8492510318756104,-0.0029009445066098,0.0044049309948632,0.1506258861200895,0.0481328964233398,-0.5452818870544434,-0.0460596084594726,0,55,0,4439
8.1,1788185736068,0.0,0.7605633735656738,-0.0052613983862102,0.0018753529293462,0.1322498619556427,0.991200625896454,0.0183078519622368,0.0009847529717335,2.2373882667947012e-08,-0.0024873635265976,0.0007470518467016,0.1553495377302169,-0.0029233824461698,0.0048396922647953,-0.5208749175071716,0.8536142706871033,-0.0039543733397267,0.0012555622697331,0.1878539416886929,-0.0210340619087219,-0.4005203247070312,-0.0259914398193359,0,83,0,4493
8.2,1788185736168,0.0,0.9014084339141846,-0.0052913543768227,0.0019498013425618,0.140638381242752,0.9900450110435486,0.0161424386749078,-0.0018287140487951,-6.660708482260946e-07,0.0006644434761255,-3.2898024073801935e-05,0.1370799243450164,-0.0028773406520485,0.0048521235585212,-0.515747606754303,0.8567219972610474,-0.0016313470492872,-0.0010761929424003,0.1066536293098938,-0.0450184941291809,-0.2435190081596374,-0.0020933151245117,0,51,0,3515
8.3,1788185736268,0.0281690135598182,1.2957746982574463,-0.0052061672322452,0.0018573505803942,0.1452320516109466,0.9893822073936462,0.0135244618710834,-0.000450207991158,1.7033655013457306e-07,0.0012791072949767,-0.0023367465473711,0.1180273666977882,-0.0028913961723446,0.0047101499512791,-0.5115185976028442,0.8592544198036194,-0.0017090420994508,-0.0015113821587261,0.1353961124776063,0.0300971269607543,0.051325500011444,0.0138311386108398,171,67,8361,5970
8.4,1788185736368,1.0140844583511353,1.436619758605957,-0.0052672117017209,0.0015943201724439,0.151916965842247,0.9883779287338256,0.0386285951747882,0.0032688891327858,3.719555536342471e-06,-0.0046475785784423,-0.0026802290230989,0.1087512001395225,-0.0031382972374558,0.0043516969308257,-0.5051247477531433,0.8630297183990479,0.0046230159466428,-0.0125977364059867,0.0584149979970847,0.0297988653182983,0.0949835777282714,-0.057835578918457,58,51,4843,5080
8.5,1788185736468,0.0,1.042253494262695,-0.0050790989771485,0.0012537114089354,0.1552653163671493,0.9878590106964112,0.0401113062185927,0.0007880891070464,4.405515531515938e-06,0.0031485743820667,-0.0084603521972894,0.0644851177930831,-0.0031525343656539,0.004053103737533,-0.5014782547950745,0.865155041217804,0.0026864858299647,-0.0045123642496593,0.124324936265977,-0.4922912120819092,0.0148655176162719,-0.0550813674926757,0,46,0,2722
8.6,1788185736568,0.0,0.8732394576072693,-0.0049567217938601,0.0009941883618012,0.1620959043502807,0.9867620468139648,0.0148891220110818,-0.0010748272153203,1.3943069790368332e-06,0.0005129223573021,-0.0053058336488902,0.1339904218912124,-0.0032354965806007,0.0039019584655761,-0.4970682561397552,0.8676966428756714,-0.0021870974767825,-0.0013348779616942,0.0560236800757688,-0.0482878684997558,-0.2138001322746276,0.0177497863769531,0,74,0,3521
8.7,1788185736668,0.0,1.1267606019973757,-0.0049437610432505,0.0009004842140711,0.1646910458803177,0.9863324165344238,0.0137680624105682,-0.003866951452954,1.1473795650833327e-06,0.0001646845048526,-0.0048842900432646,0.1135109066963195,-0.0032754521816968,0.0038156285881996,-0.4951671957969665,0.868783175945282,-0.0010984343770443,-0.0024945706180074,0.1046982969685684,0.2788335680961609,0.2871548533439636,-0.0002727508544921,141,120,7355,5559
8.8,1788185736768,1.7183098793029783,-0.3380281627178192,-0.004916270263493,0.0006265473784878,0.1696053445339203,0.9854995608329772,0.0469074890013241,0.0019705960846451,8.568920795959717e-06,0.0002406727580819,-0.0063479179516434,0.0274659395217895,-0.0032757073640823,0.0034063309431076,-0.4905605912208557,0.8713943362236023,0.0128267575954258,-0.012852446564067,0.0186502966161259,-0.0964134335517883,-0.0569313168525695,0.1223583221435546,183,56,10265,-745
8.9,1788185736868,3.211267709732056,-0.8450704216957092,-0.0048120249994099,0.0003641538205556,0.1594771891832351,0.9871898293495178,0.0436584297608379,0.0005797005726226,1.8865253071119653e-05,-0.0041770855896174,-0.0090761566534638,-0.3691852688789367,-0.0034391991794109,0.0033465269953012,-0.5056702494621277,0.8627135753631592,0.0038340137869902,0.0075770296983877,-0.5261389095190517,-0.183237612247467,-0.1333563923835754,0.1270675659179687,59,113,9886,-5316
9.0,1788185736968,2.901408433914185,-0.8169013857841492,-0.0046569085679948,0.0011536511592566,0.128105416893959,0.9917489886283876,0.0309956198262234,-0.0005123582740241,-1.226361286788527e-05,0.0053419922478497,0.0164183713495731,-0.5836983919143677,-0.0027767531573772,0.0039154635742306,-0.5305807590484619,0.8476207852363586,0.0056913746388518,0.0171808761294453,-0.5804021748219322,-0.1390560865402221,-0.2043066024780273,0.1323118209838867,71,95,10029,-5463
9.1,1788185737068,2.8450703620910645,-0.8169013857841492,-0.0046279863454401,0.0016012475825846,0.1019850447773933,0.9947738647460938,0.0336725426972036,0.005025120931867,-7.663024707837584e-06,0.0016597242793068,0.0111938044428825,-0.5897786021232605,-0.0024768505245447,0.0041841370984911,-0.5599913001060486,0.828484296798706,0.0066290770037232,0.0148173181007809,-0.6518164210392178,-0.0010942816734313,-0.1848853230476379,-0.3842926025390625,56,52,9899,-4978
9.2,1788185737168,2.0,0.0,-0.0045593352988362,0.0020421002991497,0.0727127790451049,0.997340440750122,0.0307167196903591,0.0029072296522111,-5.648445708229397e-06,0.0016714285593479,0.0136909922584891,-0.5933912992477417,-0.0022489354014396,0.004494160413742,-0.5812367796897888,0.8137189745903015,-5.66957332778096e-05,0.0059056538931348,-0.6011218421123141,-0.1380931735038757,-0.2470631003379821,0.5290794372558594,0,63,3754,0
9.3,1788185737268,0.0,-0.0845070406794548,-0.0045028370805084,0.0021775937639176,0.0540394186973571,0.9985262155532836,0.0160269899764857,0.0035013116483193,1.186710138097066e-06,0.0025049245450645,-0.0003264295810367,-0.2335657477378845,-0.0021524336189031,0.0045275371521711,-0.5900924205780029,0.8073201775550842,-0.0019344883583675,0.0011586338204189,-0.136748283675823,-0.3081834316253662,-0.2120039463043213,0.1530895233154297,1,176,5074,-6711
9.4,1788185737368,0.0,-0.9295774698257446,-0.0044822031632065,0.0023352107964456,0.0466886386275291,0.9988967180252076,-0.0069782530725282,0.0011299661163144,-5.51208617009761e-08,0.0010490582790225,0.0035675961989909,-0.1481254547834396,-0.0020843325182795,0.0045934282243251,-0.5975030660629272,0.8018507361412048,-0.0020149466397027,-0.0063490085557754,-0.205789783769303,0.5006084442138672,-0.163927674293518,-0.1449165344238281,128,75,6900,-4669
9.5,1788185737468,0.9014084339141846,-0.8169013857841492,-0.0044950973242521,0.0024767485447227,0.0359497964382171,0.9993404150009156,0.0025843213768287,0.0003757932089248,5.199855627703391e-07,0.0024202337954193,0.0083270743489265,-0.2722021639347076,-0.0018548863008618,0.0047777174040675,-0.6071307063102722,0.7945854067802429,0.0030269885357913,0.0031905840855855,-0.2760540712419284,-0.1347197294235229,-0.0053350925445556,-0.0374679565429687,39,124,4195,-5247
9.6,1788185737568,1.4929577112197876,0.0,-0.0044242539443075,0.0027402765117585,0.0224132109433412,0.9997351765632628,-0.0021014851961463,0.0016457516626702,4.381985859271663e-08,0.002450211206451,0.0072359284386038,-0.2639972567558288,-0.00166348926723,0.0048965783789753,-0.6178537607192993,0.78627610206604,0.0035935490582658,0.0006211772503655,-0.2966522509005849,0.8472236394882202,-0.2772704362869262,-0.0576639175415039,112,0,7735,0
9.7,1788185737668,1.6338027715682983,0.0,-0.0042394842021167,0.0031461906619369,0.0075389817357063,0.9999576210975648,0.0257330062804305,-0.0006762321896425,-4.885836631241304e-06,0.0062560164369642,0.0115060536190867,-0.2934497892856598,-0.0012117829173803,0.005230120383203,-0.6281110644340515,0.7781051993370056,0.0006785547792263,0.016028931512886,-0.2349591228353659,-0.3106865286827087,-0.1769300103187561,-0.0640974044799804,58,0,6502,0
9.8,1788185737768,1.5211267471313477,0.0,-0.0040309214964509,0.0036114214453846,-0.0060728611424565,0.9999668598175048,0.0244264577435492,-0.0019654142741801,-6.573956618193251e-06,0.006314636208117,0.0108861671760678,-0.2473986744880676,-0.0008556433022022,0.0053522530943155,-0.6358082294464111,0.7718281149864197,0.0065121948096678,0.013106510301207,-0.234420631233128,-0.0522952079772949,0.2074905037879943,0.0104885101318359,52,0,6615,0
9.9,1788185737868,2.366197109222412,1.9154930114746092,-0.0039538023993372,0.0039012865163385,-0.0165994949638843,0.9998468160629272,0.0373728994222273,-0.0006007333015025,-1.4135169423328729e-06,0.0005687492084689,0.0029844047967344,-0.2222405672073364,-0.0006025210022926,0.0055299522355198,-0.6447497606277466,0.7643734812736511,-0.0013111983884004,0.0041310628221566,-0.2111257692421184,0.8629674315452576,0.2855039238929748,0.07769775390625,89,262,8798,12011
10.0,1788185737968,1.6619718074798584,2.309859037399292,-0.0038555625360459,0.0038004568777978,-0.0158699937164783,0.9998593926429749,0.0894590577902566,5.601783761393681e-05,1.2463212437771092e-05,0.0024378420785069,-0.0033489917404949,0.0666670948266983,-0.0005313148722052,0.0056428434327244,-0.6438416242599487,0.7651378512382507,-0.0063800970345932,0.0112863565672352,-0.004922798442403,-0.3013779520988464,-0.0855956077575683,-0.0241365432739257,52,40,6484,6765
10.1,1788185738068,1.6619718074798584,2.197183132171631,-0.0037621660158038,0.0038402606733143,-0.0151150980964303,0.9998713731765748,0.0601427029591011,-0.0016934248377929,2.1599634412637653e-08,0.003578650066629,0.0015250938013195,0.030064033344388,-0.0004542479291558,0.0052230264991521,-0.642050564289093,0.7666443586349487,0.0058852855925689,-0.0060924502389007,0.1010883211110511,-0.098351776599884,0.1357203722000122,0.0153589248657226,53,54,6312,6873
10.2,1788185738168,1.774647831916809,2.08450698852539,-0.0036313144955784,0.0035698416177183,-0.0098586603999137,0.9999383687973022,0.0623449024265029,-0.0005210602282193,1.180399298026276e-05,0.0001698432315606,-0.0052677663043141,0.1012815088033676,-0.0005793655291199,0.0050037624314427,-0.6384216547012329,0.7696704268455505,0.0017804134396601,-0.0047332728206198,0.0513377352040091,-0.0128750205039978,-0.1149405241012573,-0.0320358276367187,53,70,6548,7489
10.3,1788185738268,2.281690120697021,2.5352113246917725,-0.0036325536202639,0.0035837974864989,-0.0073368614539504,0.9999601244926452,0.0674902032691394,-0.0016609924783967,5.980721617131751e-06,-0.0011285152286291,0.0025635058991611,0.0493290126323699,-0.0006768843159079,0.0050667915493249,-0.6372446417808533,0.7706446051597595,-0.0061983277851083,-0.0056597729760029,0.0085176770912551,1.285862684249878,-0.0244052410125732,0.3081140518188476,218,166,11618,10357
10.4,1788185738368,3.7183098793029785,3.436619758605957,-0.0036569933872669,0.0036084607709199,-0.0076700947247445,0.9999573826789856,0.1385013684927581,0.0027671568672263,4.181757566981429e-06,0.0047872606664896,-0.0030637667514383,-0.0178740490227937,-0.0007036598399281,0.0048976158723235,-0.637933075428009,0.7700759172439575,0.00132503967228,-0.0152983549656595,-0.0155679385072233,-0.0452739596366882,0.0878435373306274,-0.7264308929443359,46,39,11624,10110
10.5,1788185738468,3.183098554611206,2.8450703620910645,-0.0036663331557065,0.0031355689279735,-0.0083599975332617,0.9999534487724304,0.1269972573323675,0.0013197650762433,3.231400169599461e-05,-0.0009696783381514,-0.008551818318665,-0.0102537041530013,-0.0010796869173645,0.0046578738838434,-0.6387071013450623,0.7694351077079773,-0.0067505254549058,0.002815209922885,-0.0331767788332482,-0.6144742965698242,0.0132461786270141,1.0112018585205078,77,39,12727,9098
10.6,1788185738568,3.7183098793029785,2.676056385040283,-0.0046001523733139,0.0036569873336702,-0.0162703022360801,0.9998503923416138,0.0966309175197079,-0.0031236604662665,-4.62727240814105e-05,-0.0234734155237674,0.0256571397185325,-0.2107887119054794,-0.0012384131550788,0.0068706348538398,-0.6475861072540283,0.7619602680206299,-0.0400856562494483,0.0440501182841516,-0.2503069531342795,-0.2217071652412414,0.2937349677085876,0.6497287750244141,39,99,11435,9355
10.7,1788185738668,2.873239517211914,2.816901445388794,-0.0048812702298164,0.0043790261261165,-0.0269587878137826,0.9996150135993958,0.1007496769240996,-0.0061130502742905,-2.541715650735256e-05,0.0239688102155923,-0.0150412395596504,-0.1421188563108444,-0.0010383175686001,0.0063263047486543,-0.6524656414985657,0.7577912211418152,0.0326694572751225,-0.0489292731211052,-0.1002915743436835,-0.1489800214767456,0.0633489489555358,0.6705513000488281,9,13,7754,6835
10.8,1788185738768,2.760563373565674,2.309859037399292,-0.003727322211489,0.0031647181604057,-0.0280069783329963,0.9995957612991332,0.0759976317017798,-0.0002857986201808,1.9250360994073505e-08,0.0057433019392192,-0.0137055860832333,-0.0394334346055984,-0.0009121615439653,0.0046946108341217,-0.6541295647621155,0.7563674449920654,0.0009296439459709,-0.0085029724496382,-0.079796050792665,0.1258189678192138,-0.0012723803520202,-0.0201873779296875,71,68,9903,8536
10.9,1788185738868,3.4647886753082275,2.197183132171631,-0.003446526825428,0.0031760246492922,-0.0324675701558589,0.9994617700576782,0.1040626089354033,0.0006463087365102,-5.996890091601715e-06,0.0064931125380098,0.0069568431936204,-0.1152713596820831,-0.0007797479629516,0.0046353535726666,-0.6586658358573914,0.7524209022521973,-0.0066111720780888,-0.0029195300866456,-0.2286633734832438,-0.2157194018363952,-0.257530927658081,0.1317033767700195,9,13,7890,5081
11.0,1788185738968,3.014084577560425,1.154929518699646,-0.0034826344344764,0.0030486036557704,-0.0372290760278701,0.9992961287498474,0.1185225586671399,0.0017037551746814,5.796283181929304e-06,-0.0008679958991706,-0.0055667874403297,-0.2377054691314697,-0.0009935908019542,0.0043498342856764,-0.6670809984207153,0.7449718117713928,-0.0114452966022719,-0.0252070043777607,-0.2960308859645841,-0.0934337973594665,-0.0610135197639465,-0.0357818603515625,62,76,10284,5131
11.1,1788185739068,4.619718074798584,2.309859037399292,-0.0036645408254116,0.0026393826119601,-0.0591983534395694,0.9982360005378724,0.0720330281756981,0.0034002161625296,-9.207674786851048e-06,-0.0043337089009583,0.0005382999079301,-0.285773366689682,-0.0013780985027551,0.0044296896085143,-0.6800897717475891,0.7331142425537109,-0.0107265784367528,-0.0032139928730207,-0.2918401687209052,0.9238672852516174,-0.1157981753349304,0.246861457824707,154,148,15347,8797
11.2,1788185739168,3.492957830429077,1.408450722694397,-0.003710389137268,0.0026507184375077,-0.0743840411305427,0.9972192645072936,0.1213148655871532,-0.0078729469939311,-1.198289780492286e-05,0.0050438810139894,-0.0018356441287323,-0.3521564602851867,-0.0011387486010789,0.004399943165481,-0.6929901838302612,0.72093266248703,0.0035298780127987,0.00752723040535,-0.4108437616982256,-0.6012640595436096,0.0051897764205932,-0.1939764022827148,10,35,6317,5854
11.3,1788185739268,0.8450704216957092,2.05633807182312,-0.003795160446316,0.0025327920448035,-0.0891341269016265,0.9960091710090636,0.0739719294755905,0.0026479794456289,-9.513706521369113e-06,-0.0014410986332222,-0.0007667302852496,-0.2196411937475204,-0.0012382576242089,0.0043908031657338,-0.6985737681388855,0.7155235409736633,0.003785157882681,0.002555734286739,-0.0076191352064292,-0.5497151017189026,0.3622016906738281,-0.1347732543945312,15,126,4172,9560
11.4,1788185739368,0.6760563254356384,2.11267614364624,-0.0038378245662897,0.0023253737017512,-0.0790433213114738,0.9968611001968384,0.0562124027331847,-0.002685554407402,-4.217258836212528e-07,-0.0018424284644424,0.0005631826352328,0.3105710446834564,-0.0016451673582196,0.0041646417230367,-0.6868165731430054,0.7268170118331909,-0.0004565036159081,-0.0119847906146732,0.1972728376808974,-0.0408865213394165,-0.1055248379707336,0.0936088562011718,56,47,4945,7015
11.5,1788185739468,0.98591548204422,2.0,-0.0038489438593387,0.0019409764790907,-0.0698910877108573,0.9975453019142152,0.051325522547002,-0.002760588048481,5.478175004694323e-06,0.0022617049980908,-0.0110653610900044,0.1416121274232864,-0.0018538078293204,0.0038632061332464,-0.6825314164161682,0.730843722820282,-0.001843442474603,-0.0054872461759139,0.1281885052986351,0.0910046100616455,-0.0670515894889831,0.0404644012451171,71,80,4888,6381
11.6,1788185739568,1.3521126508712769,0.8450704216957092,-0.0039221178740262,0.0018893801607191,-0.0663123801350593,0.9977893829345704,0.05342011977535,0.001959089859961,-3.172790246679176e-06,-0.0023683668114244,0.0070919310674071,0.035645455121994,-0.001838612370193,0.0039369547739624,-0.681923508644104,0.731410562992096,0.0009682499854665,0.0019452485275677,-0.0244704618435658,-0.4779723882675171,0.0512592196464538,-0.1555080413818359,45,33,5261,2963
11.7,1788185739668,0.0,0.6197183132171631,-0.0038525338750332,0.0018286986742168,-0.0692947059869766,0.9975871443748474,0.0220153591016729,0.0007042443793108,-8.213652452606436e-07,0.0014644818147644,0.0001756997808115,-0.0932292565703392,-0.0017371028661727,0.0038988515734672,-0.684963047504425,0.7285652756690979,0.0024933461042781,0.0063773306714133,-0.1299014478994953,-0.3421207070350647,0.016006588935852,0.1053686141967773,12,103,1874,4591
11.8,1788185739768,1.1267606019973757,0.7887324094772339,-0.0037869838997721,0.0020184132736176,-0.0693532675504684,0.9975828528404236,0.02106772362838,0.0025141924844938,-2.8668201397828225e-06,7.849001121940091e-05,0.0022449581883847,0.0472865030169487,-0.0016082841902971,0.0040123173967003,-0.6834257245063782,0.7300072908401489,0.0004994355675416,0.0076966480715231,0.040064377870465,0.1427461504936218,-0.1891387701034546,0.104827880859375,63,73,3178,4382
11.9,1788185739868,0.7887324094772339,0.0,-0.0037814897950738,0.0021756857167929,-0.0690672174096107,0.9976024627685548,0.0303577113093228,0.0019389270386049,-2.3918199479962867e-06,-0.0004369509988464,0.0025631238240748,-0.0130822956562042,-0.0013482412323355,0.0042223967611789,-0.6839906573295593,0.7294772863388062,0.0017429350633024,0.0010346287415219,-0.0182335323295074,-0.1058893799781799,-0.0661014914512634,0.1096401214599609,109,16,4411,0
12.0,1788185739968,0.8450704216957092,0.0,-0.0036459043622016,0.0025381648447364,-0.0724077746272087,0.9973652362823486,0.0145031464777712,-0.0014421581696001,-4.574729379985874e-07,0.0023693097755312,0.0018471824005246,-0.1027229726314544,-0.0011843331158161,0.0042655570432543,-0.6877449154853821,0.7259389758110046,0.0026264202189734,0.0016924824475102,-0.1415780050561733,0.0332872867584228,0.0780782103538513,0.0551671981811523,70,0,4898,0
12.1,1788185740068,0.8169013857841492,0.0,-0.0035582426935434,0.0025990051217377,-0.0789501518011093,0.9968688488006592,0.0141388958229863,-6.960508365005483e-05,2.3836621156917975e-07,0.0015640013152733,0.0003885388432536,-0.1338722258806228,-0.0011201202869415,0.0042490335181355,-0.6920375823974609,0.7218481302261353,0.0008270102281691,-0.0010886506383956,-0.1334356248261209,0.0050285458564758,0.0738888978958129,-0.0096368789672851,74,0,4838,0
12.2,1788185740168,0.8450704216957092,0.0,-0.0035511730238795,0.0026756080333143,-0.0857107490301132,0.9963101744651794,0.014839557754298,0.0015878528024095,-7.626713928783336e-07,-0.0002482512500137,0.0014652941608801,-0.1306846439838409,-0.0010648136958479,0.0042626624926924,-0.6981610059738159,0.7159273624420166,0.0017092358726558,-0.0025537837651292,-0.1318246700400761,-0.0128002762794494,0.0824792981147766,0.0334272384643554,53,0,4512,0
12.3,1788185740268,0.8450704216957092,0.0,-0.0035442251246422,0.002525326795876,-0.0922067537903785,0.9957304000854492,0.0137927866223392,0.0016431108946504,4.249433253445975e-07,-2.7294709070702083e-06,-0.0038815124426037,-0.1287270188331604,-0.0011519845575094,0.0041970172896981,-0.700910210609436,0.7132363319396973,0.0007541725627027,-0.0042290302218167,-0.1171865881511325,0.0263162851333618,-0.1126074194908142,-0.0139179229736328,52,0,4544,0
12.4,1788185740368,0.8450704216957092,0.0,-0.0035321631003171,0.0025873505510389,-0.0978787392377853,0.9951887130737304,0.0148162914874978,0.0002915528331389,-8.544590664007e-07,0.000457847258076,0.0019909818656742,-0.124642290174961,-0.0010984381660819,0.0042332522571086,-0.706344485282898,0.7078548073768616,0.0011617240173105,0.0007908957680159,-0.12896631400317,0.0195592045783996,-0.0463092327117919,0.043807029724121,91,0,4502,0
12.5,1788185740468,0.8450704216957092,0.0,-0.0034929269459098,0.0026127260643988,-0.1045984029769897,0.994504988193512,0.0155805047355872,-0.0013405005240416,-9.015882047338318e-07,0.0011233644327148,0.0017559338593855,-0.1272359639406204,-0.0010210024192929,0.0042655393481254,-0.7104669809341431,0.7037168741226196,0.0006375794097336,0.0042256282534406,-0.1320001181211779,0.0528071522712707,-0.0037351846694946,0.0836458206176757,112,0,4538,0
12.6,1788185740568,0.7887324094772339,0.0,-0.0034877764992415,0.0027317013591527,-0.1119959205389022,0.99369877576828,0.0154616476000705,0.0017158520949357,-6.430177754522981e-07,0.0003548347740434,0.0020709934178739,-0.1325517445802688,-0.0009665386751294,0.0043388102203607,-0.7160210013389587,0.6980646252632141,9.087184699622864e-05,0.0018358397437735,-0.1261884535521613,0.0883671641349792,-0.0621309280395507,0.0260820388793945,35,0,4472,0
12.7,1788185740668,0.8169013857841492,0.0,-0.0034747910685837,0.002873484743759,-0.1180100515484809,0.99300217628479,0.015570785428974,0.0001585318387561,-4.770735490583079e-07,0.0001524531689938,0.00456925900653,-0.1389667391777038,-0.0008743330836296,0.004425074905157,-0.7189320921897888,0.6950657367706299,0.0003038797398141,0.0036414217587183,-0.1361622069714266,-0.0620427131652832,0.050591766834259,0.0336370468139648,68,0,4348,0
12.8,1788185740768,0.8169013857841492,0.0,-0.0034507999662309,0.0028484184294939,-0.1241286024451255,0.9922560453414916,0.0136532016573683,-0.0005714241421044,6.959746830247689e-07,0.0012009890051558,-0.0001001546479528,-0.1257753223180771,-0.0008749598637223,0.0043949941173195,-0.7245030999183655,0.689257025718689,4.376745781358963e-06,0.0010965324295931,-0.1390268876663158,-0.0358272194862365,0.1344271302223205,-0.0384502410888671,45,0,4555,0
12.9,1788185740868,1.9154930114746092,0.0,-0.0034296659287065,0.0028834359254688,-0.1303205788135528,0.9914617538452148,0.0131797161394103,-0.0001948264708406,-6.72804619410262e-07,0.0015588513342663,0.0017977834213525,-0.1279049962759018,-0.0008433256298303,0.0043347850441932,-0.7286537885665894,0.6848680377006531,0.0038193431135689,-0.0032243163325024,-0.1516603941659531,0.6257211565971375,-0.1169251799583435,0.0317926406860351,169,131,10087,7489
13.0,1788185740968,2.253521203994751,1.2957746982574463,-0.0031454442068934,0.0029582080896943,-0.144591748714447,0.9894819855690002,0.0517502888171705,-0.003970454787903,-8.949605803455045e-06,0.0091342609375715,0.0075821196660399,-0.2796791493892669,-0.000631621107459,0.0041778944432735,-0.7390515208244324,0.6736357808113098,0.0018070739790785,-0.0093634547915036,-0.2014978873183175,0.2066573500633239,0.3237095475196838,0.1341705322265625,34,41,7732,2928
13.1,1788185741068,2.281690120697021,0.9577465057373048,-0.0031118562910705,0.0028553325682878,-0.1541615426540374,0.988036572933197,0.0554428191250151,0.0031876013860871,4.141435129230019e-06,0.0003143306239508,-0.0012594221625477,-0.2038188874721527,-0.0006087329238653,0.0041792364791035,-0.7436357140541077,0.6685717701911926,0.0004636199979565,0.0023898158442234,-0.212166058373468,0.4744505286216736,-0.1231992840766906,0.0652170181274414,98,146,10590,8264
13.2,1788185741168,5.014084339141846,4.732394218444824,-0.0029112936463207,0.0030076915863901,-0.160947173833847,0.986954152584076,0.1295194136417538,0.0018714572992564,-3.44726785547866e-05,0.0012889873469248,0.0117513434961438,-0.1201294735074043,-0.0003984374925494,0.0041046245023608,-0.7492485642433167,0.6622760891914368,0.0022399884922329,-0.0054386337216993,-0.0881863775754208,0.7114888429641724,-0.2863636016845703,-0.3942451477050781,161,191,17850,17378
13.3,1788185741268,5.633802890777588,4.788732528686523,-0.0028979503549635,0.0027523795142769,-0.1634089648723602,0.9865503311157228,0.1863371359639093,-0.0012432907204359,1.2000754536331463e-05,0.0015864764573052,-0.0031948569230735,-0.0251021720468997,-0.0004294728860259,0.0039259726181626,-0.7504771947860718,0.6608844995498657,0.0031268074888941,-0.0087197117317168,-0.0423289780720137,-0.0800556540489196,0.1083515882492065,0.0547685623168945,70,57,16919,13591
13.4,1788185741368,5.295774459838867,4.816901206970215,-0.00254209456034,0.0035006504040211,-0.1701085269451141,0.985415816307068,0.1767866706593051,-2.264076367371077e-05,-4.403766353748854e-05,0.0023369153495877,0.0191360563039779,-0.1462055295705795,0.0003280295059084,0.0044031953439116,-0.7551707029342651,0.6555132865905762,0.0018346890503196,0.0285379200666137,-0.1823034441540531,0.046514093875885,-0.2026638388633728,0.8479166030883789,69,56,16361,13547
13.5,1788185741468,4.619718074798584,5.690140724182129,-0.0023978606332093,0.0033739905338734,-0.1754857003688812,0.9844732284545898,0.1850042773066666,0.0005212148004594,1.0861484128661171e-05,0.0073332614265382,-0.0056203412823379,-0.0513225421309471,0.0005808304995298,0.0044672032818198,-0.7571864724159241,0.6531832814216614,-0.0172416103027168,-0.0255276968439988,0.0681651795913882,0.0034719705581665,0.148293912410736,0.6049318313598633,29,111,12969,16786
13.6,1788185741568,4.535211086273193,5.464788913726807,-0.0023129663895815,0.0036373063921928,-0.1707897782325744,0.9852980375289916,0.175991188658493,-0.0004975044497223,4.022563798175516e-05,0.0022650994360446,-0.0092976158484816,0.1495286971330642,0.0003700656816363,0.0043280255049467,-0.7527428865432739,0.6583002805709839,-0.007205092128314,-0.008700732519346,0.2030062564446431,-0.1905472874641418,0.2858534455299377,0.4052810668945312,75,79,13465,17218
13.7,1788185741668,4.647887229919434,5.267605781555176,-0.0023046256974339,0.0032011631410568,-0.1609011888504028,0.9869626760482788,0.1690727941950585,-0.0007216429338123,0.0001028761312845,0.0069582099094986,-0.0276718027889728,0.2085520923137664,0.0003461809828877,0.0037675946950912,-0.7469146251678467,0.6649092435836792,0.0098348324178749,0.0025054510349273,0.168976522948448,0.338491141796112,-0.4435587525367737,1.009807586669922,77,117,13973,17282
13.8,1788185741768,4.619718074798584,5.605633735656738,-0.0023524248972535,0.0034674704074859,-0.1551328301429748,0.9878847002983092,0.1823165661669078,-0.0002555839273411,-3.29586717406962e-05,-0.0070628128014504,0.0075937639921903,0.107109323143959,0.0003975806757807,0.0042208507657051,-0.7440658211708069,0.6680929660797119,-0.0052241724619815,0.0232632047165069,0.1681378790686828,-0.1338589787483215,0.3379706144332886,-1.1101865768432615,45,75,13651,16667
13.9,1788185741868,3.6056337356567374,4.901408672332764,-0.0030936673283576,0.0038713577669113,-0.1496147066354751,0.9887319803237916,0.1680434463059733,-0.0018963583464821,-6.16793349834973e-05,-0.0312920063734054,0.0122004244476556,0.0783004090189933,0.0001092832535505,0.0072687519714236,-0.7402791380882263,0.6722604036331177,-0.0768601176979933,0.0969708233581097,0.0114791187635431,-0.1013852357864379,-0.1908082962036132,0.5818071365356445,39,207,11514,19734
14.0,1788185741968,3.7183098793029785,6.422535419464111,-0.0029578004032373,0.003138952422887,-0.1392320543527603,0.9902504086494446,0.1653977953380563,0.0052949496636408,0.0001999316937925,0.0812140777707099,-0.0924786627292633,0.4031713008880615,-0.0003420924767851,0.0041004726663231,-0.7336978912353516,0.6794634461402893,0.0899718456049225,-0.1020775019542952,0.3929864877251028,0.3353161215782165,0.6661743521690369,0.7163066864013672,73,90,12527,18639
14.1,1788185742068,3.8309860229492183,6.197183132171631,-0.0030086503829807,0.0024213294964283,-0.1189071014523506,0.9928978681564332,0.1750773018502012,0.0013963187197742,4.811465227646152e-05,-0.0076211066916584,-0.0074850562959909,0.3757426142692566,-0.0009268373250961,0.0036659631878137,-0.7157298922538757,0.6983669996261597,0.0009920381362645,-0.0179038625725967,0.366440614651412,-0.1299970746040344,-0.0876859426498413,1.1655302047729492,55,82,12261,18672
14.2,1788185742168,3.802816867828369,6.14084529876709,-0.0031996008474379,0.0014319936744868,-0.0988940522074699,0.9950917959213256,0.1708662547087338,0.0070634540269411,0.0001187982459274,0.0004599444800987,-0.0193921811878681,0.3684815168380737,-0.0017710272222757,0.0026952624320983,-0.702668309211731,0.7115103006362915,0.0156734942305604,-0.0332631340998062,0.3774239023668945,-0.0472848415374755,0.1170342564582824,-0.230595588684082,73,83,12016,17832
14.3,1788185742268,4.11267614364624,5.97183084487915,-0.003096556989476,0.0007666795281693,-0.0804120972752571,0.9967566132545472,0.1709311971291146,0.0034193474819134,1.592090139230269e-05,-0.0013299335259944,-0.001028734492138,0.3703215718269348,-0.0019485475495457,0.002501861192286,-0.690670371055603,0.723162829875946,-0.0012679393534726,-0.0003631052610946,0.3463766149667008,0.1462851762771606,0.08455491065979,0.1544990539550781,81,83,13768,17130
14.4,1788185742368,4.2253522872924805,5.830986022949219,-0.0032620299607515,0.0005795558681711,-0.0674840658903122,0.9977148175239564,0.1803459036897765,-0.0028533002071636,4.724799464894028e-05,-0.0057358965277671,-0.0098795490339398,0.2470635026693344,-0.0024453233927488,0.0024627083912491,-0.6791172623634338,0.7340215444564819,-0.0101822016069159,-0.0109938017743511,0.2616390245306317,-0.0253205299377441,-0.2234390377998352,0.1902151107788086,56,66,13393,17596
14.5,1788185742468,4.253520965576172,6.0,-0.0033706575632095,0.0001212519127875,-0.0538962520658969,0.9985408782958984,0.1729360095943074,0.0025461025005834,5.230246499412145e-05,0.0035286038182675,-0.0067730960436165,0.2741719782352447,-0.0025074109435081,0.0022372119128704,-0.6699893474578857,0.7423632144927979,0.0016138434047435,0.0056636713685411,0.2724257610985691,0.0806413888931274,0.0596329569816589,-0.140411376953125,74,61,13045,17179
14.6,1788185742568,4.2816901206970215,5.88732385635376,-0.0030407605227082,-0.000165083707543,-0.0386852994561195,0.9992467761039734,0.1722838768086693,0.0030694983183622,5.557817628144633e-05,0.0063134487718343,-0.0095022991299629,0.2695465683937073,-0.0024716220796108,0.0018086675554513,-0.6608185768127441,0.7505394816398621,-0.0067314785529517,0.0011441745860319,0.2543528949119518,0.072252869606018,0.3158570528030395,-1.0140743255615234,49,95,12880,17433
14.7,1788185742668,4.253520965576172,5.85915470123291,-0.0030551084782928,-0.0007643896387889,-0.027521276846528,0.999616265296936,0.1783877028900964,0.0004823795478563,9.861567463059206e-06,0.0030495466198772,-0.0188434906303882,0.2547554671764374,-0.0028889067471027,0.0012883283197879,-0.6523635983467102,0.7578995823860168,0.0043049325467343,-0.0341534430811759,0.2627747406691957,-0.235540509223938,0.0240696668624877,1.2285776138305664,77,67,12890,17651
14.8,1788185742768,4.704225540161133,5.126760482788086,-0.0026613564696162,-0.0003811688220594,-0.0145001802593469,0.9998912811279296,0.1677629968134799,0.0079973596451519,-7.77788888621677e-05,0.0052945325151085,0.0098967524245381,0.2529001533985138,-0.0022527193650603,0.0017468249425292,-0.6406944394111633,0.767790675163269,-0.0130513394361258,0.0229246695273451,0.1562084881679174,0.416641354560852,0.0999327898025512,0.2797136306762695,115,46,16183,15129
14.9,1788185742868,5.267605781555176,5.042253494262695,-0.0027230137493461,-0.0001688085903879,-0.0103716636076569,0.9999425411224364,0.1738959970669105,-0.0025565362333812,-2.950005699277219e-05,-0.0002206215285696,0.0087179392576217,0.0324701741337776,-0.0029352996498346,0.0009020222350955,-0.6392553448677063,0.7689884901046753,-0.001205392135557,-0.0630398407767183,0.0152563190979197,-0.1019850969314575,-0.2488013505935669,-0.1495809555053711,78,45,14930,14595
15.0,1788185742968,5.211267471313477,5.211267471313477,-0.0043681226670742,0.0013199934037402,-0.0129746319726109,0.9999054670333862,0.162765468776576,0.0014637600324565,-0.0001532806239032,-0.0471302308142185,0.065708078444004,-0.0977991074323654,-0.0029242755845189,0.0034335926175117,-0.6419485807418823,0.7667344212532043,0.0132088874337242,-0.0742900938130826,-0.0070975295139651,-0.1752353906631469,-0.1649952530860901,-0.1765756607055664,71,48,14975,15313
15.1,1788185743068,5.042253494262695,5.042253494262695,-0.0024603400379419,-0.0004937197663821,-0.010448096320033,0.9999422430992126,0.1858122408089306,-0.0057666438265749,0.0001829809337849,0.0285977553576231,-0.0305235553532838,0.0791197121143341,-0.002287371084094,0.0010326160117983,-0.6398682594299316,0.7684804797172546,0.0024216822976674,-0.00998976873084,-0.010796276088613,-0.0998436212539672,-0.166033923625946,0.0159492492675781,65,68,15164,14833
15.2,1788185743168,4.985915660858154,4.8450703620910645,-0.0023080566897988,-0.0004452147404663,-0.0116166695952415,0.9999297857284546,0.1680699239050989,-0.0015027306006589,-3.855494155187998e-05,0.0062713054940104,0.0183065384626388,-0.0309547558426857,-0.0018856851384043,0.0014856597408652,-0.6411521434783936,0.7674100995063782,0.0054870997464566,0.0168640252783743,-0.0196450253773768,0.0443692803382873,-0.301571786403656,0.1255140304565429,99,135,15691,15920
15.3,1788185743268,5.183098793029785,5.154929637908936,-0.0023965870495885,0.0001771087991073,-0.0122867980971932,0.9999216198921204,0.1782995380094258,-0.0009482277674914,-4.937911159740912e-05,4.088193236384541e-05,0.0084123201668262,-0.0002005885035032,-0.0016093710437417,0.0017551044002175,-0.6413977146148682,0.7672048211097717,-0.0007858113240623,0.0170288255180587,-0.0004894603329883,-0.1478424072265625,0.2773773074150085,-0.2016210556030273,54,45,14872,14993
15.4,1788185743368,4.647887229919434,5.464788913726807,-0.0021602699998766,-0.0003957695444114,-0.0125853642821311,0.9999183416366576,0.1790805044774837,-1.821384164828013e-05,2.242600203681424e-05,0.0085307825356721,-0.0105686578899621,0.006233038380742,-0.0014704028144478,0.0013150330632925,-0.6405510902404785,0.7679130434989929,0.0084938982922464,0.0248251937149808,0.0663573417803643,-0.0162315368652343,-0.0230688452720642,-0.1879177093505859,56,112,13139,17517
15.5,1788185743468,4.507042407989502,5.549295902252197,-0.0020076415967196,-0.0004654779331758,-0.0065181283280253,0.999976634979248,0.1832085741829894,0.0035585204448174,7.08691669759326e-05,0.0007081155781634,-0.0221582911908626,0.1402691006660461,-0.0019723447039723,0.0008961772546172,-0.6349899172782898,0.7725174427032471,-0.0057789374125325,-0.0060804919585209,0.1504431642587471,0.1456765532493591,0.1479840278625488,-1.0072612762451172,71,97,13642,16870
15.6,1788185743568,4.535211086273193,5.549295902252197,-0.0018701772205531,-0.0007654994260519,0.0010056553874164,0.9999974370002748,0.1779958659793761,0.0064909605098238,3.869185681015765e-05,0.0097130443900823,-0.0099377892911434,0.177658811211586,-0.0017175488173961,0.0005845297127962,-0.6279388666152954,0.7782605886459351,0.0101282526348885,0.0072020701281128,0.2140535520376204,0.0870642662048339,0.0327738523483276,-0.6218242645263672,44,57,13533,16657
15.7,1788185743668,4.591549396514893,5.549295902252197,-0.0016710306517779,-0.0006492004031315,0.0108308540657162,0.999939739704132,0.1725231620204588,0.0037298168824296,-2.5837948665483504e-05,0.0013872607378289,-0.0002849930606316,0.1876495629549026,-0.001824976876378,0.0002630082890391,-0.6214051842689514,0.7834871411323547,0.0067609590572205,-0.0253274986921229,0.1651638737968862,0.2277125716209411,0.0066964626312255,-0.0590925216674804,81,86,13665,16591
15.8,1788185743768,4.788732528686523,5.323943614959717,-0.0014631428057327,-0.0012034806422889,0.0198861788958311,0.999800443649292,0.1809459980332829,0.0044202390035215,1.143205481000796e-05,0.0008610099903307,-0.0089671481400728,0.1640087664127349,-0.001869224011898,4.881713539361954e-05,-0.6162294745445251,0.7875643968582153,0.0036083114056341,-0.0131937814211149,0.1561039927541865,0.1360232830047607,0.0264208912849426,-0.0486087799072265,102,53,15414,14904
15.9,1788185743868,4.760563373565674,5.464788913726807,-0.0013126260600984,-0.0010314455721527,0.0233556050807237,0.999725878238678,0.1833883125745026,9.1764064144857e-05,2.10217852308356e-05,0.0012264986289665,0.0100463116541504,0.0462053455412387,-0.0017807520925998,-0.000393446534872,-0.6129781603813171,0.7900977730751038,0.0115750114521273,-0.0272022406397042,0.0360608269973224,-0.0366872549057006,-0.1651011705398559,0.3629884719848633,37,115,13126,16797
16.0,1788185743968,4.2253522872924805,5.97183084487915,-0.0010037035681307,-0.0014400717336684,0.0268207434564828,0.9996387362480164,0.1813845870006251,0.0025271844398115,-2.796425402587391e-06,0.0006167374085634,0.0048743463121354,0.1116990223526954,-0.0017545074224472,-0.0001885145902633,-0.6089134216308594,0.7932347059249878,-0.0174891760436298,0.010531959800821,0.1651868137614552,0.0650379657745361,0.242340862751007,0.5195789337158203,54,95,12542,18043
16.1,1788185744068,3.802816867828369,6.2253522872924805,-0.0011179479770362,-0.000708773266524,0.038076102733612,0.9992738962173462,0.1815874729013661,0.0039819588371983,-6.483311664991719e-05,0.00159869028721,0.0242641121149063,0.2669827044010162,-0.0009414814412593,0.0016974359750747,-0.5957136750221252,0.8031945824623108,-0.0404227989469723,0.0946850215802612,0.3306328352183871,-0.2826695442199707,0.4124283194541931,0.3712873458862304,36,145,11692,19322
16.2,1788185744168,3.802816867828369,6.535211086273193,-0.0025461672339588,0.001565113896504,0.0562247782945632,0.998413622379303,0.1767519484483134,0.0077616970981432,-0.0003234436621846,-0.022898469120264,0.0275374483317136,0.3431115448474884,-0.0009094290435314,0.0013995338231325,-0.5818214416503906,0.8133148550987244,0.069615847606613,-0.0890642534085948,0.4411682601646499,-0.0558788180351257,0.8615062236785889,0.2179145812988281,65,58,12492,17353
16.3,1788185744268,4.169013977050781,5.97183084487915,-0.0019971220754086,0.0013926298124715,0.0756264999508857,0.997133195400238,0.1769261574937365,0.006114289439377,4.524832989623964e-05,-0.011392799206078,0.0156996212899684,0.3399092853069305,-0.0006091268733143,0.0025537675246596,-0.5682839155197144,0.8228283524513245,-0.0051541634526466,0.0134261458002135,0.2392554039858108,-0.254408061504364,0.2389038801193237,0.6418619155883789,107,74,13423,16890
16.4,1788185744368,4.169013977050781,5.915493011474609,-0.0023835953325033,0.0021447045728564,0.0861604884266853,0.9962761402130128,0.1779709221473855,0.0035878684414376,-1.2654219785737488e-05,-0.0118410158902406,0.0032579810358583,0.2356130480766296,-0.0002188570797443,0.0038273120298981,-0.5582480430603027,0.8296653032302856,-0.0090820955778693,0.0381206946803312,0.2895812696189146,-0.0313875079154968,0.030323326587677,-0.5919609069824219,88,126,13357,17846
16.5,1788185744468,4.14084529876709,5.77464771270752,-0.0028824370820075,0.0032946686260402,0.0998779311776161,0.994990050792694,0.1801200144601757,0.0020480424612005,-1.4021071521542595e-06,-0.0116615053266286,0.0094934171065688,0.2657556235790252,1.780688762664795e-06,0.0047918912023305,-0.5481067895889282,0.8363946676254272,-0.0097522417208602,0.041028215587047,0.2511279408949878,0.0011822581291198,-0.1975855827331543,-0.0610666275024414,67,86,13406,17961
16.6,1788185744568,4.591549396514893,5.408450603485107,-0.0032578418031334,0.0045052138157188,0.1121512800455093,0.9936755895614624,0.1823320785440088,0.0051351126333937,-0.0001205387550664,-0.0003976648440584,0.0236428640782833,0.2030600905418396,0.0003539901226758,0.0059595080092549,-0.5385809540748596,0.8425526022911072,-0.0068213092970769,0.0184228969748571,0.1286143290191446,0.0249767899513244,0.1244204044342041,0.3015308380126953,67,64,14065,15832
16.7,1788185744668,4.704225540161133,5.577464580535889,-0.0038227171171456,0.0049006948247551,0.1187026351690292,0.992910385131836,0.1824352809542431,0.00224320212629,1.1626952279042612e-05,-0.0156579762697219,-0.0030251471325755,0.13251793384552,1.9597820937633514e-05,0.0061897244304418,-0.5335413813591003,0.8457514047622681,-0.0061654313525687,-0.0057698537250744,0.1289961189346822,0.1180475354194641,-0.2159762382507324,-0.2957849502563476,91,66,13506,16288
16.8,1788185744768,4.901408672332764,5.436619758605957,-0.0044531072489917,0.0053332136012613,0.1246379762887954,0.992177963256836,0.1805833269456589,0.0042971599814119,-3.3623771427250136e-05,-0.0100575042888522,0.0192954894155263,0.1345191299915313,-0.0004065698012709,0.0063982689753174,-0.5276007652282715,0.8494683504104614,-0.0016366386680246,-0.0497988647513055,0.1558351214691405,-0.0107055902481079,0.3344063758850097,0.6974391937255859,71,80,12417,16757
16.9,1788185744868,4.619718074798584,5.521126747131348,-0.0047269840724766,0.004968274384737,0.1320561170578003,0.9912185072898864,0.1770777200743274,0.0017355334719179,-4.561110993659478e-05,-0.0126165626570582,0.0063011939637362,0.1444075554609298,-0.0007957117632031,0.006693004630506,-0.5221583247184753,0.852821946144104,-0.0100389962624108,-0.0189722378517486,0.126400638511042,-0.0053883790969848,-0.111057162284851,-0.6083459854125977,61,93,13368,16719
17.0,1788185744968,4.591549396514893,5.6619720458984375,-0.0050676730461418,0.0049406029284,0.1401629447937011,0.9901031851768494,0.1839067460802725,0.0049008986550812,5.630178625896031e-07,-0.003790435148403,0.0089545203372836,0.1556863933801651,-0.0007073087617754,0.0071550728753209,-0.516224205493927,0.8564232587814331,0.0003359707780217,0.0362925418908242,0.1591704423312458,-0.1894047260284423,-0.1866734027862548,0.4521121978759765,48,73,13735,16509
17.1,1788185745068,4.591549396514893,5.492957592010498,-0.0050349216908216,0.005009374115616,0.1478310525417328,0.988987147808075,0.1772639613243602,0.0052861318945418,2.2282289140250264e-05,-0.0095822447910904,0.008532634936273,0.1496662348508834,-0.0010073240846395,0.006535030901432,-0.5083392858505249,0.8611315488815308,0.0017338584405033,-0.0403006458783174,0.1389688368898363,0.1267288923263549,-0.2354757785797119,0.0113515853881835,76,64,13513,16628
17.2,1788185745168,4.507042407989502,5.633802890777588,-0.0049753673374652,0.003461581422016,0.154494822025299,0.987975001335144,0.1826743185984574,0.0052542564487101,5.323501007798808e-05,-0.0104584647342562,-0.0279366075992584,0.1477853953838348,-0.0023868922144174,0.0065963845700025,-0.5012636184692383,0.8652662634849548,-0.0527855828551593,0.0212811293750313,0.1073660975489442,-0.1785823106765747,0.2719663977622986,0.1738557815551757,41,101,13683,16272
17.3,1788185745268,4.957746505737305,5.436619758605957,-0.0069932430051267,0.0038580233231186,0.1604499071836471,0.987011730670929,0.172542417306852,0.0047884703856367,-0.0001886610297662,-0.0470344685018062,0.0184674654155969,0.113531194627285,-0.0028547644615173,0.006430048495531,-0.4978528618812561,0.8672329187393188,0.0595776869832973,-0.1028832985743675,0.1671428002076288,0.2153129577636718,-0.2461030483245849,0.5039081573486328,64,33,14395,14866
17.4,1788185745368,4.985915660858154,5.211267471313477,-0.0049139750190079,0.0013040929334238,0.1674351990222931,0.9858700037002563,0.1759376410437906,0.004762711015702,9.988789855374056e-05,0.0007956742774695,-0.0280051194131374,0.0733599737286567,-0.0030815806239843,0.0042807664722204,-0.4930803179740906,0.8699677586555481,-0.0068489946485995,-0.0024378137751971,-0.012929438259526,0.0323141813278198,-0.056147277355194,0.7515840530395508,70,88,14521,15182
17.5,1788185745468,4.8450703620910645,5.323943614959717,-0.0052773812785744,0.0016324906609952,0.1676991581916809,0.9858227372169496,0.1803013991150122,0.0043385154143661,-1.4947078981708134e-05,-0.000882844091393,0.0010572792962193,0.0272959992289543,-0.0029901387169957,0.0046496642753481,-0.4921651184558868,0.8704843521118164,0.0019079799453382,0.0080856457215308,0.0659226591917181,0.0168284773826599,0.1958736181259155,-0.2029523849487304,54,74,14805,15348
17.6,1788185745568,4.760563373565674,5.492957592010498,-0.0050762691535055,0.0012341225519776,0.1700391620397567,0.9854234457015992,0.1832313817247301,0.0052430616876981,8.4018767714704e-05,-0.0003925888740923,-0.0248746983706951,0.0441120006144046,-0.0031571108847856,0.0039462056010961,-0.4898304641246795,0.8718031048774719,0.0068684054867949,-0.0129518971650107,0.0629301540981358,0.0028020739555358,-0.2524251341819763,-0.0540428161621093,103,32,15006,14906
17.7,1788185745668,4.563380241394043,5.352112770080566,-0.0049005071632564,0.0008893991471268,0.1753166019916534,0.9844995141029358,0.1785255706912795,-0.0001451232098215,-2.6363248958786574e-05,-0.0007812826079316,0.0069509563036262,0.0980074033141136,-0.0030146529898047,0.0035100448876619,-0.4841195046901703,0.8749896883964539,0.0206053694668162,-0.0104089781369843,0.1227075584607323,-0.0433079600334167,-0.123621642589569,1.0113677978515625,90,61,15553,15456
17.8,1788185745768,4.788732528686523,5.098591327667236,-0.0043357871472835,0.0007776009151712,0.1815914660692215,0.9833642244338988,0.1806711169682517,0.0023264376206947,2.182818894427539e-05,0.0034903327468782,0.0004629936593119,0.1067036166787147,-0.0028724763542413,0.0033683888614177,-0.4804641306400299,0.8770032525062561,0.0068944914406872,0.0086409793771841,0.0766257387979131,-0.1374652981758117,-0.2551460862159729,0.6044645309448242,74,75,15275,15323
17.9,1788185745868,4.8450703620910645,5.154929637908936,-0.0043292962945997,0.0009920219890773,0.1840876042842865,0.982899844646454,0.1865751794214697,0.001377988200843,-3.41299982755399e-05,0.0033816499635577,0.0062275389209389,0.0536965988576412,-0.002466095611453,0.0036921026185154,-0.4768598973751068,0.8789681196212769,-0.0014285727772922,-0.0122420152675383,0.0581598297788441,0.1749877333641052,0.05048269033432,-0.4436407089233398,83,64,15139,15701
18.0,1788185745968,4.901408672332764,5.239436626434326,-0.0042504495941102,0.0014233235269784,0.1860674023628235,0.9825267791748048,0.1797439812695945,0.0066003772969647,-1.2282132196606596e-05,0.0006993619026616,0.0055347536690533,0.0250668320804834,-0.0026072151958942,0.0035504503175616,-0.4751133024692535,0.8799136877059937,-0.0109951273117703,-0.0309602670615363,0.0421368793886112,-0.1606220006942749,0.1525102257728576,0.3150835037231445,42,67,13775,16468
18.1,1788185746068,5.014084339141846,5.042253494262695,-0.0045646289363503,0.0009938923176378,0.1897945553064346,0.9818127155303956,0.183237824800236,0.0024478981272691,-1.2886141938904356e-05,-0.0152722792699933,-0.0035831576678901,0.1014493852853775,-0.0027114525437355,0.0040311142802238,-0.4711677432060241,0.8820303082466125,0.0031783612306003,0.0299258856323409,0.110686569305757,0.0707013010978698,-0.2071682810783386,-1.1258792877197266,61,69,15386,14958
18.2,1788185746168,5.070422649383545,4.985915660858154,-0.0046385382302105,0.0010896084131672,0.1933654248714447,0.9811152815818788,0.1809907200834471,0.0026519078893428,1.3672757527991427e-06,-0.0011832019081339,-0.0063891508616507,0.0338404178619384,-0.0029057571664452,0.0036413660272955,-0.4694269299507141,0.8829590082168579,0.0065600669523417,-0.0200087715385802,0.0513365607310908,0.2780324816703796,0.1519685387611389,-0.7516670227050781,81,53,15416,15102
18.3,1788185746268,4.929577350616455,5.154929637908936,-0.0052203731611371,0.0010612646583467,0.1942606121301651,0.980935513973236,0.1802337005853579,-0.0016648275890256,-4.727414836343983e-06,-0.026785722002387,0.0083534512668848,0.0181368291378021,-0.0032521691173315,0.0042322967201471,-0.469144344329834,0.8831053972244263,-0.01579837784148,0.0146439468353591,-0.0296971081808763,-0.2397146224975586,-0.2622451782226562,1.3799734115600586,58,110,14542,15733
18.4,1788185746368,5.014084339141846,5.126760482788086,-0.0050703608430922,0.0022962098009884,0.1958076804876327,0.9806265234947203,0.1811515700081119,0.0042894387406205,-9.129256225891924e-05,0.0034337257966399,0.0217905547469854,0.0318500287830829,-0.0026598880067467,0.0050886841490864,-0.4674187302589416,0.8840173482894897,-0.010522472128926,0.000419643410238,0.0129424134040409,-0.0476359724998474,0.2695682644844055,0.7436342239379883,60,87,14192,15781
18.5,1788185746468,4.366197109222412,4.676056385040283,-0.0072823027148842,0.003252170747146,0.1947876662015915,0.9808130264282228,0.1769317924173677,0.0014492726982395,-0.0002427174545249,-0.0477283336222171,0.031975831836462,-0.0489558726549148,-0.0029576756060123,0.004935797303915,-0.4672349393367767,0.8841144442558289,0.0789135867767495,-0.0692749262920257,0.0984879665050838,-1.3061444759368896,0.5630672574043274,1.0339317321777344,8,24,8757,12722
18.6,1788185746568,0.7323943376541138,2.985915422439575,-0.0053543979302048,0.0020709095988422,0.2007836997509002,0.9796187877655028,0.1221508475033679,0.0044013391786079,-4.644532424828895e-05,0.002057101111859,0.0024893113877624,0.1492330580949783,-0.0028593186289072,0.0049689132720232,-0.4599758386611938,0.887912929058075,-0.0009555991233769,0.0032868581810965,0.2472279522605269,-0.8789084553718567,0.1203198432922363,0.3693723678588867,30,28,535,9489
18.7,1788185746668,-0.2253521084785461,2.366197109222412,-0.005344467703253,0.00176716549322,0.2168170362710952,0.976195991039276,0.0410377254825125,0.0010093291878344,4.4912772809652765e-06,-0.0044211377389729,-0.0080117648467421,0.3798787593841553,-0.003026901744306,0.0047459518536925,-0.4485609531402588,0.8937345147132874,-0.0059803354252614,-0.0084587102550252,0.3922874755250931,-0.5422442555427551,0.0121887326240539,-0.3552455902099609,279,47,-9193,6410
18.8,1788185746768,-1.94366192817688,1.436619758605957,-0.0054582785815,0.0015247960109263,0.2380766421556472,0.9712297916412354,-0.0156946332749177,0.0034722082692425,-4.674276617120256e-06,-0.0022993686143308,-0.0086629819124937,0.5549531579017639,-0.0033173328265547,0.0047275479882955,-0.4186554253101349,0.9081267714500428,-0.0062354668855859,-0.0012919227641923,0.5911181824583398,0.1603637933731079,-0.3331528306007385,0.0702848434448242,52,86,-6509,5884
18.9,1788185746868,-1.4929577112197876,1.5211267471313477,-0.0056400271132588,0.0015034280950203,0.2641594707965851,0.9644613265991212,-0.0010402266138666,-0.0045005961274277,1.984554513823622e-07,-0.0041968398727476,-0.0047259042039513,0.4832523167133331,-0.0034819860011339,0.0046904142946004,-0.3992880582809448,0.916806936264038,-0.0037950818260427,-0.0090568373469751,0.3970561919341818,0.1386985778808593,0.0111247897148132,0.1219310760498046,66,81,-6411,6198
19.0,1788185746968,-1.5211267471313477,1.5492957830429075,-0.0057610515505075,0.0014749948168173,0.2866586148738861,0.9580143094062804,0.0011824397377052,0.0003720505913826,-2.957307015994521e-07,-0.0012194054434075,-0.0058304229751229,0.4454520344734192,-0.0035380851477384,0.0047210399061441,-0.3765659630298614,0.9263710975646972,0.0003768813853718,-0.0020209552118955,0.4403734438542883,0.0712473392486572,-0.0752544403076171,0.1158876419067382,66,40,-6966,5985
19.1,1788185747068,-1.6056338548660278,1.5492957830429075,-0.0057422262616455,0.0013853217242285,0.310146152973175,0.9506704807281494,1.2167305923356237e-05,-0.000382807885655,-7.623792702479322e-08,-0.0020011269953101,-0.0018128677038475,0.503282368183136,-0.0035714926198124,0.0047721257433295,-0.3535985350608825,0.93537837266922,-0.0028215094288675,0.0022310097623381,0.4630761342449103,-0.0239024758338928,-0.1094302535057067,0.0003776550292968,59,51,-6441,5870
19.2,1788185747168,-1.5211267471313477,1.5492957830429075,-0.0058848420158028,0.0015700912335887,0.330098956823349,0.9439266324043274,-0.0035881077269033,0.0012857901692299,2.284218184328087e-07,-0.0037761800922453,0.0035019789356738,0.4593352675437927,-0.0035570431500673,0.005068433471024,-0.3269170224666595,0.9450327754020692,-0.0017958393461163,0.002941059556998,0.5028617005452328,0.0026299953460693,-0.0429539084434509,-0.0494985580444335,84,67,-6733,5932
19.3,1788185747268,-1.154929518699646,1.1267606019973757,-0.0059880781918764,0.0016738151898607,0.3534808456897735,0.9354210495948792,0.0006226158881761,-0.0001524437309066,1.3021969370793628e-08,-0.0030914221424609,-0.0004874842998106,0.4916591346263885,-0.0035791425034403,0.0050435923039913,-0.3130914866924286,0.949702799320221,-8.209000070364849e-05,-0.005452886312067,0.4731943218885915,0.1271058917045593,-0.074549376964569,0.0155744552612304,69,68,-5155,4769
19.4,1788185747368,-1.0985915660858154,1.3521126508712769,-0.005944525822997,0.0014668785734102,0.3707187473773956,0.9287249445915222,-0.0017552458046065,-0.0007865944932798,-1.0808371599055169e-06,-0.0023339767940342,-0.0070619150064885,0.2794003486633301,-0.0036961156874895,0.0049024410545825,-0.2950369119644165,0.955466091632843,-0.001994043662381,-0.0008748028205019,0.3098517527476296,-0.0861726999282836,0.1518892049789428,-0.0167446136474609,72,87,-5995,5587
19.5,1788185747468,-1.183098554611206,1.154929518699646,-0.0060489843599498,0.0013410123065114,0.3871416449546814,0.9219993948936462,-0.0009458345499473,0.0016087125296713,-8.873081174238457e-08,-0.0049156085588037,-0.0012123058550059,0.384360522031784,-0.0038960687816143,0.0049547478556632,-0.2767510414123535,0.960921049118042,-0.0065773891035134,0.0031116059175211,0.3841276693156175,0.0412624478340148,0.0180354118347167,-0.0077486038208007,83,74,-5518,5276
19.6,1788185747568,-1.211267590522766,1.0985915660858154,-0.0062429727986454,0.001272831344977,0.4029745161533355,0.9151890277862548,-0.0013705207407345,-4.486519278033517e-05,1.2601295116355711e-08,-0.0050310529768466,-0.0051479930989444,0.3648686408996582,-0.0042163794860243,0.0047725094482302,-0.2557506859302521,0.966721773147583,-0.0063282426377672,-0.0097211417369924,0.3515580171549817,-0.0754890441894531,-0.0311670899391174,0.1532011032104492,46,116,-5284,5452
19.7,1788185747668,-0.7605633735656738,0.7323943376541138,-0.0062928325496613,0.0009169159457087,0.4193127751350403,0.9078195691108704,-0.000194838518537,6.512237484658882e-05,-1.1162026637004957e-07,-0.0042908042669296,-0.0069577144458889,0.3535761535167694,-0.0043709753081202,0.0045558325946331,-0.2411877363920211,0.970457911491394,-0.0027161105886506,-0.0077725599060141,0.2999035207579136,0.0633136630058288,-0.1037425994873046,0.1050062179565429,43,78,-4364,4260
19.8,1788185747768,-0.5070422291755676,0.7042253613471985,-0.0061726095154881,0.000637006945908,0.4320108890533447,0.9018470644950868,0.0009143520798417,-0.0005500044582948,2.825336009687433e-07,0.0001730197982396,-0.0062745516188442,0.2114310711622238,-0.0043893530964851,0.0044111162424087,-0.234999418258667,0.971975564956665,-3.46853480575109e-05,-0.0041769151317962,0.1800759273878034,-0.2041152119636535,0.1097981333732605,-0.0246000289916992,55,61,-4460,4096
19.9,1788185747868,0.0,0.0,-0.0060504064895212,0.0004999910015612,0.4412636160850525,0.8973569273948669,0.0024489211219528,-0.0012394404648069,8.363812352596367e-07,0.0006062351749278,-0.0056571941822767,0.1903904378414154,-0.0044043567031621,0.0041604219004511,-0.2244740724563598,0.9744612574577332,-0.0012599931600191,-0.0037460409763059,0.019296217754735,0.021364688873291,-0.0881457328796386,0.1318016052246093,0,0,735,1035
20.0,1788185747968,1.4647886753082275,2.2253520488739014,-0.0060468004085123,0.0004388885572552,0.4406061172485351,0.8976801037788391,0.0067956838898144,-0.0008442850797307,5.124665086229253e-07,0.0001733429089654,-0.0016111135482788,-0.0279617495834827,-0.0044369883835315,0.0041334405541419,-0.2255878746509552,0.9742040038108826,-0.0009941983643618,-0.0018550345628845,-0.0314613184043661,0.7787428498268127,0.1029998660087585,0.0874242782592773,188,275,10126,12940
20.1,1788185748068,3.690140962600708,5.070422649383545,-0.0058695524930953,8.007837459445e-05,0.4466517865657806,0.894688606262207,0.1071850123339466,0.0018876395050002,2.766825929642782e-05,0.0016208952292799,-0.001895914087072,0.1909682899713516,-0.0044052442535758,0.0034906072542071,-0.2160465270280838,0.976366937160492,0.0123740249939,-0.0318573640822114,0.2153528589075374,0.6632710695266724,0.4672263860702514,0.5302562713623047,178,195,13676,17962
20.2,1788185748168,4.535211086273193,6.197183132171631,-0.0054651289246976,-0.0001477696932852,0.4588903486728668,0.8884761333465576,0.185828324300852,0.004180008889016,2.0560628144119828e-05,0.0019751584623008,-0.0128045538440346,0.2770209014415741,-0.004335961304605,0.0032451534643769,-0.2030606716871261,0.9791512489318848,-0.0004643809005656,-0.0122114334397153,0.2730465423830967,-0.0054340958595275,0.0318579077720642,-1.2903947830200195,74,69,13213,17712
20.3,1788185748268,4.197183132171631,5.915493011474609,-0.0050508501008152,-0.0005244666244834,0.4708018898963928,0.8822243213653564,0.1905839044190037,0.0048468778703799,6.411104829141253e-05,0.0036603459157049,-0.0193937756121158,0.2715054750442505,-0.0041066873818635,0.0031592072919011,-0.1869722753763198,0.9823516011238098,0.0019819514095911,0.0284627355678224,0.2919513172149732,-0.0402885675430297,0.2332993745803833,-0.9502639770507812,57,62,12320,17430
20.4,1788185748368,4.2253522872924805,5.88732385635376,-0.0051366346888244,0.0002922592684626,0.4813117980957031,0.8765343427658081,0.1736488971426956,0.0039219375314739,-1.4680380323762272e-05,0.0072210323996841,0.0122197140008211,0.250424176454544,-0.0038001341745257,0.0035002948716282,-0.1807791888713836,0.983510196208954,0.0025032882317436,0.0265288029190415,0.2302278958685417,0.0296145677566528,-0.0261555314064025,-1.089365005493164,79,73,13050,17197
20.5,1788185748468,4.084506988525391,5.943662166595459,-0.0046848645433783,0.0005809958092868,0.4930276870727539,0.8700008988380432,0.1765409602716621,0.0035194145089005,2.5777774258220703e-06,0.014151195064187,-0.0071824383921921,0.271381676197052,-0.0032549537718296,0.0030982755124568,-0.1638122200965881,0.986481249332428,0.0009358951308299,-0.0191951283899849,0.251538591623452,-0.0752919316291809,-0.0493350625038147,-0.3212318420410156,90,83,13428,17147
20.6,1788185748568,4.056337833404541,5.85915470123291,-0.0047514205798506,0.0006657525664195,0.5051282644271851,0.8630309104919434,0.1811249934611067,0.0044988190511439,-3.1087946791974806e-05,0.0025200154632329,0.0072568375617265,0.2550588846206665,-0.003046934492886,0.0033656666055321,-0.1466555297374725,0.9891771674156188,0.007044079111887,-0.0001869233652393,0.2915186326849199,0.0349261164665222,0.2364646196365356,-0.5027627944946289,78,73,13407,17681
20.7,1788185748668,4.2253522872924805,6.056337833404541,-0.0069335089065134,0.0017497865483164,0.5160853266716003,0.8565073609352112,0.1677385290402444,0.0030724016640583,-0.0001315105095935,-0.0630855038762092,0.0823616757988929,0.2314857393503189,-0.0043713767081499,0.0062544615939259,-0.1398975402116775,0.9901365637779236,-0.0747849584542994,0.12344235973476,0.2030512464585308,0.0315957069396972,-0.0306189060211181,0.4430265426635742,82,88,13165,17706
20.8,1788185748768,4.309859275817871,5.915493011474609,-0.0045780134387314,0.0018430425552651,0.5278646945953369,0.8493141531944275,0.186413287844101,-0.0022607010290633,-8.233468246180637e-05,0.0205877795815467,0.0228636413812637,0.3393601477146148,-0.0025259302929043,0.0045049898326396,-0.1227310076355934,0.9924265146255492,-0.0110558365405957,0.0149438758902374,0.2270954013689083,-0.2733572721481323,-0.7376713752746582,0.556950569152832,76,31,12591,16995
20.9,1788185748868,4.056337833404541,5.88732385635376,-0.0047640651464462,0.0019924626685678,0.537244975566864,0.8434103727340698,0.1651200377686348,0.0011110321779948,2.1923766147103807e-05,0.0022492080461233,0.0044682044535875,0.2036674618721008,-0.0023165941238403,0.0046188626438379,-0.1131232976913452,0.9935675859451294,0.007857319964394,-0.002422590242684,0.2226479270192197,0.2422601580619812,0.0357111096382141,-0.3679370880126953,99,121,13682,17698
21.0,1788185748968,4.535211086273193,5.521126747131348,-0.0045918067917227,0.0019118201453238,0.5486353635787964,0.8360469341278076,0.1775745752132437,0.0042996538399808,6.419925940677151e-05,0.0006485467310994,-0.0084076318889856,0.2514271736145019,-0.002436420880258,0.0044086445122957,-0.0991660952568054,0.9950581789016724,-0.0079505482080026,0.0099582223280045,0.1749651950150649,-0.2885163426399231,0.0300671458244323,-0.5606861114501953,67,48,14427,16387
21.1,1788185749068,4.957746505737305,5.126760482788086,-0.0042223050259053,0.0013740318827331,0.5541526675224304,0.8324031829833984,0.1834105275647555,-0.0007757931418235,6.804305888917998e-05,-0.0002641269529704,-0.0216343775391578,0.0876649990677833,-0.0021136794239282,0.0038675274699926,-0.095741331577301,0.9953964948654176,0.0184632326723706,0.0107956218249964,0.0314869942790733,-0.1472712755203247,-0.1139010787010192,-0.5912466049194336,73,52,14841,15456
21.2,1788185749168,4.478873252868652,5.521126747131348,-0.0038531236350536,0.0013982725795358,0.5547214150428772,0.8320260643959045,0.1764565636742473,0.0032927762786707,-9.066747778561832e-06,0.003095305757597,0.0041109658777713,-0.0003835810930468,-0.0018665557727217,0.0027242796495556,-0.0921388640999794,0.9957407116889954,0.0068906642406555,-0.0037459426187263,0.1457579580935258,-0.1816758513450622,-0.1211827993392944,-0.5591402053833008,66,87,13892,16985
21.3,1788185749268,4.676056385040283,5.211267471313477,-0.0027056671679019,0.0002959968987852,0.5600751042366028,0.8284374475479126,0.1851289648101267,0.0021649507260005,7.78526116311513e-05,0.0021825199946761,-0.0324265919625759,0.1455913931131363,-0.0018424484878778,0.0017216289415955,-0.0878796577453613,0.9961279630661012,0.0061506785372164,-0.0274342479134832,0.1350179086666757,-0.3076978325843811,-0.2734078764915466,-0.8117828369140625,74,72,15384,15356
21.4,1788185749368,4.8450703620910645,5.211267471313477,-0.0015849916962906,-0.0003724065027199,0.564134418964386,0.8256814479827881,0.1818429011435903,0.0045875747731759,0.0001094191297411,0.0098398644477128,-0.0296251196414232,0.0614434145390987,-0.0014767218381166,0.0003619519993662,-0.0835591256618499,0.9965016841888428,0.0022999885758349,-0.0277571067175673,0.0471742626019125,0.0825935006141662,0.0811773538589477,-0.2589006423950195,55,94,14951,15389
21.5,1788185749468,5.014084339141846,5.239436626434326,-0.0012790537439286,-0.0011776086175814,0.5654818415641785,0.8247588872909546,0.1924797272682105,0.0014148849311795,5.371873466409051e-05,-0.0036518448032438,-0.0215056017041206,0.0327133201062679,-0.0017740158364176,-0.0002537425607442,-0.082414261996746,0.9965965151786804,-0.0056996295574393,-0.0146785267284946,0.0341242377694849,-0.3106346726417541,0.1381646394729614,0.1473913192749023,83,75,14214,15438
21.6,1788185749568,4.873239517211914,5.267605781555176,-0.0004433282301761,-0.0017985069425776,0.5672445893287659,0.8235473036766052,0.1840624078059821,0.0055508837809425,-2.228812189886611e-05,-0.0002089578047161,-0.011031468398869,0.0385775342583656,-0.0015215575695037,-0.0016718003898859,-0.079366847872734,0.9968429803848268,-0.0061456583048662,-0.0071334467195879,0.0469538734679917,-0.0372077226638793,0.004185676574707,-0.0098485946655273,67,71,14674,15246
21.7,1788185749668,4.788732528686523,5.436619758605957,-0.0003203829983249,-0.0027347477152943,0.5688132047653198,0.8224620819091797,0.1745216371892004,0.0003878468429047,0.0001523886904043,-0.0178400166332721,-0.017225943505764,0.0412542559206485,-0.0020250463858246,-0.0022287936881184,-0.0775486752390861,0.9969840049743652,0.0070390221471695,-0.0261705926164964,0.058017219583552,0.0502122044563293,0.2020533084869384,-0.0624284744262695,56,77,14850,14829
21.8,1788185749768,4.929577350616455,5.183098793029785,4.339497536420822e-06,-0.003450684249401,0.571085512638092,0.8208833336830139,0.1827646984537805,0.0051698694552664,0.0001102542410489,-0.0027855671942234,-0.0187805872410535,0.0466410629451274,-0.0027398550882935,-0.0025072591379284,-0.0750828012824058,0.997170388698578,-0.0336112972179949,-0.000906940375155,0.028530946109034,-0.3314965963363647,-0.1181864738464355,0.3279733657836914,80,113,14535,15809
21.9,1788185749868,4.873239517211914,5.549295902252197,-0.0016189145389944,-0.0041563147678971,0.5722209215164185,0.8200873136520386,0.1881898134914538,0.0073633050405827,-5.221413136178952e-05,5.923708886257373e-05,-0.030243881046772,0.0380943827331066,-0.0028473259881138,-0.0035026995465159,-0.0721655935049057,0.9973825216293336,0.0756555672393721,-0.0825875898803157,0.1508174847150407,-0.158573567867279,0.6444681286811829,0.6949520111083984,53,53,14650,14918
22.0,1788185749968,4.873239517211914,5.042253494262695,0.0001850891858339,-0.0048895967192947,0.5755336880683899,0.8177635073661804,0.1779052271941743,0.0037055265563801,0.0001099155879234,-0.0027283413801342,-0.0328344777226448,0.0274549424648284,-0.0030561788007616,-0.0036784829571843,-0.071987010538578,0.99739408493042,-0.0111624727269219,0.0012335810146965,-0.0674645503468756,0.1450079083442688,0.3391767144203186,-1.3974313735961914,54,103,14810,15921
22.1,1788185750068,5.042253494262695,5.239436626434326,-0.0001598824746906,-0.0048028700985014,0.5739770531654358,0.8188573122024536,0.1748815614559481,0.003066745213277,-1.914734419752e-05,-0.0062763579189777,0.0031772649381309,-0.0231610666960477,-0.003490443341434,-0.0036078719422221,-0.0707760602235794,0.9974796175956726,-0.0082696031615977,-0.0024250781734926,0.0476354605833536,-0.0223538875579834,-0.0308526158332824,1.1059589385986328,68,77,14170,15982
22.2,1788185750168,4.901408672332764,5.098591327667236,-0.0007295277900993,-0.0044707148335874,0.5766989588737488,0.8169440627098083,0.1836078706244309,0.0011359831852393,-7.881099331762577e-05,0.0020888911094516,0.0193881802260875,0.0584906563162803,-0.0031818877905607,-0.0029888590797781,-0.0681134983897209,0.9976680278778076,0.0138271151315662,0.0003258759522316,0.059828110039866,0.1161229610443115,0.0598647594451904,-0.5049009323120117,92,93,14676,16198
22.3,1788185750268,4.8450703620910645,5.183098793029785,-0.0009652199223637,-0.004191561602056,0.5784010291099548,0.8157411813735962,0.1790278226540464,-0.0005704648562331,-1.703317051435668e-05,-0.0025501979980617,0.0077383620664477,0.0371863953769207,-0.0035556824877858,-0.0029590167105197,-0.0664240717887878,0.997780740261078,-0.009097829290162,-0.0219847194990419,0.0306517427577845,-0.0422315597534179,-0.0390470027923584,0.0687589645385742,47,91,14855,15966
22.4,1788185750368,4.816901206970215,5.323943614959717,-0.0014981514541432,-0.0039089582860469,0.5802344679832458,0.8144387602806091,0.1832581476772576,-0.000344972642054,-4.330780489284125e-05,-0.0079763680696487,0.0253110956400632,0.0594240948557853,-0.0034197866916656,-0.002193285152316,-0.0636627227067947,0.99796324968338,0.0179017867173535,-0.0061213970569341,0.0784557722653668,-0.0794227123260498,0.0019293427467346,-0.621424674987793,63,88,14973,15545
22.5,1788185750468,4.873239517211914,5.323943614959717,-0.001604450517334,-0.0038340536411851,0.5825565457344055,0.8127795457839966,0.1827310686846104,-0.0008449322736332,-2.992977638635388e-05,-0.0041927020065486,0.0112984450533986,0.0470970273017883,-0.0037345737218856,-0.0019134962931275,-0.0613504871726036,0.9981074929237366,-0.0119866015421442,-0.0016937121715414,0.0425535604540639,0.0655409693717956,-0.0203598737716674,-0.7106704711914062,49,83,14834,15428
22.6,1788185750568,4.816901206970215,5.126760482788086,-0.0020236421842128,-0.0035481364466249,0.5848600268363953,0.8111239075660706,0.1869974982615067,0.0005643102231279,-3.907175247133183e-05,-0.0044608954340219,0.0134236458688974,0.0542448461055755,-0.0038029374554753,-0.0011486746370792,-0.0578918755054473,0.9983149170875548,-0.0011102129064395,0.0294244160817129,0.0785889409140794,0.0118566751480102,0.1094456315040588,-0.7428855895996094,72,73,14536,15414
22.7,1788185750668,4.985915660858154,5.042253494262695,-0.0025265461299568,-0.0030265869572758,0.5871675610542297,0.8094557523727417,0.1756396036933103,0.0003624110092894,-3.5999348217910905e-05,-0.0028190927114337,0.0124039771035313,0.0546867363154888,-0.0038671717047691,-0.0006578397005796,-0.0559852309525013,0.9984239339828492,0.0001401864771573,0.015320418075328,0.0323875144618627,0.0303484797477722,0.1972970366477966,0.0629224777221679,89,70,15631,15096
22.8,1788185750768,5.323943614959717,4.873239517211914,-0.0024573011323809,-0.0034303250722587,0.5874279737472534,0.8092654943466187,0.181876749630258,0.000163679694226,2.3098380224408055e-05,-0.0048938211984932,-0.0106853265315294,0.0054101068526506,-0.0039829602465033,-0.0009035179391503,-0.0557949841022491,0.9984338879585266,0.0022420834114157,0.0102614275942745,-0.0003464103043383,0.2086155414581298,-0.2491284012794494,-0.4885263442993164,100,62,15592,14367
22.9,1788185750868,4.901408672332764,5.126760482788086,-0.0023766560479998,-0.003034308552742,0.5859218835830688,0.8103584051132202,0.1753171859484401,-0.0017598923338998,-1.44244633473888e-06,-0.0031932713463902,0.0005826252163387,-0.0662769526243209,-0.0037585413083434,-0.0009636180475354,-0.0584863312542438,0.9982806444168092,0.0011449786709123,-0.0072796159985149,-0.0489886562996222,0.2284241914749145,-0.1531212925910949,-0.9487628936767578,44,90,14641,16110
23.0,1788185750968,5.070422649383545,5.070422649383545,-0.0021121266763657,-0.0029931720346212,0.5866166353225708,0.8098563551902771,0.1871652344731177,0.0021039118442956,-1.0294674148956713e-06,0.0067923245951533,-0.0008596811676397,0.0458878837525844,-0.0034560151398181,-0.0007925806567072,-0.0564212948083877,0.998400866985321,0.0152391396647513,0.0102735917396189,0.0546597934396231,-0.20089852809906,0.1071109175682067,1.1716251373291016,60,70,14994,15151
23.1,1788185751068,5.154929637908936,5.408450603485107,-0.0051316092722117,-0.0020179690327495,0.5858529210090637,0.8103986978530884,0.1723797796459389,-0.0009889287657236,-0.0002464123241746,-0.0628948286175727,0.0899234116077423,-0.0482822060585022,-0.0037545571103692,0.0003737788647413,-0.0567368417978286,0.998382031917572,0.1106154988998277,-0.0759433693567759,0.0845437264653711,0.0952772498130798,-0.0397767424583435,-0.2197818756103515,72,64,14895,14648
23.2,1788185751168,5.126760482788086,5.070422649383545,-0.0027459934353828,-0.0019966287072747,0.5878129005432129,0.8089897632598877,0.189081232493217,0.0006653150811533,-2.062212647750199e-05,0.0055718417279422,0.0037711386103183,0.0385052934288978,-0.0035268459469079,0.0003341846168041,-0.0565650463104248,0.998392641544342,0.0023058666283283,0.0321704469641531,-0.0439763588328845,-0.2159615159034729,-0.312045156955719,-1.0413293838500977,67,55,14703,14589
23.3,1788185751268,5.211267471313477,4.985915660858154,-0.0031724874861538,-0.0017789328703656,0.5863799452781677,0.8100279569625854,0.1623636893591642,0.0030815367196359,-0.0001147623553273,-0.002650297479704,0.024191765114665,-0.0432305671274662,-0.0037891175597906,0.0009792754426598,-0.0575898513197898,0.9983326196670532,-0.0076357666503997,0.0045800551099277,-0.0198613326853687,0.2414334416389465,0.0258837938308715,-0.5619630813598633,92,84,15909,14557
23.4,1788185751368,5.605633735656738,4.535211086273193,-0.0039691710844635,-0.0015268095303326,0.5841608643531799,0.8116267323493958,0.1797725839702098,-0.000637708928175,-6.295498576065716e-05,-0.0093307523056864,0.011974774301052,-0.0702246725559234,-0.0041260970756411,0.0012776413932442,-0.0605441108345985,0.9981562495231628,-0.0104946138612879,-0.013090169888545,-0.0804308934349843,0.0057513713836669,-0.0874460935592651,0.7189741134643555,97,62,16796,13677
23.5,1788185751468,5.6619720458984375,4.450704097747803,-0.0042495504021644,-0.0009999293833971,0.5790019035339355,0.8153144717216492,0.1777074725578524,-0.0072882521031616,-0.0001009694364873,0.0008494615321978,0.0239069499075412,-0.1546424180269241,-0.0039685508236289,0.0018111485987901,-0.0671451911330223,0.99773371219635,-0.0182782289110931,-0.0054914314935119,-0.182004476428742,-0.0598835349082946,-0.3111187219619751,-0.4461650848388672,57,84,16439,13834
23.6,1788185751568,5.408450603485107,4.760563373565674,-0.0046194437891244,-0.0005781039362773,0.5723862051963806,0.819970965385437,0.173196507431681,-0.0015304695646157,0.0001009365092671,-0.0028492780402302,-0.0013835118152201,-0.1697826534509658,-0.0039335852488875,0.00260023586452,-0.075605571269989,0.9971266984939576,0.0035340921189576,0.0352605845088511,-0.1525972872854764,0.0282950401306152,0.2086666226387024,0.8460102081298828,27,163,14938,15292
23.7,1788185751668,5.126760482788086,4.873239517211914,-0.0046857013367116,-0.0005242523038759,0.5669968128204346,0.8237064480781555,0.180558723210012,-0.0044678405299517,6.812734212206482e-05,-0.0027846635784953,-0.0103412494063377,-0.1028853580355644,-0.0041272593662142,0.0024100774899125,-0.081555537879467,0.996657371520996,-0.0101972239970868,-0.0137998330565258,-0.0356045429710348,-0.1243428587913513,0.012158989906311,0.6290006637573242,49,71,15590,15040
23.8,1788185751768,5.211267471313477,4.929577350616455,-0.0046239681541919,-0.0011978647671639,0.564486563205719,0.8254284262657166,0.1777461660865066,-0.0045529671793354,6.0002090702714544e-05,-0.0058396873064339,-0.0150183402001857,-0.0639915615320205,-0.0043523171916604,0.0019423533231019,-0.0837377160787582,0.9964764714241028,-0.0103126497782789,-0.0285680353192117,-0.0679204007673639,-0.1519396305084228,0.1629038453102111,-1.024693489074707,42,104,15384,14887
23.9,1788185751868,4.8450703620910645,5.323943614959717,-0.0043621407821774,-0.0013653901405632,0.5631256699562073,0.8263586163520813,0.1796780037117023,-0.0014287138600087,-3.024223835713421e-07,0.0029652544762939,-0.0136838518083095,-0.0199336111545562,-0.004485092125833,0.0019027385860681,-0.0853116810321807,0.9963424205780028,-0.013560042771529,0.0157167005262453,0.0162861239900339,0.0920022130012512,0.073156714439392,0.4326677322387695,50,122,14348,15732
24.0,1788185751968,5.070422649383545,5.183098793029785,-0.0048879026435315,-0.0011718802852556,0.5635389685630798,0.8260741829872131,0.1836140011176275,0.005686449676814,-6.810853662703734e-05,-0.0130339069291949,0.0181333385407924,0.0201095547527074,-0.0042992532253265,0.0025429353117942,-0.0833456441760063,0.9965081810951232,0.0146039859220109,0.0274608673372288,0.0516946011575439,-0.042305588722229,0.0541857481002807,-0.3852567672729492,53,58,15569,14016
24.1,1788185752068,5.070422649383545,5.070422649383545,-0.004815315362066,-0.0006658955244347,0.5654407143592834,0.8247745037078857,0.1715836765128289,-0.0005702578778137,-1.0598126478833823e-06,0.004440663382411,0.0002077952667605,0.0223835445940494,-0.0040416391566395,0.0018152575939893,-0.0826670303940773,0.9965673685073853,0.0018382457333772,-0.0132280764013069,0.0007999773940716,0.213742196559906,0.0212818980216979,-0.8800210952758789,69,93,15104,15078
24.2,1788185752168,5.267605781555176,4.929577350616455,-0.0045877457596361,-0.0010806166101247,0.564224898815155,0.8256076574325562,0.1790369082941235,0.000268082014299,-3.476105913353988e-05,-0.0052124713547527,0.0031833869870752,-0.0406600199639797,-0.0041472166776657,0.0018907692283391,-0.0847281590104103,0.9963936805725098,0.0128907842508631,-0.0173136025777105,-0.0512955116867947,-0.0135784149169921,-0.0108518600463867,-0.3908004760742187,65,72,15515,14554
24.3,1788185752268,5.070422649383545,4.901408672332764,-0.0044138417579233,-0.001051060273312,0.562640905380249,0.8266889452934265,0.1813932355797937,0.000954654764224,-2.19738746217547e-06,0.0036558462306857,0.0009886756306514,-0.0368620306253433,-0.0041307117789983,0.0019678436219692,-0.0867018699645996,0.9962238669395448,-0.0061749847801705,0.0042414151790041,-0.0258548937833658,-0.0098966360092163,0.1584953069686889,0.312204360961914,51,70,14918,15536
24.4,1788185752368,5.098591327667236,5.295774459838867,-0.0068638678640127,-0.0006678130012005,0.5610537528991699,0.8277506232261658,0.1758643216664438,0.002045050037652,-0.0002900853656688,-0.0506506226956844,0.0571387223899364,-0.0377068258821964,-0.0045008258894085,0.0024108057841658,-0.0873660147190094,0.9961631894111632,0.0820632631928497,-0.0782276310114463,0.0416610469473364,0.0371636152267456,-0.1948302388191223,0.8156747817993164,61,49,14847,14451
24.5,1788185752468,5.098591327667236,4.985915660858154,-0.0046772304922342,-0.0011498478706926,0.5621564984321594,0.8270168304443359,0.182174318421499,0.0015825059714432,-5.970638107640561e-07,2.5609756093558644e-08,1.8625277320438727e-08,0.0,-0.0042602280154824,0.0022108601406216,-0.0868707001209259,0.9962080717086792,0.0018553711310194,0.0153649849738394,-0.0351646819647574,-0.0353781580924987,-0.098618745803833,-0.6337366104125977,44,42,14734,14915
24.6,1788185752568,5.098591327667236,5.183098793029785,-0.0043868348002433,-0.0016010225517675,0.5609526634216309,0.8278347253799438,0.1738668590266611,-0.0001575722309962,1.9987416477076635e-05,-0.0024401640985161,-0.0055953194387257,-0.0219750329852104,-0.0044691590592265,0.0013478137552738,-0.0881452336907386,0.996096670627594,-0.0019753887323259,-0.0304863511144689,0.0003948983124779,0.1360419988632202,-0.124351680278778,0.5631656646728516,65,95,15054,15017
24.7,1788185752668,5.042253494262695,5.126760482788086,-0.0041648088954389,-0.0016201185062527,0.5614877343177795,0.8274730443954468,0.1791375842106809,-0.0052245072207796,1.2442558552013816e-05,0.0086136003956198,-0.0071605229750275,0.0322655737400054,-0.0043256180360913,0.0012833354994654,-0.0871639549732208,0.9961837530136108,-0.0082492509894603,-0.0069624958941269,0.0132869040463057,0.0899707078933715,-0.0405400991439819,1.3450403213500977,84,91,15352,15692
24.8,1788185752768,5.126760482788086,5.098591327667236,-0.0041648088954389,-0.0016201185062527,0.5614877343177795,0.8274730443954468,0.1845776595130939,-0.0010767675949115,2.68114094920279e-08,0.0,0.0,0.0,-0.0041845748201012,0.000922268256545,-0.0871584489941597,0.996185302734375,-0.00202487934431,-0.0094236646284357,-0.0043523835141157,0.0183928608894348,0.0051673054695129,-1.182291030883789,75,84,14862,15106
24.9,1788185752868,5.183098793029785,4.8450703620910645,-0.0038894219323992,-0.0018245633691549,0.5616840124130249,0.8273407220840454,0.1784347871996315,-0.0001983839703276,7.032422273381131e-05,0.0045099970884621,-0.0129818394780159,0.0094080902636051,-0.0039506424218416,0.0012205084785819,-0.086589515209198,0.996235489845276,-0.0075443413077586,-0.0040084438966456,0.0036442336346821,0.0392366051673889,-0.0284821391105651,0.001443862915039,80,56,15949,14738
25.0,1788185752968,5.267605781555176,4.760563373565674,-0.0039155757986009,-0.001570364809595,0.5596019625663757,0.828750729560852,0.1844238795262029,-0.0039491394844803,-1.6898298269321625e-05,-0.0061494084075093,-0.001437202678062,-0.074704922735691,-0.0042310701683163,0.0006683114916086,-0.0907034277915954,0.9958688020706176,-0.013315328216435,-0.0444150491835375,-0.0794713321654512,-0.004443347454071,0.0080407857894897,0.4358787536621094,67,66,15323,14961
25.1,1788185753068,5.098591327667236,4.957746505737305,-0.00386160495691,-0.0017716344445943,0.5577340126037598,0.8300088047981262,0.1774616573434495,0.0008480924992316,-8.624176476428603e-05,0.0039484202861785,0.0200305432081222,-0.0506589487195014,-0.0040342099964618,0.0007950011640787,-0.0926463678479194,0.9956905841827391,0.007147937221719,-0.0187314766746724,-0.0391821392690059,0.0787441730499267,-0.0505705475807189,-0.789454460144043,43,77,14859,15470
25.2,1788185753168,5.154929637908936,4.929577350616455,-0.0035267756320536,-0.0019597336649894,0.5565484762191772,0.8308053016662598,0.1809117260785007,-0.0026305463354198,5.150420636115764e-07,0.0032785120420157,-0.000330545095494,-0.0248351115733385,-0.0041407328099012,0.000654449686408,-0.0949062928557396,0.9954774379730223,0.0029745850524837,-0.0050518396319284,-0.0509407378739193,-0.2052288651466369,-0.3577969074249267,1.4363021850585938,37,77,14669,15436
25.3,1788185753268,5.070422649383545,5.239436626434326,-0.0036331678275018,-0.0020991719793528,0.5553616285324097,0.8315983414649963,0.1724827087506139,-0.0009277355032945,-2.81004964265256e-07,0.0,0.0,0.0,-0.0037865601480007,0.0013714171946048,-0.0938877612352371,0.995574712753296,-0.0021199399805128,0.0185115463100816,0.0254025886922312,0.1556282043457031,0.2383280396461486,-0.9360427856445312,82,80,15029,14619
25.4,1788185753368,4.929577350616455,5.267605781555176,-0.0034689779859036,-0.0015144764911383,0.556150496006012,0.831072986125946,0.1849047985895507,-0.0031247761138857,-1.2250352282160984e-05,0.006956523284316,0.0022040565963834,0.0174155682325363,-0.0037915557622909,0.0013280911371111,-0.093598797917366,0.9956018924713136,-0.0121468880536934,0.002149921172247,0.0086778133798892,-0.086520254611969,-0.0249409079551696,-0.0678815841674804,59,88,15035,14757
25.5,1788185753468,4.8450703620910645,5.239436626434326,-0.0036484338343143,-0.0013518442865461,0.5571372509002686,0.8304113745689392,0.1736321656205426,0.0002379023581087,3.90822260111463e-08,0.0065505965612828,-0.0058214329183101,0.0336127020418643,-0.0036459937691688,0.0014138668775558,-0.091733418405056,0.9957759380340576,-0.000992792065921,0.0125285285289308,0.0481118120454313,0.1405010819435119,0.0664265751838684,0.2738485336303711,56,118,14601,15781
25.6,1788185753568,5.098591327667236,4.8450703620910645,-0.0046574715524911,-0.0011369757121428,0.5592264533042908,0.8290010690689087,0.1779865498824114,-0.0026413386324511,-1.5573608480552136e-05,-0.0318899899721145,0.0193527359515428,0.0385188050568103,-0.0054538371041417,0.0032268008217215,-0.0908645913004875,0.9958430528640748,-0.1100479754197104,0.085937788693551,-0.0615457839905543,0.3827650547027588,-0.3171635270118713,0.5384044647216797,95,128,15618,16041
25.7,1788185753668,5.070422649383545,5.211267471313477,-0.0042189476080238,-0.0016152085736393,0.5585474967956543,0.8294601440429688,0.1944458193446274,-0.0063092549497753,0.0001957039789809,0.0670494809746742,-0.0753597021102905,0.0454703904688358,-0.0041410317644476,0.0019482150673866,-0.0893497169017791,0.9959897994995116,-0.0026490088678657,0.0207531941919764,0.0633166012288643,-0.36416757106781,-0.2561191320419311,-0.5532188415527344,59,50,14903,14401
25.8,1788185753768,3.549295663833618,4.676056385040283,-0.0049171671271324,-0.0007206905866041,0.5589807629585266,0.8291657567024231,0.1734018005707337,-0.0043843182056075,1.0991888039582795e-07,-0.0038987006992101,0.0143926003947854,-0.0190344396978616,-0.0043339459225535,0.0028744144365191,-0.090993233025074,0.995837926864624,-0.0088925416645111,0.0266529864116225,-0.0582174536787234,-0.1661633253097534,0.3070473670959472,0.087651252746582,8,40,7676,13166
25.9,1788185753868,1.6901408433914185,4.2253522872924805,-0.0055108349770307,-0.0005706695374101,0.5616334080696106,0.8273676037788391,0.1266298651702153,0.0014011646541238,-6.785436075239045e-05,-0.0149522423744201,0.013034937903285,0.1826495826244354,-0.0046118274331092,0.0029518567025661,-0.085239253938198,0.9963454604148864,0.0008758625600691,-0.0177070918903896,0.2638819772767181,-0.7975112199783325,0.4462974071502685,-0.1659564971923828,63,68,1566,11850
26.0,1788185753968,-1.6619718074798584,3.070422649383545,-0.0053336885757744,-0.0009925672784447,0.5811774730682373,0.8137587308883667,0.0679677820389995,0.00294595519114,2.118075526495577e-06,-0.004687107168138,-0.0090847890824079,0.5588796734809875,-0.0046991473063826,0.0025942185893654,-0.0495291538536548,0.9987583160400392,0.0018998764518774,-0.0016604383454498,0.6059060385214692,-1.0672290325164795,0.3917611241340637,-0.1260604858398437,128,31,-9706,8605
26.1,1788185754068,-2.816901445388794,2.4788732528686523,-0.0054830387234687,-0.0008966475725173,0.609929084777832,0.7924365401268005,0.0059288255875601,0.0040387032662714,-2.3131311831902949e-07,-0.0060267150402069,0.0025994002353399,0.7690863609313965,-0.004747818224132,0.0026555676013231,-0.0178901627659797,0.9998252391815186,0.0050918868034897,-0.0158738039927734,0.7737303049968897,-0.2117214798927307,-0.2571572661399841,-0.1286306381225586,69,67,-10166,8375
26.2,1788185754168,-2.253521203994751,2.253521203994751,-0.0051586925983428,-0.0011244673514738,0.6442432403564453,0.7648024559020996,-0.0101729295470638,0.0035097256180831,-3.508498088100902e-06,-0.0023700636811554,-0.0119420476257801,0.7837520241737366,-0.0046409759670495,0.0023381635546684,0.0324489511549472,0.9994598627090454,0.0023531679815458,0.0045956266266643,0.7135060127402244,0.1486947536468505,-0.1277414560317993,0.0494871139526367,45,53,-8065,7492
26.3,1788185754268,-2.169013977050781,2.197183132171631,-0.004882754292339,-0.0012734194751828,0.6685305237770081,0.7436676025390625,0.0049746884701319,-0.0021133332391947,7.421934293104111e-07,-9.463845344725996e-05,-0.0126512879505753,0.6755874752998352,-0.0046920618042349,0.0019925022497773,0.0619902499020099,0.9980637431144714,-0.0079372186112671,-0.0034045408008801,0.6361588161054959,-0.0213635563850402,-0.096257746219635,-0.1918087005615234,76,74,-8415,7696
26.4,1788185754368,-2.253521203994751,2.3943662643432617,-0.0046968637034296,-0.001702680485323,0.6915854215621948,0.7222774028778076,-0.0054120277501075,0.0025003295800921,-2.593013548398213e-06,-0.0025289044715464,-0.0189312305301427,0.6827666759490967,-0.0047323973849415,0.001505859196186,0.0934377834200859,0.9956127405166626,-0.0024756241581108,-0.0117429114385509,0.7143376091518514,0.083739697933197,-0.0813843607902526,-0.6870136260986328,48,67,-7220,6320
26.5,1788185754468,-1.94366192817688,1.8591549396514893,-0.0046911654062569,-0.0017860229127109,0.7166866660118103,0.6973771452903748,0.0033081199598662,-0.0012223291794912,-3.565050354678608e-07,-0.0019591753371059,-0.0001290965010412,0.6415883898735046,-0.0047844098880887,0.0015831105411052,0.121759720146656,0.9925468564033508,-0.002872178778301,-0.0012223314098201,0.554995472294154,0.0434107780456543,-0.1188511252403259,0.040079116821289,63,57,-6659,6449
26.6,1788185754568,-1.8028168678283687,1.8309859037399288,-0.004939695354551,-0.0015341361286118,0.7332437038421631,0.67994624376297,-0.0014169347103685,8.060744022547484e-05,2.998525268632198e-07,-0.0003631032304838,0.0067891282960772,0.5182340145111084,-0.0047437194734811,0.0018982077017426,0.1528878659009933,0.9882304072380066,-0.0001127746413092,-2.898222387788937e-05,0.5332965794352933,-0.1438854932785034,0.0412136316299438,0.1063747406005859,83,65,-7697,6800
26.7,1788185754668,-1.9154930114746092,1.9154930114746092,-0.0045857429504394,-0.0016910389531403,0.7537035942077637,0.6571964025497437,0.0010372933122459,-0.0006451335880422,8.403424892650091e-07,0.0002340326755074,-0.0080707808956503,0.5762749314308167,-0.0046335505321621,0.0016314554959535,0.1787674576044082,0.9838790893554688,-0.0012108242134643,0.0008532134129856,0.606672297206665,0.0960686802864074,-0.0540060997009277,-0.0690059661865234,76,36,-7238,6464
26.8,1788185754768,-1.5492957830429075,1.5211267471313477,-0.0045223170891404,-0.0017677238211035,0.7724530696868896,0.6350532174110413,0.001041070262957,-3.667216859618126e-05,4.780109913670119e-07,-0.0021099811419844,-0.0070759984664618,0.5761375427246094,-0.0046811429783701,0.0012367563322186,0.2110719233751297,0.9774585366249084,-0.0054802653353078,-0.0106035572853727,0.4839851705955726,0.0474385619163513,-0.131158709526062,0.1334218978881836,60,45,-5984,5515
26.9,1788185754868,-1.4647886753082275,1.5211267471313477,-0.0044216001406311,-0.0019790395162999,0.7804581522941589,0.6251891851425171,0.0008870457380624,-0.0012650613619702,-5.465937429840823e-07,-0.0051963538862764,-0.0106401499360799,0.5087881088256836,-0.0046767033636569,0.0011145463213324,0.217581421136856,0.97603040933609,-0.0024777645586196,-0.0099187456752568,0.4440304890104637,0.0833147764205932,-0.0430495142936706,0.144723892211914,59,55,-6114,5635
27.0,1788185754968,-1.5774648189544678,1.6056338548660278,-0.0038037912454456,-0.0024996157735586,0.8025321364402771,0.596591591835022,-0.0003466398158958,0.0011498203931249,-4.167497567631341e-07,-0.0002864547423087,-0.0126372557133436,0.4633137881755829,-0.0044939862564206,0.0004713777452707,0.2506026923656463,0.9680794477462769,0.0026450624908981,-0.0025470868485578,0.4857982056847852,-0.008550226688385,-0.0814878940582275,0.325571060180664,25,33,-4666,4244
27.1,1788185755068,-1.211267590522766,1.183098554611206,-0.0035238235723227,-0.0025764470919966,0.8143129348754883,0.580409586429596,0.0019201964054489,-0.0020110876076088,-1.4547020314738414e-07,0.0010886010713875,-0.0087548708543181,0.4192686975002289,-0.004408461973071,0.0002634664997458,0.2738693058490753,0.9617567658424376,-0.0036020856705417,-0.0017456405747038,0.3539472194312025,0.0185775756835937,-0.1682226061820984,0.1475076675415039,33,70,-4963,4734
27.2,1788185755168,-1.0704225301742554,1.183098554611206,-0.0035295682027935,-0.0026625820901244,0.8233603239059448,0.5675017237663269,0.0012349130947772,-0.0018339141127452,-6.167656768145837e-07,-0.0022337823174893,-0.0054593509994447,0.3008527755737304,-0.0044513586908578,4.1066668927669525e-05,0.287070482969284,0.9578991532325744,-0.0035286822944825,-0.0091495322358173,0.3141786284681467,0.0286273956298828,0.0959377288818359,0.0822134017944336,78,82,-5546,5231
27.3,1788185755268,-1.0985915660858154,1.2394366264343262,-0.0034629076253622,-0.0028164470568299,0.8327512145042419,0.5536293983459473,0.0024485522700732,-0.0001517775364991,2.2413403070716707e-07,-0.0012789488537237,-0.0037566656246781,0.3460762500762939,-0.0043945414945483,-5.90132549405098e-05,0.302312970161438,0.9531986117362976,0.0021582950013472,-0.0043146381582199,0.3675085205705007,-0.0097189545631408,0.0467945337295532,0.0243616104125976,70,50,-5822,5185
