time_s,timestamp_ms,wheel_vels__velocity_left,wheel_vels__velocity_right,odom__orient_x,odom__orient_y,odom__orient_z,odom__orient_w,odom__lin_x,odom__lin_y,odom__lin_z,odom__ang_x,odom__ang_y,odom__ang_z,imu__orient_x,imu__orient_y,imu__orient_z,imu__orient_w,imu__angvel_x,imu__angvel_y,imu__angvel_z,imu__acc_x,imu__acc_y,imu__acc_z,wheel_status__current_ma_left,wheel_status__current_ma_right,wheel_status__pwm_left,wheel_status__pwm_right
0.0,1788342431401,0.0,0.0,-0.0054735764861106,0.0025087282992899,-0.5202733278274536,0.8539785742759705,0.0,0.0,0.0,0.0,-9.305548331894896e-09,0.0,-0.0048320731148123,-0.0034814588725566,0.455897718667984,0.890012264251709,-1.33069831908335e-05,-0.001823559462764,0.0006004762268517,-0.0151151418685913,0.0092297196388244,0.003662109375,0,0,0,0
0.1,1788342431501,0.0,0.0,-0.0054735764861106,0.0025087282992899,-0.5202733278274536,0.8539785742759705,0.0,0.0,0.0,0.0,-9.305548331894896e-09,0.0,-0.0048320731148123,-0.0034814588725566,0.455897718667984,0.890012264251709,-1.33069831908335e-05,-0.001823559462764,0.0006004762268517,-0.0151151418685913,0.0092297196388244,0.003662109375,0,0,0,0
0.2,1788342431601,0.0,0.0,-0.0054735764861106,0.0025087282992899,-0.5202733278274536,0.8539785742759705,0.0,0.0,0.0,0.0,-9.305548331894896e-09,0.0,-0.0048320731148123,-0.0034814588725566,0.455897718667984,0.890012264251709,-1.33069831908335e-05,-0.001823559462764,0.0006004762268517,-0.0151151418685913,0.0092297196388244,0.003662109375,0,0,0,0
0.3,1788342431701,0.0,0.0,-0.0054735764861106,0.0025087282992899,-0.5202733278274536,0.8539785742759705,0.0,0.0,0.0,0.0,-9.305548331894896e-09,0.0,-0.0048320731148123,-0.0034814588725566,0.455897718667984,0.890012264251709,-1.33069831908335e-05,-0.001823559462764,0.0006004762268517,-0.0151151418685913,0.0092297196388244,0.003662109375,0,0,0,0
0.4,1788342431801,0.0,0.0,-0.0054735764861106,0.0025087282992899,-0.5202733278274536,0.8539785742759705,0.0,0.0,0.0,0.0,-9.305548331894896e-09,0.0,-0.0048320731148123,-0.0034814588725566,0.455897718667984,0.890012264251709,-1.33069831908335e-05,-0.001823559462764,0.0006004762268517,-0.0151151418685913,0.0092297196388244,0.003662109375,0,0,0,0
0.5,1788342431901,0.0,0.0,-0.0054735764861106,0.0025087282992899,-0.5202733278274536,0.8539785742759705,0.0,0.0,0.0,0.0,-9.305548331894896e-09,0.0,-0.0048320731148123,-0.0034814588725566,0.455897718667984,0.890012264251709,-1.33069831908335e-05,-0.001823559462764,0.0006004762268517,-0.0151151418685913,0.0092297196388244,0.003662109375,0,0,0,0
0.6,1788342432001,0.0,0.0,-0.0054735764861106,0.0025087282992899,-0.5202733278274536,0.8539785742759705,0.0,0.0,0.0,0.0,-9.305548331894896e-09,0.0,-0.0048320731148123,-0.0034814588725566,0.455897718667984,0.890012264251709,-1.33069831908335e-05,-0.001823559462764,0.0006004762268517,-0.0151151418685913,0.0092297196388244,0.003662109375,0,0,0,0
0.7,1788342432101,0.0,0.0,-0.0054735764861106,0.0025087282992899,-0.5202733278274536,0.8539785742759705,0.0,0.0,0.0,0.0,-9.305548331894896e-09,0.0,-0.0048320731148123,-0.0034814588725566,0.455897718667984,0.890012264251709,-1.33069831908335e-05,-0.001823559462764,0.0006004762268517,-0.0151151418685913,0.0092297196388244,0.003662109375,0,0,0,0
0.8,1788342432201,0.0,0.0,-0.0054735764861106,0.0025087282992899,-0.5202733278274536,0.8539785742759705,0.0,0.0,0.0,0.0,-9.305548331894896e-09,0.0,-0.0048320731148123,-0.0034814588725566,0.455897718667984,0.890012264251709,-1.33069831908335e-05,-0.001823559462764,0.0006004762268517,-0.0151151418685913,0.0092297196388244,0.003662109375,0,0,0,0
0.9,1788342432301,0.0,0.0,-0.0054735764861106,0.0025087282992899,-0.5202733278274536,0.8539785742759705,0.0,0.0,0.0,0.0,-9.305548331894896e-09,0.0,-0.0048320731148123,-0.0034814588725566,0.455897718667984,0.890012264251709,-1.33069831908335e-05,-0.001823559462764,0.0006004762268517,-0.0151151418685913,0.0092297196388244,0.003662109375,0,0,0,0
1.0,1788342432401,0.0,0.0,-0.0054735764861106,0.0025087282992899,-0.5202733278274536,0.8539785742759705,0.0,0.0,0.0,0.0,-9.305548331894896e-09,0.0,-0.0048320731148123,-0.0034814588725566,0.455897718667984,0.890012264251709,-1.33069831908335e-05,-0.001823559462764,0.0006004762268517,-0.0151151418685913,0.0092297196388244,0.003662109375,0,0,0,0
1.1,1788342432501,0.0,0.0,-0.0054735764861106,0.0025087282992899,-0.5202733278274536,0.8539785742759705,0.0,0.0,0.0,0.0,-9.305548331894896e-09,0.0,-0.0048320731148123,-0.0034814588725566,0.455897718667984,0.890012264251709,-1.33069831908335e-05,-0.001823559462764,0.0006004762268517,-0.0151151418685913,0.0092297196388244,0.003662109375,0,0,0,0
1.2,1788342432601,0.0,0.0,-0.0054735764861106,0.0025087282992899,-0.5202733278274536,0.8539785742759705,0.0,0.0,0.0,0.0,-9.305548331894896e-09,0.0,-0.0048320731148123,-0.0034814588725566,0.455897718667984,0.890012264251709,-1.33069831908335e-05,-0.001823559462764,0.0006004762268517,-0.0151151418685913,0.0092297196388244,0.003662109375,0,0,0,0
1.3,1788342432701,0.0,0.0,-0.0054735764861106,0.0025087282992899,-0.5202733278274536,0.8539785742759705,0.0,0.0,0.0,0.0,-9.305548331894896e-09,0.0,-0.0048320731148123,-0.0034814588725566,0.455897718667984,0.890012264251709,-1.33069831908335e-05,-0.001823559462764,0.0006004762268517,-0.0151151418685913,0.0092297196388244,0.003662109375,0,0,0,0
1.4,1788342432801,0.0,0.0,-0.0054735764861106,0.0025087282992899,-0.5202733278274536,0.8539785742759705,0.0,0.0,0.0,0.0,-9.305548331894896e-09,0.0,-0.0048320731148123,-0.0034814588725566,0.455897718667984,0.890012264251709,-1.33069831908335e-05,-0.001823559462764,0.0006004762268517,-0.0151151418685913,0.0092297196388244,0.003662109375,0,0,0,0
1.5,1788342432901,0.0,0.0,-0.0054735764861106,0.0025087282992899,-0.5202733278274536,0.8539785742759705,0.0,0.0,0.0,0.0,-9.305548331894896e-09,0.0,-0.0048320731148123,-0.0034814588725566,0.455897718667984,0.890012264251709,-1.33069831908335e-05,-0.001823559462764,0.0006004762268517,-0.0151151418685913,0.0092297196388244,0.003662109375,0,0,0,0
1.6,1788342433001,0.0,0.0,-0.0054735764861106,0.0025087282992899,-0.5202733278274536,0.8539785742759705,0.0,0.0,0.0,0.0,-9.305548331894896e-09,0.0,-0.0048320731148123,-0.0034814588725566,0.455897718667984,0.890012264251709,-1.33069831908335e-05,-0.001823559462764,0.0006004762268517,-0.0151151418685913,0.0092297196388244,0.003662109375,0,0,0,0
1.7,1788342433101,0.0,0.0,-0.0054735764861106,0.0025087282992899,-0.5202733278274536,0.8539785742759705,0.0,0.0,0.0,0.0,-9.305548331894896e-09,0.0,-0.0048320731148123,-0.0034814588725566,0.455897718667984,0.890012264251709,-1.33069831908335e-05,-0.001823559462764,0.0006004762268517,-0.0151151418685913,0.0092297196388244,0.003662109375,0,0,0,0
1.8,1788342433201,0.0,0.0,-0.0054735764861106,0.0025087282992899,-0.5202733278274536,0.8539785742759705,0.0,0.0,0.0,0.0,-9.305548331894896e-09,0.0,-0.0048320731148123,-0.0034814588725566,0.455897718667984,0.890012264251709,-1.33069831908335e-05,-0.001823559462764,0.0006004762268517,-0.0151151418685913,0.0092297196388244,0.003662109375,0,0,0,0
1.9,1788342433301,0.0,0.0,-0.0054735764861106,0.0025087282992899,-0.5202733278274536,0.8539785742759705,0.0,0.0,0.0,0.0,-9.305548331894896e-09,0.0,-0.0048320731148123,-0.0034814588725566,0.455897718667984,0.890012264251709,-1.33069831908335e-05,-0.001823559462764,0.0006004762268517,-0.0151151418685913,0.0092297196388244,0.003662109375,0,0,0,0
2.0,1788342433401,0.0,0.0,-0.0054735764861106,0.0025087282992899,-0.5202733278274536,0.8539785742759705,0.0,0.0,0.0,0.0,-9.305548331894896e-09,0.0,-0.0048320731148123,-0.0034814588725566,0.455897718667984,0.890012264251709,-1.33069831908335e-05,-0.001823559462764,0.0006004762268517,-0.0151151418685913,0.0092297196388244,0.003662109375,0,0,0,0
2.1,1788342433501,0.0,0.0,-0.0054735764861106,0.0025087282992899,-0.5202733278274536,0.8539785742759705,0.0,0.0,0.0,0.0,-9.305548331894896e-09,0.0,-0.0048320731148123,-0.0034814588725566,0.455897718667984,0.890012264251709,-1.33069831908335e-05,-0.001823559462764,0.0006004762268517,-0.0151151418685913,0.0092297196388244,0.003662109375,0,0,0,0
2.2,1788342433601,0.0,0.0,-0.0054735764861106,0.0025087282992899,-0.5202733278274536,0.8539785742759705,0.0,0.0,0.0,0.0,-9.305548331894896e-09,0.0,-0.0048320731148123,-0.0034814588725566,0.455897718667984,0.890012264251709,-1.33069831908335e-05,-0.001823559462764,0.0006004762268517,-0.0151151418685913,0.0092297196388244,0.003662109375,0,0,0,0
2.3,1788342433701,0.0,0.0,-0.0054735764861106,0.0025087282992899,-0.5202733278274536,0.8539785742759705,0.0,0.0,0.0,0.0,-9.305548331894896e-09,0.0,-0.0048320731148123,-0.0034814588725566,0.455897718667984,0.890012264251709,-1.33069831908335e-05,-0.001823559462764,0.0006004762268517,-0.0151151418685913,0.0092297196388244,0.003662109375,0,0,0,0
2.4,1788342433801,0.0,0.0,-0.0054735764861106,0.0025087282992899,-0.5202733278274536,0.8539785742759705,0.0,0.0,0.0,0.0,-9.305548331894896e-09,0.0,-0.0048320731148123,-0.0034814588725566,0.455897718667984,0.890012264251709,-1.33069831908335e-05,-0.001823559462764,0.0006004762268517,-0.0151151418685913,0.0092297196388244,0.003662109375,0,0,0,0
2.5,1788342433901,0.0,0.0,-0.0054735764861106,0.0025087282992899,-0.5202733278274536,0.8539785742759705,0.0,0.0,0.0,0.0,-9.305548331894896e-09,0.0,-0.0048320731148123,-0.0034814588725566,0.455897718667984,0.890012264251709,-1.33069831908335e-05,-0.001823559462764,0.0006004762268517,-0.0151151418685913,0.0092297196388244,0.003662109375,0,0,0,0
2.6,1788342434001,0.0,0.0,-0.0054735764861106,0.0025087282992899,-0.5202733278274536,0.8539785742759705,0.0,0.0,0.0,0.0,-9.305548331894896e-09,0.0,-0.0048320731148123,-0.0034814588725566,0.455897718667984,0.890012264251709,-1.33069831908335e-05,-0.001823559462764,0.0006004762268517,-0.0151151418685913,0.0092297196388244,0.003662109375,0,0,0,0
2.7,1788342434101,0.0,0.0,-0.0054735764861106,0.0025087282992899,-0.5202733278274536,0.8539785742759705,0.0,0.0,0.0,0.0,-9.305548331894896e-09,0.0,-0.0048320731148123,-0.0034814588725566,0.455897718667984,0.890012264251709,-1.33069831908335e-05,-0.001823559462764,0.0006004762268517,-0.0151151418685913,0.0092297196388244,0.003662109375,0,0,0,0
2.8,1788342434201,0.0,0.0,-0.0054735764861106,0.0025087282992899,-0.5202733278274536,0.8539785742759705,0.0,0.0,0.0,0.0,-9.305548331894896e-09,0.0,-0.0048320731148123,-0.0034814588725566,0.455897718667984,0.890012264251709,-1.33069831908335e-05,-0.001823559462764,0.0006004762268517,-0.0151151418685913,0.0092297196388244,0.003662109375,0,0,0,0
2.9,1788342434301,0.0,0.0,-0.0054735764861106,0.0025087282992899,-0.5202733278274536,0.8539785742759705,0.0,0.0,0.0,0.0,-9.305548331894896e-09,0.0,-0.0048320731148123,-0.0034814588725566,0.455897718667984,0.890012264251709,-1.33069831908335e-05,-0.001823559462764,0.0006004762268517,-0.0151151418685913,0.0092297196388244,0.003662109375,0,0,0,0
3.0,1788342434401,0.0,0.0,-0.0054735764861106,0.0025087282992899,-0.5202733278274536,0.8539785742759705,0.0,0.0,0.0,0.0,-9.305548331894896e-09,0.0,-0.0048320731148123,-0.0034814588725566,0.455897718667984,0.890012264251709,-1.33069831908335e-05,-0.001823559462764,0.0006004762268517,-0.0151151418685913,0.0092297196388244,0.003662109375,0,0,0,0
3.1,1788342434501,0.0,0.0,-0.0054735764861106,0.0025087282992899,-0.5202733278274536,0.8539785742759705,0.0,0.0,0.0,0.0,-9.305548331894896e-09,0.0,-0.0048320731148123,-0.0034814588725566,0.455897718667984,0.890012264251709,-1.33069831908335e-05,-0.001823559462764,0.0006004762268517,-0.0151151418685913,0.0092297196388244,0.003662109375,0,0,0,0
3.2,1788342434601,0.0,0.0,-0.0054735764861106,0.0025087282992899,-0.5202733278274536,0.8539785742759705,0.0,0.0,0.0,0.0,-9.305548331894896e-09,0.0,-0.0048320731148123,-0.0034814588725566,0.455897718667984,0.890012264251709,-1.33069831908335e-05,-0.001823559462764,0.0006004762268517,-0.0151151418685913,0.0092297196388244,0.003662109375,0,0,0,0
3.3,1788342434701,0.0,0.0,-0.0054735764861106,0.0025087282992899,-0.5202733278274536,0.8539785742759705,0.0,0.0,0.0,0.0,-9.305548331894896e-09,0.0,-0.0048320731148123,-0.0034814588725566,0.455897718667984,0.890012264251709,-1.33069831908335e-05,-0.001823559462764,0.0006004762268517,-0.0151151418685913,0.0092297196388244,0.003662109375,0,0,0,0
3.4,1788342434801,0.0,0.0,-0.0054735764861106,0.0025087282992899,-0.5202733278274536,0.8539785742759705,0.0,0.0,0.0,0.0,-9.305548331894896e-09,0.0,-0.0048320731148123,-0.0034814588725566,0.455897718667984,0.890012264251709,-1.33069831908335e-05,-0.001823559462764,0.0006004762268517,-0.0151151418685913,0.0092297196388244,0.003662109375,0,0,0,0
3.5,1788342434901,0.0,0.0,-0.0054735764861106,0.0025087282992899,-0.5202733278274536,0.8539785742759705,0.0,0.0,0.0,0.0,-9.305548331894896e-09,0.0,-0.0048320731148123,-0.0034814588725566,0.455897718667984,0.890012264251709,-1.33069831908335e-05,-0.001823559462764,0.0006004762268517,-0.0151151418685913,0.0092297196388244,0.003662109375,0,0,0,0
3.6,1788342435001,0.0,0.0,-0.0054735764861106,0.0025087282992899,-0.5202733278274536,0.8539785742759705,0.0,0.0,0.0,0.0,-9.305548331894896e-09,0.0,-0.0048320731148123,-0.0034814588725566,0.455897718667984,0.890012264251709,-1.33069831908335e-05,-0.001823559462764,0.0006004762268517,-0.0151151418685913,0.0092297196388244,0.003662109375,0,0,0,0
3.7,1788342435101,0.0,0.0,-0.0054735764861106,0.0025087282992899,-0.5202733278274536,0.8539785742759705,0.0,0.0,0.0,0.0,-9.305548331894896e-09,0.0,-0.0048320731148123,-0.0034814588725566,0.455897718667984,0.890012264251709,-1.33069831908335e-05,-0.001823559462764,0.0006004762268517,-0.0151151418685913,0.0092297196388244,0.003662109375,0,0,0,0
3.8,1788342435201,0.0,0.0,-0.0054735764861106,0.0025087282992899,-0.5202733278274536,0.8539785742759705,0.0,0.0,0.0,0.0,-9.305548331894896e-09,0.0,-0.0048320731148123,-0.0034814588725566,0.455897718667984,0.890012264251709,-1.33069831908335e-05,-0.001823559462764,0.0006004762268517,-0.0151151418685913,0.0092297196388244,0.003662109375,0,0,0,0
3.9,1788342435301,0.0,0.0,-0.0054735764861106,0.0025087282992899,-0.5202733278274536,0.8539785742759705,0.0,0.0,0.0,0.0,-9.305548331894896e-09,0.0,-0.0048320731148123,-0.0034814588725566,0.455897718667984,0.890012264251709,-1.33069831908335e-05,-0.001823559462764,0.0006004762268517,-0.0151151418685913,0.0092297196388244,0.003662109375,0,0,0,0
4.0,1788342435401,0.0,0.0,-0.0054735764861106,0.0025087282992899,-0.5202733278274536,0.8539785742759705,0.0,0.0,0.0,0.0,-9.305548331894896e-09,0.0,-0.0048320731148123,-0.0034814588725566,0.455897718667984,0.890012264251709,-1.33069831908335e-05,-0.001823559462764,0.0006004762268517,-0.0151151418685913,0.0092297196388244,0.003662109375,0,0,0,0
4.1,1788342435501,0.0,0.0,-0.0054735764861106,0.0025087282992899,-0.5202733278274536,0.8539785742759705,0.0,0.0,0.0,0.0,-9.305548331894896e-09,0.0,-0.0048320731148123,-0.0034814588725566,0.455897718667984,0.890012264251709,-1.33069831908335e-05,-0.001823559462764,0.0006004762268517,-0.0151151418685913,0.0092297196388244,0.003662109375,0,0,0,0
4.2,1788342435601,0.0,0.0,-0.0054735764861106,0.0025087282992899,-0.5202733278274536,0.8539785742759705,0.0,0.0,0.0,0.0,-9.305548331894896e-09,0.0,-0.0048320731148123,-0.0034814588725566,0.455897718667984,0.890012264251709,-1.33069831908335e-05,-0.001823559462764,0.0006004762268517,-0.0151151418685913,0.0092297196388244,0.003662109375,0,0,0,0
4.3,1788342435701,0.0,0.0,-0.0054735764861106,0.0025087282992899,-0.5202733278274536,0.8539785742759705,0.0,0.0,0.0,0.0,-9.305548331894896e-09,0.0,-0.0048320731148123,-0.0034814588725566,0.455897718667984,0.890012264251709,-1.33069831908335e-05,-0.001823559462764,0.0006004762268517,-0.0151151418685913,0.0092297196388244,0.003662109375,0,0,0,0
4.4,1788342435801,0.0,0.0,-0.0054735764861106,0.0025087282992899,-0.5202733278274536,0.8539785742759705,0.0,0.0,0.0,0.0,-9.305548331894896e-09,0.0,-0.0048264944925904,-0.0034893369302153,0.4558966755867004,0.8900127410888672,-0.0004559773217196,-0.0012983987254446,-0.0006392845169931,-0.0063468217849731,0.0019641518592834,0.0215892791748046,0,0,0,0
4.5,1788342435901,0.0,0.0,-0.0054735764861106,0.0025087282992899,-0.5202733278274536,0.8539785742759705,0.0,0.0,0.0,0.0,-9.430082492656313e-09,0.0,-0.0048352107405662,-0.0034197140485048,0.4559303522109985,0.8899957537651062,0.0013117737884989,-7.299802997354778e-05,0.0020370455337392,-0.0068218111991882,0.0195161700248718,0.0090646743774414,0,0,0,0
4.6,1788342436001,0.0,0.0,-0.0054735764861106,0.0025087282992899,-0.5202733278274536,0.8539785742759705,0.0,0.0,0.0,0.0,-9.403136047581029e-09,0.0,-0.0048482455313205,-0.0034337965771555,0.4559379816055298,0.8899917006492615,-0.0008690835844585,-0.0003203779287864,0.0004155049460404,0.0271639227867126,-0.007100224494934,0.0179805755615234,0,0,0,0
4.7,1788342436101,0.0,0.0,-0.0054735764861106,0.0025087282992899,-0.5202733278274536,0.8539785742759705,0.0,0.0,0.0,0.0,-9.197641759328691e-09,0.0,-0.0048306556418538,-0.0034228051081299,0.4559474885463714,0.8899869322776794,0.0009750444111788,-0.0004188020172095,0.0006311402286061,-0.0087054371833801,-0.0182217359542846,0.0053033828735351,0,0,0,0
4.8,1788342436201,0.0,0.0,-0.0054735764861106,0.0025087282992899,-0.5202733278274536,0.8539785742759705,0.0,0.0,0.0,0.0,-1.002574290254188e-08,0.0,-0.0048306556418538,-0.0034228051081299,0.4559474885463714,0.8899869322776794,0.0009750444111788,-0.0004188020172095,0.0006311402286061,-0.0087054371833801,-0.0182217359542846,0.0053033828735351,0,0,0,0
4.9,1788342436301,0.0,0.0,-0.0054587400518357,0.0023443917743861,-0.520250141620636,0.85399329662323,2.2417363632074937e-05,-2.6048095411137343e-05,-5.359199833368652e-10,3.7151374272070825e-05,-0.0007696862448938,0.0002467439626343,-0.0048377318307757,-0.0034321639686822,0.4559605121612549,0.8899802565574646,6.348853746304857e-05,-6.375007910671711e-05,0.000413814123163,-0.0321220159530639,-0.0161174535751342,-0.0163021087646484,0,0,0,0
5.0,1788342436401,0.0,0.0,-0.0054814796894788,0.0023004030808806,-0.520246684551239,0.8539952635765076,3.797119763095506e-05,-4.417620370448285e-05,-2.3071474389187144e-10,-0.0002578849089331,-0.0010696741519495,0.0004215646185912,-0.0048203188925981,-0.0034791380167007,0.4559768438339233,0.8899718523025513,0.0002477972537745,-0.0013008081111886,0.0009563409723747,0.0189399123191833,-0.0035741925239562,0.0215282440185546,0,0,0,0
5.1,1788342436501,0.0,0.0,-0.0054897819645702,0.0022950004786252,-0.5202458500862122,0.8539958000183105,3.7527446199888087e-06,-4.249704614368225e-06,7.143002698292772e-10,-0.0001685515599092,-0.0003521745675243,3.757311424124055e-05,-0.0048252213746309,-0.0034320559352636,0.4559786319732666,0.8899709582328796,0.0008557245014691,-6.459359630489803e-05,0.0011524485061658,0.0018488764762878,0.0284144282341003,0.0234107971191406,0,0,0,0
5.2,1788342436601,0.0,0.0,-0.0054286932572722,0.0023518870584666,-0.5202391147613525,0.8540000915527344,3.3113398838720085e-06,-4.017303621263497e-06,-2.135102945048488e-09,0.0005258002202026,0.0020363184157758,6.288796430453658e-05,-0.0048264479264616,-0.0034335888922214,0.4559724926948547,0.8899741768836975,-0.0001146279159758,-4.879710891469526e-05,-0.0004412470085482,0.0018697381019592,0.0070129036903381,-0.0054149627685546,0,0,0,0
5.3,1788342436701,0.0,0.0,-0.0054087303578853,0.0023600284475833,-0.5202162861824036,0.8540141582489014,9.477507322280933e-05,-0.0001101216347798,1.2757670120014435e-10,0.0005233290139585,0.0007005091756582,0.0010960116051137,-0.0048268875107169,-0.0034306962043046,0.4559966623783111,0.889961838722229,0.0002290552947442,0.0015377132309407,0.0018677196468283,-0.0034511685371398,-0.0109484195709228,-0.0073003768920898,0,0,0,0
5.4,1788342436801,0.0,0.0,-0.0054250145331025,0.002321490086615,-0.520214319229126,0.8540153503417969,0.0001195631193865,-0.0001387198697024,1.873148506731676e-09,0.0012452900409698,0.0011008697329089,0.0013872314011678,-0.0048268875107169,-0.0034306962043046,0.4559966623783111,0.889961838722229,0.0002290552947442,0.0015377132309407,0.0018677196468283,-0.0034511685371398,-0.0109484195709228,-0.0073003768920898,0,0,0,0
5.5,1788342436901,0.0,0.0,-0.0054101864807307,0.0023348978720605,-0.5202292799949646,0.854006290435791,-3.949816062723741e-07,5.410534970958834e-07,1.129504582182237e-09,8.796178008196875e-05,0.0008031520992517,4.793149400939001e-06,-0.0048060966655611,-0.0033972142264246,0.4560046195983886,0.8899579048156738,0.0007293346318579,-0.0007000565486746,0.0011924857479122,-0.0012348890304565,-0.0241422057151794,-0.016341209411621,0,0,0,0
5.6,1788342437001,0.0,0.0,-0.0054274732246994,0.0022652228362858,-0.5202211737632751,0.8540112376213074,0.0,0.0,0.0,0.0,1.0797998051259585e-08,0.0,-0.0047690123319625,-0.0034237867221236,0.4559965431690216,0.8899622559547424,0.0011092124095224,-0.0004081443127917,0.0006100132077674,-0.0020639300346374,-0.031856894493103,0.0141553878784179,0,0,0,0
5.7,1788342437101,0.0,0.0,-0.0054274732246994,0.0022652228362858,-0.5202211737632751,0.8540112376213074,0.0,0.0,0.0,0.0,9.097758102427632e-09,0.0,-0.0047946982085704,-0.0034312792122364,0.4560146629810333,0.8899527788162231,-0.0010782841371611,0.0005161298803135,-0.0002986769542665,-0.0019615888595581,0.006354808807373,0.021489143371582,0,0,0,0
5.8,1788342437201,0.0,0.0,-0.0054066511802375,0.0022985481191426,-0.5201817750930786,0.8540353775024414,0.0001501150612914,-0.000174292695094,-5.209681908116167e-10,1.8203938452643342e-05,0.0014577502151951,0.0017356103053316,-0.0047672251239418,-0.0033808574080467,0.455998808145523,0.8899611234664917,0.0013096052263707,0.0008236565216818,-0.0022850874874428,-0.0012717247009277,-0.0034049153327941,-0.0162782669067382,0,0,0,0
5.9,1788342437301,0.0,0.0,-0.0053542684763669,0.0023327316157519,-0.5202379822731018,0.8540014028549194,-0.0002375747336515,0.0002757875479933,-2.0963514190240599e-10,0.0011112292995676,0.0023472364991903,-0.0026984496507793,-0.0047614714130759,-0.0033273370936512,0.4560028910636902,0.8899593353271484,0.0003871440655017,-0.0013852363731562,0.0004128546597855,0.0014228820800781,0.0140022039413452,-0.0216140747070312,0,0,0,0
6.0,1788342437401,0.0,0.0,-0.0053185475990176,0.0023345658555626,-0.5202291011810303,0.8540070056915283,3.709283232226941e-05,-4.282956758311139e-05,6.176924145612945e-10,0.0012099179439246,0.0008222534670494,0.0004330308001954,-0.0047771194949746,-0.0032991589978337,0.4560078382492065,0.8899568915367126,4.995248998596497e-05,0.0010123168263852,0.0015101997180501,0.0038151741027832,-0.0166334509849548,0.010594367980957,0,0,0,0
6.1,1788342437501,0.0,0.0,-0.0052936049178242,0.0023701167665421,-0.5202212333679199,0.8540118336677551,3.078554009554844e-05,-3.5799134214707017e-05,-3.1566254075583206e-10,0.0001113315520342,0.0017125280573964,0.0003749649913515,-0.0047901002690196,-0.003257468342781,0.4559798240661621,0.8899712562561035,0.0006321699253548,0.001501179643696,-0.0010760066969264,0.0064725875854492,0.003020167350769,-0.0001068115234375,0,0,0,0
6.2,1788342437601,0.0,0.0,-0.0052747153677046,0.0023906896822154,-0.5202135443687439,0.8540166616439819,0.0,0.0,0.0,1.6403244984530833e-08,4.3741987809653444e-08,-1.39974360990891e-06,-0.0047517251223325,-0.0032519940286874,0.4560211896896362,0.8899503350257874,0.0012885394960614,-0.0021751313207195,0.0002464724654933,-0.0117261409759521,0.0041069984436035,-0.001932144165039,0,0,0,0
6.3,1788342437701,0.0,0.0,-0.0052747153677046,0.0023906896822154,-0.5202135443687439,0.8540166616439819,0.0,0.0,0.0,0.0,0.0,0.0,-0.0047258753329515,-0.0032148519530892,0.456068217754364,0.8899264931678772,-0.0006151185523297,0.0009465642646289,0.0002403652640474,-0.0309963822364807,-0.0342081785202026,-0.0470247268676757,0,0,0,0
6.4,1788342437801,0.0,0.0,-0.0052747153677046,0.0023906896822154,-0.5202135443687439,0.8540166616439819,0.0,0.0,0.0,0.0,0.0,0.0,-0.0047469595447182,-0.0032100277021527,0.4560568630695343,0.8899322748184204,0.0007527358922918,0.0006622411371587,0.0006171661228007,0.0033321976661682,-0.0125430822372436,0.0087833404541015,0,0,0,0
6.5,1788342437901,0.0,0.0,-0.0052747153677046,0.0023906896822154,-0.5202135443687439,0.8540166616439819,0.0,0.0,0.0,0.0,0.0,0.0,-0.004767395555973,-0.0031540598720312,0.4560621380805969,0.8899296522140503,-0.0019192131681928,0.0012080113650058,-0.0011842011283814,0.000920832157135,0.0035282373428344,-0.0019416809082031,0,0,0,0
6.6,1788342438001,0.0,0.0,-0.0052242865785956,0.0024318569339811,-0.5201879143714905,0.8540324568748474,7.278402521719408e-05,-8.458631437337669e-05,-6.76321703258811e-10,0.0006105321226641,0.0017245386261492,0.000857169739902,-0.004811244085431,-0.003105154260993,0.4560535848140716,0.8899339437484741,0.000228046542555,0.0005021183098144,-0.0001043179280679,0.0021982789039611,0.0075474977493286,-0.0234832763671875,0,0,0,0
6.7,1788342438101,0.0,0.0,-0.0052242865785956,0.0024318569339811,-0.5201879143714905,0.8540324568748474,0.0,0.0,0.0,0.0,-1.5979278344957493e-08,0.0,-0.0048151314258575,-0.0031019551679491,0.4560426473617553,0.889939546585083,-0.0001345781715209,0.0003144265780481,-0.0008231172141722,-0.0246586799621582,-0.0103844404220581,-0.0199975967407226,0,0,0,0
6.8,1788342438201,0.0,0.0,-0.0052242865785956,0.0024318569339811,-0.5201879143714905,0.8540324568748474,0.0,0.0,0.0,0.0,-9.234584652517697e-09,0.0,-0.0048498949036002,-0.0031265718862414,0.4560474157333374,0.8899367451667786,0.000125811782175,0.0007477715103799,0.0009685340621562,0.0236677527427673,-0.0168614387512207,0.014164924621582,0,0,0,0
6.9,1788342438301,0.0,0.0,-0.0052242865785956,0.0024318569339811,-0.5201879143714905,0.8540324568748474,0.0,0.0,0.0,0.0,-9.116976507073105e-09,0.0,-0.0048088543117046,-0.0030847173184156,0.4560611546039581,0.8899301290512085,0.0003853893913295,0.0012500556201774,-0.0004856712787991,0.0006452798843383,0.0214690566062927,0.0394172668457031,0,0,0,0
7.0,1788342438401,0.0,0.0,-0.0052242865785956,0.0024318569339811,-0.5201879143714905,0.8540324568748474,0.0,0.0,0.0,0.0,-9.667934897095163e-09,0.0,-0.0048051811754703,-0.0030689537525177,0.4560640752315521,0.8899286389350891,0.0005345543825282,0.0006303615620861,0.0001705911679682,0.0188983678817749,-0.0396449565887451,-0.000319480895996,0,0,0,0
7.1,1788342438501,0.0,0.0,-0.0052242865785956,0.0024318569339811,-0.5201879143714905,0.8540324568748474,0.0,0.0,0.0,0.0,-7.63799956615685e-09,0.0,-0.0048082815483212,-0.0030289087444543,0.4560752511024475,0.889923095703125,0.0005481739396465,0.0013178934929226,0.0009392728431085,-0.0181056857109069,-0.0184162855148315,0.0068912506103515,0,0,0,0
7.2,1788342438601,0.0,0.0,-0.0052242865785956,0.0024318569339811,-0.5201879143714905,0.8540324568748474,0.0,0.0,0.0,0.0,-9.552538315915626e-09,0.0,-0.0048107132315635,-0.0030349837616086,0.4561028480529785,0.8899089097976685,-0.0005828815889882,-0.0013487515890685,0.0003145841154376,-0.0217816829681396,0.0337811112403869,0.0052976608276367,0,0,0,0
7.3,1788342438701,0.0,0.0,-0.0052242865785956,0.0024318569339811,-0.5201879143714905,0.8540324568748474,0.0,0.0,0.0,0.0,-1.178139363844366e-08,0.0,-0.004861463792622,-0.0030773608013987,0.4561238586902618,0.8898977637290955,-0.0015858873040641,-0.0010602530444488,2.742270185510333e-05,-0.0058783292770385,-0.0222980380058288,-0.0236406326293945,0,0,0,0
7.4,1788342438801,0.0,0.0,-0.0052242865785956,0.0024318569339811,-0.5201879143714905,0.8540324568748474,0.0,0.0,0.0,0.0,-1.5741097314503353e-08,0.0,-0.0048841191455721,-0.0030646221712231,0.4561363458633423,0.8898911476135254,0.0001944577796606,0.0002783225265146,0.0010711731844314,0.0124687552452087,0.0102206468582153,0.0016565322875976,0,0,0,0
7.5,1788342438901,0.0,0.0,-0.0052242865785956,0.0024318569339811,-0.5201879143714905,0.8540324568748474,0.0,0.0,0.0,0.0,-7.639083143828884e-09,0.0,-0.0048846527934074,-0.0030786432325839,0.4561193585395813,0.8898999691009521,-0.0012150052278254,0.0007826046834993,-0.0009683786227139,0.0139920115470886,-0.0130617022514343,0.0195236206054687,0,0,0,0
7.6,1788342439001,0.0,0.0,-0.0052242865785956,0.0024318569339811,-0.5201879143714905,0.8540324568748474,0.0,0.0,0.0,0.0,-9.289379931942676e-09,0.0,-0.0049119321629405,-0.0030035888776183,0.4561326801776886,0.8898932337760925,-0.0003190707464527,0.0019065723750818,-0.0011740926122591,0.0137555003166198,0.0262905955314636,0.012486457824707,0,0,0,0
7.7,1788342439101,0.0,0.0,-0.0052242865785956,0.0024318569339811,-0.5201879143714905,0.8540324568748474,0.0,0.0,0.0,0.0,-9.280753054952129e-09,0.0,-0.0049269339069724,-0.0029834136366844,0.4561250805854797,0.8898969888687134,0.0002187858417252,0.0002840653062026,0.0006065983030911,-0.0216241478919982,-0.0003730058670043,-0.0361652374267578,0,0,0,0
7.8,1788342439201,0.0,0.0,-0.0052242865785956,0.0024318569339811,-0.5201879143714905,0.8540324568748474,0.0,0.0,0.0,0.0,-1.5204774328481108e-08,0.0,-0.0049387132748961,-0.0029715625569224,0.4561298489570617,0.8898946046829224,-0.0006262686526205,0.0007778267478449,7.93424361912687e-05,0.0091561079025268,-0.0075892806053161,-0.000244140625,0,0,0,0
7.9,1788342439301,0.0,0.0,-0.0052242865785956,0.0024318569339811,-0.5201879143714905,0.8540324568748474,0.0,0.0,0.0,0.0,-7.604747942480117e-09,0.0,-0.0049464087933301,-0.0030187126249074,0.4560843110084533,0.8899176716804504,-0.0003128823786567,0.0013987737977576,-0.0015518034624214,0.0011938214302062,-0.0142159461975097,0.0015077590942382,0,0,0,0
8.0,1788342439401,0.0,0.0,-0.0051698945462703,0.0026236101984977,-0.5201265215873718,0.8540695309638977,0.0,0.0,0.0,0.0,-6.7420118377015115e-09,0.0,-0.0049057956784963,-0.003001851029694,0.4560943245887756,0.8899128437042236,0.0005790885186176,-0.0016637510393788,-0.000823025601343,-0.0097035765647888,0.0314970016479492,0.0339899063110351,0,0,0,0
8.1,1788342439501,0.0,0.0,-0.0051698945462703,0.0026236101984977,-0.5201265215873718,0.8540695309638977,0.0,0.0,0.0,0.0,-1.1980747949280612e-08,0.0,-0.0049121314659714,-0.0030146660283207,0.4561212360858917,0.8898990154266357,0.0009982260547669,-0.0016121422306403,0.0014239931589519,-0.0152238607406616,0.0156893730163574,0.0015792846679687,0,0,0,0
8.2,1788342439601,0.0,0.0,-0.0051698945462703,0.0026236101984977,-0.5201265215873718,0.8540695309638977,0.0,0.0,0.0,0.0,-9.29600307841838e-09,0.0,-0.0049496535211801,-0.0029838811606168,0.4561146795749664,0.8899022936820984,-0.0008407605158198,0.0027405944651025,0.0011520537282107,-0.0071914196014404,-0.0073314309120178,0.0158624649047851,0,0,0,0
8.3,1788342439701,0.0,0.0,-0.0051698945462703,0.0026236101984977,-0.5201265215873718,0.8540695309638977,0.0,0.0,0.0,0.0,-7.912367649964835e-09,0.0,-0.0050191860646009,-0.0029707988724112,0.456106573343277,0.889906108379364,-0.0004852396617168,0.0009861707505185,-0.0004551691220439,0.0044386386871337,-0.020548403263092,0.005040168762207,0,0,0,0
8.4,1788342439801,0.0,0.0,-0.0051698945462703,0.0026236101984977,-0.5201265215873718,0.8540695309638977,0.0,0.0,0.0,0.0,-9.156248204078564e-09,0.0,-0.004988326691091,-0.0030095810070633,0.4561216533184051,0.8898983597755432,4.095404570075117e-05,-0.0027494436971738,0.0007860879135687,-0.0108885765075683,0.0044233202934265,0.0015153884887695,0,0,0,0
8.5,1788342439901,0.0,0.0,-0.0051698945462703,0.0026236101984977,-0.5201265215873718,0.8540695309638977,0.0,0.0,0.0,0.0,-1.1779106579012932e-08,0.0,-0.0050326883792877,-0.0030545154586434,0.4561502039432525,0.889883279800415,-0.0014665064503173,0.0001819456727701,0.0017755554410778,-0.0166722536087036,0.0056100487709045,0.0015134811401367,0,0,0,0
8.6,1788342440001,0.0,0.0,-0.0051698945462703,0.0026236101984977,-0.5201265215873718,0.8540695309638977,0.0,0.0,0.0,0.0,-9.0764089577533e-09,0.0,-0.0050006937235593,-0.0030839014798402,0.4561582803726196,0.8898793458938599,0.0007465868353667,0.0004547290461504,-0.0002747624722124,-0.004892349243164,-0.0413304567337036,-0.0112428665161132,0,0,0,0
8.7,1788342440101,0.0,0.0,-0.0051698945462703,0.0026236101984977,-0.5201265215873718,0.8540695309638977,0.0,0.0,0.0,0.0,-1.187824505421986e-08,0.0,-0.0050402963533997,-0.003100567497313,0.4561716914176941,0.8898721933364868,-0.0009154927266089,-0.0002804291560945,0.0006592564319272,-0.0048109292984008,0.0081010460853576,-0.032607078552246,0,0,0,0
8.8,1788342440201,0.0,0.0,-0.0052557648159563,0.0026326517108827,-0.5200102925300598,0.8541396856307983,0.000462506574129,-0.0005369595582462,1.2131991286971041e-08,-0.0030422972049564,-0.0014717659214511,0.0052900118753314,-0.0049920678138732,-0.0031037349253892,0.456215500831604,0.8898499011993408,0.0007243356773222,-0.0024919801924321,0.0011031206386208,-0.0071646571159362,0.0250496268272399,0.017730712890625,0,0,0,0
8.9,1788342440301,0.0,0.0,-0.0052627343684434,0.0026687148492783,-0.5200170874595642,0.8541355729103088,-2.836857244605939e-05,3.2876456618712407e-05,-4.3922662742112596e-10,-0.0009936224669218,0.0010947593254968,-0.0003115792933385,-0.0050327153876423,-0.0031078830361366,0.4561874866485595,0.8898640871047974,-0.0006441821792907,-0.0007589197185106,-0.0007881987575318,-0.0032963156700134,-0.0352795124053955,0.0210828781127929,0,0,0,0
9.0,1788342440401,0.0,0.0,-0.0053438637405633,0.0026633401867002,-0.520035445690155,0.8541238903999329,-4.504545275698087e-05,5.224282459672866e-05,-2.3546816002888917e-10,-0.0018857927061617,-0.0003794772201217,-0.0005207934300415,-0.0051074288785457,-0.0031511597335338,0.4561720788478851,0.88987135887146,-0.0015760352790694,0.0008152678648215,-0.0004555731474833,0.025347888469696,0.0005648136138916,0.0158700942993164,0,0,0,0
9.1,1788342440501,0.0,0.0,-0.005404058843851,0.0026756699662655,-0.5200453996658325,0.8541172742843628,-2.6248376121759663e-05,3.050411974342527e-05,-4.179188180187988e-09,-0.0003627674595918,-0.0009145042276941,-0.0003115559811703,-0.0051066922023892,-0.0032142801210284,0.4561703503131866,0.8898720741271973,-0.0006822768640214,0.0002866269285014,-0.0017074605119018,0.0027233958244323,0.0102472305297851,-0.0218420028686523,0,0,0,0
9.2,1788342440601,0.0,0.0,-0.0054081217385828,0.0026879038196057,-0.5200687050819397,0.8541030883789062,-9.683959318218053e-05,0.0001126085370547,2.580751364795549e-09,-0.0004013418219983,0.0003464733890723,-0.001110294018872,-0.0050936574116349,-0.0031904745846986,0.4561711251735687,0.8898718357086182,0.0019920078282879,-0.0004819267229682,0.0014683332563109,-0.0185537934303283,0.0025689005851745,-0.0093421936035156,0,0,0,0
9.3,1788342440701,0.0,0.0,-0.0053801136091351,0.0026593687944114,-0.5200479030609131,0.8541160225868225,8.364930057120029e-05,-9.732951282501344e-05,-4.13761515157038e-09,0.0015252970624715,-0.0003915052511729,0.0009612930007278,-0.0050769094377756,-0.0031656809151172,0.4561733305454254,0.8898708820343018,0.0001144420032555,0.0006505888712344,0.0001014825224583,0.0032601952552795,0.0038047432899475,0.0014495849609375,0,0,0,0
9.4,1788342440801,0.0,0.0,-0.0053621116094291,0.0026483044493943,-0.5200409889221191,0.8541203737258911,-1.0229820753017772e-05,1.1823197984147863e-05,4.295954155568252e-10,0.0002064941945718,-0.0002426991413813,-0.0001178449965664,-0.0050580166280269,-0.0031961789354681,0.4561806619167328,0.8898670673370361,2.164958668284317e-05,-0.0012188105505168,-0.0004322466746198,-0.0028271079063415,0.0073736310005187,-0.0075368881225585,0,0,0,0
9.5,1788342440901,0.0,0.0,-0.0053486688993871,0.0026543282438069,-0.5200355052947998,0.8541238307952881,2.7914119183935908e-05,-3.2366642336559974e-05,4.825295487052831e-10,0.0004155023198109,0.0006017747800797,0.0003276300849393,-0.0050447899848222,-0.0031620953232049,0.4562041461467743,0.8898552060127258,0.0014443179421515,0.0002708553781775,0.0015075570256359,-0.009534478187561,0.0355735421180725,-0.0074472427368164,0,0,0,0
9.6,1788342441001,0.0,0.0,-0.0053775678388774,0.0026482348330318,-0.5200287103652954,0.8541277647018433,-1.578506028399084e-06,2.1644391874597423e-06,1.6752334963839687e-09,-0.0010378933511674,-9.484658221481368e-05,-1.4375798855326138e-05,-0.0050751753151416,-0.0032158140093088,0.4562055766582489,0.8898541331291199,-0.0008627911040288,-0.0007911431506091,0.0007830122502321,-0.0066418647766113,-0.0155720114707946,0.0103101730346679,0,0,0,0
9.7,1788342441101,0.0,0.0,-0.005388906225562,0.0026443109381943,-0.5200125575065613,0.8541375994682312,-9.23890489238512e-06,1.0509262543718317e-05,-1.1009319760743594e-09,-0.0001510053843958,0.0004553380131255,-0.0001042591611621,-0.005064052529633,-0.00319504737854,0.4562046229839325,0.8898548483848572,0.0005932436428238,2.5589354075033834e-05,0.0001168604272691,-0.0045455694198608,-0.0391751527786254,-0.0239295959472656,0,0,0,0
9.8,1788342441201,0.0,0.0,-0.0053692660294473,0.0026472471654415,-0.5200206637382507,0.8541327118873596,2.8147874078913927e-05,-3.261807323356617e-05,1.4095152392053156e-09,0.0008039039676077,-8.128865010803565e-05,0.0003210302675142,-0.0050723701715469,-0.0032128039747476,0.4561976194381714,0.8898581862449646,-0.0002892132854652,-8.065648350253568e-05,-0.0005153438020409,-0.0029987096786499,0.0042064189910888,-0.0183725357055664,0,0,0,0
9.9,1788342441301,0.0,1.7464789152145386,-0.0053722225129604,0.0026372498832643,-0.5200231671333313,0.8541312217712402,1.650938642621616e-05,-1.939791908781449e-05,-2.011845698581916e-09,0.0009642899385653,0.0001877503818832,0.0001915436732815,-0.0049995211884379,-0.0033229188993573,0.4566709697246551,0.8896154165267944,-0.0031904702656776,-0.0078720630835623,0.0396913919802388,1.244001865386963,0.1580766439437866,0.3793840408325195,236,104,7087,6386
10.0,1788342441401,2.7042253017425537,5.323943614959717,-0.0053548282012343,0.0026617716066539,-0.5161526203155518,0.8564757108688354,0.0696814150188373,-0.0001659065513987,5.155003683193186e-06,-0.0004562969261314,0.0055880220606923,0.1550541669130325,-0.0050734169781208,-0.0031484114006161,0.4647973179817199,0.8853970766067505,-0.0017412368724726,-0.0042574430975189,0.29144120415821,0.6383740305900574,0.2251694202423095,0.1705036163330078,136,203,10374,15434
10.1,1788342441501,4.11267614364624,6.985915660858154,-0.0054260296747088,0.0027802295517176,-0.5031514763832092,0.8641766905784607,0.1446045007202087,-0.0046248911261126,8.55399930752617e-06,-0.0036977881100028,-0.0027507899794727,0.3479411602020263,-0.0054018935188651,-0.0028709387406706,0.4856490194797516,0.8741325736045837,-0.0025903324232259,0.0089766891981529,0.4723980499197934,0.6332696080207825,0.3086109757423401,-0.147073745727539,132,215,12941,17077
10.2,1788342441601,4.11267614364624,6.985915660858154,-0.0053098513744771,0.0028965550009161,-0.4953266978263855,0.8686856627464294,0.1720361766876293,-0.0047473667569861,-1.5527417141107523e-05,0.0022289387416094,0.0051991553045809,0.4515635073184967,-0.0054018935188651,-0.0028709387406706,0.4856490194797516,0.8741325736045837,-0.0025903324232259,0.0089766891981529,0.4723980499197934,0.6332696080207825,0.3086109757423401,-0.147073745727539,132,215,12941,17077
10.3,1788342441701,4.11267614364624,6.985915660858154,-0.0053098513744771,0.0028965550009161,-0.4953266978263855,0.8686856627464294,0.1720361766876293,-0.0047473667569861,-1.5527417141107523e-05,0.0022289387416094,0.0051991553045809,0.4515635073184967,-0.0054018935188651,-0.0028709387406706,0.4856490194797516,0.8741325736045837,-0.0025903324232259,0.0089766891981529,0.4723980499197934,0.6332696080207825,0.3086109757423401,-0.147073745727539,132,215,12941,17077
10.4,1788342441801,4.11267614364624,6.985915660858154,-0.0049887555651366,0.0036144978366792,-0.4576267898082733,0.8891230821609497,0.1775159142018818,-0.0051221223683633,-3.5971147378408046e-05,-0.0065133171156048,-0.0018591661937534,0.4850367307662964,-0.0055245719850063,-0.0022830236703157,0.5305980443954468,0.8476025462150574,0.0069320237472829,0.0030971195747974,0.4690881347999559,-0.1939639449119568,0.1486715078353881,0.1349687576293945,132,215,12941,17077
10.5,1788342441901,2.366197109222412,4.169013977050781,-0.0049887555651366,0.0036144978366792,-0.4576267898082733,0.8891230821609497,0.1775159142018818,-0.0051221223683633,-3.5971147378408046e-05,-0.0065133171156048,-0.0018591661937534,0.4850367307662964,-0.0055245719850063,-0.0022830236703157,0.5305980443954468,0.8476025462150574,0.0069320237472829,0.0030971195747974,0.4690881347999559,-0.1939639449119568,0.1486715078353881,0.1349687576293945,132,215,12941,17077
10.6,1788342442001,2.366197109222412,4.169013977050781,-0.0042411088943481,0.0029794587753713,-0.4215940535068512,0.906769871711731,0.0400288603857198,0.0006408562892658,8.327439072973034e-07,0.002169877057895,-0.001666497439146,0.0993536338210105,-0.0055245719850063,-0.0022830236703157,0.5305980443954468,0.8476025462150574,0.0069320237472829,0.0030971195747974,0.4690881347999559,-0.1939639449119568,0.1486715078353881,0.1349687576293945,132,215,12941,17077
10.7,1788342442101,0.0,0.0,-0.0042411088943481,0.0029794587753713,-0.4215940535068512,0.906769871711731,0.0400288603857198,0.0006408562892658,8.327439072973034e-07,0.002169877057895,-0.001666497439146,0.0993536338210105,-0.0046229539439082,-0.0021752603352069,0.552786648273468,0.8333072066307068,-0.0016610006728516,-0.0038475119478109,-0.0142761415073854,0.2286710739135742,-0.1026591062545776,0.0320234298706054,0,0,0,0
10.8,1788342442201,0.0,0.0,-0.0042411088943481,0.0029794587753713,-0.4215940535068512,0.906769871711731,0.0400288603857198,0.0006408562892658,8.327439072973034e-07,0.002169877057895,-0.001666497439146,0.0993536338210105,-0.0046080397441983,-0.0021157786250114,0.5528969764709473,0.8332341909408569,-0.0002344428160421,-0.0021245116633518,-0.0019463968900629,0.0337436199188232,-0.0460025072097778,0.0140314102172851,0,0,0,0
10.9,1788342442301,0.0,0.0,-0.0041837785392999,0.0028158503118902,-0.4210988581180572,0.9070007801055908,0.0003235448508879,-0.0003757707515275,6.379742309982531e-10,0.0007316561532206,-0.0003352127678226,0.0037123202346265,-0.0045877434313297,-0.0020941887050867,0.5529963374137878,0.8331683874130249,0.0011464861624833,-0.000123528980845,0.0045137121562247,0.0643238425254821,0.057303249835968,0.0899133682250976,0,0,0,0
11.0,1788342442401,0.0,0.0,-0.0041858246549963,0.0028298674151301,-0.4211197197437286,0.9069910049438475,4.585351460286059e-05,-5.3218148530285847e-05,3.253411294466483e-10,-2.161557858926244e-05,-0.0001016491805785,0.0005241243634372,-0.0045946175232529,-0.0020966930314898,0.5529664754867554,0.8331881165504456,5.199427590559548e-06,-0.0006447482267523,2.728986100644633e-05,0.0535983443260192,-0.0358885526657104,0.0733671188354492,0,0,0,0
11.1,1788342442501,0.0,0.0,-0.0041713146492838,0.0027641833294183,-0.4211246371269226,0.9069889783859252,-3.327136516292373e-05,3.866710923511665e-05,5.798519654740281e-09,0.0011158414417877,-0.0018287763232365,-0.000394645932829,-0.0045371847227215,-0.002110575325787,0.5529726147651672,0.8331844806671143,7.652279781885592e-06,-0.0026281813228753,-0.00213077852604,0.0347936153411865,0.0262008905410766,0.0699892044067382,0,0,0,0
11.2,1788342442601,0.0,0.0,-0.004139432683587,0.0027566154021769,-0.4211163818836212,0.9069929122924804,4.166528003173292e-05,-4.8526545541433184e-05,-4.884055980615331e-10,2.910735747718718e-05,-0.0002770299615804,0.0004744031175505,-0.0045140646398067,-0.0020873546600341,0.5529804229736328,0.8331794738769531,0.0004045803061224,-0.000773222970831,0.0008349450648973,0.0116158127784729,-0.0048334002494812,0.0375022888183593,0,0,0,0
11.3,1788342442701,0.0,0.0,-0.004121861886233,0.0027763519901782,-0.4210838079452514,0.9070081114768982,0.000130682004652,-0.0001517121552109,1.351211179042757e-10,0.0007203797576949,0.0006358229438774,0.0015005856985226,-0.0045241946354508,-0.0020807739347219,0.5529983639717102,0.8331674337387085,-0.0014503377213847,-0.0012937030120856,0.0002922965828079,0.0244356393814086,-0.0100424289703369,0.0159473419189453,0,0,0,0
11.4,1788342442801,0.0,0.0,-0.0041400836780667,0.0027744374237954,-0.4210997223854065,0.9070006608963012,1.0468454286449654e-05,-1.1967956467270309e-05,9.243963598376913e-10,-0.001298164948821,-0.0008474598871544,0.0001109576915041,-0.0045144185423851,-0.0020868815481662,0.5530230402946472,0.83315110206604,0.000181205062823,-0.0004063754667838,0.0011279463410447,0.0134097933769226,-0.0120748281478881,0.0518465042114257,0,0,274,443
11.5,1788342442901,2.7323944568634038,5.239436626434326,-0.0042113186791539,0.0024263579398393,-0.4199162721633911,0.9075497984886168,0.010982475560352,-0.001562103544946,2.6307035115792157e-06,0.0024118646979331,-0.0104906857013702,0.0388197936117649,-0.0044547021389007,-0.0018323883414268,0.5613179802894592,0.8275861740112305,0.0057367062680503,0.0045742071648422,0.2168200539534927,0.747195839881897,-0.1628438234329223,-0.0573854446411132,188,258,11864,14236
11.6,1788342443001,2.7323944568634038,5.239436626434326,-0.0042113186791539,0.0024263579398393,-0.4199162721633911,0.9075497984886168,0.010982475560352,-0.001562103544946,2.6307035115792157e-06,0.0024118646979331,-0.0104906857013702,0.0388197936117649,-0.0039014657959342,-0.0019456865265965,0.5749403238296509,0.8181838393211365,0.0096270759614716,0.0020464746595848,0.3357527632214078,0.4551587700843811,0.0934533476829528,-0.1070823669433593,188,258,11864,14236
11.7,1788342443101,4.507042407989502,6.0,-0.0042113186791539,0.0024263579398393,-0.4199162721633911,0.9075497984886168,0.010982475560352,-0.001562103544946,2.6307035115792157e-06,0.0024118646979331,-0.0104906857013702,0.0388197936117649,-0.0039014657959342,-0.0019456865265965,0.5749403238296509,0.8181838393211365,0.0096270759614716,0.0020464746595848,0.3357527632214078,0.4551587700843811,0.0934533476829528,-0.1070823669433593,112,70,13417,17791
11.8,1788342443201,4.309859275817871,6.647887229919434,-0.0033411118201911,0.0020210589282214,-0.3818360269069671,0.9242218732833862,0.1734041925220196,-0.0006300551403573,2.528088203138832e-05,0.0106064667925238,-0.0038523904513567,0.258033812046051,-0.0034017460420727,-0.0017023850232362,0.5920707583427429,0.8058770895004272,0.0061879353926151,0.0047161347144269,0.2587280007176656,0.0167155861854553,0.1488418579101562,-0.09130859375,85,200,12591,14529
11.9,1788342443301,3.3521127700805664,4.704225540161133,-0.0030151065438985,0.0021613717544823,-0.3736614882946014,0.9275577664375304,0.1737843700807086,7.578889018304621e-05,-2.898980767819421e-05,0.0071242838166654,0.0064704292453825,0.259573221206665,-0.0034636724740266,-0.0012698536738753,0.601331889629364,0.7989908456802368,-0.0041300684911995,0.0151824129205152,0.2478930615963679,-0.9305105805397034,-0.1986599564552307,-0.0490188598632812,6,33,7297,12560
12.0,1788342443401,4.507042407989502,5.6619720458984375,-0.0029346148949116,0.0017032918985933,-0.3573075532913208,0.9339806437492372,0.1497462749155214,0.0028729226002253,1.4703032136960015e-05,0.0010430313413962,-0.0089868092909455,0.2668188512325287,-0.003054684959352,-0.0015024049207568,0.6154965162277222,0.7881321907043457,0.0044817580320327,-0.0425102566427043,0.2335044402481148,-0.3745270371437073,0.033701479434967,0.408823013305664,6,33,7297,12560
12.1,1788342443501,4.591549396514893,5.521126747131348,-0.0024767220020294,0.0025430577807128,-0.3452095687389374,0.9385188817977904,0.177754541022725,0.0032232514700456,1.916189527312052e-06,0.0065534370951354,0.0172986909747123,0.2562683820724487,-0.0032788543030619,-0.0010279845446348,0.6205922961235046,0.7841258645057678,0.0088257781246818,-0.0251885769911692,0.2570823087701044,-0.3126348853111267,-0.2861628532409668,-0.4095973968505859,112,101,11706,18295
12.2,1788342443601,4.197183132171631,5.830986022949219,-0.0026690368540585,0.0021726978011429,-0.3400235474109649,0.940410614013672,0.1751525448054421,-0.0018347789574045,0.0001287992608077,-0.0029051096644252,-0.0205085277557373,0.2622198164463043,-0.0035529071465134,-0.0010567773133516,0.6314742565155029,0.7753879427909851,-0.0052579902819854,0.0177935421060162,0.2432829907591162,-0.1085492372512817,0.0636754035949707,0.2925519943237304,126,69,12832,16961
12.3,1788342443701,4.11267614364624,6.478873252868652,-0.0026041287928819,0.0024559206794947,-0.3280935883522033,0.9446384310722352,0.1769028414898392,0.0020932111830585,-4.340687564885925e-05,0.0026237952988594,0.0089797740802168,0.2581741213798523,-0.0034204740077257,-0.0011506890878081,0.6385831236839294,0.7695444822311401,-0.0103043121565136,-0.0172452550633472,0.2576726026397076,0.0434842109680175,0.2943720817565918,0.2721014022827148,109,158,13221,14666
12.4,1788342443801,4.056337833404541,5.690140724182129,-0.002662228886038,0.0025093643926084,-0.3085555136203766,0.9511992931365968,0.1840591045032328,0.0005469276133175,9.277489675889615e-06,-0.0032487411517649,0.0047624385915696,0.2665851712226867,-0.003111015073955,-0.0009662406519055,0.6575498580932617,0.7534040212631226,0.0130912032721427,-0.0023719101410468,0.2788682231212158,0.0160585641860961,-0.2401859760284423,-0.4574947357177734,110,118,13227,17437
12.5,1788342443901,4.02816915512085,5.605633735656738,-0.0024687680415809,0.0018424168229103,-0.2959253787994385,0.9552060961723328,0.1698115538255388,0.0032192470268926,1.2105998179428536e-05,0.0138493152335286,-0.0147041548043489,0.2711078524589538,-0.003111015073955,-0.0009662406519055,0.6575498580932617,0.7534040212631226,0.0130912032721427,-0.0023719101410468,0.2788682231212158,0.0160585641860961,-0.2401859760284423,-0.4574947357177734,134,117,13019,17916
12.6,1788342444001,4.394366264343262,6.309859275817871,-0.0024691205471754,0.0019089700654149,-0.2847762703895569,0.9585888981819152,0.1727130423409515,-0.0025629509159998,3.729282276459004e-05,-0.0069793933071196,-0.005666172131896,0.2476917058229446,-0.0030212253332138,-0.0009087920188903,0.6718513369560242,0.7406793832778931,0.0027331059683724,0.0151755837460026,0.2690975787104792,-0.0283832550048828,-0.2634409070014953,-0.2223587036132812,134,83,12285,15523
12.7,1788342444101,4.253520965576172,6.366197109222412,-0.0025401888415217,0.0016887192614376,-0.276502400636673,0.961008369922638,0.1757996399627507,0.0008841648326125,-3.1415894957511524e-05,-0.0004498717898968,-0.0075772879645228,0.254713773727417,-0.0023857755586504,-0.0014862492680549,0.6819993257522583,0.731347382068634,0.0034704845660752,-0.0153934995941261,0.2571575158069639,-0.070076584815979,0.1677808165550232,0.1995754241943359,89,93,12631,15344
12.8,1788342444201,4.197183132171631,5.436619758605957,-0.0024671885184943,0.0011880041565746,-0.2653138935565948,0.9641581773757936,0.1721396406715121,0.0022777251529096,5.610472131765323e-05,0.0048410589806735,-0.0140104871243238,0.2549484372138977,-0.0023159207776188,-0.0012250104919075,0.6932282447814941,0.7207133173942566,0.012476993155201,-0.0004909955393298,0.2532722538509916,0.1277695894241333,-0.1072363853454589,-0.0275745391845703,117,137,12716,18607
12.9,1788342444301,4.394366264343262,5.88732385635376,-0.0026236914563924,0.0011178720742464,-0.2472905665636062,0.96893709897995,0.1744685832123367,-0.0004500458285026,1.606914695888235e-05,-0.0109302811324596,-0.0127348387613892,0.2366191148757934,-0.0025632409378886,-0.0015136357396841,0.6993865966796875,0.7147374153137207,-0.0075393577125205,0.0046831183123911,0.2467330431183315,-0.0591630339622497,-0.2469380497932434,-0.0984086990356445,110,134,13065,18670
13.0,1788342444401,4.422535419464111,6.676056385040283,-0.0026298149023205,0.001246563042514,-0.2420053035020828,0.970270574092865,0.1841551922243803,-0.0038832114058337,-3.7207856210345474e-05,-0.0019559524953365,0.0052504525519907,0.2654488682746887,-0.002261028625071,-0.0018983865156769,0.7029321193695068,0.711250901222229,-0.0029635623562375,-0.0250749725994115,0.249086379394047,0.3120947480201721,0.351351797580719,0.1110010147094726,122,181,12204,14388
13.1,1788342444501,4.309859275817871,5.7183098793029785,-0.0027809136081486,0.0013513704761862,-0.2360273450613021,0.9717414379119872,0.1702248550340286,0.0030578305843016,4.421009943715049e-05,-0.0069896010681986,0.0018939870642498,0.2451081126928329,-0.0030255913734436,-0.001609775237739,0.7138953804969788,0.7002439498901367,-0.0082615531644154,0.0112430632404425,0.279103229316485,-0.0029424428939819,0.1023440957069397,0.1958341598510742,102,195,12647,17678
13.2,1788342444601,4.309859275817871,5.7183098793029785,-0.0032634544186294,0.0021209607366472,-0.2090319246053695,0.9779011011123656,0.172882230783355,0.0030371277481035,2.1526697200179225e-05,-0.0029233105015009,0.0059261373244225,0.2601636350154876,-0.0037621771916747,-0.0016627172008156,0.7284345626831055,0.6851031184196472,-0.0065296463718169,0.0095306332658478,0.257642303923874,-0.0006937384605407,0.3947920203208923,0.1323823928833007,102,195,12647,17678
13.3,1788342444701,4.2253522872924805,6.366197109222412,-0.0036477115936577,0.002907880814746,-0.1969997733831405,0.9803924560546876,0.1756914230119263,0.0022045862915609,-4.720116251308276e-05,-0.0154781509190797,0.0193933714181184,0.253628522157669,-0.0044279703870415,-0.0015883035957813,0.7345467805862427,0.6785417795181274,-0.0042434527877595,0.0166065778457753,0.2697278864090469,0.0068864226341247,-0.1582913994789123,0.1823434829711914,103,97,12898,18061
13.4,1788342444801,4.450704097747803,6.394366264343262,-0.0037184595130383,0.0029566748999059,-0.185296818614006,0.9826711416244508,0.1768152598434894,-0.0022978636414637,-5.935324603832965e-05,6.651033618254587e-05,0.0038276922423392,0.2532880306243896,-0.0046702474355697,-0.0017391173169016,0.7430164813995361,0.6692546606063843,-0.018319630059879,0.0067741133786109,0.2657736952621038,0.0530057549476623,0.2124901413917541,-0.1555595397949218,85,119,12834,14976
13.5,1788342444901,4.056337833404541,6.619718074798584,-0.0040849950164556,0.0027803475968539,-0.1720778197050094,0.9850709438323976,0.1675783005583098,0.0042328647285467,5.259716212477654e-06,0.0021525286138057,-0.0177378915250301,0.274263858795166,-0.0042067738249897,-0.0018949108198285,0.7570551037788391,0.6533347964286804,0.0039351400438173,-0.019019533672339,0.3026278121590181,-0.1160814762115478,0.4545363783836365,0.1504783630371093,110,149,13231,14457
13.6,1788342445001,3.014084577560425,5.239436626434326,-0.0038338282611221,0.0025955892633646,-0.1638142466545105,0.9864803552627563,0.166087035449137,0.0089231699363215,-1.3626675788804722e-05,0.0088729402050375,-0.0059760576114058,0.2838991284370422,-0.0044862534850835,-0.0016752127557992,0.7630957961082458,0.6462675929069519,-0.0012655428372622,0.0126757725634524,0.3722580725588694,-0.6887290477752686,-0.0491854548454284,0.3291702270507812,82,186,11251,18456
13.7,1788342445101,3.014084577560425,5.239436626434326,-0.0038435389287769,0.0029135092627257,-0.1468559801578521,0.9891461133956908,0.1451851779623948,0.003245600802793,-3.165623451826932e-05,-0.003900404786691,0.0044523663818836,0.3241088390350342,-0.004464641213417,-0.0018018148839473,0.7736319303512573,0.6336169838905334,0.0066020001777204,-0.0187914211300686,0.3045579669325411,-0.7251810431480408,-0.1038932800292968,0.3073539733886719,82,186,11251,18456
13.8,1788342445201,-0.8169013857841492,0.3098591566085815,-0.0038519031368196,0.0027848149184137,-0.1293030977249145,0.9915937781333924,0.0137587513995905,-0.0003701605319513,1.0534926744164694e-06,-3.4622691600816324e-05,-0.0042396667413413,0.1892804056406021,-0.0041952570900321,-0.0019682636484503,0.7794464826583862,0.6264517307281494,0.0003623105628491,-0.0144557014239939,0.1692431314611149,0.2078089118003845,0.4542421102523803,-0.3304576873779297,161,101,-5089,5338
13.9,1788342445301,-1.0140844583511353,0.6197183132171631,-0.0038383626379072,0.0026908011641353,-0.1176610141992569,0.993042767047882,0.002235164750032,-0.0014079807516777,-1.0273157336891093e-07,0.0016171358292922,-0.0025469728279858,0.2346549034118652,-0.0042716199532151,-0.0018399013206362,0.7899501919746399,0.6131533980369568,0.000296261108002,-0.0028102382023378,0.2479033505122102,0.1163206696510315,-0.0103249549865722,-0.0252799987792968,33,97,-3966,5583
14.0,1788342445401,0.0,1.436619758605957,-0.0037438471335917,0.0026098240632563,-0.1053559854626655,0.9944241046905518,0.0044294644840909,-0.0014231272028027,2.9806044148512493e-08,0.0020622666925191,-0.0047342670150101,0.2568545937538147,-0.0040320688858628,-0.0018589794635772,0.7939771413803101,0.6079314947128296,0.0046393941537248,-0.0091857980692307,0.2650619152225696,0.8850902318954468,0.2379088401794433,0.0682783126831054,4,194,0,9662
14.1,1788342445501,2.3943662643432617,3.2676055431365967,-0.0036220157053321,0.0021102181635797,-0.0897620916366577,0.99595445394516,0.0732601113310488,0.0007979514968083,2.014181945882864e-05,0.0013271783245727,-0.0171783342957496,0.329371303319931,-0.0038331672549247,-0.0018498208373785,0.8003337979316711,0.599539577960968,0.0031820035720446,-0.0129039901011117,0.3541942569899055,0.9401237964630128,0.0618461370468139,0.2508373260498047,86,132,7169,11312
14.2,1788342445601,4.8450703620910645,5.521126747131348,-0.0034586240071803,0.0020475834608078,-0.0838126614689827,0.9964733719825744,0.1514929412338247,-0.0034798610570754,-2.0705519578153792e-05,0.0024448833428323,0.0058408547192811,0.086071066558361,-0.0035202642902731,-0.00195899233222,0.80575031042099,0.5922418236732483,-0.0078525126795724,0.007283536708516,0.0709485625595861,0.8305783271789551,0.386978268623352,0.1244401931762695,186,285,16607,15907
14.3,1788342445701,5.295774459838867,4.535211086273193,-0.0032912851311266,0.0021529991645365,-0.0823057815432548,0.9965993762016296,0.1851871455979757,-0.0003295245498404,1.4474028411567834e-05,0.0061730751767754,0.0045165512710809,0.0601478368043899,-0.0028594983741641,-0.0019447784870862,0.8049672245979309,0.593309223651886,-0.0011675520397571,-0.0010006579599235,-0.0945656567842912,0.1444576978683471,-0.0389117002487182,0.4594936370849609,107,97,15726,15480
14.4,1788342445801,5.267605781555176,5.211267471313477,-0.002989039523527,0.0011157935950905,-0.0867576897144317,0.9962243437767028,0.1826278774059145,0.0004727547442999,3.06767203258805e-05,0.0036552376113831,-0.0085774986073374,-0.0183523762971162,-0.0019014105200767,-0.0013494873419404,0.8029521107673645,0.5960389971733093,0.0337633827752443,-0.0061928180735733,-0.0307563295153307,0.2207397222518921,-0.2868648767471313,0.2987184524536133,100,162,15309,13193
14.5,1788342445901,5.126760482788086,5.323943614959717,-0.0021105350460857,0.0006822808645665,-0.088944062590599,0.9960342049598694,0.1707680240167693,-0.0017810573479269,-5.856233745553503e-06,0.0133384345099329,-0.0088058589026331,-0.0398824885487556,-0.0015691267326474,-0.00131481513381,0.8023169040679932,0.5968947410583496,0.0114684185728765,-0.0010672621219304,-0.0268940628105623,-0.1253922581672668,-0.1691760420799255,0.3059234619140625,88,132,14801,13682
14.6,1788342446001,5.154929637908936,5.267605781555176,-0.0020745324436575,0.0003571267006918,-0.0890953764319419,0.9960209131240844,0.1728816198658752,0.002288919933591,1.973255028391269e-05,8.127815090119839e-05,-0.0082575306296348,0.0067892451770603,-0.0015691267326474,-0.00131481513381,0.8023169040679932,0.5968947410583496,0.0114684185728765,-0.0010672621219304,-0.0268940628105623,-0.1253922581672668,-0.1691760420799255,0.3059234619140625,118,66,15260,15628
14.7,1788342446101,5.154929637908936,5.267605781555176,-0.0020745324436575,0.0003571267006918,-0.0890953764319419,0.9960209131240844,0.1707376312012695,-0.0043482389044785,3.44842904010156e-09,0.0,5.861871543721975e-10,0.0,-0.0015691267326474,-0.00131481513381,0.8023169040679932,0.5968947410583496,0.0114684185728765,-0.0010672621219304,-0.0268940628105623,-0.1253922581672668,-0.1691760420799255,0.3059234619140625,147,135,15868,15625
14.8,1788342446201,5.183098793029785,4.873239517211914,-0.0018948753131553,3.977093729190528e-05,-0.0927484035491943,0.9956877827644348,0.1709969797822431,0.00150405755467,1.2217215879728892e-05,-0.0049228025600314,-0.0011525758309289,-0.0709195435047149,-0.0009816009551286,-0.0013107685372233,0.7995849847793579,0.6005508303642273,0.0148175215347319,0.0108618114284284,-0.0412276213147249,-0.8937137722969055,-0.2348391413688659,-0.2844448089599609,147,171,15734,14236
14.9,1788342446301,0.98591548204422,1.6338027715682983,-0.0017778354231268,2.2976426407694817e-05,-0.0946549400687217,0.99550861120224,0.1004286889850062,0.0014020992326541,7.193520085378003e-06,0.0038140162359923,0.0009860137943178,-0.0603038147091865,-0.0008153831586241,-0.0016053076833486,0.7988080978393555,0.6015833020210266,-0.0042650586954376,-0.0012827821996177,-0.0420087674479988,-0.9809820055961608,-0.3265875577926636,-0.0316619873046875,147,171,15734,14236
15.0,1788342446401,0.2535211145877838,0.0,-0.0017778354231268,2.2976353648118675e-05,-0.0946549177169799,0.99550861120224,0.0666616132433294,-0.0010745509083775,-1.2395846676079367e-09,2.904466389619387e-10,-5.311024064980074e-09,1.0197165920544649e-06,-0.000555352307856,-0.0015294104814529,0.8001976013183594,0.5997342467308044,0.0014065163583201,0.0007318079193617,0.0527850699634964,-0.7399731874465942,-0.1409078240394592,0.0879383087158203,205,0,5437,0
15.1,1788342446501,0.0,0.0,-0.0017636067932471,-0.0008624495239928,-0.0985140651464462,0.9951336979866028,0.0016434656029705,0.0029188526657835,1.203789396394323e-06,-0.0036188361700624,-0.018983244895935,-0.1726707965135574,-0.0001200158149003,-0.0019847648218274,0.7958511710166931,0.6054890155792236,-0.0041400446425866,-0.0130553519564412,-0.2323677419576879,0.0901054143905639,0.0014424920082092,-0.0091753005981445,0,0,0,0
15.2,1788342446601,0.0,0.0,-0.0016737371915951,-0.0005539820995181,-0.0996721163392067,0.9950187802314758,0.000448215597064,0.0011434450264821,2.435978907604032e-07,0.0005252215196378,0.0070874486118555,0.0476273857057094,-0.0003662351518869,-0.0017883861437439,0.7961258888244629,0.6051283478736877,-0.0019689611505081,-0.006357402876697,-0.0144315648369976,0.1932242512702942,-0.0509493947029113,0.0338373184204101,0,5,0,0
15.3,1788342446701,0.0,0.0,-0.0016708235489204,-0.0005542704020626,-0.0996286198496818,0.9950231313705444,-0.0007603122400371,-0.0001040885340575,2.620545377789597e-10,0.0016582089010626,0.0031687701120972,-0.0012208300177007,-0.0004411293193697,-0.0017124908044934,0.7961161136627197,0.605141282081604,-0.0014516891069864,-0.0003699672558763,-0.0029393064467003,0.0211021900177001,-0.1643048524856567,0.0098114013671875,0,0,0,0
15.4,1788342446801,0.0,0.0,-0.0016953659942373,-0.0005107810720801,-0.0996086373925209,0.995025098323822,0.0002668084507388,0.000122004576126,-2.7976730616793275e-08,-0.0011431816965341,0.0016227748710662,0.0008010896854102,-0.0004441868513822,-0.0016672424972057,0.796136200428009,0.6051151156425476,0.0019925149751266,0.0010868198512612,0.0012381701090349,-0.0502023696899414,-0.0268185138702392,0.0461835861206054,0,0,0,0
15.5,1788342446901,0.0,0.0,-0.0016953659942373,-0.0005107810720801,-0.0996086597442627,0.995025098323822,-0.0002005543094468,-0.0002059205573931,2.6747633299764167e-10,-4.413002463454774e-10,5.884003284606364e-10,-9.037829045155376e-07,-0.0005070399492979,-0.0016728863120079,0.7962326407432556,0.6049879193305969,7.420509712234229e-05,0.0044562695122205,0.0082105082711308,0.3188798427581787,-0.0242957472801208,0.0736122131347656,100,87,3286,3286
15.6,1788342447001,2.619718313217163,2.901408433914185,-0.0017328086541965,-0.0007843992207199,-0.0997185781598091,0.9950137734413148,0.0933530270304424,0.0013361592649873,4.396174074077285e-05,-0.000307360838633,-0.0138182463124394,-0.0118701597675681,-0.000268924050033,-0.0020226836204528,0.7958207726478577,0.6055288910865784,-0.0029893826377474,-0.0086957427719717,-0.0056040619000364,1.0488430261611938,0.0024203658103942,0.3387088775634765,255,288,12907,11501
15.7,1788342447101,4.901408672332764,5.323943614959717,-0.0017328086541965,-0.0007843992207199,-0.0997185781598091,0.9950137734413148,0.0933530270304424,0.0013361592649873,4.396174074077285e-05,-0.000307360838633,-0.0138182463124394,-0.0118701597675681,-0.0003186278045177,-0.0019939010962843,0.7958117723464966,0.6055407524108887,-0.0004815658324718,0.0038093417230976,-0.0009877361327535,0.6279762387275696,-0.0115062594413757,0.262669563293457,209,196,17139,15196
15.8,1788342447201,4.901408672332764,5.323943614959717,-0.0014677573926746,-0.001371102174744,-0.0966491997241973,0.9953165054321288,0.1838165916873398,-0.0013091006682107,7.523791402404853e-05,0.0150508340448141,-0.0288696717470884,0.1327570378780365,0.0004273504018783,-0.0019369069486856,0.7987368106842041,0.6016773581504822,0.0102745202758925,-0.0108070515801231,0.112616995764467,0.0354900360107421,0.3102444410324096,0.0441036224365234,209,196,17139,15196
15.9,1788342447301,4.450704097747803,5.408450603485107,-0.0017147194594144,-0.0019547496922314,-0.0885678902268409,0.996066689491272,0.1770670391974509,0.006441268250663,1.5771065062315932e-05,-0.004252613056451,-0.0348209962248802,0.1623485088348388,0.0006979331374168,-0.0025951424613595,0.8039413094520569,0.5947026014328003,-0.0075240570189365,-0.0178729234003687,0.1516901052153412,0.2318611145019531,0.2109510898590088,0.24517822265625,112,54,14100,16539
16.0,1788342447401,4.394366264343262,6.197183132171631,-0.0018662109505385,-0.0022820611484348,-0.0798984691500663,0.9967986345291138,0.1764954829669378,-0.0023619940591957,-3.245570496687422e-05,-0.0003253023605793,-0.0053378585726022,0.1633437871932983,0.0011232895776629,-0.0028955349698662,0.8086278438568115,0.5883123874664307,-0.0001027444727089,-0.0223814505468397,0.1554238799138818,0.0570065379142761,0.0504987239837646,-0.0106725692749023,110,141,14093,13812
16.1,1788342447501,4.366197109222412,5.549295902252197,-0.0019076600437983,-0.0023094592615962,-0.0758154839277267,0.9971174001693726,0.1731729169273439,0.0023477844878405,-2.2336734598944925e-07,-0.0011655547423288,-0.0014966665767133,0.1633913218975067,0.0011878460645675,-0.0033453572541475,0.816643238067627,0.5771318674087524,-0.0032051172654338,-0.0197175295438765,0.2693265664173542,0.0668922066688537,0.1222363114356994,0.4656305313110351,137,34,14272,16038
16.2,1788342447601,4.366197109222412,5.549295902252197,-0.00212825788185,-0.0029718468431383,-0.0602474175393581,0.9981767535209656,0.1749524436862344,-0.0004299488080511,4.18998916251611e-05,0.0042661987245082,-0.0097855515778064,0.1646808683872223,0.0011878460645675,-0.0033453572541475,0.816643238067627,0.5771318674087524,-0.0032051172654338,-0.0197175295438765,0.2693265664173542,0.0668922066688537,0.1222363114356994,0.4656305313110351,137,34,14272,16038
16.3,1788342447701,4.478873252868652,5.802816867828369,-0.0022375273983925,-0.0031337677501142,-0.0559149384498596,0.9984281063079834,0.1688764772245956,0.0026639310721242,6.052192484237833e-05,-0.0024643565993756,-0.0050685289315879,0.1244938895106315,0.0018264288082718,-0.0039610806852579,0.8249080181121826,0.565250039100647,-0.0030912417540042,0.0002045205823015,0.1444634583664266,-0.0532528162002563,-0.1542457342147827,0.0100975036621093,95,101,13868,15172
16.4,1788342447801,4.478873252868652,5.802816867828369,-0.0023272482212632,-0.0038974729832261,-0.045465413480997,0.9989555478096008,0.173782722211505,0.0016532220870194,-4.081928560827791e-05,0.0032903137616813,0.0031380073633044,0.1593620777130127,0.0020272498950362,-0.0040204897522926,0.8296880125999451,0.558209240436554,-0.0028748459107098,0.0118207448918895,0.1389828738554571,-0.241890013217926,-0.1874883770942688,0.086984634399414,95,101,13868,15172
16.5,1788342447901,4.507042407989502,5.352112770080566,-0.0023994836956262,-0.0040905815549194,-0.0378847531974315,0.9992709159851074,0.1780791306125049,-0.0004831034928906,3.560265281570388e-05,-0.0006493279943242,-0.0073213237337768,0.1506264209747314,0.0022792583331465,-0.0041821990162134,0.8331652879714966,0.5530035495758057,0.0020571259995607,-0.0015286313287735,0.1579411640862537,0.0490288138389587,-0.0716594457626342,-0.0360584259033203,105,155,13988,16611
16.6,1788342448001,4.563380241394043,5.464788913726807,-0.0025798196438699,-0.0042850342579185,-0.0304976385086774,0.99952232837677,0.1774014426824472,-0.0010885766648112,2.0099452828848805e-05,-0.0056098042987287,-0.0084386495873332,0.1606629490852356,0.0020898720249533,-0.0045170038938522,0.8375895619392395,0.5462773442268372,-0.0080317122235749,0.0022731238917605,0.1608879070575013,-0.1972942948341369,-0.1052009463310241,0.0694704055786132,105,155,13988,16611
16.7,1788342448101,4.535211086273193,5.211267471313477,-0.0026096256915479,-0.0040270057506859,-0.0247316975146532,0.999682605266571,0.1775657094210806,0.0016497294506574,-3.493788429694828e-05,-0.0003599930787459,0.006970239803195,0.1656056046485901,0.0020262328907847,-0.0041850050911307,0.8424237370491028,0.538795530796051,0.0034230639650364,0.0028989342544138,0.1496569777686626,0.0086472034454345,-0.3291392922401428,0.2555904388427734,137,120,14087,16809
16.8,1788342448201,4.535211086273193,5.211267471313477,-0.0027328187134116,-0.0036856441292911,-0.0143602592870593,0.999886393547058,0.1719823085028416,0.0025870717199336,-3.8089004477306266e-06,-0.0086475824937224,0.0069271689280867,0.1364494264125824,0.0017892634496092,-0.0043564131483435,0.8446124792098999,0.5353575348854065,-0.0081041364711047,0.0031193689931966,0.1292867838349827,0.1133714914321899,-0.2138535976409912,0.2346134185791015,137,120,14087,16809
16.9,1788342448301,4.8450703620910645,5.77464771270752,-0.0024621586780995,-0.0032648283522576,-0.0062457281164824,0.99997216463089,0.1733761626562017,0.0024186214518531,-3.984367429247962e-05,0.0068229199387133,0.0097904931753873,0.1567201614379882,0.0014629215002059,-0.00339693762362,0.8514862656593323,0.5243639349937439,0.0063072221621769,0.0043942548147473,0.1116743747863297,0.3052793145179748,-0.2133173942565918,0.3227338790893554,173,116,15338,12508
17.0,1788342448401,4.957746505737305,4.732394218444824,-0.0021395199000835,-0.0030348149593919,-0.0020225627813488,0.9999911189079284,0.1703539103513332,4.979279948141137e-05,-1.1368566248301436e-05,0.001859362469986,0.0022585175465792,0.0426320657134056,0.0011995574459433,-0.0034214640036225,0.8516573905944824,0.5240865349769592,-0.0022726663168483,-0.0014379420262434,0.0213245188375441,0.3421918749809265,-0.1819387078285217,-0.0058116912841796,98,100,14679,16365
17.1,1788342448501,5.070422649383545,4.985915660858154,-0.0022944840602576,-0.0025330467615276,-0.0013884122017771,0.9999932050704956,0.1756713093547892,-0.0007905710070513,6.491512558344022e-09,-0.0062330910004675,0.0202349834144115,0.0257213450968265,0.0006053205579519,-0.0030042948201298,0.8522879481315613,0.5230639576911926,0.0021589725777301,0.0152223884182562,0.030365186693735,0.1767798662185669,0.1008466482162475,0.0417070388793945,135,47,16483,13365
17.2,1788342448601,5.408450603485107,4.309859275817871,-0.0019569501746445,-0.0011076773516833,-0.0033053422812372,0.9999920129776,0.1694374870940272,-0.0032964911188257,-5.366161335489551e-05,0.0041043353267014,0.0174050759524106,-0.0582696087658405,-0.0006854990497231,-0.0017878422513604,0.8496317267417908,0.5273731350898743,-0.0052110636512479,0.0191310923998204,-0.0571306942613949,0.0798333883285522,-0.0938798189163208,-0.2071809768676757,112,180,15412,13348
17.3,1788342448701,5.239436626434326,4.760563373565674,-0.0018237521871924,0.000133331734105,-0.0061664180830121,0.9999793171882628,0.1617426329191877,0.0011971054842682,-5.7992186890104185e-05,-0.0008344476227648,0.0296564437448978,-0.064422495663166,-0.0017106374725699,-0.0007213605567812,0.8479341268539429,0.5300984978675842,0.0070697216352419,0.0219162612663737,-0.0642334406458099,0.1670249700546264,0.0891655087471008,-0.1452875137329101,107,173,15585,14962
17.4,1788342448801,5.521126747131348,4.985915660858154,-0.0015985307982191,0.0013324043247848,-0.0092855393886566,0.999954640865326,0.1657824326482715,-0.0017771084395273,-7.784611084339414e-05,-0.0005579178687185,0.0273554567247629,-0.0695351287722587,-0.0023673744872212,-0.000630241818726,0.8469606637954712,0.5316500663757324,-0.0108935785768113,0.0245060030622568,-0.0738730999754212,-0.0514535903930664,-0.0503042936325073,0.1448593139648437,145,218,15508,15647
17.5,1788342448901,5.239436626434326,4.732394218444824,-0.0017749683465808,0.0016885359073057,-0.0103860972449183,0.9999431371688844,0.1751834494649777,-0.0006864500476142,-5.128603910832317e-05,-0.0085907913744449,0.0171659179031848,-0.0530167892575264,-0.003147411160171,-0.0002488549798727,0.8463290929794312,0.5326511263847351,-0.008288071713157,0.0152322027568106,-0.0174105349094806,-0.0039618015289306,-0.0517987012863159,0.0838956832885742,136,151,14298,15916
17.6,1788342449001,5.239436626434326,4.732394218444824,-0.0020019125659018,0.0032444999087601,-0.0132118184119462,0.9999054074287416,0.1783395751696644,0.0009111524353086,-1.3560359807202952e-05,-0.0121215209364891,0.0156477373093366,-0.0720258951187133,-0.0034012719988822,3.5002827644348145e-05,0.8462539911270142,0.5327687859535217,0.0104669252460306,0.0364068034022237,-0.0137747023690077,0.0660452842712402,-0.195817768573761,0.1032037734985351,136,151,14298,15916
17.7,1788342449101,5.126760482788086,5.267605781555176,-0.0020019125659018,0.0032444999087601,-0.0132118184119462,0.9999054074287416,0.1783395751696644,0.0009111524353086,-1.3560359807202952e-05,-0.0121215209364891,0.0156477373093366,-0.0720258951187133,-0.0057161496952176,0.0005073165521025,0.8442830443382263,0.5358668565750122,-0.0076354215238603,0.0233828602912491,-0.0147440770315355,0.1773081421852111,0.0594248175621032,0.0902547836303711,121,140,15108,14649
17.8,1788342449201,5.014084339141846,4.535211086273193,-0.0026394224260002,0.0055413702502846,-0.0169033519923686,0.9998382925987244,0.1645144387017706,-0.0051045095186982,-1.858827034890781e-05,-0.0033050540369004,0.0100854709744453,-0.0502988919615745,-0.0058641890063881,0.0005197320133447,0.8439010977745056,0.5364664196968079,-0.003372107018762,0.0068903359418179,-0.0366982218230039,0.1229875683784484,0.2027704119682312,-0.2702054977416992,124,58,16238,15141
17.9,1788342449301,4.901408672332764,4.760563373565674,-0.0030068436171859,0.0056006065569818,-0.0186946019530296,0.9998049736022948,0.1717253437602979,-9.334674554351908e-05,-2.0746950242319324e-06,-0.0115654682740569,0.0018686848925426,-0.0578524209558963,-0.0064027830958366,0.0003192061558365,0.8437594771385193,0.5366833209991455,0.0010800376809859,0.0004156795660433,0.0669466325009454,0.1365770101547241,-0.0049118399620056,0.0218334197998046,124,58,16238,15141
18.0,1788342449401,5.126760482788086,5.492957592010498,-0.0029560513794422,0.0054451930336654,-0.0151535859331488,0.9998659491539,0.1730664307137087,0.0042288859650003,1.0402646476653436e-05,0.0070576560683548,-0.0075220083817839,0.0703718513250351,-0.0064027830958366,0.0003192061558365,0.8437594771385193,0.5366833209991455,0.0010800376809859,0.0004156795660433,0.0669466325009454,0.1365770101547241,-0.0049118399620056,0.0218334197998046,119,52,13511,13826
18.1,1788342449501,4.816901206970215,4.732394218444824,-0.003017108887434,0.0048441514372825,-0.0125593086704611,0.9999048709869384,0.16415195881942,0.002851317674263,8.9933740114675e-06,0.0041848034597933,-0.0124728940427303,0.0595722422003746,-0.0051103578880429,-6.411317735910416e-05,0.8467645049095154,0.5319435000419617,0.0086068240143794,-0.0169442002752896,0.0496181447671648,-0.0932620167732238,-0.2101631164550781,0.0097150802612304,99,117,14839,16351
18.2,1788342449601,4.816901206970215,4.732394218444824,-0.0025923028588294,0.0041272435337305,-0.0099594797939062,0.9999385476112366,0.1853783674242667,-0.0003674384634977,2.635902526262885e-05,0.0095218587666749,-0.0162830390036106,0.0530178099870681,-0.0046349661424756,-0.0004538754001259,0.8478206396102905,0.5302627086639404,-0.0032445710431539,-0.0218171626987232,0.0306809923291312,0.3562507033348083,-0.0712324976921081,0.195770263671875,99,117,14839,16351
18.3,1788342449701,4.760563373565674,5.830986022949219,-0.0027408208698034,0.0038853297010064,-0.0091234678402543,0.9999470710754396,0.1773306943557202,-0.0002717815937294,4.98443882810158e-06,-0.0049122022464871,-0.0080676656216382,0.0274245478212833,-0.0049960277974605,-0.0002534678205847,0.8481251001358032,0.5297724604606628,-0.0015539238175832,0.0272259799079455,0.0383228705386002,-0.2837782502174377,0.0430474281311035,0.0068578720092773,88,140,14843,12854
18.4,1788342449801,4.816901206970215,5.633802890777588,-0.0026271047536283,0.0032196713145822,-0.0059014363214373,0.9999739527702332,0.1680308366647213,0.0002888059643149,4.359756741168685e-05,0.0078360643237829,-0.0172783061861991,0.0632286146283149,-0.0037075150758028,-0.000633823685348,0.8497824668884277,0.5271202325820923,0.0103079529075103,-0.0200788646213636,0.0521857570862311,0.0424914956092834,0.0161749124526977,0.4309015274047851,88,140,14843,12854
18.5,1788342449901,4.901408672332764,5.464788913726807,-0.0024786822032183,0.0028290527407079,-0.0050492575392127,0.9999802112579346,0.1734976817374859,0.0041070613037377,6.065804547207154e-05,0.0060158320702612,-0.0159338396042585,0.0346180535852909,-0.0030518062412738,-0.0007967548444867,0.8511292934417725,0.5249467492103577,0.0027065548002058,-0.0027227852337191,0.0409374040165494,-0.0970911383628845,0.0420609712600708,0.0984945297241211,113,184,14456,14245
18.6,1788342450001,4.8450703620910645,5.77464771270752,-0.0019347870256751,0.0018316206987947,-0.001479008118622,0.9999954104423524,0.1729859483274705,0.0019045627203402,2.543361789016835e-05,0.013863606378436,-0.0150669096037745,0.0455778017640113,-0.0024675857275724,-0.0005331924185156,0.8521772623062134,0.5232470631599426,0.0067515002100433,0.0086077179148274,0.0388858446553597,0.0776312947273254,-0.0878869295120239,-0.1209373474121093,109,156,14849,13183
18.7,1788342450101,4.816901206970215,5.183098793029785,-0.0017254961421713,0.0016671603079885,-0.000298554834444,0.999997079372406,0.1671544900417835,0.0022309665140191,8.0589933719485e-06,0.0090382304042577,-0.0072540217079222,0.0514517799019813,-0.0020101033151149,-0.0007145199924707,0.8534072637557983,0.5212403535842896,-0.0038905025706545,0.0062131986874918,0.0527020128628476,0.0482087731361389,0.3315587043762207,-0.0222711563110351,109,156,14849,13183
18.8,1788342450201,4.873239517211914,5.77464771270752,-0.0015196229796856,0.0009330365573987,0.0033197638113051,0.9999929666519164,0.1768940905462335,-0.000115787675138,0.0001270032561582,0.0046172998845577,-0.0130934603512287,0.0577982887625694,-0.0016078371554613,-0.0007908241823315,0.8543874025344849,0.5196335911750793,0.0040563437096912,-0.0110938821615489,0.0540157816924977,-0.1107427477836608,0.1956573724746704,-0.2292613983154297,155,161,14664,13324
18.9,1788342450301,4.985915660858154,4.788732528686523,-0.0018972052494063,0.0007974213222041,0.0062735867686569,0.999978244304657,0.1701145069885611,0.000151285779709,2.0495066545640247e-05,-0.0171730443835258,-0.0053347372449934,0.0577297024428844,-0.0016805734485387,-0.0014220532029867,0.8560594916343689,0.516872763633728,-0.0094615355845188,-0.0063605908893723,0.0258701031523481,-0.0710628032684326,0.1021265387535095,0.0486116409301757,163,44,14647,15362
19.0,1788342450401,4.985915660858154,4.8450703620910645,-0.0018972052494063,0.0007974213222041,0.0062735867686569,0.999978244304657,0.1701145069885611,0.000151285779709,2.0495066545640247e-05,-0.0171730443835258,-0.0053347372449934,0.0577297024428844,-0.0016138544306159,-0.0013945288956165,0.8571165204048157,0.5151181221008301,0.0040750711782253,0.0074795260932181,0.0498349167523169,-0.158189058303833,-0.2740912437438965,-0.1651124954223632,132,118,14402,16265
19.1,1788342450501,4.957746505737305,5.690140724182129,-0.0018972052494063,0.0007974213222041,0.0062735867686569,0.999978244304657,0.1701145069885611,0.000151285779709,2.0495066545640247e-05,-0.0171730443835258,-0.0053347372449934,0.0577297024428844,-0.0016138544306159,-0.0013945288956165,0.8571165204048157,0.5151181221008301,0.0040750711782253,0.0074795260932181,0.0498349167523169,-0.158189058303833,-0.2740912437438965,-0.1651124954223632,132,118,14402,16265
19.2,1788342450601,4.957746505737305,4.788732528686523,-0.0026566195301711,4.142612306168303e-05,0.0141823338344693,0.9998959302902222,0.1734487674316529,0.0007124382073562,4.059369655774643e-05,-0.0024320266675204,-0.0115382624790072,0.0553304217755794,-0.0014908155426383,-0.0023254239931702,0.8595144152641296,0.5111040472984314,-0.0072575801490193,-0.019261734103045,0.0501716229545578,-0.0681053400039672,0.0575994253158569,-0.0102624893188476,136,103,15386,15319
19.3,1788342450701,5.098591327667236,5.408450603485107,-0.0028261831030249,-0.0002052444906439,0.0145366201177239,0.9998903274536132,0.1677506458050817,-0.0015578062672755,-2.6652901630511755e-09,-0.0029920625966042,-0.0119580114260315,0.0061770225875079,-0.0013454016298055,-0.0025230487808585,0.8599337339401245,0.5103975534439087,-0.0038306801546624,-0.0100584091870622,0.0041493281617959,0.0191376209259033,-0.1411789655685424,0.2282094955444336,138,51,15003,13106
19.4,1788342450801,5.070422649383545,5.295774459838867,-0.0028261831030249,-0.0002052445197477,0.0145366257056593,0.9998903274536132,0.1688896755450277,5.812649910896799e-05,6.196852459281348e-09,2.7649091349779556e-11,0.0,1.1325067816869705e-07,-0.0009758900851011,-0.0024969484657049,0.8599713444709778,0.5103352665901184,0.0106593373104936,-0.0153883971623699,0.0036261111701995,0.1600147485733032,0.0019337534904479,0.1697902679443359,138,51,15003,13106
19.5,1788342450901,5.126760482788086,5.492957592010498,-0.002643076935783,-0.0004853144928347,0.0144409332424402,0.9998920559883118,0.1801537997707379,-0.0013903859707711,1.9581441046718744e-10,1.9018690622374382e-08,-1.6170480510169227e-09,4.515974296737113e-07,-0.0005135796964168,-0.0028153117746114,0.8595513701438904,0.5110412836074829,-0.0005777875501772,-0.020171543691177,-0.0062603346305667,0.004933476448059,-0.1425586938858032,0.0700397491455078,116,156,15082,16372
19.6,1788342451001,5.098591327667236,4.760563373565674,-0.0027182472404092,-0.0008005560957826,0.0138832768425345,0.9998996257781982,0.1716945394753105,-6.306761264592574e-05,7.56281760556693e-09,0.0,0.0,0.0,-0.0002542082220315,-0.0028130672872066,0.8594570755958557,0.5112000107765198,0.0055697055223635,-0.0091743232335912,-0.0076856494345489,0.1707295179367065,0.1095795631408691,0.0406122207641601,116,103,14957,15886
19.7,1788342451101,4.985915660858154,4.760563373565674,-0.0022873163688927,-0.0013141721719875,0.0135651063174009,0.9999045133590698,0.1744434092022874,0.0012015210210381,7.290000750253029e-05,0.0169648677110672,-0.0207768362015485,-0.0128162568435072,-4.799012094736099e-05,-0.002546701580286,0.8593405485153198,0.5113975405693054,0.0021423795804257,0.003549558663537,-0.0082890220764364,0.1164782643318176,0.1993987560272216,-0.0419988632202148,121,191,15348,15779
19.8,1788342451201,4.985915660858154,4.760563373565674,-0.0022873163688927,-0.0013141722884029,0.0135651007294654,0.9999045133590698,0.1753882845979801,-5.83078012124937e-05,2.9251973613215637e-09,-1.4796493197355431e-10,-1.0357544821815168e-09,-1.136370713084034e-07,-0.000107598491013,-0.0025272853672504,0.8591151237487793,0.5117760896682739,0.0048565129626639,0.0042558914016702,-0.0017685843647764,-0.0370225310325622,-0.0114080309867858,-0.014413833618164,121,191,15348,15779
19.9,1788342451301,5.098591327667236,4.704225540161133,-0.0022028954699635,-0.0011583529412746,0.013226680457592,0.9999094605445862,0.1682142701029481,0.001979011662634,-2.96664574582612e-05,0.0024323936086148,0.0043916520662605,-0.0095554590225219,-0.0006746938452124,-0.0019209636375308,0.8590484857559204,0.511890172958374,0.0027096453811589,0.013618465863878,-0.0057563132071995,-0.079399287700653,0.0303296446800231,0.2836236953735351,144,61,15041,15399
20.0,1788342451401,5.126760482788086,4.816901206970215,-0.0020203071180731,-0.0005191305535845,0.0129250762984156,0.999914288520813,0.1809158576391428,7.876970499513962e-05,-2.490527378296197e-09,0.0,1.0865286448336062e-09,0.0,-0.0006746938452124,-0.0019209636375308,0.8590484857559204,0.511890172958374,0.0027096453811589,0.013618465863878,-0.0057563132071995,-0.079399287700653,0.0303296446800231,0.2836236953735351,144,61,15041,15399
20.1,1788342451501,5.042253494262695,5.239436626434326,-0.0016367509961128,0.0004722628218587,0.0131085449829697,0.999912679195404,0.1682498625749433,-0.0013345102221615,-0.000181697384293,0.015499984845519,0.0385508239269256,0.0072441608645021,-0.0017036153003573,-0.001114428974688,0.8591940402984619,0.5116457939147949,-0.0043672039675603,0.0250850970063432,-0.0085742702338219,-0.3687773942947387,-0.0991877913475036,0.4244298934936523,116,73,14963,13829
20.2,1788342451601,2.816901445388794,4.309859275817871,-0.0019803182221949,0.0010637565283104,0.0133605385199189,0.9999082684516908,0.1560958951287444,0.0034994693410289,-2.505499484117873e-09,-0.0094079514965415,0.0132450945675373,0.0100367087870836,-0.0022814646363258,-0.0009498698636889,0.8598577380180359,0.5105276703834534,0.0019519419129317,0.0211153272088238,0.0635857947055617,-0.9221841096878052,0.098830759525299,-0.2939310073852539,15,78,5272,9231
20.3,1788342451701,0.0,2.309859037399292,-0.0021268846467137,0.0014655519044026,0.0216718167066574,0.9997618198394777,0.0764737529376721,0.0019096521345,-1.133628707352917e-05,-0.0022854341659694,0.0009068695362657,0.2484116405248642,-0.0025897966697812,-0.0010702572762966,0.8675724267959595,0.4973030686378479,-0.0063576889010345,0.0032733089735255,0.3771655266642751,-0.7527152895927429,0.0500233769416809,0.0401782989501953,15,78,5272,9231
20.4,1788342451801,-0.591549277305603,2.197183132171631,-0.0024873416405171,0.0019447924569249,0.0457981936633586,0.9989457130432128,0.0197428623681514,-0.0023270760173686,-2.7837140993275342e-06,-0.0084927193820476,0.0110915396362543,0.4796687662601471,-0.0028951866552233,-0.0010842615738511,0.8733493089675903,0.4870846569538116,-0.007578060052139,0.0097763222343118,0.4899389577895988,-0.2041343450546264,-0.0450303554534912,0.011784553527832,191,112,-7833,7229
20.5,1788342451901,-1.8309859037399288,1.8591549396514893,-0.0025771392975002,0.0020010382868349,0.0595041885972023,0.9982227683067322,-0.0085874940570247,-0.0020994334419205,5.820663124653676e-07,-0.0046352972276508,0.0011074282228946,0.5504194498062134,-0.0031244102865457,-0.0012129573151469,0.8933866024017334,0.4492763578891754,-0.001357912766943,-0.0019155283392735,0.5965168347018037,0.0891890525817871,-0.0707237124443054,0.1234416961669921,101,89,-7524,7286
20.6,1788342452001,-1.8028168678283687,1.5492957830429075,-0.0026615960523486,0.0021443280857056,0.1002376452088356,0.9949576258659364,0.0044766842384564,-0.0049348898623518,6.971695902630803e-08,-0.0001412540441378,0.0028987985569983,0.5617684721946716,-0.0033339923247694,-0.0011928612366318,0.9065373539924622,0.4221106469631195,-0.0060816401633957,0.0067683284021512,0.5482754766645587,-0.0544938445091247,0.0336320400238037,0.0841751098632812,130,172,-7911,8293
20.7,1788342452101,-1.8028168678283687,1.5492957830429075,-0.0026615960523486,0.0021443280857056,0.1002376452088356,0.9949576258659364,0.0044766842384564,-0.0049348898623518,6.971695902630803e-08,-0.0001412540441378,0.0028987985569983,0.5617684721946716,-0.0032533146440982,-0.0011908402666449,0.9113808274269104,0.4115497171878814,0.0002420124430669,-0.0046336317462211,0.5325120238032566,0.0614160299301147,-0.0501734018325805,0.0642290115356445,130,172,-7911,8293
20.8,1788342452201,-1.5774648189544678,1.4647886753082275,-0.0024888038169592,0.0020804535597562,0.151868388056755,0.9883953928947448,0.0006697481415741,-0.0015000302463011,-2.2648826068262345e-07,0.000100274948636,-0.0041048629209399,0.4053869843482971,-0.0030305087566375,-0.0010285284370183,0.9212273955345154,0.3890115022659302,0.0010298664393224,-0.007037044393186,0.3984268197167266,-0.0317277312278747,0.4112405180931091,-0.0023221969604492,117,176,-6741,6479
20.9,1788342452301,-1.5492957830429075,1.6901408433914185,-0.002554967533797,0.0018006089376285,0.1756525486707687,0.9844472408294678,-0.0039786049086501,-0.0119964176370089,6.39543836891039e-07,-0.0011236288119107,-0.0046331868506968,0.4940599799156189,-0.0028365589678287,-0.0012679183855652,0.9345489740371704,0.3558211922645569,-0.0018804255294945,-0.0009716785750595,0.4995842155342778,-0.0265555381774902,-0.1245990991592407,0.0314693450927734,88,91,-6583,5935
21.0,1788342452401,-1.0704225301742554,1.1267606019973757,-0.0025580241344869,0.0017512083286419,0.1852382719516754,0.9826887845993042,0.0046906989278924,-0.0056112141237338,5.651222013237106e-07,-0.0016751050716266,-0.0034775123931467,0.4881814420223236,-0.0027512582018971,-0.0012217499315738,0.9398429989814758,0.3415936231613159,4.197095383334727e-05,-0.0007252459676034,0.4218921863151501,0.1309207677841186,-0.31156986951828,0.0039873123168945,118,122,-5244,5242
21.1,1788342452501,-1.1267606019973757,1.042253494262695,-0.0025580241344869,0.0017512083286419,0.1852382719516754,0.9826887845993042,0.0046906989278924,-0.0056112141237338,5.651222013237106e-07,-0.0016751050716266,-0.0034775123931467,0.4881814420223236,-0.002486353740096,-0.0014437362551689,0.9454808831214904,0.3256648182868957,-0.0035545790614913,-0.0073912053452166,0.3653840936166382,0.0407642126083374,0.0238931775093078,0.0824203491210937,180,149,-5790,5837
21.2,1788342452601,-1.1267606019973757,1.042253494262695,-0.0023735645227134,0.0009826163295656,0.2327460199594497,0.9725342392921448,-0.0010342360809114,-0.0092129767705827,-4.585163165580065e-07,0.0018153844866901,-0.0095006953924894,0.3716666400432586,-0.0020733643323183,-0.0015104357153177,0.9507668614387512,0.3098964691162109,0.000978400226102,-0.0106114323629074,0.3570929647980242,-0.0204995870590209,0.0454078912734985,0.0698366165161132,145,100,-5825,5763
21.3,1788342452701,-1.1267606019973757,1.0704225301742554,-0.0022110370919108,0.0007613935158587,0.2567881345748901,0.9664648771286012,-0.0019137337619383,-0.0026652037153497,-2.8008712655883784e-07,0.0016889165854081,-0.0060214065015316,0.3646950423717499,-0.0017926869913935,-0.0014868080615997,0.9581615924835204,0.2862185835838318,0.0014493939587769,-0.0072253357019709,0.3587356301399757,-0.0929065942764282,0.0012799501419067,0.0839300155639648,102,140,-5847,5855
21.4,1788342452801,-0.6197183132171631,0.9295774698257446,-0.0019167093560099,0.0005403149989433,0.2744782865047455,0.9615912437438964,0.0038328211958724,-0.0044756482850922,-1.692454838072024e-07,0.0038088064175099,-0.0052236686460673,0.258476972579956,-0.0014601135626435,-0.0013508256524801,0.9632272124290466,0.2686807215213775,0.0014168245716301,-0.0031777440676697,0.1894800610047359,-0.0688661932945251,-0.0784012079238891,-0.0528602600097656,68,72,-4806,3559
21.5,1788342452901,0.0,0.0,-0.0018114458071067,0.0003965946962125,0.2803771793842315,0.9598881006240844,0.0032331731980827,-0.0012636685168195,2.784413875614747e-07,-1.1136422472191043e-05,-0.0039892476052045,0.0968490540981292,-0.001320450566709,-0.00134704913944,0.9648313522338868,0.2628628611564636,-0.0014197918869222,-0.0010118366798225,0.0469105195941693,0.2499586343765258,-0.3602821230888366,0.1422080993652343,93,198,3773,6098
21.6,1788342453001,2.1408450603485107,2.9577465057373047,-0.0017118564574047,0.0002047122397925,0.2810903191566467,0.9596797823905944,0.0120066499887924,0.0024096097995879,7.061404440988617e-10,0.0016823089681565,-0.0087241074070334,0.0303709171712398,-0.0008396105840802,-0.0013321321457624,0.9660134315490724,0.2584873139858246,-0.0002298902942545,-0.010764918605809,0.1994044049381315,1.026047945022583,0.2675850987434387,0.0828380584716796,153,174,8328,13731
21.7,1788342453101,3.4647886753082275,5.098591327667236,-0.0013819161104038,-9.880997822619976e-05,0.2909880578517914,0.9567257165908812,0.103100024325939,-0.000699873643293,1.5345708678966855e-05,0.0057008173316717,-0.008128922432661,0.2208902388811111,-0.0004429221153259,-0.0012181689962744,0.9696812629699708,0.2443696111440658,0.0025234296143769,-0.0093795725801689,0.303991981261324,0.5489593744277954,-0.1010615825653076,0.0412559509277343,124,257,12602,20563
21.8,1788342453201,3.9718310832977295,6.478873252868652,-0.0011042604455724,-0.0002415176131762,0.3040865957736969,0.9526436924934388,0.1670768317488404,0.0118792306165038,1.029014736119356e-05,0.0078694215044379,-0.0039722891524434,0.3540571630001068,0.0001194728538393,-0.0009384844452142,0.9732104539871216,0.2299143373966217,0.0077796293961089,-0.0186059684749054,0.3508784006233933,-0.4874550104141235,0.1749342083930969,0.010502815246582,94,170,12587,18739
21.9,1788342453301,4.02816915512085,5.239436626434326,-0.0001049131678882,-0.001126124872826,0.3193378150463104,0.947640299797058,0.1756763170717515,-0.0002830791616203,3.017545208537213e-05,0.0123550444841384,-0.022513497620821,0.2421948164701461,0.0015316922217607,-0.0007336568087339,0.9756972193717957,0.2191166877746582,0.0008221360866166,-0.0251637557291354,0.1886802702194985,-0.263644814491272,0.1922336816787719,-0.0572786331176757,116,184,13427,19177
22.0,1788342453401,4.197183132171631,6.0,0.0002980524732265,-0.0018926683114841,0.331266313791275,0.9435353875160216,0.1768823838223577,-0.0014623228495421,4.9071393971324726e-05,0.0041161044500768,-0.0090130195021629,0.2456734329462051,0.0022386880591511,-0.0006529819220304,0.9785879850387572,0.2058156579732895,0.0040316397997801,-0.0209117355033891,0.2733738152519847,0.1357070803642273,0.2025427818298339,0.4211254119873047,134,63,12720,16752
22.1,1788342453501,4.0,6.507042407989502,0.0009129482787102,-0.0028326623141765,0.3482978343963623,0.9373792409896852,0.1716497460962581,-0.0020621593164523,9.013230646697206e-05,0.0025005873758345,-0.0241345372051,0.259040892124176,0.0027644867077469,-0.0006763879209756,0.9816492199897766,0.1906744390726089,-0.0028836032703789,0.0163953685427558,0.2575302949284165,-0.0695025920867919,-0.1445332169532776,-0.1282606124877929,97,170,13396,15153
22.2,1788342453601,4.253520965576172,5.830986022949219,0.0006454649847,-0.0031838803552091,0.3627929091453552,0.9318640828132628,0.1764031195391194,5.7511417823322814e-05,2.114901510843717e-05,-0.0105888787657022,0.003008218947798,0.2674244940280914,0.0031845960766077,-0.001035014167428,0.9838023781776428,0.1792253702878952,-0.0084279888029985,0.0019939631826845,0.2677140103708906,0.3200010657310486,-0.0249949097633361,-0.2026700973510742,78,193,12936,16865
22.3,1788342453701,4.450704097747803,5.802816867828369,0.0006804151926189,-0.003506121225655,0.3664432764053345,0.9304335117340088,0.1748805982829357,0.0046418606729613,2.5113099380982862e-05,-0.004841276910156,-0.0212528817355632,0.2643931806087494,0.0030905418097972,-0.0013669775798916,0.9855944514274596,0.1690924316644668,-0.0084772491224679,0.0017496617955321,0.1573549430948431,-0.0445725917816162,-0.2588642835617065,0.3975992202758789,85,100,14140,14950
22.4,1788342453801,4.507042407989502,5.211267471313477,-0.0004419097676873,-0.0033236304298043,0.3772402107715606,0.9261094331741332,0.166952888182337,0.0054766811273431,-1.8052059494610555e-05,-0.026068590581417,0.0078179175034165,0.1164147779345512,0.00244374666363,-0.0021082824096083,0.9868050813674928,0.1618806570768356,-0.0155130910741828,0.0191771382004719,0.1209391508354606,-0.4615686535835266,-0.2881023287773132,0.2459716796875,95,103,13777,17109
22.5,1788342453901,4.507042407989502,6.11267614364624,-0.0008161682053469,-0.0029913615435361,0.3858389258384704,0.9225608706474304,0.1670315201772761,0.0083623749866242,-8.53909372958736e-05,-0.0027245716191828,0.025499265640974,0.2695160210132599,0.0021956199780106,-0.002263150177896,0.9883874654769896,0.1519219577312469,-0.0011035040562232,0.0013465838170362,0.2820041922175224,0.1129255890846252,0.019305944442749,-0.1023378372192382,134,128,13808,13894
22.6,1788342454001,4.478873252868652,5.126760482788086,-0.000911587383598,-0.0030292628798633,0.3908875286579132,0.920432984828949,0.1604971228342961,0.0117348918396163,3.46529948784264e-05,-0.0035230526700615,-0.0003407367621548,0.2161821275949478,0.0021512350067496,-0.0025410465896129,0.9894821643829346,0.1446167528629303,-0.008833223581213,-0.0069727891345207,0.1259318263418394,0.1937976479530334,0.3224062323570251,0.1324596405029297,111,83,13997,17254
22.7,1788342454101,4.901408672332764,5.521126747131348,-0.001308083999902,-0.003364669624716,0.3974059820175171,0.9176357984542848,0.1766064614034239,-0.0003053188601104,2.613740028416864e-05,-0.013635367155075,-0.0140007650479674,0.152062252163887,0.0019787810742855,-0.0029421122744679,0.9901747703552246,0.1397907435894012,-0.0119157269177983,0.0033070444876957,0.1344161206031977,-0.3840305805206299,0.0484564304351806,0.2473649978637695,142,115,14634,13657
22.8,1788342454201,4.929577350616455,4.957746505737305,-0.0014019977534189,-0.0031946613453328,0.4025936424732208,0.9153721928596495,0.170371835320431,0.0004189633263068,-2.392627932927021e-05,-0.0033505971077829,0.0105014778673648,0.0569477789103984,0.0014978116378188,-0.0029176007956266,0.9907925128936768,0.1353490203619003,-0.007965667842514,0.0183572403559471,-0.0114424853247567,-0.1601825952529907,0.0203902721405029,-0.1207084655761718,118,222,14594,15880
22.9,1788342454301,4.957746505737305,4.563380241394043,-0.0021068449132144,-0.0027051046490669,0.4029107093811035,0.9152328968048096,0.1676541135999946,-0.001492414668915,-7.3967919279700095e-06,-0.0073818494565784,0.0044678812846541,-0.007965656928718,0.0010663839057087,-0.0032827351242303,0.9907760620117188,0.135465607047081,-0.008008432080711,0.0124480596248873,-0.0375246298233852,0.0623043179512023,0.012884497642517,0.2243804931640625,112,132,15465,16258
23.0,1788342454401,5.154929637908936,5.295774459838867,-0.0021622411441057,-0.0025484517682343,0.4022125005722046,0.9155402183532716,0.1624005180469365,-0.0029719721224315,-2.730773297561669e-05,0.0004381237667985,0.0065861600451171,-0.0298882964998483,0.0010740086436271,-0.0032808613032102,0.9907893538475036,0.1353683620691299,-0.0077626696143783,0.0065372964497218,0.014865730715014,-0.0021690726280212,0.069499671459198,-0.0251369476318359,125,120,14551,13950
23.1,1788342454501,4.873239517211914,5.408450603485107,-0.0024877346586436,-0.0026731383986771,0.4025222957134247,0.915402889251709,0.1709077557226396,0.0019774143760765,-2.4904230345877508e-05,-0.0020650280639529,0.0025206629652529,-0.0013442550553008,0.0009687878191471,-0.0034375675022602,0.9907765984535216,0.1354581415653228,0.0073118725653707,-0.0032874444920405,0.0023251145544019,0.1810433864593505,-0.090054452419281,-0.1692180633544922,118,150,15581,13621
23.2,1788342454601,5.211267471313477,5.070422649383545,-0.0026350212283432,-0.0022597718052566,0.4023417532444,0.9154829382896424,0.1808763296197187,0.0008066896764588,-1.5160619120974003e-05,-0.0005339166964404,0.0119575532153248,-0.0016588123980909,0.0005289623513817,-0.0034296149387955,0.9907395243644714,0.1357323825359344,0.0010049340510925,0.0247747663708584,-0.0017041353711276,-0.0297837257385253,-0.1903878450393676,0.0222635269165039,147,186,14434,14988
23.3,1788342454701,5.211267471313477,4.8450703620910645,-0.0026279790326952,-0.0025607645511627,0.4027119576931,0.9153194427490234,0.1800810145935094,0.0005701163639022,1.4813899928184897e-06,-0.0034201454836875,-0.0009265787666663,0.0110105816274881,0.0005405312404036,-0.0034154010936617,0.9908087253570556,0.1352266371250152,0.0082082029551294,0.0187738483089623,0.0026034613744516,-0.3248838186264038,-0.2601236701011657,0.3215541839599609,117,179,14587,15533
23.4,1788342454801,5.070422649383545,4.591549396514893,-0.0027027891483157,-0.0022497987374663,0.4026010036468506,0.9153687953948976,0.1715096998149883,0.0022266327687895,-4.029795236012393e-05,-0.0045994003303349,0.0022254593204706,-0.0076572084799408,0.0004715863615274,-0.0034242114052176,0.990791380405426,0.1353532373905182,-0.0043669924808706,-0.0123433147000626,0.005360242944479,0.050128161907196,0.0818435549736023,0.2317924499511718,116,121,14909,16106
23.5,1788342454901,5.042253494262695,4.535211086273193,-0.0028789294883608,-0.0020740278996527,0.4030210375785827,0.9151837825775146,0.1713722410916596,-0.0008951536505321,7.505865557064023e-06,-0.0039241090416908,-0.0044619031250476,0.0064580463804304,0.0004652459174394,-0.003541249781847,0.9908713698387146,0.1347628980875015,0.0016431434150592,-0.0134355540820491,0.0112595830670043,0.1884133219718933,0.128303050994873,-0.0369386672973632,118,122,15052,16094
23.6,1788342455001,5.042253494262695,4.901408672332764,-0.0028583973180502,-0.0020733431447297,0.4031372666358948,0.9151326417922974,0.1682587967800713,0.0002362303498689,4.016458602324522e-05,0.000756298773922,-0.0003192778967786,0.0050100740045309,1.0262243449687958e-05,-0.0035520270466804,0.990898370742798,0.1345658302307129,-0.0081209845483244,0.0145631352987385,0.0036438063341785,0.2001225352287292,0.0442094802856445,-0.1677513122558593,129,53,15175,14969
23.7,1788342455101,5.126760482788086,5.577464580535889,-0.003104573348537,-0.0017705312930047,0.403268426656723,0.9150747656822203,0.1655691537724816,0.000584746057494,3.181510099277345e-09,-0.003533303970471,0.0102043515071272,-0.0047664586454629,-0.000443241558969,-0.0036076596006751,0.9908609390258788,0.1348381638526916,0.0029015152619094,0.0323115802422836,-0.0037131695460156,-0.4158246517181396,-0.0985889434814453,-0.0725183486938476,111,97,14818,12624
23.8,1788342455201,5.211267471313477,4.901408672332764,-0.0031830347143113,-0.0016095351893454,0.4031349718570709,0.9151336550712584,0.1761291757340423,0.0007127042363308,1.54155587210702e-06,0.0038329646922647,-0.0006939090671949,0.0010167604777961,-0.0004985826089978,-0.0035535683855414,0.9908913373947144,0.1346160471439361,-0.0027303513424824,0.0200474669382438,-0.0068988842270266,-0.0627523064613342,-0.1136276721954345,-0.3568744659423828,139,177,14403,14896
23.9,1788342455301,4.957746505737305,4.816901206970215,-0.0033133837860077,-0.0016541944351047,0.403636634349823,0.9149118661880492,0.1719564993202113,0.00137409260069,1.4114024419314816e-05,-0.0032461304217576,-0.0067121856845915,0.0098282527178525,-0.0002056015655398,-0.0037467116490006,0.990961253643036,0.134095698595047,-0.0038612063107414,-0.0161310549028453,0.0166006916859222,-0.0060745477676391,0.1304657459259033,0.2977828979492187,115,148,15188,15184
24.0,1788342455401,4.985915660858154,4.619718074798584,-0.0035037298221141,-0.0014853491447865,0.4039176702499389,0.9147874712944032,0.1791777150500638,0.0013308809460503,-2.3175529890895903e-05,-0.0035868417471647,0.0143737746402621,0.0027810528408735,-0.0005656722933053,-0.0037632966414093,0.9909794330596924,0.1339596658945083,-0.0084951459588106,0.0152237767465894,-0.0075569894191759,0.061778724193573,-0.1477476358413696,-0.2476758956909179,120,94,15268,15858
24.1,1788342455501,5.154929637908936,4.929577350616455,-0.0038557797670364,-0.0011016987264156,0.4036588072776794,0.9149007797241212,0.1756344371563049,0.0007330091994434,-2.784893006738319e-05,-0.0036595412530004,0.0129428515210747,0.0021300774533301,-0.001163451001048,-0.0039087198674678,0.9909440875053406,0.1342136412858963,-0.0056454978144812,0.0151666939280118,0.0053364488987493,0.110554039478302,0.1770738959312439,-0.278839111328125,93,29,15669,13753
24.2,1788342455601,5.380281925201416,5.014084339141846,-0.0040466696955263,-0.0011470315512269,0.4032861590385437,0.91506427526474,0.1688818922022351,-0.0026201391940742,-2.097691398153397e-06,-0.007563242688775,0.0014597292756661,-0.0159679483622312,-0.0006439071148633,-0.003908546641469,0.990595281124115,0.1367678195238113,0.0080865482882278,-0.0050139904907495,-0.0502582252112469,0.078888714313507,0.2026093006134033,0.0050001144409179,127,159,14830,13705
24.3,1788342455701,5.098591327667236,5.098591327667236,-0.0035588867031037,-0.001472929958254,0.4006797671318054,0.9162100553512572,0.1640285356700735,0.0012167962908538,1.619639720834156e-05,0.007393280044198,-0.0040975245647132,-0.0523989833891391,-0.0004959441721439,-0.0040656169876456,0.9903972148895264,0.1381906867027282,-0.0148659304161044,-0.0089955376542169,-0.026841711529064,0.1665675044059753,-0.0031245350837707,-0.0549860000610351,110,155,15774,13697
24.4,1788342455801,4.957746505737305,4.788732528686523,-0.0034197559580206,-0.0023594163358211,0.3980734050273895,0.9173442125320436,0.174076271649611,-0.0009912594755863,1.0130739664832204e-05,0.0021198724862188,-0.0149264018982648,-0.0378434769809246,0.0004383409395813,-0.0041752438992261,0.9900620579719543,0.1405684500932693,-0.0025545102488547,-0.0286247961338974,-0.0350328775147783,-0.0169246196746826,0.0669123530387878,-0.2669868469238281,105,179,15193,15820
24.5,1788342455901,5.380281925201416,4.591549396514893,-0.0031743366271257,-0.0029760464094579,0.3978065252304077,0.917458951473236,0.1851314834471898,0.0042119995784229,6.268395200639696e-05,-0.0044144107960164,-0.0296467188745737,-0.0127513688057661,0.0008772118017077,-0.0042625376954674,0.9900382161140442,0.1407317817211151,-6.039915281989583e-05,4.3745057967047485e-05,-0.0112323166608001,-0.0780877470970153,-0.2557621598243713,-0.2809724807739258,119,89,14811,15231
24.6,1788342456001,4.929577350616455,5.295774459838867,-0.0031721745617687,-0.0032318253070116,0.3971895277500152,0.9177254438400269,0.1763578101505964,-0.0026691466881406,2.013375123160804e-05,-0.0041076140478253,-0.0094896554946899,-0.0274314954876899,0.0011286763474345,-0.0042190570384263,0.9898958206176758,0.1417293697595596,0.0071708622396356,-0.0135114063438457,0.0237999157327699,0.1681662797927856,0.4686535596847534,-0.1561698913574218,57,77,12194,17093
24.7,1788342456101,4.647887229919434,5.408450603485107,-0.0031624687835574,-0.0028381221927702,0.3993068933486938,0.9168075323104858,0.1717658002737642,0.0022645494248696,-1.1320075971322378e-06,0.0047743846662342,0.002121950732544,0.1299382001161575,0.0004607895389199,-0.004219208844006,0.9913039803504944,0.1315237283706665,-0.0024667365300034,0.0008188648368702,0.1675116813961305,-0.0553767681121826,0.1143364906311035,0.034271240234375,115,109,13196,16470
24.8,1788342456201,4.732394218444824,5.352112770080566,-0.0032640669960528,-0.002848164178431,0.4085146784782409,0.9127415418624878,0.1677030847003252,0.0015745104576695,1.0767499982851305e-05,-0.0017047774745151,-0.0095374453812837,0.1609070748090744,0.0010054903104901,-0.0041380878537893,0.9921852350234984,0.1247012838721275,0.0093959497862443,-0.0218706398345421,0.1286405879343518,0.4572189450263977,0.0246496200561523,0.2106237411499023,133,144,15278,14236
24.9,1788342456301,4.985915660858154,5.042253494262695,-0.0031599649228155,-0.0026937874499708,0.414259523153305,0.910149335861206,0.1670593263473424,0.0029783145902252,-2.648519288956598e-06,0.0018781861290335,0.0013983497628942,0.040690578520298,0.0005825292319059,-0.0040419353172183,0.9924580454826356,0.1225169748067855,0.0049250061680542,0.0165550837943324,0.0389262238073898,-0.0117220878601074,0.0388082265853881,0.0645523071289062,109,161,14334,15511
25.0,1788342456401,4.873239517211914,5.295774459838867,-0.0030613089911639,-0.002274147234857,0.4170657396316528,0.9088683128356934,0.1815923532423723,0.0003472282364396,-5.904600305366278e-05,0.0081205675378441,0.0132557833567261,0.055143442004919,0.0002051005139946,-0.0037515191361308,0.9928389191627502,0.1194015368819236,0.0031026602413465,0.018926220827933,0.0488637150089456,0.0337840318679809,-0.0445930957794189,0.4342355728149414,114,157,14471,14566
25.1,1788342456501,4.732394218444824,5.549295902252197,-0.0030863673891872,-0.002040319610387,0.4218694269657135,0.9066490530967712,0.1640807385413938,0.0064304270308738,-2.07435047340462e-05,0.0021888348273932,0.0004632472118828,0.1436281204223632,0.0002086171880364,-0.003707786090672,0.993499219417572,0.1137790754437446,0.0041213939269306,-0.0173651865345148,0.1727317833366042,0.530582845211029,0.0553592443466186,-0.0586585998535156,156,53,14931,13698
25.2,1788342456601,5.014084339141846,5.183098793029785,-0.0027546097990125,-0.0025497837923467,0.423407644033432,0.9059314727783204,0.1752844885223023,-0.0015176593069176,9.939400088419042e-05,0.0063823065720498,-0.0232480354607105,0.0311080645769834,0.0007333569228649,-0.003681231290102,0.9936203956604004,0.1127145290374755,0.0053686876624294,-0.0065458813835421,0.0120263940511452,-0.1261808276176452,0.2132793068885803,0.0093955993652343,124,35,14184,14649
25.3,1788342456701,4.760563373565674,5.492957592010498,-0.0028577568009495,-0.0023841662332415,0.4249837100505829,0.905193328857422,0.1671996485612018,-0.0003359364504395,-9.113276029037478e-06,-0.0007022151839919,0.0086946422234177,0.0494787245988845,0.0006990572437644,-0.0036736987531185,0.9938895106315612,0.1103162467479705,0.0005650580318128,-0.0155281901455102,0.0550082417042113,0.0557873249053955,0.102808654308319,0.23370361328125,101,95,14945,14052
25.4,1788342456801,4.788732528686523,5.7183098793029785,-0.0027323991525918,-0.0025220159441232,0.4257667362689972,0.9048253893852234,0.1799224078319728,0.000886233960549,3.178211745695203e-05,0.0022720957640558,-0.0073896767571568,0.0352607108652591,0.0009257812052965,-0.0034679155796766,0.9940989017486572,0.108418308198452,0.0045937417627677,-0.0027995357947758,0.0515803149965298,-0.2354796528816223,-0.1119234561920166,0.2683992385864258,105,166,14697,13421
25.5,1788342456901,4.816901206970215,5.633802890777588,-0.0023758693132549,-0.0027209357358515,0.4279888570308685,0.90377676486969,0.1655583663532425,-2.705434821549437e-05,3.6011208665454628e-06,0.0029867538250982,-0.0069888308644294,0.0524125508964061,0.000850467942655,-0.003413219936192,0.9943748116493224,0.1058602929115295,-0.0063626331095569,0.0115711654490281,0.0567932995839078,0.1005147695541381,0.0170748829841613,0.1364240646362304,127,191,14674,14038
25.6,1788342457001,5.070422649383545,5.605633735656738,-0.0024544615298509,-0.0023784697987139,0.43079474568367,0.902443528175354,0.1686448512435792,-5.490184445444872e-05,3.289308698974108e-05,0.0015670008724555,0.002163547091186,0.062863714993,0.0006750915199518,-0.00342598836869,0.9945114254951476,0.1045700758695602,-0.0054385102321868,0.019054374704465,0.0024700610480663,-0.2170184850692749,0.1413517594337463,-0.2424831390380859,85,204,13854,14161
25.7,1788342457101,4.873239517211914,5.492957592010498,-0.0026428448036313,-0.0023844570387154,0.4316065609455108,0.9020549058914183,0.1664977933644806,0.0023259085627691,-1.1307402763999425e-08,-0.0052948086522519,0.0060240519233047,0.0420646034181118,0.000651747919619,-0.003586015664041,0.994763433933258,0.1021392345428466,-0.008961599486209,-0.0328781764474245,0.0498219493842554,0.314558207988739,0.1434607505798339,0.0366182327270507,136,195,14489,14420
25.8,1788342457201,4.985915660858154,5.295774459838867,-0.0029193430673331,-0.002167590893805,0.4334628880023956,0.9011641144752502,0.1769226144572095,-0.0022766229853635,4.970408984365277e-05,0.0007132071768864,-0.0076755350455641,0.0054785325191915,0.0003996444866061,-0.0036517446860671,0.9948042631149292,0.1017396226525306,-0.0011663997404533,0.0097568671379792,-0.0160370405842671,-0.1469715237617492,-0.0593270063400268,-0.4605178833007812,88,172,14122,14868
25.9,1788342457301,5.014084339141846,5.88732385635376,-0.0029705697670578,-0.0025324875023216,0.4345133602619171,0.9006569385528564,0.1710370638608798,-0.0024405336384718,1.183137461483853e-05,-0.0037657397333532,-0.0057493578642606,0.0196731630712747,0.0004467312246561,-0.0038221394643187,0.9949327111244202,0.1004690676927566,-0.0017511035246275,-0.0017580436007456,0.0033667211352072,0.1354863047599792,0.0556938648223876,-0.2628116607666015,104,143,15207,11873
26.0,1788342457401,4.788732528686523,5.7183098793029785,-0.0028056297451257,-0.002606188179925,0.4359476566314697,0.8999638557434082,0.1612272961918947,0.0019049417746698,-3.179629435404502e-05,0.004591979086399,-0.0056012822315096,0.0619056969881057,0.0007785828784108,-0.0037575038149952,0.995145857334137,0.0983367338776588,-0.0005705677033811,-0.0138353077905484,0.062487015701921,0.1222338676452636,0.0621644854545593,-0.1638803482055664,137,151,14718,13452
26.1,1788342457501,4.985915660858154,4.676056385040283,-0.0029318572487682,-0.0025691965129226,0.437129408121109,0.8993901014328003,0.1611470500604487,-0.0022821863592726,2.620734296310921e-08,2.165966073164327e-08,-2.165966073164327e-08,2.7724365736503387e-06,0.0004540849477052,-0.0038241166621446,0.9952502250671388,0.097273401916027,0.0077795336084519,0.0044393231946403,0.0031074707210146,-0.0585889220237731,-0.0398346781730651,0.2468023300170898,125,77,15277,15794
26.2,1788342457601,5.014084339141846,4.619718074798584,-0.0029600206762552,-0.0024224759545177,0.4378598630428314,0.8990350365638733,0.1775998191461285,-0.0010736314405519,-2.6123170594904655e-05,0.0016500734491273,0.0058780913241207,0.0338275916874408,0.0003637410700321,-0.0036540804430842,0.9953340291976928,0.096420019865036,0.0075193401367792,-0.0015924653040336,0.0133349668229448,0.1003294587135315,-0.1644096374511718,-0.1624889373779297,105,97,15168,15672
26.3,1788342457701,5.352112770080566,4.8450703620910645,-0.0029437087941914,-0.0023102569393813,0.4381981194019317,0.8988706469535828,0.176851357339844,-0.0003286681392915,-2.064455092071708e-05,0.0024925994221121,0.003589125117287,0.0146291498094797,0.0003311047330498,-0.0038505205884575,0.995303750038147,0.0967232584953308,-0.0009912285404585,0.0039794665337537,-0.00560989736232,0.117911159992218,0.1121820211410522,-0.1056499481201171,127,28,17435,11484
26.4,1788342457801,5.633802890777588,4.11267614364624,-0.0028867265209555,-0.0022467388771474,0.4305104911327362,0.9025781750679016,0.1659572350872073,0.0003394878347369,1.7558325088838187e-05,0.0052664666436612,-0.0065675093792378,-0.1746826767921447,0.0004136469215154,-0.0036295829340815,0.9944285154342652,0.1053501442074775,0.0031610649749762,-0.0053189949626887,-0.1974789299873502,-0.1425049304962158,0.1920571327209472,-0.1200513839721679,106,122,16141,14318
26.5,1788342457901,5.492957592010498,4.647887229919434,-0.0028936141170561,-0.0021377126686275,0.4239169061183929,0.9056940078735352,0.1777307734925145,-0.0013654199446862,-7.579746373909593e-05,0.0004021964850835,0.0148846190422773,-0.1608138680458068,8.762255311012268e-05,-0.0035520577803254,0.9933602809906006,0.1149901375174522,-0.0002790429780439,0.0181540785283399,-0.1555108874643379,-0.0992786288261413,-0.2948451638221741,0.1384916305541992,114,149,16423,12901
26.6,1788342458001,5.605633735656738,4.873239517211914,-0.0030027888715267,-0.0018625734373927,0.4205341935157776,0.9072698354721068,0.1821780985548246,0.0030414225500719,-2.4352261835221043e-05,0.0006102283950895,0.0124841518700122,-0.1509081870317459,-0.0002194540575146,-0.0034654391929507,0.9927887320518494,0.1198272556066513,0.0017916492770836,0.0158596525218742,-0.1658347076200991,-0.0218082070350646,-0.3180733323097229,0.3055219650268554,118,74,16099,12172
26.7,1788342458101,5.154929637908936,4.11267614364624,-0.0029563324060291,-0.0015519505832344,0.4090005457401275,0.9125280976295472,0.1714769274281471,-0.0039555399475099,-1.620258051771074e-06,0.0059125395491719,0.0025697543751448,-0.1493294537067413,-0.000233999453485,-0.0033033890649676,0.9916456937789916,0.1289489865303039,0.007169516586335,0.0049385931011962,-0.1515401121811708,-0.3354425430297851,0.1027354001998901,-0.1673955917358398,23,161,11886,13733
26.8,1788342458201,2.5352113246917725,3.690140962600708,-0.0027633646968752,-0.0014542057178914,0.4075119495391845,0.9131945967674256,0.1550200101746351,-0.0009851564887783,-5.59203118313914e-06,0.0086714243516325,0.0006313271005637,-0.0655600130558013,-0.0003898367285728,-0.0032119406387209,0.9917592406272888,0.1280753463506698,-0.0055368833905917,0.0041625822066464,0.1019804880454817,-1.0688549280166626,0.211694061756134,0.0889225006103515,15,173,4420,12556
26.9,1788342458301,0.0,3.0422534942626958,-0.0029581398703157,-0.0013528212439268,0.4146581888198852,0.9099714159965516,0.0891714701681366,0.0028476134390867,-6.21766069255911e-06,-0.0017231232486665,-4.475557943806052e-05,0.2755576074123382,-0.0003898367285728,-0.0032119406387209,0.9917592406272888,0.1280753463506698,-0.0055368833905917,0.0041625822066464,0.1019804880454817,-1.0688549280166626,0.211694061756134,0.0889225006103515,23,96,0,10383
27.0,1788342458401,-1.4647886753082275,3.070422649383545,-0.0027676352765411,-0.0013041242491453,0.436936616897583,0.8994870185852051,0.0475137721110247,0.0004900197504282,6.685090116937051e-06,0.0030110531952232,-0.0045629008673131,0.5858978033065796,-0.0003058928996324,-0.0030129216611385,0.99694561958313,0.0780401974916458,0.0028190313308991,-0.0047218510974888,0.7487521812479134,-0.5045377016067505,0.3162660002708435,-0.1326608657836914,258,181,-11858,10306
27.1,1788342458501,-2.873239517211914,2.3943662643432617,-0.0028158093336969,-0.0011650621891021,0.4718100130558014,0.8816949725151062,-0.003579109605399,-0.006487412848622,3.431197260335424e-07,-0.0014776361640542,0.002582989167422,0.8778068423271179,-0.000368888489902,-0.0030100541189312,0.9988710284233092,0.0474071726202964,-0.0011095504052971,-0.0056831036975702,0.9177558750231968,0.1589961051940918,-0.3462424278259277,0.2391557693481445,66,154,-8783,9456
27.2,1788342458601,-2.5915493965148926,2.6478872299194336,-0.0026753556448966,-0.0014099617255851,0.5101532936096191,0.8600782155990601,0.0029890183356679,-0.0123359871455611,-1.7636461350505306e-10,-0.0002405142586212,-0.001903083641082,0.7569157481193542,-0.00024223793298,-0.0030849892646074,0.9999552965164183,0.0089331837370991,-0.0031665198496543,-0.0001672082733697,0.7381555771766581,-0.2826597094535827,-0.0151007771492004,-0.0690288543701171,116,74,-9363,8412
27.3,1788342458701,-2.169013977050781,1.94366192817688,-0.0027055030222982,-0.0015000407584011,0.5415309071540833,0.8406751751899719,0.0073556008293571,-0.0022999038667975,6.820775228225569e-07,0.0024848950561136,-0.0043095843866467,0.7836941480636597,0.0002275900915265,0.0030561154708266,-0.9991415739059448,0.0413125529885292,3.1572337321706505e-05,0.0022938626681968,0.5792314867444618,-0.1094861626625061,-0.1529932618141174,0.0689449310302734,79,87,-7869,8639
27.4,1788342458801,-2.1408450603485107,2.0281689167022705,-0.0027005653828382,-0.0013489566044881,0.5664509534835815,0.8240899443626404,-0.0007350152868183,-0.0013718038250299,2.7077903504963752e-08,0.0021649973932653,0.0013576745986938,0.6398678421974182,0.0002275900915265,0.0030561154708266,-0.9991415739059448,0.0413125529885292,3.1572337321706505e-05,0.0022938626681968,0.5792314867444618,-0.1094861626625061,-0.1529932618141174,0.0689449310302734,114,188,-8669,8925
27.5,1788342458901,-2.11267614364624,2.11267614364624,-0.0027005653828382,-0.0013489566044881,0.5664509534835815,0.8240899443626404,-0.0007350152868183,-0.0013718038250299,2.7077903504963752e-08,0.0021649973932653,0.0013576745986938,0.6398678421974182,0.0004420867189764,0.0032050842419266,-0.9949042201042176,0.1007723584771156,-0.0012670457877903,0.0007731409242335,0.6667306173803199,-0.0132932662963867,-0.0750905871391296,-0.0581417083740234,107,93,-8517,6813
27.6,1788342459001,-1.774647831916809,2.0281689167022705,-0.0029872159939259,-0.0014046595897525,0.6210238933563232,0.7837846875190735,0.0068292708494374,-0.0018492062424102,9.016963689499208e-07,-0.0035347761586308,-0.0043861106969416,0.5634651780128479,0.000299003906548,0.0032514641061425,-0.990909993648529,0.134487047791481,0.0003636701948979,-0.0022790583210591,0.5417582301131814,-0.1288673281669616,-0.1445587873458862,-0.0190515518188476,97,87,-7848,6675
27.7,1788342459101,-1.774647831916809,1.7183098793029783,-0.0028935568407177,-0.0015443570446223,0.641372561454773,0.7672226428985596,-0.0012299718529496,-0.0024899547908494,-2.422012100072998e-07,-0.0020233774557709,-0.0061642336659133,0.5593406558036804,0.0001687770709395,0.0032237712293863,-0.9866985082626344,0.1625290513038635,0.0018930856214209,0.0037746981282213,0.5353542345304344,0.134215772151947,-0.2244400978088379,0.0564069747924804,122,148,-7839,7584
27.8,1788342459201,-1.380281686782837,1.211267590522766,-0.0027455056551843,-0.0016205951105803,0.6600401401519775,0.7512235045433044,0.0067781135537702,-0.0064169189085263,-1.1212609802837485e-08,0.0015171156264841,-0.0043683429248631,0.4736450910568237,-4.373956471681595e-05,0.0031432034447789,-0.9829937219619752,0.1836125701665878,-0.0003668115425771,-0.0048273544079049,0.4350213454259069,0.0234022140502929,0.1121812462806701,0.0450220108032226,128,156,-7066,7206
