time_s,timestamp_ms,wheel_vels__velocity_left,wheel_vels__velocity_right,odom__orient_x,odom__orient_y,odom__orient_z,odom__orient_w,odom__lin_x,odom__lin_y,odom__lin_z,odom__ang_x,odom__ang_y,odom__ang_z,imu__orient_x,imu__orient_y,imu__orient_z,imu__orient_w,imu__angvel_x,imu__angvel_y,imu__angvel_z,imu__acc_x,imu__acc_y,imu__acc_z,wheel_status__current_ma_left,wheel_status__current_ma_right,wheel_status__pwm_left,wheel_status__pwm_right
0.0,1788185223833,0.0,0.0,-0.0062646917067468,0.0048446846194565,-0.3069508671760559,0.9516923427581788,0.0,0.0,0.0,0.0,-4.5575365703598444e-09,0.0,-0.0019744215533137,0.0076989941298961,-0.836994469165802,0.5471535921096802,-0.0001580485264376,-6.403367537602654e-06,2.14719492702597e-11,-0.0024414658546447,-0.0070030689239501,-0.0010871887207031,0,0,0,0
0.1,1788185223933,0.0,0.0,-0.0062646917067468,0.0048446846194565,-0.3069508671760559,0.9516923427581788,0.0,0.0,0.0,0.0,-4.5575365703598444e-09,0.0,-0.0019744215533137,0.0076989941298961,-0.836994469165802,0.5471535921096802,-0.0001580485264376,-6.403367537602654e-06,2.14719492702597e-11,-0.0024414658546447,-0.0070030689239501,-0.0010871887207031,0,0,0,0
0.2,1788185224033,0.0,0.0,-0.0062646917067468,0.0048446846194565,-0.3069508671760559,0.9516923427581788,0.0,0.0,0.0,0.0,-4.5575365703598444e-09,0.0,-0.0019744215533137,0.0076989941298961,-0.836994469165802,0.5471535921096802,-0.0001580485264376,-6.403367537602654e-06,2.14719492702597e-11,-0.0024414658546447,-0.0070030689239501,-0.0010871887207031,0,0,0,0
0.3,1788185224133,0.0,0.0,-0.0062646917067468,0.0048446846194565,-0.3069508671760559,0.9516923427581788,0.0,0.0,0.0,0.0,-4.5575365703598444e-09,0.0,-0.0019744215533137,0.0076989941298961,-0.836994469165802,0.5471535921096802,-0.0001580485264376,-6.403367537602654e-06,2.14719492702597e-11,-0.0024414658546447,-0.0070030689239501,-0.0010871887207031,0,0,0,0
0.4,1788185224233,0.0,0.0,-0.0062646917067468,0.0048446846194565,-0.3069508671760559,0.9516923427581788,0.0,0.0,0.0,0.0,-4.5575365703598444e-09,0.0,-0.0019744215533137,0.0076989941298961,-0.836994469165802,0.5471535921096802,-0.0001580485264376,-6.403367537602654e-06,2.14719492702597e-11,-0.0024414658546447,-0.0070030689239501,-0.0010871887207031,0,0,0,0
0.5,1788185224333,0.0,0.0,-0.0062646917067468,0.0048446846194565,-0.3069508671760559,0.9516923427581788,0.0,0.0,0.0,0.0,-4.5575365703598444e-09,0.0,-0.0019744215533137,0.0076989941298961,-0.836994469165802,0.5471535921096802,-0.0001580485264376,-6.403367537602654e-06,2.14719492702597e-11,-0.0024414658546447,-0.0070030689239501,-0.0010871887207031,0,0,0,0
0.6,1788185224433,0.0,0.0,-0.0062646917067468,0.0048446846194565,-0.3069508671760559,0.9516923427581788,0.0,0.0,0.0,0.0,-4.5575365703598444e-09,0.0,-0.0019744215533137,0.0076989941298961,-0.836994469165802,0.5471535921096802,-0.0001580485264376,-6.403367537602654e-06,2.14719492702597e-11,-0.0024414658546447,-0.0070030689239501,-0.0010871887207031,0,0,0,0
0.7,1788185224533,0.0,0.0,-0.0062646917067468,0.0048446846194565,-0.3069508671760559,0.9516923427581788,0.0,0.0,0.0,0.0,-4.5575365703598444e-09,0.0,-0.0019744215533137,0.0076989941298961,-0.836994469165802,0.5471535921096802,-0.0001580485264376,-6.403367537602654e-06,2.14719492702597e-11,-0.0024414658546447,-0.0070030689239501,-0.0010871887207031,0,0,0,0
0.8,1788185224633,0.0,0.0,-0.0062646917067468,0.0048446846194565,-0.3069508671760559,0.9516923427581788,0.0,0.0,0.0,0.0,-4.5575365703598444e-09,0.0,-0.0019744215533137,0.0076989941298961,-0.836994469165802,0.5471535921096802,-0.0001580485264376,-6.403367537602654e-06,2.14719492702597e-11,-0.0024414658546447,-0.0070030689239501,-0.0010871887207031,0,0,0,0
0.9,1788185224733,0.0,0.0,-0.0062646917067468,0.0048446846194565,-0.3069508671760559,0.9516923427581788,0.0,0.0,0.0,0.0,-4.5575365703598444e-09,0.0,-0.0019744215533137,0.0076989941298961,-0.836994469165802,0.5471535921096802,-0.0001580485264376,-6.403367537602654e-06,2.14719492702597e-11,-0.0024414658546447,-0.0070030689239501,-0.0010871887207031,0,0,0,0
1.0,1788185224833,0.0,0.0,-0.0062646917067468,0.0048446846194565,-0.3069508671760559,0.9516923427581788,0.0,0.0,0.0,0.0,-4.5575365703598444e-09,0.0,-0.0019744215533137,0.0076989941298961,-0.836994469165802,0.5471535921096802,-0.0001580485264376,-6.403367537602654e-06,2.14719492702597e-11,-0.0024414658546447,-0.0070030689239501,-0.0010871887207031,0,0,0,0
1.1,1788185224933,0.0,0.0,-0.0062646917067468,0.0048446846194565,-0.3069508671760559,0.9516923427581788,0.0,0.0,0.0,0.0,-4.5575365703598444e-09,0.0,-0.0019744215533137,0.0076989941298961,-0.836994469165802,0.5471535921096802,-0.0001580485264376,-6.403367537602654e-06,2.14719492702597e-11,-0.0024414658546447,-0.0070030689239501,-0.0010871887207031,0,0,0,0
1.2,1788185225033,0.0,0.0,-0.0062646917067468,0.0048446846194565,-0.3069508671760559,0.9516923427581788,0.0,0.0,0.0,0.0,-4.5575365703598444e-09,0.0,-0.0019744215533137,0.0076989941298961,-0.836994469165802,0.5471535921096802,-0.0001580485264376,-6.403367537602654e-06,2.14719492702597e-11,-0.0024414658546447,-0.0070030689239501,-0.0010871887207031,0,0,0,0
1.3,1788185225133,0.0,0.0,-0.0062646917067468,0.0048446846194565,-0.3069508671760559,0.9516923427581788,0.0,0.0,0.0,0.0,-4.5575365703598444e-09,0.0,-0.0019744215533137,0.0076989941298961,-0.836994469165802,0.5471535921096802,-0.0001580485264376,-6.403367537602654e-06,2.14719492702597e-11,-0.0024414658546447,-0.0070030689239501,-0.0010871887207031,0,0,0,0
1.4,1788185225233,0.0,0.0,-0.0062646917067468,0.0048446846194565,-0.3069508671760559,0.9516923427581788,0.0,0.0,0.0,0.0,-4.5575365703598444e-09,0.0,-0.0019744215533137,0.0076989941298961,-0.836994469165802,0.5471535921096802,-0.0001580485264376,-6.403367537602654e-06,2.14719492702597e-11,-0.0024414658546447,-0.0070030689239501,-0.0010871887207031,0,0,0,0
1.5,1788185225333,0.0,0.0,-0.0062646917067468,0.0048446846194565,-0.3069508671760559,0.9516923427581788,0.0,0.0,0.0,0.0,-4.5575365703598444e-09,0.0,-0.0019744215533137,0.0076989941298961,-0.836994469165802,0.5471535921096802,-0.0001580485264376,-6.403367537602654e-06,2.14719492702597e-11,-0.0024414658546447,-0.0070030689239501,-0.0010871887207031,0,0,0,0
1.6,1788185225433,0.0,0.0,-0.0062646917067468,0.0048446846194565,-0.3069508671760559,0.9516923427581788,0.0,0.0,0.0,0.0,-4.5575365703598444e-09,0.0,-0.0019744215533137,0.0076989941298961,-0.836994469165802,0.5471535921096802,-0.0001580485264376,-6.403367537602654e-06,2.14719492702597e-11,-0.0024414658546447,-0.0070030689239501,-0.0010871887207031,0,0,0,0
1.7,1788185225533,0.0,0.0,-0.0062646917067468,0.0048446846194565,-0.3069508671760559,0.9516923427581788,0.0,0.0,0.0,0.0,-4.5575365703598444e-09,0.0,-0.0019744215533137,0.0076989941298961,-0.836994469165802,0.5471535921096802,-0.0001580485264376,-6.403367537602654e-06,2.14719492702597e-11,-0.0024414658546447,-0.0070030689239501,-0.0010871887207031,0,0,0,0
1.8,1788185225633,0.0,0.0,-0.0062646917067468,0.0048446846194565,-0.3069508671760559,0.9516923427581788,0.0,0.0,0.0,0.0,-4.5575365703598444e-09,0.0,-0.0019744215533137,0.0076989941298961,-0.836994469165802,0.5471535921096802,-0.0001580485264376,-6.403367537602654e-06,2.14719492702597e-11,-0.0024414658546447,-0.0070030689239501,-0.0010871887207031,0,0,0,0
1.9,1788185225733,0.0,0.0,-0.0062646917067468,0.0048446846194565,-0.3069508671760559,0.9516923427581788,0.0,0.0,0.0,0.0,-4.5575365703598444e-09,0.0,-0.0019744215533137,0.0076989941298961,-0.836994469165802,0.5471535921096802,-0.0001580485264376,-6.403367537602654e-06,2.14719492702597e-11,-0.0024414658546447,-0.0070030689239501,-0.0010871887207031,0,0,0,0
2.0,1788185225833,0.0,0.0,-0.0062646917067468,0.0048446846194565,-0.3069508671760559,0.9516923427581788,0.0,0.0,0.0,0.0,-4.5575365703598444e-09,0.0,-0.0019744215533137,0.0076989941298961,-0.836994469165802,0.5471535921096802,-0.0001580485264376,-6.403367537602654e-06,2.14719492702597e-11,-0.0024414658546447,-0.0070030689239501,-0.0010871887207031,0,0,0,0
2.1,1788185225933,0.0,0.0,-0.0062646917067468,0.0048446846194565,-0.3069508671760559,0.9516923427581788,0.0,0.0,0.0,0.0,-4.5575365703598444e-09,0.0,-0.0019744215533137,0.0076989941298961,-0.836994469165802,0.5471535921096802,-0.0001580485264376,-6.403367537602654e-06,2.14719492702597e-11,-0.0024414658546447,-0.0070030689239501,-0.0010871887207031,0,0,0,0
2.2,1788185226033,0.0,0.0,-0.0062646917067468,0.0048446846194565,-0.3069508671760559,0.9516923427581788,0.0,0.0,0.0,0.0,-4.5575365703598444e-09,0.0,-0.0019744215533137,0.0076989941298961,-0.836994469165802,0.5471535921096802,-0.0001580485264376,-6.403367537602654e-06,2.14719492702597e-11,-0.0024414658546447,-0.0070030689239501,-0.0010871887207031,0,0,0,0
2.3,1788185226133,0.0,0.0,-0.0062646917067468,0.0048446846194565,-0.3069508671760559,0.9516923427581788,0.0,0.0,0.0,0.0,-4.5575365703598444e-09,0.0,-0.0019744215533137,0.0076989941298961,-0.836994469165802,0.5471535921096802,-0.0001580485264376,-6.403367537602654e-06,2.14719492702597e-11,-0.0024414658546447,-0.0070030689239501,-0.0010871887207031,0,0,0,0
2.4,1788185226233,0.0,0.0,-0.0062646917067468,0.0048446846194565,-0.3069508671760559,0.9516923427581788,0.0,0.0,0.0,0.0,-4.5575365703598444e-09,0.0,-0.0019744215533137,0.0076989941298961,-0.836994469165802,0.5471535921096802,-0.0001580485264376,-6.403367537602654e-06,2.14719492702597e-11,-0.0024414658546447,-0.0070030689239501,-0.0010871887207031,0,0,0,0
2.5,1788185226333,0.0,0.0,-0.0062646917067468,0.0048446846194565,-0.3069508671760559,0.9516923427581788,0.0,0.0,0.0,0.0,-4.5575365703598444e-09,0.0,-0.0019744215533137,0.0076989941298961,-0.836994469165802,0.5471535921096802,-0.0001580485264376,-6.403367537602654e-06,2.14719492702597e-11,-0.0024414658546447,-0.0070030689239501,-0.0010871887207031,0,0,0,0
2.6,1788185226433,0.0,0.0,-0.0062646917067468,0.0048446846194565,-0.3069508671760559,0.9516923427581788,0.0,0.0,0.0,0.0,-4.5575365703598444e-09,0.0,-0.0019744215533137,0.0076989941298961,-0.836994469165802,0.5471535921096802,-0.0001580485264376,-6.403367537602654e-06,2.14719492702597e-11,-0.0024414658546447,-0.0070030689239501,-0.0010871887207031,0,0,0,0
2.7,1788185226533,0.0,0.0,-0.0062646917067468,0.0048446846194565,-0.3069508671760559,0.9516923427581788,0.0,0.0,0.0,0.0,-4.5575365703598444e-09,0.0,-0.0019744215533137,0.0076989941298961,-0.836994469165802,0.5471535921096802,-0.0001580485264376,-6.403367537602654e-06,2.14719492702597e-11,-0.0024414658546447,-0.0070030689239501,-0.0010871887207031,0,0,0,0
2.8,1788185226633,0.0,0.0,-0.0062646917067468,0.0048446846194565,-0.3069508671760559,0.9516923427581788,0.0,0.0,0.0,0.0,-4.5575365703598444e-09,0.0,-0.0019744215533137,0.0076989941298961,-0.836994469165802,0.5471535921096802,-0.0001580485264376,-6.403367537602654e-06,2.14719492702597e-11,-0.0024414658546447,-0.0070030689239501,-0.0010871887207031,0,0,0,0
2.9,1788185226733,0.0,0.0,-0.0062646917067468,0.0048446846194565,-0.3069508671760559,0.9516923427581788,0.0,0.0,0.0,0.0,-4.5575365703598444e-09,0.0,-0.0019744215533137,0.0076989941298961,-0.836994469165802,0.5471535921096802,-0.0001580485264376,-6.403367537602654e-06,2.14719492702597e-11,-0.0024414658546447,-0.0070030689239501,-0.0010871887207031,0,0,0,0
3.0,1788185226833,0.0,0.0,-0.0062646917067468,0.0048446846194565,-0.3069508671760559,0.9516923427581788,0.0,0.0,0.0,0.0,-4.5575365703598444e-09,0.0,-0.0019744215533137,0.0076989941298961,-0.836994469165802,0.5471535921096802,-0.0001580485264376,-6.403367537602654e-06,2.14719492702597e-11,-0.0024414658546447,-0.0070030689239501,-0.0010871887207031,0,0,0,0
3.1,1788185226933,0.0,0.0,-0.0062646917067468,0.0048446846194565,-0.3069508671760559,0.9516923427581788,0.0,0.0,0.0,0.0,-4.5575365703598444e-09,0.0,-0.0019744215533137,0.0076989941298961,-0.836994469165802,0.5471535921096802,-0.0001580485264376,-6.403367537602654e-06,2.14719492702597e-11,-0.0024414658546447,-0.0070030689239501,-0.0010871887207031,0,0,0,0
3.2,1788185227033,0.0,0.0,-0.0062646917067468,0.0048446846194565,-0.3069508671760559,0.9516923427581788,0.0,0.0,0.0,0.0,-4.5575365703598444e-09,0.0,-0.0019744215533137,0.0076989941298961,-0.836994469165802,0.5471535921096802,-0.0001580485264376,-6.403367537602654e-06,2.14719492702597e-11,-0.0024414658546447,-0.0070030689239501,-0.0010871887207031,0,0,0,0
3.3,1788185227133,0.0,0.0,-0.0062646917067468,0.0048446846194565,-0.3069508671760559,0.9516923427581788,0.0,0.0,0.0,0.0,-4.5575365703598444e-09,0.0,-0.0019744215533137,0.0076989941298961,-0.836994469165802,0.5471535921096802,-0.0001580485264376,-6.403367537602654e-06,2.14719492702597e-11,-0.0024414658546447,-0.0070030689239501,-0.0010871887207031,0,0,0,0
3.4,1788185227233,0.0,0.0,-0.0062646917067468,0.0048446846194565,-0.3069508671760559,0.9516923427581788,0.0,0.0,0.0,0.0,-4.5575365703598444e-09,0.0,-0.0019744215533137,0.0076989941298961,-0.836994469165802,0.5471535921096802,-0.0001580485264376,-6.403367537602654e-06,2.14719492702597e-11,-0.0024414658546447,-0.0070030689239501,-0.0010871887207031,0,0,0,0
3.5,1788185227333,0.0,0.0,-0.0062646917067468,0.0048446846194565,-0.3069508671760559,0.9516923427581788,0.0,0.0,0.0,0.0,-4.5575365703598444e-09,0.0,-0.0019744215533137,0.0076989941298961,-0.836994469165802,0.5471535921096802,-0.0001580485264376,-6.403367537602654e-06,2.14719492702597e-11,-0.0024414658546447,-0.0070030689239501,-0.0010871887207031,0,0,0,0
3.6,1788185227433,0.0,0.0,-0.0062646917067468,0.0048446846194565,-0.3069508671760559,0.9516923427581788,0.0,0.0,0.0,0.0,-4.5575365703598444e-09,0.0,-0.0019744215533137,0.0076989941298961,-0.836994469165802,0.5471535921096802,-0.0001580485264376,-6.403367537602654e-06,2.14719492702597e-11,-0.0024414658546447,-0.0070030689239501,-0.0010871887207031,0,0,0,0
3.7,1788185227533,0.0,0.0,-0.0062646917067468,0.0048446846194565,-0.3069508671760559,0.9516923427581788,0.0,0.0,0.0,0.0,-4.5575365703598444e-09,0.0,-0.0019744215533137,0.0076989941298961,-0.836994469165802,0.5471535921096802,-0.0001580485264376,-6.403367537602654e-06,2.14719492702597e-11,-0.0024414658546447,-0.0070030689239501,-0.0010871887207031,0,0,0,0
3.8,1788185227633,0.0,0.0,-0.0062646917067468,0.0048446846194565,-0.3069508671760559,0.9516923427581788,0.0,0.0,0.0,0.0,-4.5575365703598444e-09,0.0,-0.0019744215533137,0.0076989941298961,-0.836994469165802,0.5471535921096802,-0.0001580485264376,-6.403367537602654e-06,2.14719492702597e-11,-0.0024414658546447,-0.0070030689239501,-0.0010871887207031,0,0,0,0
3.9,1788185227733,0.0,0.0,-0.0062646917067468,0.0048446846194565,-0.3069508671760559,0.9516923427581788,0.0,0.0,0.0,0.0,-4.5575365703598444e-09,0.0,-0.0019744215533137,0.0076989941298961,-0.836994469165802,0.5471535921096802,-0.0001580485264376,-6.403367537602654e-06,2.14719492702597e-11,-0.0024414658546447,-0.0070030689239501,-0.0010871887207031,0,0,0,0
4.0,1788185227833,0.0,0.0,-0.0062646917067468,0.0048446846194565,-0.3069508671760559,0.9516923427581788,0.0,0.0,0.0,0.0,-4.5575365703598444e-09,0.0,-0.0019744215533137,0.0076989941298961,-0.836994469165802,0.5471535921096802,-0.0001580485264376,-6.403367537602654e-06,2.14719492702597e-11,-0.0024414658546447,-0.0070030689239501,-0.0010871887207031,0,0,0,0
4.1,1788185227933,0.0,0.0,-0.0062646917067468,0.0048446846194565,-0.3069508671760559,0.9516923427581788,0.0,0.0,0.0,0.0,-4.5575365703598444e-09,0.0,-0.0019744215533137,0.0076989941298961,-0.836994469165802,0.5471535921096802,-0.0001580485264376,-6.403367537602654e-06,2.14719492702597e-11,-0.0024414658546447,-0.0070030689239501,-0.0010871887207031,0,0,0,0
4.2,1788185228033,0.0,0.0,-0.0062646917067468,0.0048446846194565,-0.3069508671760559,0.9516923427581788,0.0,0.0,0.0,0.0,-4.5575365703598444e-09,0.0,-0.0019744215533137,0.0076989941298961,-0.836994469165802,0.5471535921096802,-0.0001580485264376,-6.403367537602654e-06,2.14719492702597e-11,-0.0024414658546447,-0.0070030689239501,-0.0010871887207031,0,0,0,0
4.3,1788185228133,0.0,0.0,-0.0062646917067468,0.0048446846194565,-0.3069508671760559,0.9516923427581788,0.0,0.0,0.0,0.0,-4.5575365703598444e-09,0.0,-0.0019744215533137,0.0076989941298961,-0.836994469165802,0.5471535921096802,-0.0001580485264376,-6.403367537602654e-06,2.14719492702597e-11,-0.0024414658546447,-0.0070030689239501,-0.0010871887207031,0,0,0,0
4.4,1788185228233,0.0,0.0,-0.0062646917067468,0.0048446846194565,-0.3069508671760559,0.9516923427581788,0.0,0.0,0.0,0.0,-4.722235935616936e-09,0.0,-0.001979068852961,0.0077036879956722,-0.836994469165802,0.5471535921096802,-9.864280075468628e-05,-2.8992045088462643e-05,-1.9870956973380686e-06,0.0099517703056335,-0.0379979014396667,0.0053138732910156,0,0,0,0
4.5,1788185228333,0.0,0.0,-0.0062646917067468,0.0048446846194565,-0.3069508671760559,0.9516923427581788,0.0,0.0,0.0,0.0,-3.769219603100282e-09,0.0,-0.001985540613532,0.0077042169868946,-0.836994469165802,0.5471535921096802,-5.441856863434517e-05,-0.0001048362542036,8.499242603376948e-11,-0.0158707499504089,0.0066983699798583,0.0059194564819335,0,0,0,0
4.6,1788185228433,0.0,0.0,-0.0062646917067468,0.0048446846194565,-0.3069508671760559,0.9516923427581788,0.0,0.0,0.0,0.0,-4.6712447243635324e-09,0.0,-0.0019902558997273,0.0077031115069985,-0.836994469165802,0.5471535921096802,-2.3154130823937308e-05,-8.730735588496822e-05,3.240254822263989e-11,-0.0032894015312194,0.0118228197097778,0.0112409591674804,0,0,0,0
4.7,1788185228533,0.0,0.0,-0.0062646917067468,0.0048446846194565,-0.3069508671760559,0.9516923427581788,0.0,0.0,0.0,0.0,-4.661767416536122e-09,0.0,-0.0019943006336688,0.0077014584094285,-0.836994469165802,0.5471535921096802,-3.3514351747447715e-05,-6.396774685812948e-05,3.196177649254581e-11,0.0023154616355895,0.0030751824378967,-0.000218391418457,0,0,0,0
4.8,1788185228633,0.0,0.0,-0.0062646917067468,0.0048446846194565,-0.3069508671760559,0.9516923427581788,0.0,0.0,0.0,0.0,-4.7068540176553605e-09,0.0,-0.0019956566393375,0.007702144794166,-0.836994469165802,0.5471535921096802,-4.59829029284414e-05,-7.703000462553956e-06,5.2621110047674274e-12,-0.0240861177444458,0.0337046980857849,-0.0128726959228515,0,0,0,0
4.9,1788185228733,0.0,0.0,-0.0062646917067468,0.0048446846194565,-0.3069508671760559,0.9516923427581788,0.0,0.0,0.0,0.0,-4.642517037467542e-09,0.0,-0.0019907904788851,0.0077037503942847,-0.836994469165802,0.5471535921096802,5.337004938815256e-05,0.0001159397185561,9.302239052487504e-11,0.0217458605766296,0.0400136113166809,-0.0018281936645507,0,0,0,0
5.0,1788185228833,0.0,0.0,-0.0062646917067468,0.0048446846194565,-0.3069508671760559,0.9516923427581788,0.0,0.0,0.0,0.0,-4.658586405525966e-09,0.0,-0.0019838884472846,0.0077013382688164,-0.836994469165802,0.5471535921096802,0.0001380886739612,7.553874824560874e-05,1.6940506713038855e-10,-0.0251984000205993,0.0014872550964355,0.0035600662231445,0,0,0,0
5.1,1788185228933,0.0,0.0,-0.0062646917067468,0.0048446846194565,-0.3069508671760559,0.9516923427581788,0.0,0.0,0.0,0.0,-4.678480713948829e-09,0.0,-0.0019770264625549,0.0076964264735579,-0.836994469165802,0.5471535921096802,0.0001718931021116,3.842973907989292e-05,9.901439695571649e-11,-0.0110150575637817,0.0174041390419006,-0.0319347381591796,0,0,0,0
5.2,1788185229033,0.0,0.0,-0.0062646917067468,0.0048446846194565,-0.3069508671760559,0.9516923427581788,0.0,0.0,0.0,0.0,-4.767762629143135e-09,0.0,-0.0019729631021618,0.0076894108206033,-0.8369945883750916,0.547153651714325,0.0002124740866847,-2.3470433065494683e-05,-9.970774642844872e-11,0.0062125921249389,0.0220761895179748,0.0296430587768554,0,0,0,0
5.3,1788185229133,0.0,0.0,-0.0062646917067468,0.0048446846194565,-0.3069508671760559,0.9516923427581788,0.0,0.0,0.0,0.0,-4.6372128359450934e-09,0.0,-0.0019691167399287,0.0076770763844251,-0.8369945883750916,0.547153651714325,0.0001950871560302,-6.866711608459075e-05,-2.073299832041628e-10,-0.0191621780395507,0.0149457454681396,0.0067691802978515,0,0,0,0
5.4,1788185229233,0.0,0.0,-0.0062646917067468,0.0048446846194565,-0.3069508671760559,0.9516923427581788,0.0,0.0,0.0,0.0,-4.6760191274586305e-09,0.0,-0.0019645011052489,0.0076674940064549,-0.8369947075843811,0.5471537113189697,0.000159230971492,5.641493886941507e-06,1.3513418172685016e-11,-0.0221404433250427,-0.0154566168785095,0.0015878677368164,0,0,0,0
5.5,1788185229333,0.0,0.0,-0.0062646917067468,0.0048446846194565,-0.3069508671760559,0.9516923427581788,0.0,0.0,0.0,0.0,-4.653379015451264e-09,0.0,-0.0019576679915189,0.0076643368229269,-0.8369947075843811,0.5471537113189697,0.0001357507823681,0.0001265993635154,2.5797588988902035e-10,0.0111325979232788,0.0006726384162902,0.0108613967895507,0,0,0,0
5.6,1788185229433,0.0,0.0,-0.0062646917067468,0.0048446846194565,-0.3069508671760559,0.9516923427581788,0.0,0.0,0.0,0.0,-4.702509937004606e-09,0.0,-0.0019445084035396,0.0076615987345576,-0.8369948267936707,0.5471537709236145,0.0001873954237649,0.0001709327491143,1.988431001635822e-06,-0.0045896172523498,-0.0107739567756652,0.0240850448608398,0,0,0,0
5.7,1788185229533,0.0,0.0,-0.0062646917067468,0.0048446846194565,-0.3069508671760559,0.9516923427581788,0.0,0.0,0.0,0.0,-3.816754912122633e-09,0.0,-0.0019329255446791,0.0076586501672863,-0.8369948267936707,0.5471537709236145,0.0001943280878636,0.0001803400032892,1.986632144749737e-06,-0.0312646627426147,0.0124159455299377,0.012181282043457,0,0,0,0
5.8,1788185229633,0.0,0.0,-0.0062646917067468,0.0048446846194565,-0.3069508671760559,0.9516923427581788,0.0,0.0,0.0,0.0,-4.661748320700099e-09,0.0,-0.0019208891317248,0.0076554659754037,-0.8369948267936707,0.5471537709236145,0.0001966163934577,0.000178942402847,1.886564661053212e-06,-0.0039302706718444,-0.0020415782928466,-0.01904296875,0,0,0,0
5.9,1788185229733,0.0,0.0,-0.0062646917067468,0.0048446846194565,-0.3069508671760559,0.9516923427581788,0.0,0.0,0.0,0.0,-4.668680109176648e-09,0.0,-0.0019077258184552,0.0076526403427124,-0.8369949460029602,0.5471538305282593,0.0001877796517013,0.0001833778383015,1.9879313502711527e-06,-0.0272011756896972,-0.0128675699234008,-0.0154914855957031,0,0,0,0
6.0,1788185229833,0.0,0.0,-0.0062646917067468,0.0048446846194565,-0.3069508671760559,0.9516923427581788,0.0,0.0,0.0,0.0,-4.738092584943843e-09,0.0,-0.001897188834846,0.0076511316001415,-0.8369949460029602,0.5471538305282593,0.000144378973924,0.0001936111729913,2.128991679655749e-06,0.0213247537612915,0.0178045630455017,0.0140399932861328,0,0,0,0
6.1,1788185229933,0.0,0.0,-0.0062646917067468,0.0048446846194565,-0.3069508671760559,0.9516923427581788,0.0,0.0,0.0,0.0,-3.799223158296172e-09,0.0,-0.0018856329843401,0.0076499357819557,-0.8369949460029602,0.5471538305282593,8.143929738277871e-05,0.0001384234834087,1.985736553216185e-06,-0.0003325343132019,-0.0087919235229492,0.0074176788330078,0,0,0,0
6.2,1788185230033,0.0,0.0,-0.0062646917067468,0.0048446846194565,-0.3069508671760559,0.9516923427581788,0.0,0.0,0.0,0.0,-4.683705867591925e-09,0.0,-0.0018802657723426,0.0076512917876243,-0.8369949460029602,0.5471538305282593,4.240443780330812e-05,0.0001232910498222,1.0443221830194668e-10,0.001321792602539,-0.0104104876518249,0.0183019638061523,0,0,0,0
6.3,1788185230133,0.0,0.0,-0.0062646917067468,0.0048446846194565,-0.3069508671760559,0.9516923427581788,0.0,0.0,0.0,0.0,-4.667985553652443e-09,0.0,-0.0018740417435765,0.007651106454432,-0.8369949460029602,0.5471538305282593,9.079563474169908e-05,5.659741101784236e-05,6.98677231673021e-11,0.0206760764122009,-0.0376578569412231,-0.0015335083007812,0,0,0,0
6.4,1788185230233,0.0,0.0,-0.0062646917067468,0.0048446846194565,-0.3069508671760559,0.9516923427581788,0.0,0.0,0.0,0.0,-4.7199844033229965e-09,0.0,-0.0018734103068709,0.0076491544023156,-0.8369949460029602,0.5471538305282593,3.4531620372051126e-05,-3.8739377221151264e-05,-2.0059851617696668e-11,0.0001251697540283,0.0128270983695983,0.0221881866455078,0,0,0,0
6.5,1788185230333,0.0,0.0,-0.0062646917067468,0.0048446846194565,-0.3069508671760559,0.9516923427581788,0.0,0.0,0.0,0.0,-4.689236110522188e-09,0.0,-0.0018739588558673,0.0076459925621747,-0.8369950652122498,0.547153890132904,5.82198964222419e-05,-3.791954659006264e-05,-3.2878561415743706e-11,-0.0086364150047302,0.0072779059410095,0.0025262832641601,0,0,0,0
6.6,1788185230433,0.0,0.0,-0.0062646917067468,0.0048446846194565,-0.3069508671760559,0.9516923427581788,0.0,0.0,0.0,0.0,-4.674774345403421e-09,0.0,-0.0018692594021558,0.0076420791447162,-0.8369950652122498,0.547153890132904,0.0001090875651868,5.287122670575577e-05,1.9823707029562715e-06,0.0118536949157714,0.0068941712379455,-0.0165491104125976,0,0,0,0
6.7,1788185230533,0.0,0.0,-0.0062646917067468,0.0048446846194565,-0.3069508671760559,0.9516923427581788,0.0,0.0,0.0,0.0,-4.65771599067466e-09,0.0,-0.0018659811466932,0.0076405080035328,-0.8369950652122498,0.547153890132904,4.9061804672735226e-05,3.264342331708944e-05,1.979819469650195e-06,0.020557165145874,-1.329183578491211e-05,0.0091314315795898,0,0,0,0
6.8,1788185230633,0.0,0.0,-0.0062646917067468,0.0048446846194565,-0.3069508671760559,0.9516923427581788,0.0,0.0,0.0,0.0,-3.3780997998889006e-09,0.0,-0.0018640207126736,0.0076384721323847,-0.8369950652122498,0.547153890132904,6.620499010361695e-05,1.2283217985405682e-06,1.217749486254933e-12,-0.0011067986488342,-0.0002404451370239,-0.0135602951049804,0,0,0,0
6.9,1788185230733,0.0,0.0,-0.0062646917067468,0.0048446846194565,-0.3069508671760559,0.9516923427581788,0.0,0.0,0.0,0.0,-4.567757283524543e-09,0.0,-0.0018631070852279,0.0076370211318135,-0.8369950652122498,0.547153890132904,5.034019566966528e-05,-2.119261289183492e-06,1.590996784194058e-06,0.0077605843544006,0.0054486393928527,0.0063209533691406,0,0,0,0
7.0,1788185230833,0.0,0.0,-0.0062646917067468,0.0048446846194565,-0.3069508671760559,0.9516923427581788,0.0,0.0,0.0,0.0,-4.6557007138403605e-09,0.0,-0.0018647825345396,0.0076374830678105,-0.8369950652122498,0.547153890132904,-4.1472966004161e-05,-4.278932971640582e-05,2.7935324572185485e-11,-0.0176694989204406,0.0258916616439819,-0.0149612426757812,0,0,0,0
7.1,1788185230933,0.0,0.0,-0.0062646917067468,0.0048446846194565,-0.3069508671760559,0.9516923427581788,0.0,0.0,0.0,0.0,-4.57780524598661e-09,0.0,-0.0018689446151256,0.0076389983296394,-0.8369950652122498,0.547153890132904,-7.968037558310528e-05,-5.50576806351901e-05,6.581333392787038e-11,0.0054960250854492,0.0225449800491333,0.0016632080078125,0,0,0,0
7.2,1788185231033,0.0,0.0,-0.0062646917067468,0.0048446846194565,-0.3069508671760559,0.9516923427581788,0.0,0.0,0.0,0.0,-4.782633844513384e-09,0.0,-0.0018730806186795,0.00764100253582,-0.8369950652122498,0.547153890132904,-0.0001095381484418,-5.971723528888165e-05,1.6159231507391257e-10,-0.0035459399223327,-0.0112002491950988,0.0071439743041992,0,0,0,0
7.3,1788185231133,0.0,0.0,-0.0062646917067468,0.0048446846194565,-0.3069508671760559,0.9516923427581788,0.0,0.0,0.0,0.0,-4.7087853616289985e-09,0.0,-0.0018796846270561,0.0076462719589471,-0.8369950652122498,0.547153890132904,-0.0001326001449006,-3.25607097531638e-05,6.481864454050346e-11,0.003747820854187,0.0070066452026367,0.0106706619262695,0,0,0,0
7.4,1788185231233,0.0,0.0,-0.0062646917067468,0.0048446846194565,-0.3069508671760559,0.9516923427581788,0.0,0.0,0.0,0.0,-4.69005900782804e-09,0.0,-0.0018850797787308,0.0076505355536937,-0.8369949460029602,0.5471538305282593,-0.000148514927318,-5.423811833306432e-05,-1.9500113629538327e-06,0.0053734183311462,0.0145404338836669,-0.0004234313964843,0,0,0,0
7.5,1788185231333,0.0,0.0,-0.0062646917067468,0.0048446846194565,-0.3069508671760559,0.9516923427581788,0.0,0.0,0.0,0.0,-4.655474672432547e-09,0.0,-0.0018920786678791,0.0076558915898203,-0.8369949460029602,0.5471538305282593,-0.0001363125669432,-4.829850436170764e-05,9.367395138765646e-11,-0.0125991106033325,-0.0341060161590576,0.0100336074829101,0,0,0,0
7.6,1788185231433,0.0,0.0,-0.0062646917067468,0.0048446846194565,-0.3069508671760559,0.9516923427581788,0.0,0.0,0.0,0.0,-5.671243918925484e-09,0.0,-0.0018936293199658,0.0076571712270379,-0.8369949460029602,0.5471538305282593,-0.0001294564539157,-4.0341294287918055e-05,7.74333323607213e-11,-0.0053208470344543,-0.0285245180130004,-0.0008134841918945,0,0,0,0
7.7,1788185231533,0.0,0.0,-0.0062646917067468,0.0048446846194565,-0.3069508671760559,0.9516923427581788,0.0,0.0,0.0,0.0,-5.671243918925484e-09,0.0,-0.0018936293199658,0.0076571712270379,-0.8369949460029602,0.5471538305282593,-0.0001294564539157,-4.0341294287918055e-05,7.74333323607213e-11,-0.0053208470344543,-0.0285245180130004,-0.0008134841918945,0,0,0,0
7.8,1788185231633,0.0,0.0,-0.0062646917067468,0.0048446846194565,-0.3069508671760559,0.9516923427581788,0.0,0.0,0.0,0.0,-4.6499164518820635e-09,0.0,-0.0018920935690402,0.0076680546626448,-0.8369948267936707,0.5471537709236145,1.0825813540584926e-06,0.0001450886321851,1.1945716447320914e-06,-0.0037009119987487,0.0225337743759155,0.002847671508789,0,0,0,0
7.9,1788185231733,0.0,0.0,-0.0062646917067468,0.0048446846194565,-0.3069508671760559,0.9516923427581788,0.0,0.0,0.0,0.0,-4.661610653045045e-09,0.0,-0.0018813656643033,0.0076709622517228,-0.8369948267936707,0.5471537709236145,9.869536331251468e-05,0.000200095427561,2.292998092890852e-06,0.0003195405006408,0.0129796862602233,-0.02215576171875,0,0,0,0
8.0,1788185231833,0.0,0.0,-0.0062646917067468,0.0048446846194565,-0.3069508671760559,0.9516923427581788,0.0,0.0,0.0,0.0,-5.65955504683302e-09,0.0,-0.0018813656643033,0.0076709622517228,-0.8369948267936707,0.5471537709236145,9.869536331251468e-05,0.000200095427561,2.292998092890852e-06,0.0003195405006408,0.0129796862602233,-0.02215576171875,0,0,0,0
8.1,1788185231933,0.0,0.0,-0.0062646917067468,0.0048446846194565,-0.3069508671760559,0.9516923427581788,0.0,0.0,0.0,0.0,-3.811098547856773e-09,0.0,-0.0018653776496648,0.0076678255572915,-0.8369948267936707,0.5471537709236145,0.0001889765386183,0.0001519015304812,1.9753172216391e-06,-0.0106083750724792,-0.0314862728118896,0.0226984024047851,0,0,0,0
8.2,1788185232033,0.0,0.0,-0.0062646917067468,0.0048446846194565,-0.3069508671760559,0.9516923427581788,0.0,0.0,0.0,0.0,-3.811098547856773e-09,0.0,-0.0018493849784135,0.0076588299125432,-0.8369949460029602,0.5471538305282593,0.0002681412258204,0.0001189314347878,1.2176170782949086e-06,0.0090367794036865,-0.003364622592926,0.0026302337646484,0,0,0,0
8.3,1788185232133,0.0,0.0,-0.0062646917067468,0.0048446846194565,-0.3069508671760559,0.9516923427581788,0.0,0.0,0.0,0.0,-4.676592890717757e-09,0.0,-0.0018454482778906,0.0076557183638215,-0.8369950652122498,0.547153890132904,0.0002332239580592,7.802276474219025e-05,1.460873648290881e-06,-0.0054782629013061,-0.0137999057769775,-0.0081434249877929,0,0,0,0
8.4,1788185232233,0.0,0.0,-0.0062646917067468,0.0048446846194565,-0.3069508671760559,0.9516923427581788,0.0,0.0,0.0,0.0,-4.7334398622922436e-09,0.0,-0.0018357979133725,0.0076463865116238,-0.8369950652122498,0.547153890132904,0.0001994671711806,5.541094874015287e-05,1.5702379668881709e-06,-0.0037785768508911,-0.0157026648521423,0.0175075531005859,0,0,0,0
8.5,1788185232333,0.0,0.0,-0.0062646917067468,0.0048446846194565,-0.3069508671760559,0.9516923427581788,0.0,0.0,0.0,0.0,-4.691370847353937e-09,0.0,-0.001826973631978,0.0076426556333899,-0.8369950652122498,0.547153890132904,8.701725267021413e-05,8.449870740104817e-05,1.1351837423647533e-10,-0.0179236531257629,0.0028948783874511,0.0207777023315429,0,0,0,0
8.6,1788185232433,0.0,0.0,-0.0062646917067468,0.0048446846194565,-0.3069508671760559,0.9516923427581788,0.0,0.0,0.0,0.0,-4.691370847353937e-09,0.0,-0.0018253708258271,0.0076425597071647,-0.8369950652122498,0.547153890132904,5.950543281645698e-05,8.015134011681805e-05,1.8532872196875904e-06,0.0002328753471374,-0.0022391080856323,0.0010251998901367,0,0,0,0
8.7,1788185232533,0.0,0.0,-0.0062646917067468,0.0048446846194565,-0.3069508671760559,0.9516923427581788,0.0,0.0,0.0,0.0,-4.674635345480738e-09,0.0,-0.0018244385719299,0.0076498026028275,-0.8369950652122498,0.547153890132904,-0.0001168952416495,-9.518878517649796e-06,1.6697503335767788e-11,-0.0023027062416076,0.0423203706741333,0.004953384399414,0,0,0,0
8.8,1788185232633,0.0,0.0,-0.0062646917067468,0.0048446846194565,-0.3069508671760559,0.9516923427581788,0.0,0.0,0.0,0.0,-4.769570516316435e-09,0.0,-0.0018276320770382,0.0076536200940608,-0.8369950652122498,0.547153890132904,-9.281950512059203e-05,-3.297772813337063e-06,4.732858301468579e-12,-0.0058499574661254,0.002573013305664,0.0152750015258789,0,0,0,0
8.9,1788185232733,0.0,0.0,-0.0062646917067468,0.0048446846194565,-0.3069508671760559,0.9516923427581788,0.0,0.0,0.0,0.0,-4.638543771307013e-09,0.0,-0.0018279934301972,0.0076550096273422,-0.8369950652122498,0.547153890132904,-1.972786391828002e-05,1.870773414726147e-05,-5.348841085293582e-12,0.0068802237510681,-0.01231449842453,0.0110607147216796,0,0,0,0
9.0,1788185232833,0.0,0.0,-0.0062646917067468,0.0048446846194565,-0.3069508671760559,0.9516923427581788,0.0,0.0,0.0,0.0,-4.638543771307013e-09,0.0,-0.0018279934301972,0.0076550096273422,-0.8369950652122498,0.547153890132904,-1.972786391828002e-05,1.870773414726147e-05,-5.348841085293582e-12,0.0068802237510681,-0.01231449842453,0.0110607147216796,0,0,0,0
9.1,1788185232933,0.0,0.0,-0.0062646917067468,0.0048446846194565,-0.3069508671760559,0.9516923427581788,0.0,0.0,0.0,0.0,-4.638543771307013e-09,0.0,-0.0018279934301972,0.0076550096273422,-0.8369950652122498,0.547153890132904,-1.972786391828002e-05,1.870773414726147e-05,-5.348841085293582e-12,0.0068802237510681,-0.01231449842453,0.0110607147216796,0,0,0,0
9.2,1788185233033,0.0,0.0,-0.0062646917067468,0.0048446846194565,-0.3069508671760559,0.9516923427581788,0.0,0.0,0.0,0.0,-5.80335202116089e-09,0.0,-0.0018227566033601,0.0076505439355969,-0.8369950652122498,0.547153890132904,0.0001472208894085,-1.50413631588478e-05,-2.9067349205360923e-11,0.0121801495552062,0.0098659992218017,-0.0158843994140625,0,0,0,0
9.3,1788185233133,0.0,0.0,-0.0062646917067468,0.0048446846194565,-0.3069508671760559,0.9516923427581788,0.0,0.0,0.0,0.0,-5.80335202116089e-09,0.0,-0.0018227566033601,0.0076505439355969,-0.8369950652122498,0.547153890132904,0.0001472208894085,-1.50413631588478e-05,-2.9067349205360923e-11,0.0121801495552062,0.0098659992218017,-0.0158843994140625,0,0,0,0
9.4,1788185233233,1.380281686782837,2.11267614364624,-0.0062646917067468,0.0048446846194565,-0.3069508671760559,0.9516923427581788,0.0006003728335583,0.0002117437723588,-1.8064074703188385e-07,0.0,-4.660850816406992e-09,0.0,-0.0022153686732053,0.0073525561019778,-0.8362981677055359,0.548221230506897,0.002100339033668,-0.0297773867639554,0.0866548729032223,2.3447182178497314,0.1014317274093627,0.0371274948120117,122,294,8956,12863
9.5,1788185233333,2.873239517211914,4.901408672332764,-0.0063465209677815,0.0043175034224987,-0.2989085614681244,0.9542509317398072,0.1008740391756698,0.007662865293593,-9.870633512447605e-06,0.0013770525110885,-0.0031155939213931,0.2292948216199875,-0.001903424039483,0.0075342627242207,-0.8303229808807373,0.5572282671928406,-1.1186989678612551e-05,0.0244907944128416,0.2900223755393404,0.5857463479042053,-0.032534122467041,0.4976539611816406,125,180,12271,18123
9.6,1788185233433,3.6619718074798575,6.366197109222412,-0.0061163371428847,0.0043317377567291,-0.2838995456695556,0.9588247537612916,0.1600180484090362,0.0053725514026921,1.324959255282043e-06,0.0035744460765272,-0.0070721502415835,0.3598747253417969,-0.002064605243504,0.0071520199999213,-0.8198449611663818,0.5725371837615967,0.0023219150929576,-0.0120298727166869,0.4016392948277306,-0.521628737449646,-0.0491696000099182,-0.6568374633789062,34,60,11128,16171
9.7,1788185233533,2.985915422439575,5.380281925201416,-0.005822891369462,0.0039759976789355,-0.2643394768238067,0.9644039273262024,0.1664262383425334,-0.0041931218551093,-6.468505040885784e-05,0.0071821198798716,-0.0004802285984624,0.4092329442501068,-0.0020407885313034,0.006662018597126,-0.8057887554168701,0.592162013053894,0.0072970334848436,-0.0232696078871595,0.3855943058933715,-0.0017801523208618,-0.2908471822738647,-0.4688663482666015,58,62,10503,15716
9.8,1788185233633,3.521126747131348,5.436619758605957,-0.0053897984325885,0.0042580030858516,-0.2441463470458984,0.969714105129242,0.1441225435214427,0.0009347709302027,-4.430410520102004e-05,0.0097178220748901,0.0108134122565388,0.3714871108531952,-0.0013197772204875,0.006624043919146,-0.7962322235107422,0.6049533486366272,0.0100708251306221,0.0046868575526828,0.3217576516731679,0.0582051873207092,-0.1546785831451416,0.253936767578125,133,74,13313,15490
9.9,1788185233733,3.802816867828369,5.380281925201416,-0.0050209229812026,0.0039278552867472,-0.2329739779233932,0.9724620580673218,0.1458080614095,0.0018704732814313,-2.599583750321516e-05,0.0036283312365412,0.0035241188015788,0.157772421836853,-0.0013313135132193,0.0063291871920228,-0.7912698984146118,0.6114329695701599,-0.003341803204986,0.0068068788333867,0.1618105464453618,-0.0758631825447082,-0.0286774039268493,0.3023290634155273,52,88,12069,16275
10.0,1788185233833,3.7183098793029785,5.492957592010498,-0.0051742112264037,0.0035349568352103,-0.2232583910226822,0.974739134311676,0.1617295777602423,0.0023545592867622,8.305223398823133e-05,-0.0012869060738012,-0.0224013812839984,0.2388177663087844,-0.001878798007965,0.0056780222803354,-0.7818922996520996,0.623384952545166,0.011742311353397,-0.0158686519926663,0.2777253881181097,0.1312119364738464,0.4311584234237671,-0.6935176849365234,78,69,11455,16122
10.1,1788185233933,3.436619758605957,4.985915660858154,-0.0047603556886315,0.0034224949777126,-0.2101060003042221,0.9776610136032104,0.1487393047803487,0.0017561624873074,-8.339480450811142e-05,0.0088720824569463,0.0079174907878041,0.2622842788696289,-0.0018424717709422,0.005504110828042,-0.7746551632881165,0.6323572397232056,-0.0038905839604094,-0.0197918977834542,0.2319499735695515,-0.0771940350532531,0.0601187348365783,1.7036123275756836,53,61,10115,14725
10.2,1788185234033,3.380281686782837,4.8450703620910645,-0.004927079193294,0.0034102597273886,-0.2030989378690719,0.9791398644447328,0.145063602759856,-0.0005939441302067,6.297311838768912e-05,-0.0059588341973721,-0.0028693519998341,0.2405643016099929,-0.0019054664298892,0.0054750721901655,-0.7666100859642029,0.6420868039131165,-0.00095842666202,-0.0316782390918636,0.269653271924044,0.0453277826309204,0.2110216617584228,0.8013286590576172,30,78,8891,14115
10.3,1788185234133,2.816901445388794,4.535211086273193,-0.0047666346654295,0.0037453975528478,-0.1832052171230316,0.9830560088157654,0.1325807965336096,-0.002861340180692,-1.6501464546435609e-06,0.0018058208515867,0.0137209529057145,0.2845904529094696,-0.0011620530858635,0.006126438267529,-0.7565239071846008,0.6539362668991089,0.0010831064105419,0.0102352718024121,0.2308423077659298,-0.3613188862800598,-0.172463059425354,-0.3874845504760742,18,25,7444,11650
10.4,1788185234233,3.4647886753082275,4.676056385040283,-0.0046001458540558,0.0038844910450279,-0.1728633493185043,0.9849274754524232,0.1143363090132022,0.0017540116173243,-1.444941149980092e-06,0.0065948269329965,-0.0025293056387454,0.2366949319839477,-0.0012178216129541,0.0058491490781307,-0.7490697503089905,0.6624642610549927,-0.0001116473527382,-0.0119196077650605,0.2600672643447848,1.0112987756729126,0.2312971949577331,0.0189208984375,132,131,13036,14555
10.5,1788185234333,3.91549301147461,4.3380279541015625,-0.0032284825574606,0.0044504115357995,-0.1603057980537414,0.987052083015442,0.1393782295654343,0.0024310917914347,-9.411867034897602e-05,0.0408288650214672,0.0277677718549966,0.2043863236904144,0.0010231956839561,0.0053877094760537,-0.7433403730392456,0.6688910126686096,0.0304492261348892,0.0272338727858817,0.1589313906930135,0.2139444351196289,0.1549292802810669,0.9346485137939452,161,44,14174,12064
10.6,1788185234433,4.309859275817871,4.14084529876709,-0.0046795802190899,0.0035255409311503,-0.1597151011228561,0.9871457815170288,0.1498515057894835,-0.0055019816468357,0.0001583071675293,-0.071404330432415,-0.0673584714531898,-0.0996469855308532,-0.0013247234746813,0.0054150130599737,-0.7457519173622131,0.6662005186080933,0.0193107354399913,-0.0205332165234396,0.0012142121716223,-0.3602000474929809,0.3880332112312317,0.3691701889038086,126,116,15019,14363
10.7,1788185234533,4.873239517211914,5.267605781555176,-0.0046632001176476,0.0025247435551136,-0.1604734510183334,0.9870259165763856,0.1236544964156114,0.0086557059592499,0.0001689047053571,0.0052529661916196,-0.0433217659592628,0.0226896181702613,-0.0015506763011217,0.0047570429742336,-0.7451961040496826,0.6668266654014587,0.0124790174026393,-0.0302264558538524,-0.0283819649540578,-0.0667408108711242,0.1299761533737182,1.2027349472045898,40,126,13579,16316
10.8,1788185234633,4.647887229919434,5.352112770080566,-0.004187321756035,0.0028028152883052,-0.160572662949562,0.987011194229126,0.1676679022330724,-0.0028951163220324,3.756127856997814e-05,0.0099779339507222,-0.0077892057597637,-0.0213310625404119,-0.0013343477621674,0.0052414815872907,-0.7438705563545227,0.6683018207550049,-0.0062526966588825,0.0401506498592763,0.140584386485478,-0.1230909824371337,-0.2284955382347107,-0.128122329711914,54,17,14176,12538
10.9,1788185234733,4.8450703620910645,5.098591327667236,-0.0038278826978057,0.0035032606683671,-0.1539482027292251,0.9880653023719788,0.1711792614904624,-0.0025696620581289,-5.286181312851816e-05,0.0147835128009319,0.0097972694784402,0.155976727604866,-0.0005286624655127,0.005112076178193,-0.7400832772254944,0.6724957227706909,0.0128719143230139,0.0023662377581295,0.0866719821979764,0.2665243148803711,0.0712148547172546,-0.9765729904174804,58,42,14563,15165
11.0,1788185234833,4.366197109222412,4.0,-0.0037469551898539,0.0035095959901809,-0.1534730195999145,0.9881395697593688,0.1557638990480806,-0.0006451117632099,-3.847508302324397e-06,0.0026041059754788,0.0005583376041613,0.0161485001444816,-0.00071079749614,0.0049135033041238,-0.7401689887046814,0.6724026799201965,0.0016430467716939,-0.0176726741048731,-0.0084156958222613,0.1735824346542358,-0.1639950275421142,0.1769323348999023,69,89,12887,11326
11.1,1788185234933,4.507042407989502,5.521126747131348,-0.0038155980873852,0.0031655062921345,-0.1558301448822021,0.987771451473236,0.1299308787518676,-0.004867952377272,-1.911350266193449e-05,0.0015599925536662,0.0060622305609285,-0.0475683622062206,-0.001204271800816,0.0043949401006102,-0.7421953082084656,0.6701682209968567,0.0041303792371774,-0.0171180917115091,0.0384292315347989,1.1947511434555054,0.4160484671592712,-0.0137510299682617,105,139,14043,17583
11.2,1788185235033,4.563380241394043,5.830986022949219,-0.0037311746273189,0.0028474824503064,-0.155552476644516,0.9878164529800416,0.1305709059767005,-0.0061371971124708,1.464764061966313e-07,0.0064015188254415,-0.0146279074251651,0.0135704074054956,-0.0011892532929778,0.0038994438946247,-0.7369953393936157,0.6758855581283569,-0.0046154573073392,-0.007977859851479,0.1619369996168742,-0.0197924971580505,0.2772350907325744,-0.0070981979370117,49,62,13690,15631
11.3,1788185235133,4.619718074798584,5.6619720458984375,-0.0034154737368226,0.0024081580340862,-0.1449137330055236,0.9894354343414308,0.171720094077196,-0.0008921099123204,-2.7418329902539014e-05,-0.0003205313987564,-0.0058025461621582,0.1203328594565391,-0.0004556877538561,0.0044323746114969,-0.7318061590194702,0.6814983487129211,0.0124347683900958,0.0252302191868895,0.1483144106151299,-0.1668400764465332,0.3019103407859802,0.8131837844848633,61,65,13097,15681
11.4,1788185235233,5.154929637908936,5.014084339141846,-0.0030734229367226,0.0030260297935456,-0.137328490614891,0.990516185760498,0.166067614393433,0.0001742606346929,4.213902795577763e-05,0.0033249959815293,-0.0032498901709914,0.1450330466032028,-0.000789082609117,0.0040488019585609,-0.7277300357818604,0.6858513355255127,-0.0012517442744291,-0.0397156549895618,0.0958474408030311,0.6326212882995605,-0.2305774688720703,-0.582942008972168,86,53,15825,14244
11.5,1788185235333,5.070422649383545,5.014084339141846,-0.0035178549587726,0.0026270968373864,-0.136277437210083,0.9906610250473022,0.1715894888216472,-0.0039972895606666,-3.694085353369107e-05,-0.0128490272909402,-0.0033482161816209,-0.0603539943695068,-0.0008543394505977,0.0044204872101545,-0.7300611138343811,0.683367133140564,0.0039231084949468,0.0194150755007225,-0.0869696837957786,-0.3715125918388366,0.2929412722587585,0.7260475158691406,53,78,14865,14628
11.6,1788185235433,4.957746505737305,4.873239517211914,-0.0034066401422023,0.0026746932417154,-0.1388076096773147,0.9903098940849304,0.1685652257389918,-0.0010522816791816,2.217862822748864e-05,0.0027859490364789,-0.0044135241769254,-0.0312845893204212,-0.0003978013992309,0.0046646669507026,-0.7298787832260132,0.6835606098175049,0.0100278012312229,0.0717563925946084,0.0543509733141969,0.122681975364685,0.1331932544708252,-0.7847929000854492,99,97,15408,15569
11.7,1788185235533,5.436619758605957,4.619718074798584,-0.003759550396353,0.0025663808919489,-0.1379337757825851,0.9904310703277588,0.169704037688968,-0.0023021128834386,-9.826455406030184e-05,-0.0109018012881279,-0.0051708938553929,0.0285481642931699,-0.0014286180958151,0.004774073138833,-0.7304806113243103,0.6829153895378113,-0.0160424392299467,-0.0171623233853577,-0.0481871872649574,0.0392894148826599,-0.0758137106895446,-0.378265380859375,103,22,17019,12734
11.8,1788185235633,5.267605781555176,4.873239517211914,-0.0039853048510849,0.0031499066390097,-0.1411667317152023,0.9899727702140808,0.1698744146974575,-0.0047399017377677,-0.000144275881505,0.0040750750340521,0.0207147002220153,-0.1112644374370575,0.001004846766591,0.005220890045166,-0.7340641021728516,0.6790593862533569,0.0676117558633212,0.0994081349142506,-0.1225110623178042,-0.2008953690528869,-0.2510893940925598,-0.2668952941894531,83,106,15774,14141
11.9,1788185235733,5.295774459838867,5.014084339141846,-0.0038224954623728,0.0038331062532961,-0.1479292213916778,0.988983154296875,0.1691908972314313,-0.0062741895068152,-2.175584753950752e-05,-0.051302820444107,-0.0477897375822067,-0.1391607671976089,-0.001411790959537,0.00540108140558,-0.7373554110527039,0.6754819750785828,0.0003165447433908,0.013603400369957,0.0629842000545545,-0.2271024584770202,0.2413886189460754,-0.1391630172729492,53,82,14477,14088
12.0,1788185235833,4.957746505737305,4.816901206970215,-0.004491155501455,0.0031181210651993,-0.1482657194137573,0.9889324307441713,0.1709998992575093,-0.0032141055457857,-1.9518611472463e-05,0.0003315947251394,-0.0007772701792418,0.0545347817242145,-0.0016945553943514,0.0054552089422941,-0.7371264696121216,0.6757307052612305,-0.0057572796112706,0.0017546314338904,-0.0464008336047437,0.3340880870819092,0.0294002294540405,1.3765592575073242,70,96,14828,15317
12.1,1788185235933,5.042253494262695,5.070422649383545,-0.0048070582561194,0.0027013628277927,-0.1487803757190704,0.9888548851013184,0.1631254593748739,-0.0064716259901914,0.0001031419751694,-0.0166586823761463,-0.0304922647774219,-0.0349604971706867,-0.002101082354784,0.005217695608735,-0.737507164478302,0.6753159761428833,-0.0061027824277247,-0.0284799941989678,-0.0352190418314167,0.329065203666687,-0.140906810760498,-0.3717927932739258,55,67,14857,14990
12.2,1788185236033,5.070422649383545,5.014084339141846,-0.0047422195784747,0.0037211512681096,-0.1485991925001144,0.9888790845870972,0.1692474183657529,-0.0036643362387596,-2.686179795256489e-07,0.0036617272999137,0.0284742005169391,0.0156262274831533,-0.0012940373271703,0.0060493936762213,-0.7371346354484558,0.6757177114486694,-0.0029483130304919,0.0176384189636741,0.0149710281362909,0.0283394455909729,0.1603427529335022,0.4867258071899414,63,67,14734,14925
12.3,1788185236133,5.014084339141846,4.985915660858154,-0.0051427781581878,0.0042660697363317,-0.1491930782794952,0.988785445690155,0.168613738818432,-0.003542969258713,3.0062722983521567e-08,-0.018642708659172,0.018924618139863,-0.0235353335738182,-0.0014432286843657,0.0065942946821451,-0.7376863360404968,0.6751099228858948,-0.0047640676402577,-0.007249283871291,-0.0027657252590685,-0.1348284482955932,-0.1487106680870056,0.7362527847290039,48,107,14741,14968
12.4,1788185236233,5.183098793029785,4.788732528686523,-0.0051427776925265,0.0042660702019929,-0.14919313788414,0.988785445690155,0.1703487620208389,-0.004692737587557,1.5271358180933086e-07,2.1505536906829548e-08,9.558016600408337e-09,-6.117130624261335e-07,-0.0016738250851631,0.0060228947550058,-0.7369831204414368,0.6758823394775391,0.0114203420267494,-0.0095334748446549,0.0279460945745539,0.0551171898841857,0.1003433465957641,-0.8047990798950195,99,64,15564,14459
12.5,1788185236333,5.014084339141846,4.957746505737305,-0.0051279533654451,0.0037027182988822,-0.1485166251659393,0.9888896942138672,0.1679247516490211,-0.0089639685638293,-4.11570470051135e-07,0.0,-2.326181025580354e-09,0.0,-0.0016625309363007,0.0063067702576518,-0.7385092973709106,0.674211859703064,0.0047738766395278,0.0430914644145798,-0.0357309771769811,0.0638735294342041,0.2728219032287597,-1.5565776824951172,41,127,13902,16291
12.6,1788185236433,5.070422649383545,4.985915660858154,-0.0050242142751812,0.0037823230959475,-0.1497347950935363,0.9887062311172484,0.1693106305565413,-0.0014689858724174,2.831461670057438e-07,0.0100945914164185,0.0039881756529212,0.0239233151078224,-0.001037317328155,0.0063255662098526,-0.7373732924461365,0.6754550933837891,0.0078569244007419,0.0213716311180769,0.0327359943897417,0.1236841678619384,-0.1030598282814025,0.4842643737792969,102,54,14846,14824
12.7,1788185236533,5.070422649383545,5.042253494262695,-0.0045811492018401,0.0047772657126188,-0.1491911560297012,0.9887861609458924,0.1665616561883923,-0.0033936795890237,-2.1333358735268695e-07,0.0096826385706663,0.0310521218925714,-0.0019166031852364,-0.0007456727325916,0.0065676877275109,-0.7378576397895813,0.6749240159988403,-0.0118506390479126,-0.0104378377821768,-0.0215665679779876,-0.087376594543457,0.2170232534408569,0.3212556838989258,75,51,14885,14547
12.8,1788185236633,4.591549396514893,5.577464580535889,-0.0045811496675014,0.0047772652469575,-0.14919114112854,0.9887861609458924,0.1723674666952621,-0.0033163122335266,1.5226929368331146e-07,0.0,-2.3553436978573927e-09,0.0,-0.0006882715970277,0.0061082877218723,-0.7354761958122253,0.6775226593017578,-0.0089712669522746,-0.0202262604317012,0.1299753355293848,-0.0834615230560302,0.2917592525482178,-0.0520687103271484,85,33,15195,14491
12.9,1788185236733,4.084506988525391,5.746479034423828,-0.0041531007736921,0.0044903480447828,-0.1450720429420471,0.989402174949646,0.1719258433393355,0.0009894919420818,1.3991983645040534e-05,0.0056030787527561,0.0049162209033966,0.0959953516721725,-0.0009884741157293,0.0057177962735295,-0.7326981425285339,0.6805290579795837,0.0059792659120793,-0.0159756036683732,0.1210888391782995,-0.2805883288383484,-0.1044093966484069,1.454117774963379,65,99,12523,17622
13.0,1788185236833,4.366197109222412,5.746479034423828,-0.0044679893180727,0.0035406809765845,-0.1366588622331619,0.9906018376350404,0.1698132301095335,0.0034577889899789,0.0001144505161936,-0.0022195759229362,-0.0137920966371893,0.2230218350887298,-0.0014652293175458,0.0048654116690158,-0.7249086499214172,0.6888262629508972,0.0103061725966397,-0.0417162549741499,0.2600262060250233,0.0523103475570678,0.1637177467346191,0.666351318359375,77,56,14003,15282
13.1,1788185236933,4.873239517211914,5.239436626434326,-0.0033968954812735,0.0033395604696124,-0.1247124373912811,0.9921814799308776,0.1598553562508552,0.0037311095615235,1.09070281162251e-05,0.0292887762188911,0.0215058848261833,0.2041439414024353,0.000778954476118,0.0043782172724604,-0.718250036239624,0.6957709193229675,0.0506297875500783,0.017749860031639,0.1686712853570733,0.4051666259765625,0.3737578988075256,0.2196731567382812,128,29,15655,14671
13.2,1788185237033,5.183098793029785,5.183098793029785,-0.0022919045295566,0.0038354443386197,-0.1214325502514839,0.9925896525382996,0.1659725031668548,-0.0008804390676416,-0.0001110437591633,0.0512320287525653,0.0308563541620969,0.1654775440692901,-0.0020792130380868,0.0039784982800483,-0.7174043655395508,0.6966425776481628,-0.1094536021094673,-0.1514729887173283,-0.0006094732002596,0.3347681760787964,-0.6807239055633545,1.7812299728393557,52,65,13604,14891
13.3,1788185237133,4.450704097747803,5.492957592010498,-0.0040112533606588,0.0019009171519428,-0.1199739426374435,0.992767095565796,0.1889178380539625,-0.0015766729679721,0.0001559176921912,-0.0593411065638065,-0.0857039839029312,0.0585952028632164,-0.0025683445855975,0.0033766850829124,-0.7141022086143494,0.700028657913208,0.0006224544222785,-0.0161843386997111,0.1359208291504846,0.1375541090965271,0.3325895071029663,-0.0150699615478515,42,62,13294,16041
13.4,1788185237233,4.450704097747803,5.492957592010498,-0.0040112533606588,0.0019009171519428,-0.1199739426374435,0.992767095565796,0.1889178380539625,-0.0015766729679721,0.0001559176921912,-0.0593411065638065,-0.0857039839029312,0.0585952028632164,-0.0033922186121344,0.0026069097220897,-0.7094976902008057,0.7046948075294495,-0.0066061487481439,-0.0408954711396125,0.0914915659154007,-0.2744343876838684,-0.2477442026138305,-0.681976318359375,42,62,13294,16041
13.5,1788185237333,4.873239517211914,5.154929637908936,-0.0038578030653297,0.0006239744252525,-0.1066381335258483,0.9942902326583862,0.1677825412053842,0.0018968028589056,4.176509827093454e-05,0.0104153621941804,0.0036154917906969,0.055753655731678,-0.0033922186121344,0.0026069097220897,-0.7094976902008057,0.7046948075294495,-0.0066061487481439,-0.0408954711396125,0.0914915659154007,-0.2744343876838684,-0.2477442026138305,-0.681976318359375,93,100,14729,15331
13.6,1788185237433,4.309859275817871,6.14084529876709,-0.0038339709863066,0.0005795224569737,-0.1037823259830474,0.9945924878120422,0.1791367730870068,-0.0003003827755514,2.005220181378761e-05,0.0013802882749587,-0.0026227498892694,0.1424722671508789,-0.0023334417492151,0.0028730304911732,-0.6985576152801514,0.7155442833900452,0.0068926093250257,-0.0057941540728933,0.2771291094543747,-0.1418578028678894,0.0141311883926391,-0.660670280456543,57,70,11661,16472
13.7,1788185237533,4.169013977050781,5.97183084487915,-0.00376952229999,0.0010839439928531,-0.088232085108757,0.9960922598838806,0.1668181925413965,0.0008341202832627,1.0175855919682887e-05,-0.004537658765912,0.0081415474414825,0.2793089747428894,-0.0023660929873585,0.0026303455233573,-0.6855061054229736,0.7280582785606384,0.0023180732171458,-0.0014510836784218,0.3250203973102832,0.1171956658363342,0.0664489865303039,0.2926282882690429,61,90,12661,16984
13.8,1788185237633,4.253520965576172,5.88732385635376,-0.00376952229999,0.0010839439928531,-0.088232085108757,0.9960922598838806,0.1668181925413965,0.0008341202832627,1.0175855919682887e-05,-0.004537658765912,0.0081415474414825,0.2793089747428894,-0.0021929210051894,0.0026470646262168,-0.6785383820533752,0.7345569133758545,0.0078578471018192,-0.0143250247132037,0.250391535375851,0.0329751372337341,-0.0665062665939331,-0.2525405883789062,61,90,12661,16984
13.9,1788185237733,4.253520965576172,5.88732385635376,-0.0037447426002472,0.0008080136612989,-0.0546774268150329,0.99849671125412,0.1694408360504466,0.0018903722062657,9.076197755023483e-06,-0.0152267040684819,0.016097355633974,0.2555010616779327,-0.0021877717226743,0.002646162174642,-0.6757168173789978,0.7371533513069153,0.0001629630868797,-0.0006466398018757,0.2421539615941789,-0.4286775588989258,-0.0703954100608825,1.5218133926391602,61,90,12661,16984
14.0,1788185237833,4.253520965576172,5.943662166595459,-0.0037447426002472,0.0008080136612989,-0.0546774268150329,0.99849671125412,0.1694408360504466,0.0018903722062657,9.076197755023483e-06,-0.0152267040684819,0.016097355633974,0.2555010616779327,-0.0023867422714829,0.0028408654034137,-0.6581025123596191,0.7529192566871643,0.0007593783108749,0.0094082532580611,0.292518999051876,0.2325297594070434,0.265268862247467,-0.2035713195800781,62,88,12583,16888
14.1,1788185237933,4.563380241394043,5.521126747131348,-0.0036368640139698,0.000669028609991,-0.0388910807669162,0.9992366433143616,0.167840050770802,0.0011592250064155,-2.1321224480289274e-05,0.0009248696151189,0.0141704091802239,0.2635393440723419,-0.0026604225859045,0.0024122232571244,-0.6517063975334167,0.7584628462791443,0.0035252811533957,0.0018283654158619,0.1698239154228294,-0.1109291315078735,-0.0523861646652221,0.2336750030517578,62,88,12583,16888
14.2,1788185238033,4.563380241394043,5.521126747131348,-0.0036360614467412,0.0005266922526061,-0.032599002122879,0.9994617700576782,0.1690632565634262,0.0016871107116221,6.318953196873974e-05,9.541694453218952e-05,-0.0053501985967159,0.203849971294403,-0.0028601130470633,0.0021111434325575,-0.6487358212471008,0.7610054612159729,0.0017650256667729,-0.0153340405916517,0.1608198091398095,-0.0113419890403747,0.017234444618225,0.5595273971557617,62,88,12583,16888
14.3,1788185238133,4.563380241394043,5.521126747131348,-0.0036360614467412,0.0005266922526061,-0.032599002122879,0.9994617700576782,0.1690632565634262,0.0016871107116221,6.318953196873974e-05,9.541694453218952e-05,-0.0053501985967159,0.203849971294403,-0.0025764824822545,0.0013546822592616,-0.6408929228782654,0.7676247358322144,0.0144249502612293,-0.0200258202570605,0.1576325696168075,0.5653643608093262,0.1754807233810424,-2.330829620361328,62,88,12583,16888
14.4,1788185238233,4.563380241394043,5.521126747131348,-0.0036360614467412,0.0005266922526061,-0.032599002122879,0.9994617700576782,0.1690632565634262,0.0016871107116221,6.318953196873974e-05,9.541694453218952e-05,-0.0053501985967159,0.203849971294403,-0.0025402335450053,0.0012453719973564,-0.635478675365448,0.7721132636070251,0.0036679581608885,-0.0090065887199304,0.1454765161067521,0.0972083210945129,-0.1998211741447448,0.2124509811401367,62,88,12583,16888
14.5,1788185238333,4.563380241394043,5.521126747131348,-0.0036360614467412,0.0005266922526061,-0.032599002122879,0.9994617700576782,0.1690632565634262,0.0016871107116221,6.318953196873974e-05,9.541694453218952e-05,-0.0053501985967159,0.203849971294403,-0.0025402335450053,0.0012453719973564,-0.635478675365448,0.7721132636070251,0.0036679581608885,-0.0090065887199304,0.1454765161067521,0.0972083210945129,-0.1998211741447448,0.2124509811401367,62,88,12583,16888
14.6,1788185238433,4.563380241394043,5.521126747131348,-0.0022463309578597,-0.000687145802658,-0.0014412734890356,0.9999962449073792,0.181038741881317,0.0011134238445937,0.0002164038722053,-0.068633459508419,-0.0831545367836952,0.0437872447073459,-0.0022797975689172,0.0008425619453191,-0.6297517418861389,0.7767926454544067,-0.0762634668266245,-0.1066365669910292,0.0239757052851298,-0.1287344098091125,-0.7373124361038208,0.7821798324584961,62,88,12583,16888
14.7,1788185238533,1.7183098793029783,3.126760482788086,-0.0019851035904139,-0.0010303442832082,0.0018537386786192,0.999995768070221,0.1706228710593176,-0.0067744490995169,-8.084897536624527e-05,0.0105475531890988,-0.0139932399615645,0.1316145956516266,-0.0019072797149419,0.0003141369670629,-0.6197723150253296,0.7847792506217957,0.0096651071569269,-0.0059516700899569,0.2426470559542855,-1.3063130378723145,-0.0793883204460144,-0.0589828491210937,62,88,12583,16888
14.8,1788185238633,1.7183098793029783,3.126760482788086,-0.0019851035904139,-0.0010303442832082,0.0018537386786192,0.999995768070221,0.1706228710593176,-0.0067744490995169,-8.084897536624527e-05,0.0105475531890988,-0.0139932399615645,0.1316145956516266,-0.0022311685606837,1.2469477951526642e-05,-0.6167305707931519,0.7871710658073425,-0.0031587104481832,-0.0214578821824722,0.1870662915458611,-1.1590064764022827,0.1729910373687744,0.0595245361328125,45,57,1704,6025
14.9,1788185238733,-0.6760563254356384,0.0,-0.0017974069342017,-0.0018488940550014,0.0235044937580823,0.9997204542160034,-0.0137088773223191,0.0014170699543321,-3.6037780535065914e-06,0.000205882708542,-0.0034150967840105,0.0585207939147949,-0.0025299983099102,-0.000375771895051,-0.6086613535881042,0.793425977230072,0.0089167806734915,-0.0140989492886875,0.1485878536725518,0.610132098197937,0.3064185380935669,0.0050287246704101,45,57,1704,6025
15.0,1788185238833,0.0,0.0,-0.0017974069342017,-0.0018488940550014,0.0235044937580823,0.9997204542160034,-0.0137088773223191,0.0014170699543321,-3.6037780535065914e-06,0.000205882708542,-0.0034150967840105,0.0585207939147949,-0.0024856608361005,-0.0002807304263114,-0.6078786253929138,0.7940259575843811,0.0014466102760813,0.000972042626791,-0.023696805285948,-0.1528351306915283,0.2315882444381714,-0.0255804061889648,0,0,0,0
15.1,1788185238933,0.0,0.0,-0.0017974069342017,-0.0018488940550014,0.0235044937580823,0.9997204542160034,-0.0137088773223191,0.0014170699543321,-3.6037780535065914e-06,0.000205882708542,-0.0034150967840105,0.0585207939147949,-0.0024980641901493,-0.0002456912770867,-0.608074426651001,0.793876051902771,0.0001831057836302,-0.0017142138724998,0.0005450839095213,0.1043054461479187,-0.0732296109199523,-0.0059804916381835,0,0,0,0
15.2,1788185239033,0.7605633735656738,-0.8732394576072693,-0.0017974069342017,-0.0018488940550014,0.0235044937580823,0.9997204542160034,-0.0137088773223191,0.0014170699543321,-3.6037780535065914e-06,0.000205882708542,-0.0034150967840105,0.0585207939147949,-0.0024980641901493,-0.0002456912770867,-0.608074426651001,0.793876051902771,0.0001831057836302,-0.0017142138724998,0.0005450839095213,0.1043054461479187,-0.0732296109199523,-0.0059804916381835,70,156,5948,-3834
15.3,1788185239133,0.0,0.0,-0.001752897282131,-0.0017733520362526,0.0256915539503097,0.9996668100357056,0.003525886377848,-0.0004405982501341,-5.4384438316632986e-08,0.000621382612735,-0.0016600202070549,-0.0290477648377418,-0.0023579206317663,6.780959665775299e-06,-0.6207280158996582,0.7840225100517273,-0.0070369360394491,0.0070910303339704,-0.259992298514086,-0.1945717930793762,-0.1522154211997985,0.0731668472290039,0,5,0,0
15.4,1788185239233,0.0,0.0,-0.0018042785814031,-0.0015565488720312,0.0083085875958204,0.9999626278877258,-0.0011628445180416,0.0006152081253451,2.910849456035355e-07,-0.0001701587170828,-0.000696649949532,-0.1295321732759475,-0.0023284163326025,-1.1051073670387268e-05,-0.6218241453170776,0.7831534147262573,-0.0012361276894889,0.0001202278726778,0.0291666228306787,-0.0002858042716979,-0.1939754486083984,0.0109786987304687,0,5,0,0
15.5,1788185239333,0.0,0.0,-0.0018042788142338,-0.0015565488720312,0.0083085820078849,0.9999626278877258,-0.0038970864190186,0.0037523057653029,1.44861111373782e-08,-9.679738788292981e-09,-1.018919837392218e-09,-2.2358013040957306e-07,-0.0023447722196578,-5.164928734302521e-05,-0.6217114329338074,0.78324294090271,-0.0003498398521359,0.0003594895046679,0.0001100452291653,0.0403557419776916,-0.0270377397537231,-0.0222644805908203,0,0,-739,739
15.6,1788185239433,-1.042253494262695,0.7323943376541138,-0.001788128982298,-0.0014947263989597,0.0099276406690478,0.999948024749756,0.0019039907863415,-0.0009489867883708,3.826048570799017e-07,0.0004317186248954,0.0022982105147093,0.0605486072599887,-0.0023447722196578,-5.164928734302521e-05,-0.6217114329338074,0.78324294090271,-0.0003498398521359,0.0003594895046679,0.0001100452291653,0.0403557419776916,-0.0270377397537231,-0.0222644805908203,0,0,-739,739
15.7,1788185239533,0.0,0.0,-0.001768609159626,-0.0016572081949561,0.0255237240344285,0.9996712803840636,-0.0004321701917491,-0.0001274183523677,5.412333499694954e-07,0.0015742358518764,0.0035930213052779,0.0835258737206459,-0.0024685114622116,-0.0001098746433854,-0.6088212132453918,0.7933036684989929,-0.0033226065150385,0.0005251911955823,-0.0194487539478005,0.1297078132629394,-0.3957551717758178,0.0789718627929687,0,0,-739,739
15.8,1788185239633,-0.6760563254356384,0.9295774698257446,-0.0017635797848924,-0.0016711754724383,0.0250392742455005,0.9996835589408876,0.0012688660137065,-0.003652999843287,1.3215097608474125e-07,0.0001570716704009,-0.0005335328751243,-0.0195679329335689,-0.0025365808978676,-0.0002420097589492,-0.6037756204605103,0.797150194644928,0.0037335446807092,-0.0072702797961533,0.330116544730698,0.1133258938789367,0.2169978618621826,-0.0604028701782226,0,0,-739,739
15.9,1788185239733,-0.6760563254356384,0.9295774698257446,-0.0018723397515714,-0.0017020530067384,0.0341156609356403,0.9994147419929504,-0.0001893283497578,-0.0001612356929284,4.554970849448268e-09,0.0001004912264761,-0.0012209877604618,0.3048754334449768,-0.0024206507951021,0.0001539476215839,-0.5978356599807739,0.8016151189804077,-0.0004169214474045,0.0028957543775953,0.1116462569757301,0.3111074566841125,-0.398223340511322,0.041996955871582,0,0,-739,739
16.0,1788185239833,0.0,0.0,-0.0019910323899239,-0.0014173021772876,0.038651242852211,0.9992498159408568,0.0026099497683823,-0.0044925222908783,1.292443087228777e-08,9.109368814819163e-10,-1.457499010371066e-09,5.596796199824894e-07,-0.0025569787248969,-0.0001518875360488,-0.5995621681213379,0.8003241419792175,0.0036549318160159,-0.0080844421475001,-0.0172520024661948,0.2453517317771911,0.2306880950927734,0.0443954467773437,0,0,-739,739
16.1,1788185239933,0.0,0.0,-0.0019706890452653,-0.0015476330881938,0.0373325459659099,0.9992998242378236,0.0009551538523707,0.0013322951139868,-3.207519352159006e-07,0.0,-1.1833739543831712e-09,0.0,-0.0025235963985323,-4.3517909944057465e-05,-0.5994741916656494,0.8003901243209839,-0.0015226926223733,0.004261785907814,0.0044097966245721,-0.1602209210395813,-0.2444731593132019,0.0316324234008789,125,134,-5241,5241
16.2,1788185240033,0.0,0.591549277305603,-0.0019706890452653,-0.0015476330881938,0.0373325459659099,0.9992998242378236,0.0009551538523707,0.0013322951139868,-3.207519352159006e-07,0.0,-1.1833739543831712e-09,0.0,-0.0025235963985323,-4.3517909944057465e-05,-0.5994741916656494,0.8003901243209839,-0.0015226926223733,0.004261785907814,0.0044097966245721,-0.1602209210395813,-0.2444731593132019,0.0316324234008789,239,118,-7665,6036
16.3,1788185240133,-0.9014084339141846,0.7887324094772339,-0.0021529896184802,-0.0014213975518941,0.0529909096658229,0.9985916614532472,-0.0006015530673017,-0.0038749780904334,8.418668535131569e-07,-0.0002255630242871,-0.0010591525351628,0.2722178697586059,-0.0025390610098838,0.0002619177103042,-0.5843694806098938,0.8114838004112244,0.004601122216734,-0.0050775472805225,0.2703321314270306,0.1633696556091308,0.3060894012451172,-0.0257520675659179,239,118,-7665,6036
16.4,1788185240233,-0.9014084339141846,0.7887324094772339,-0.0021548138465732,-0.0015514277620241,0.0645080804824829,0.9979135990142822,0.0027076646733201,-0.0028606166999718,-3.324028644461142e-08,0.0011332577560096,-0.0049796113744378,0.2649040520191192,-0.0026694424450397,0.0001599565148353,-0.5729038119316101,0.8196182250976562,-0.000917064240995,-0.002689340839901,0.0120976063415336,0.1427463889122009,-0.1400027871131897,0.0118227005004882,239,118,-7665,6036
16.5,1788185240333,-0.9014084339141846,0.7887324094772339,-0.0021619314793497,-0.0014899770030751,0.0699357315897941,0.9975480437278748,0.007494950165628,-0.0035205458682786,5.314289096388672e-07,0.0001795289572328,0.0019780877046287,0.2173084318637848,-0.0026663346216082,0.0001481538638472,-0.5737566947937012,0.8190214037895203,-0.0016939984630307,-0.0003902847999249,-0.0184434654146602,0.0364120602607727,0.0122961997985839,0.0497150421142578,239,118,-7665,6036
16.6,1788185240433,0.0,0.0,-0.0021619314793497,-0.0014899770030751,0.0699357315897941,0.9975480437278748,0.007494950165628,-0.0035205458682786,5.314289096388672e-07,0.0001795289572328,0.0019780877046287,0.2173084318637848,-0.0026663346216082,0.0001481538638472,-0.5737566947937012,0.8190214037895203,-0.0016939984630307,-0.0003902847999249,-0.0184434654146602,0.0364120602607727,0.0122961997985839,0.0497150421142578,0,0,0,0
16.7,1788185240533,0.0,0.0,-0.0021500878501683,-0.0015224842354655,0.0721379518508911,0.997391164302826,-0.0013194878074519,0.0017965849650552,-1.9988624125491366e-07,-0.0009405202581547,0.0019462128402665,-0.0293451827019453,-0.0026663346216082,0.0001481538638472,-0.5737566947937012,0.8190214037895203,-0.0016939984630307,-0.0003902847999249,-0.0184434654146602,0.0364120602607727,0.0122961997985839,0.0497150421142578,0,0,0,0
16.8,1788185240633,0.0,0.0,-0.0021183246280997,-0.0015260099899023,0.0717866346240043,0.997416615486145,0.0002369162642298,0.0010567664183779,4.405565616952101e-07,0.0015276510966941,-0.0002475069195497,-0.0173905715346336,-0.002667823806405,-1.9274652004241943e-05,-0.5755777955055237,0.8177427649497986,0.0036700846197301,-0.0050352350278068,-0.1158684951053471,-0.065021812915802,0.5205994844436646,0.0172939300537109,0,0,0,0
16.9,1788185240733,0.0,0.0,-0.0021289181895554,-0.001608638674952,0.0678246840834617,0.997693657875061,0.0016958229577963,0.0006666565346477,1.1513015798614883e-07,-0.0016254418296739,0.0027804495766758,0.0358339101076126,-0.0026445612311363,0.0001011900603771,-0.574135422706604,0.818756103515625,0.0024491064765012,0.0008601986294217,0.0542008994338815,-0.0411046743392944,0.0475618243217468,-0.0061531066894531,0,0,0,0
17.0,1788185240833,0.0,0.0,-0.0021137052681297,-0.0015958371805027,0.0685815215110778,0.9976419806480408,2.2130961815527217e-06,-0.0004045573289375,-2.7491446040067803e-09,0.0,-1.7562568066509243e-09,0.0,-0.0026400350034236,0.0001007486134767,-0.5735718011856079,0.8191510438919067,0.0005749102576685,3.709875775651899e-05,-0.0032887513936792,-0.0088430047035217,0.0581438541412353,0.0263624191284179,0,0,0,0
17.1,1788185240933,0.0,0.0,-0.0021137052681297,-0.0015958371805027,0.0685815215110778,0.9976419806480408,0.0002013310218113,0.000205234325163,-2.671935921255415e-07,0.0,-1.743105437768122e-09,0.0,-0.0026598023250699,8.339900523424149e-05,-0.5735345482826233,0.8191770911216736,0.0005098947005123,-0.0021333616759917,0.0028002715960656,0.0123289227485656,0.042215347290039,-0.0005502700805664,0,0,0,0
17.2,1788185241033,0.0,0.0,-0.0021137052681297,-0.0015958371805027,0.0685815215110778,0.9976419806480408,0.0,0.0,0.0,0.0,-1.7461629919779396e-09,0.0,-0.0027001043781638,7.767509669065475e-05,-0.573519766330719,0.8191872239112854,0.0009031238679398,-0.0008703607493571,0.0013931691790796,-0.0115877389907836,-0.0272704362869262,0.0044479370117187,0,0,0,0
17.3,1788185241133,0.0,0.0,-0.0021137052681297,-0.0015958371805027,0.0685815215110778,0.9976419806480408,0.0,0.0,0.0,0.0,-1.7278600772385742e-09,0.0,-0.0027136541903018,5.870126187801361e-05,-0.5735374093055725,0.8191748261451721,-9.981461067605788e-06,-0.0009306953908693,-0.0008643334325645,-0.0137866735458374,-0.0074572563171386,-0.0080480575561523,0,0,0,0
17.4,1788185241233,0.0,0.0,-0.0021137052681297,-0.0015958371805027,0.0685815215110778,0.9976419806480408,0.0,0.0,0.0,0.0,-1.4943872805872616e-09,0.0,-0.0027915220707654,-1.2759119272232056e-05,-0.5785093307495117,0.8156710267066956,-0.0025215160539461,-0.0031935456458746,-0.2191920297375056,-0.2918898463249206,-0.1357626318931579,-0.1893987655639648,179,166,6405,-6405
17.5,1788185241333,0.0,0.0,-0.0021137052681297,-0.0015958371805027,0.0685815215110778,0.9976419806480408,0.0,0.0,0.0,0.0,-1.4943872805872616e-09,0.0,-0.002710822969675,-6.491318345069885e-06,-0.5787731409072876,0.8154841661453247,-0.0012350262159517,0.0028264658071647,0.0569892297313455,-0.0012529492378234,0.0054165124893188,0.1159992218017578,179,166,6405,-6405
17.6,1788185241433,0.0,0.0,-0.0021319810766726,-0.0016894935397431,0.0636157914996147,0.9979707598686218,0.0035292623012057,0.0004786719103931,-4.160191842129446e-07,-0.0006655340548604,0.0029075611382722,0.0857171416282653,-0.002710822969675,-6.491318345069885e-06,-0.5787731409072876,0.8154841661453247,-0.0012350262159517,0.0028264658071647,0.0569892297313455,-0.0012529492378234,0.0054165124893188,0.1159992218017578,179,166,6405,-6405
17.7,1788185241533,0.0,0.0,-0.0020513974595814,-0.0016879788599908,0.0651842355728149,0.9978697299957277,-0.0001783638607266,-0.0014339018510601,-1.872142662359139e-07,6.795233264966782e-09,6.499788263170103e-09,-1.8152136362914464e-06,-0.0027069961652159,-6.270594894886017e-06,-0.576535165309906,0.8170678019523621,0.0015696830200297,-0.001673786270125,-0.0027928371610349,-0.0077531337738037,0.0580253005027771,-0.0023517608642578,179,166,6405,-6405
17.8,1788185241633,0.0,0.0,-0.0020513974595814,-0.0016879788599908,0.0651842355728149,0.9978697299957277,-0.0001783638607266,-0.0014339018510601,-1.872142662359139e-07,6.795233264966782e-09,6.499788263170103e-09,-1.8152136362914464e-06,-0.0027245953679084,-4.15584072470665e-05,-0.576490581035614,0.8170993328094482,0.0019331128832366,-0.0023690161840996,-0.0008887197125549,0.0040656328201293,0.0399566888809204,-0.0041666030883789,0,0,0,0
17.9,1788185241733,0.0,0.0,-0.0020513976924121,-0.0016879782779142,0.0651841014623642,0.9978697299957277,0.0,0.0,0.0,-1.1577439007481871e-09,1.2735182686185452e-08,-8.891473157746077e-07,-0.0027245953679084,-4.15584072470665e-05,-0.576490581035614,0.8170993328094482,0.0019331128832366,-0.0023690161840996,-0.0008887197125549,0.0040656328201293,0.0399566888809204,-0.0041666030883789,174,76,7767,6863
18.0,1788185241833,3.6056337356567374,3.436619758605957,-0.0020513974595814,-0.0016879782779142,0.0651840940117836,0.9978697299957277,0.0007583515225446,0.0002681077339601,2.985576600375457e-07,1.1305636427039191e-08,7.293958770304697e-10,-3.734506890396006e-07,-0.0028313128277659,-0.0002976171672344,-0.576888918876648,0.8168177008628845,-0.00127980560653,0.0021349614646587,0.0038101244588261,1.0411293506622314,0.1095736026763916,0.6688613891601562,185,182,13567,12430
18.1,1788185241933,5.436619758605957,5.408450603485107,-0.0019920042250305,-0.0020207308698445,0.0648021474480629,0.997894048690796,0.1205099975663804,0.0027900522351098,2.0297738094028482e-07,0.0,-1.752588740799865e-09,0.0,-0.0028146393597126,0.0001100832596421,-0.57643061876297,0.8171412944793701,-0.0095143444645782,0.0084088459542538,0.0035564532272985,-0.4083822965621948,-0.0042343735694885,0.5793695449829102,37,91,15100,15001
18.2,1788185242033,5.267605781555176,5.239436626434326,-0.0021281451918184,-0.0006509600207209,0.066834919154644,0.997761607170105,0.1759159200026142,-0.0020778911095193,-3.780640607749151e-05,0.0077092596329748,0.0264775846153497,0.0564814768731594,-0.0028146393597126,0.0001100832596421,-0.57643061876297,0.8171412944793701,-0.0095143444645782,0.0084088459542538,0.0035564532272985,-0.4083822965621948,-0.0042343735694885,0.5793695449829102,52,47,14903,14752
18.3,1788185242133,5.070422649383545,5.098591327667236,-0.0021848005708307,-0.0003892268869094,0.0664690136909484,0.9977860450744628,0.1719100599696697,0.0007056630576604,-8.556549409657797e-08,-0.0015438123373314,0.0104593439027667,-0.0144109223037958,-0.0019884714856743,0.001557782292366,-0.5763842463493347,0.8171748518943787,-0.011991426405957,0.0160992025794482,-0.0252954819571675,-0.1790499091148376,-0.0144885778427124,0.343057632446289,52,47,14903,14752
18.4,1788185242233,5.070422649383545,5.098591327667236,-0.0025626844726502,-7.45371580705978e-05,0.065402403473854,0.9978557229042052,0.1688455811362779,0.0010852769610722,-2.5693624842525468e-05,-0.0116263097152113,0.0155887817963957,-0.0152099840342998,-0.0016433093696832,0.0020152907818555,-0.5765730142593384,0.8170414566993713,0.0009996708775327,0.0314015382971311,-0.0125796064154656,0.1346632242202758,-0.0215354561805725,-1.0602083206176758,60,92,14935,14591
18.5,1788185242333,5.070422649383545,5.098591327667236,-0.002708112122491,0.0017724538920447,0.0652093440294265,0.9978663325309752,0.17249377269381,-0.0034444957175288,-0.0001339210863669,-0.0021573307458311,0.0193100441247224,0.0007047168910503,-0.0008411714807152,0.0032951747998595,-0.5768260359764099,0.8168599605560303,-1.636067502481627e-05,0.014885660586401,-0.0117046802206996,0.0728922486305236,0.0487710237503051,-0.3040580749511719,63,101,14790,14889
18.6,1788185242433,5.126760482788086,4.957746505737305,-0.0029110615141689,0.0024372516199946,0.0647468715906143,0.9978944659233092,0.173642394257899,-0.0009744221790398,-4.704141530251224e-05,-0.0063617820851504,0.0272454228252172,-0.0185658354312181,4.14140522480011e-05,0.0047217523679137,-0.5765888094902039,0.8170207738876343,0.0042797977597141,0.0101299339126594,0.0198324087451815,-0.0774189829826355,-0.037204623222351,-0.3175897598266601,63,101,14790,14889
18.7,1788185242533,5.070422649383545,4.957746505737305,-0.0029110615141689,0.0024372516199946,0.0647468715906143,0.9978944659233092,0.173642394257899,-0.0009744221790398,-4.704141530251224e-05,-0.0063617820851504,0.0272454228252172,-0.0185658354312181,0.0001593558117747,0.0053095454350113,-0.5764070749282837,0.8171454071998596,-0.0097302869157993,0.0219050994873662,0.0088278492465868,0.1212499737739563,-0.1122993826866149,-0.9833478927612304,86,74,14774,15109
18.8,1788185242633,4.985915660858154,5.126760482788086,-0.0032021717634052,0.0042007961310446,0.0653980374336242,0.9978452920913696,0.1728067570332514,-0.0035903388748983,3.316530558016178e-07,-4.0483790542111826e-08,-5.783398648873117e-09,1.1104125405836385e-06,0.0001593558117747,0.0053095454350113,-0.5764070749282837,0.8171454071998596,-0.0097302869157993,0.0219050994873662,0.0088278492465868,0.1212499737739563,-0.1122993826866149,-0.9833478927612304,73,70,15038,14481
18.9,1788185242733,5.070422649383545,4.901408672332764,-0.0032021712977439,0.0042007961310446,0.065398059785366,0.9978452920913696,0.1686614188759674,-0.0024770542119998,-1.3762515127492366e-07,1.5052963320272283e-08,-2.894800399388941e-09,8.892827167983341e-07,0.0003492748364806,0.0062356060370802,-0.575907826423645,0.8174907565116882,-0.0107226897167497,-0.0151136753177346,0.0146993080757114,-0.0507163405418396,0.0297647714614868,1.1593751907348633,83,87,14770,15335
19.0,1788185242833,5.070422649383545,4.901408672332764,-0.003890068270266,0.0055967541411519,0.0659734606742858,0.9977981448173524,0.1738631647204116,-0.0007797233365821,-1.1851868631498633e-07,-0.0073353117331862,0.026038309559226,-0.0002186983329011,0.0007812986150383,0.0071491859853267,-0.5759239196777344,0.8174716234207153,0.00628993415107,0.0240006278593011,-0.0006023401855353,0.1269199252128601,0.1515266895294189,-0.8260421752929688,72,78,14780,15238
19.1,1788185242933,4.873239517211914,5.211267471313477,-0.003890068270266,0.0055967541411519,0.0659734606742858,0.9977981448173524,0.1738631647204116,-0.0007797233365821,-1.1851868631498633e-07,-0.0073353117331862,0.026038309559226,-0.0002186983329011,0.0029900139197707,0.0073301857337355,-0.5748943090438843,0.8181893825531006,0.0438467424156935,0.0233056717574963,0.047176034268138,0.1270527243614196,0.2088546752929687,0.3252849578857422,72,78,14780,15238
19.2,1788185243033,4.873239517211914,5.211267471313477,-0.003890068270266,0.0055967541411519,0.0659734606742858,0.9977981448173524,0.1738631647204116,-0.0007797233365821,-1.1851868631498633e-07,-0.0073353117331862,0.026038309559226,-0.0002186983329011,-0.0002414034679532,0.0068695209920406,-0.5755614638328552,0.817729651927948,-0.0191077534264069,-0.0098834747876833,-0.0117295836201151,-0.177165150642395,0.3680569529533386,1.1521282196044922,47,37,14546,14980
19.3,1788185243133,4.901408672332764,5.295774459838867,-0.0043287128210067,0.0047979331575334,0.0658992379903793,0.9978054165840148,0.1792807515026478,-0.0008149262543427,0.0002861110975986,-0.062943123281002,-0.076228879392147,-0.0561689250171184,-0.0010186322033405,0.0060898466035723,-0.5713936686515808,0.8206529021263123,-0.0054256273298608,-0.0154406352053692,0.0728472894496693,0.1826395392417907,0.0018897652626037,0.3466930389404297,88,53,13971,14958
19.4,1788185243233,4.901408672332764,5.295774459838867,-0.0046290284954011,0.0040601571090519,0.0717758685350418,0.997401773929596,0.164401605564078,0.0009208153518487,8.031451445018069e-05,-0.0041757118888199,-0.0146702313795685,0.0616654083132743,-0.0012226831167936,0.0061152493581175,-0.5706608295440674,0.8211622834205627,-0.0117027509013795,-0.0062558112770892,0.0560753553086332,0.212213933467865,0.0776656866073608,0.5894174575805664,88,53,13971,14958
19.5,1788185243333,4.901408672332764,5.295774459838867,-0.0050087654963135,0.0035861248616129,0.0733171477913856,0.9972896575927734,0.1699559494942056,-0.0009502534014536,3.772413512982351e-05,-0.0168223325163126,-0.0181323792785406,0.061811089515686,-0.0019975323230028,0.0057002883404493,-0.5660049915313721,0.8243796825408936,-0.0010260293699893,-0.0206267362385373,0.0713476358712262,-0.0816869139671325,0.0129939913749694,0.3753595352172851,88,53,13971,14958
19.6,1788185243433,4.901408672332764,5.126760482788086,-0.0054631629027426,0.0028700775001198,0.0792930200695991,0.9968322515487672,0.171284613090756,-0.0027672518695449,-4.192548080857055e-06,-0.0132640963420271,-0.0050511346198618,0.0403855592012405,-0.0019975323230028,0.0057002883404493,-0.5660049915313721,0.8243796825408936,-0.0010260293699893,-0.0206267362385373,0.0713476358712262,-0.0816869139671325,0.0129939913749694,0.3753595352172851,88,53,13971,14958
19.7,1788185243533,4.591549396514893,5.6619720458984375,-0.0053848014213144,0.0022902786731719,0.0819370374083519,0.9966203570365906,0.1752767261074001,-0.0010794767031759,6.522434760383028e-05,0.0009451743098907,-0.0241620559245347,0.107050284743309,-0.0027680974453687,0.0047528529539704,-0.5568857789039612,0.8305708765983582,0.0063478681224061,-0.0134994349882071,0.1493895286834201,-0.2172167301177978,-0.2078792452812194,0.3924446105957031,49,63,13030,15709
19.8,1788185243633,4.535211086273193,5.690140724182129,-0.0051899324171245,0.001494322088547,0.0941981002688407,0.9955387711524964,0.1639164842764267,0.0019456923655716,5.020759221725728e-05,-0.0063028987497091,-0.0103641003370285,0.1500465422868728,-0.0027680974453687,0.0047528529539704,-0.5568857789039612,0.8305708765983582,0.0063478681224061,-0.0134994349882071,0.1493895286834201,-0.2172167301177978,-0.2078792452812194,0.3924446105957031,67,66,13227,15554
19.9,1788185243733,2.507042169570923,3.859154939651489,-0.005066196899861,0.0012541895266622,0.098903901875019,0.9950832724571228,0.1563978750118442,0.0019502326168599,5.411018872497194e-05,0.0036480752751231,-0.0109824985265731,0.1891374737024307,-0.0030327728018164,0.0041639888659119,-0.5436576008796692,0.8392913937568665,0.0023219335646486,0.0132242605516544,0.2086028550467421,-0.7959578037261963,0.1141934990882873,-0.382883071899414,63,75,2894,6559
20.0,1788185243833,2.507042169570923,3.859154939651489,-0.0049195690080523,0.0013100854121148,0.1076553463935852,0.9941752552986144,0.0602223575595476,0.000937839396121,5.543730338636559e-06,0.0024884568993002,-0.0013933776644989,0.153452917933464,-0.0030553415417671,0.0038793440908193,-0.5406056642532349,0.841261625289917,0.0028114126401848,-0.0168293747179884,-0.0119504958651217,2.7187321186065674,0.0241627693176269,-0.1343946456909179,63,75,2894,6559
20.1,1788185243933,2.507042169570923,3.859154939651489,-0.004836918786168,0.000915182637982,0.1081204786896705,0.9941256046295166,0.1006321357846897,-0.0015816017720202,6.05933603628588e-05,0.001864168094471,-0.0173861850053071,-0.0093214316293597,-0.0026199761778116,0.0043279631063342,-0.5404065251350403,0.8413889408111572,0.008357202727878,0.0333209889695855,0.0342348935941277,0.791983962059021,0.342477023601532,0.0452861785888671,63,75,2894,6559
20.2,1788185244033,5.549295902252197,5.295774459838867,-0.004836918786168,0.000915182637982,0.1081204786896705,0.9941256046295166,0.1006321357846897,-0.0015816017720202,6.05933603628588e-05,0.001864168094471,-0.0173861850053071,-0.0093214316293597,-0.0025366637855768,0.0043258899822831,-0.5405436754226685,0.8413009643554688,0.0103378272137062,0.029725865874671,-0.0007564164330969,0.3204273581504822,0.3033568859100342,0.0484437942504882,63,75,2894,6559
20.3,1788185244133,5.549295902252197,5.070422649383545,-0.0047473851591348,0.0011905157007277,0.1072492748498916,0.9942200779914856,0.1679973948198038,-0.007997374442836,-4.129573665478689e-07,-2.0438916337184313e-08,-1.1679381017870584e-08,8.969764166977257e-07,-0.0026295781135559,0.0040316833183169,-0.5416294932365417,0.8406035304069519,0.013410423438101,6.586601724279647e-05,-0.0100661834206804,-0.470150887966156,-0.1342174410820007,0.8064956665039062,63,75,2894,6559
20.4,1788185244233,5.323943614959717,4.929577350616455,-0.0047167222946882,0.0015719283837825,0.1065048575401306,0.9942997097969056,0.1647471608355912,-0.0042970652878187,-3.21816241806624e-05,0.0036173244006931,0.0188871324062347,-0.0371813662350177,-0.0027421470731496,0.0041674794629216,-0.5453548431396484,0.8381905555725098,0.0011892256006924,0.0153256713000244,-0.074085393389039,0.1096974611282348,0.1627591252326965,0.2014055252075195,63,75,2894,6559
20.5,1788185244333,5.323943614959717,4.929577350616455,-0.0043625710532069,0.0018363617127761,0.1009598895907402,0.9948792457580566,0.1658857311779796,0.0006380090724706,-6.435638870184158e-05,0.013778300024569,0.011355698108673,-0.0653898790478706,-0.0027421470731496,0.0041674794629216,-0.5453548431396484,0.8381905555725098,0.0011892256006924,0.0153256713000244,-0.074085393389039,0.1096974611282348,0.1627591252326965,0.2014055252075195,63,75,2894,6559
20.6,1788185244433,5.464788913726807,4.8450703620910645,-0.0030794024933129,0.0040624602697789,0.0997189432382583,0.9950026273727416,0.1626474167455372,-0.0009343464861875,-0.0002022305708808,0.0605416260659694,0.0841348692774772,-0.0497071631252765,-0.0022721122950315,0.0048707770183682,-0.551459014415741,0.8341847062110901,-0.0872779286051947,-0.1000257722439282,-0.1714597628071783,0.2581194639205932,-0.7101035118103027,1.5239439010620115,52,48,14773,14275
20.7,1788185244533,5.464788913726807,4.8450703620910645,-0.0030794024933129,0.0040624602697789,0.0997189432382583,0.9950026273727416,0.1626474167455372,-0.0009343464861875,-0.0002022305708808,0.0605416260659694,0.0841348692774772,-0.0497071631252765,-0.0017383713275194,0.005683746188879,-0.5532276630401611,0.8330088257789612,-0.0009246724395549,0.0084756500952683,0.0122484812831728,0.0499380230903625,0.0879783630371093,-1.9975690841674805,52,48,14773,14275
20.8,1788185244633,5.239436626434326,4.873239517211914,-0.0048681530170142,0.0031702842097729,0.0931903794407844,0.9956313371658324,0.1627833112964352,-0.0027820429696161,9.188318021647116e-05,0.0026500574313104,-0.0144376913085579,0.0013920300407335,-0.0022206483408808,0.0053623709827661,-0.5549138188362122,0.8318875432014465,-0.0054137421632756,-0.0310331369825093,-0.060107796476093,-0.3566485047340393,-0.1429299712181091,1.462602615356445,52,48,14773,14275
20.9,1788185244733,5.295774459838867,4.985915660858154,-0.0051603284664452,0.0029261780437082,0.0902036800980568,0.9959056377410888,0.1635047210037192,-0.0043731566026565,2.4783121146542017e-05,-0.0053329817019402,-0.0038063002284616,-0.0772613435983657,-0.002117303200066,0.0052739866077899,-0.5573601126670837,0.8302514553070068,-0.0037892765713536,-0.0183017714559382,-0.051044812879128,-0.0973652005195617,-0.3545778393745422,-0.0512971878051757,52,48,14773,14275
21.0,1788185244833,5.295774459838867,4.985915660858154,-0.0052893008105456,0.0031819134019315,0.0865498259663581,0.9962284564971924,0.1695169541374362,-0.0036147983016528,-2.7187268155402427e-05,-0.0080415550619363,0.0099924439564347,-0.0616315156221389,-0.0021792585030198,0.0057892818003892,-0.5596374869346619,0.8287143707275391,-0.0058680130689221,0.0052213701377631,-0.0508777183087158,-0.005115270614624,0.0734675526618957,-0.4460678100585937,52,48,14773,14275
21.1,1788185244933,5.154929637908936,5.154929637908936,-0.0052893008105456,0.0031819134019315,0.0865498259663581,0.9962284564971924,0.1695169541374362,-0.0036147983016528,-2.7187268155402427e-05,-0.0080415550619363,0.0099924439564347,-0.0616315156221389,-0.0019995858892798,0.0059670638293027,-0.5603751540184021,0.8282150626182556,0.0017064102894529,0.0082262669085557,-0.0289807757540975,-0.0230242609977722,0.3237159848213196,-0.2245750427246093,52,48,14773,14275
21.2,1788185245033,5.154929637908936,5.154929637908936,-0.0052557368762791,0.0033526041079312,0.0841356515884399,0.9964348077774048,0.1676406045494483,-0.0038348671275278,1.662451559210038e-05,0.0011620415607467,-0.0049459389410912,-0.0446517765522003,-0.001920960843563,0.0060194684192538,-0.5618108510971069,0.8272416591644287,0.0007334879640531,0.0035058747949458,-0.045107061918296,-0.2619016170501709,-0.1106441617012023,0.8794631958007812,52,48,14773,14275
21.3,1788185245133,5.154929637908936,5.154929637908936,-0.0056422376073896,0.0038590622134506,0.0793850123882293,0.996820628643036,0.1132708451861374,-0.0011995510935683,-5.680777499901108e-05,-0.0102772368118166,0.0151963364332914,-0.1397151947021484,-0.0020152069628238,0.0065345978364348,-0.5666811466217041,0.823908805847168,-0.0013350662868626,-0.0013740202115834,-0.1340016098005059,-0.66351717710495,-0.1073392033576965,-0.2160453796386718,52,48,14773,14275
21.4,1788185245233,-1.436619758605957,1.94366192817688,-0.0055865230970084,0.0037539754994213,0.0802527740597724,0.9967517852783204,0.0302452780706041,0.0057023536271354,5.88232007462795e-07,0.0028722572606056,-0.0032036381307989,0.1152972877025604,-0.0022684130817651,0.0062481500208377,-0.551468014717102,0.8341695666313171,-0.0088144954651023,0.0029552029190614,0.4557694920774618,-0.7686077952384949,0.1410494446754455,-0.0322837829589843,60,74,-3756,7066
21.5,1788185245333,-1.436619758605957,1.94366192817688,-0.0057837050408124,0.0037492520641535,0.1166624948382377,0.9931477308273317,-0.0026670611811653,-0.0039248497611125,9.075678434044208e-07,-0.0045368550345301,0.0140345934778451,0.6523154377937317,-0.0021387496963143,0.0065561961382627,-0.5330485105514526,0.8460566401481628,-0.0041538747611001,0.0061714611382565,0.6274181579041155,0.1262694001197815,-0.2002323269844055,-0.1842355728149414,60,74,-3756,7066
21.6,1788185245433,-1.887323975563049,1.774647831916809,-0.0057837050408124,0.0037492520641535,0.1166624948382377,0.9931477308273317,-0.0026670611811653,-0.0039248497611125,9.075678434044208e-07,-0.0045368550345301,0.0140345934778451,0.6523154377937317,-0.0020637949928641,0.0064276121556758,-0.5035156607627869,0.8639597296714783,-0.0028487548780817,-0.0078597791587864,0.5659771971561075,-0.1298162341117859,-0.0904324650764465,-0.2872982025146484,82,75,-7416,6761
21.7,1788185245533,-1.97183096408844,1.8028168678283687,-0.0057837050408124,0.0037492520641535,0.1166624948382377,0.9931477308273317,-0.0026670611811653,-0.0039248497611125,9.075678434044208e-07,-0.0045368550345301,0.0140345934778451,0.6523154377937317,-0.0021117245778441,0.0064696073532104,-0.490451455116272,0.8714419603347778,-0.0052552921338014,-0.0024253157290453,0.5992968941324756,-0.0010975003242492,0.0598819851875305,0.245553970336914,72,64,-7153,6691
21.8,1788185245633,-1.5492957830429075,1.6619718074798584,-0.0058457511477172,0.0036646400112658,0.1875836998224258,0.9822244048118592,0.0057934759018129,-0.0060624698999289,1.2599985151556298e-06,-0.0049200314097106,-0.0030849946197122,0.5378738641738892,-0.0021117245778441,0.0064696073532104,-0.490451455116272,0.8714419603347778,-0.0052552921338014,-0.0024253157290453,0.5992968941324756,-0.0010975003242492,0.0598819851875305,0.245553970336914,79,49,-6203,4937
21.9,1788185245733,-1.5492957830429075,1.436619758605957,-0.0060836640186607,0.0036971676163375,0.2210129797458648,0.9752448797225952,4.848617336990009e-05,-0.0020548799455787,3.289932781136932e-07,-0.0048825633712112,0.0012113540433347,0.4667145013809204,-0.0023726485669612,0.0065991524606943,-0.4533182084560394,0.8913211822509766,-0.0048813789564405,-0.0008354991907137,0.4340669401247797,-0.032379925251007,0.0982374548912048,0.1001234054565429,48,48,-6114,5666
22.0,1788185245833,-1.0985915660858154,1.1267606019973757,-0.0062002660706639,0.0038103992119431,0.2403070628643036,0.9706696271896362,-0.0001078573020773,-0.0034726350723114,5.205381943699964e-07,-0.0042108274064958,0.0024458388797938,0.4450227916240692,-0.0024908110499382,0.0067566474899649,-0.4167660176753998,0.9089853167533876,-0.0032771566497418,-0.0104445968607129,0.4545129346915217,0.0784034132957458,0.0320191383361816,-0.0792531967163086,48,48,-6114,5666
22.1,1788185245933,-1.154929518699646,1.211267590522766,-0.0061585400253534,0.0035532664041966,0.2548893392086029,0.9669440984725952,0.0045789731001704,-0.0035278219758154,1.672735267370863e-06,-0.0028700844850391,-0.0096434159204363,0.4321092665195465,-0.0026052873581647,0.0065925335511565,-0.39778733253479,0.9174503087997437,-0.0017131942956185,-0.0027810857558767,0.3140917172221154,0.1157594919204711,-0.0235312581062316,0.0032815933227539,48,48,-6114,5666
22.2,1788185246033,-1.1267606019973757,1.211267590522766,-0.0061898240819573,0.0035019642673432,0.2700526416301727,0.962819278240204,0.0037766991712897,-0.002733970408362,1.005362600714813e-07,-0.0025441364850848,-0.0016749628121033,0.3290676176548004,-0.0026646619662642,0.0065635256469249,-0.3834299743175506,0.923542857170105,-0.0020595509636056,-0.003973063470999,0.3205221399811088,0.0836806297302246,0.1281622052192688,0.0720281600952148,48,48,-6114,5666
22.3,1788185246133,-1.1267606019973757,1.211267590522766,-0.0061258971691131,0.003323097480461,0.2942914068698883,0.9556902647018432,0.0018578944907731,-0.0043841213935144,3.354172645617372e-07,0.0001026158060994,-0.0075004766695201,0.3693127334117889,-0.002686115913093,0.0065501984208822,-0.3767414093017578,0.9262914657592772,-0.0025788403383939,-0.00279531852163,0.3607814868251696,0.00476735830307,-0.1382617950439453,0.1136722564697265,48,48,-6114,5666
22.4,1788185246233,-1.0985915660858154,1.183098554611206,-0.0060197161510586,0.0030329036526381,0.3102407157421112,0.9506341814994812,0.0020375895158017,-0.0029930133254912,1.981476582082379e-07,-0.0021049918141216,-0.0109660476446151,0.3682608604431152,-0.0028556892648339,0.0060658678412437,-0.3493674397468567,0.936961829662323,-0.0055012833596311,-0.0083440367183846,0.3941331568074828,-0.066797912120819,-0.0548803210258483,0.0364198684692382,48,48,-6114,5666
22.5,1788185246333,-1.0985915660858154,1.183098554611206,-0.0060197161510586,0.0030329036526381,0.3102407157421112,0.9506341814994812,0.0020375895158017,-0.0029930133254912,1.981476582082379e-07,-0.0021049918141216,-0.0109660476446151,0.3682608604431152,-0.0028556892648339,0.0060658678412437,-0.3493674397468567,0.936961829662323,-0.0055012833596311,-0.0083440367183846,0.3941331568074828,-0.066797912120819,-0.0548803210258483,0.0364198684692382,48,48,-6114,5666
22.6,1788185246433,-0.8450704216957092,0.6478873491287231,-0.0058843893930315,0.0026143484283238,0.3454909026622772,0.9383999705314636,0.0045988419412371,-0.0026688498587302,1.0325510356541866e-06,8.19480701466091e-05,-0.0076644108630716,0.3484278321266174,-0.0028556892648339,0.0060658678412437,-0.3493674397468567,0.936961829662323,-0.0055012833596311,-0.0083440367183846,0.3941331568074828,-0.066797912120819,-0.0548803210258483,0.0364198684692382,48,48,-6114,5666
22.7,1788185246533,0.0,0.0,-0.0058959200978279,0.0026604726444929,0.3516653180122375,0.9361034631729126,0.0020800486783624,-0.0019559692700321,1.3711759147469695e-09,-0.0009784610010683,0.0006753343041054,0.2626602351665497,-0.0029102331027388,0.0057695684954524,-0.3127715289592743,0.9498063921928406,0.0006061717392005,-0.0013437834426075,-0.0076324058908224,-0.1496859788894653,0.1291831135749817,0.033203125,48,48,-6114,5666
22.8,1788185246633,0.0,0.0,-0.0058701089583337,0.002614221535623,0.3538342118263244,0.935285985469818,0.0030194107878637,-0.0021387526956586,4.15127894296907e-07,0.0002619891020003,-0.0003761698899324,-0.0150842498987913,-0.0028871027752757,0.0057559106498956,-0.3103096485137939,0.9506137371063232,0.0014241188547554,0.0014064666042789,0.1453223532225282,-0.0532739162445068,0.4027884006500244,-0.2615919113159179,0,0,-739,739
22.9,1788185246733,0.0,0.0,-0.0058701089583337,0.002614221535623,0.3538342118263244,0.935285985469818,0.0030194107878637,-0.0021387526956586,4.15127894296907e-07,0.0002619891020003,-0.0003761698899324,-0.0150842498987913,-0.0030574956908822,0.005572241730988,-0.3018055558204651,0.9533483386039734,-0.0025042245177413,-0.0018817914655292,0.1542010099160259,0.2254408597946167,-0.3175048828125,0.0598993301391601,0,0,-739,739
23.0,1788185246833,0.0,0.0,-0.0058748018927872,0.0023849341087043,0.3640529215335846,0.93135666847229,0.0024407418221548,-0.0019895109462808,2.90700309009772e-07,-0.003831215435639,-0.0019087900873273,0.1995512247085571,-0.0030810460448265,0.0055294288322329,-0.3045501708984375,0.9524753093719482,-4.917082360561163e-05,0.0024114160198073,-0.0646157803381361,-0.0881182551383972,0.0422977209091186,0.0241098403930664,0,0,-739,739
23.1,1788185246933,0.0,0.0,-0.0058716903440654,0.002363633364439,0.3619810342788696,0.9321640133857728,-0.0013332408744593,0.0020826882143801,-1.3380921469804497e-07,0.0001914435561047,-0.0004253254737704,-0.0881890580058097,-0.0030764769762754,0.0053980955854058,-0.2987573444843292,0.9543088674545288,0.0031221950532927,-0.0127238836918585,0.3134726641682724,0.1842966675758361,0.2326191663742065,0.1410379409790039,0,0,-739,739
23.2,1788185247033,0.0,0.0,-0.0058841407299041,0.0022413989063352,0.3701674342155456,0.9289437532424928,0.0043610346005159,-0.0060455416964374,8.426124111867478e-07,-0.0025179251097142,-0.0003025153710041,0.0379142165184021,-0.0031325770542025,0.0054731797426939,-0.2961651384830475,0.9551158547401428,0.00199856848181,0.0026993272286542,-0.0111412345872807,-0.1657910943031311,-0.0564830899238586,-0.0035867691040039,0,0,-739,739
23.3,1788185247133,0.0,0.0,-0.0058841407299041,0.0022413989063352,0.3701674342155456,0.9289437532424928,0.0043610346005159,-0.0060455416964374,8.426124111867478e-07,-0.0025179251097142,-0.0003025153710041,0.0379142165184021,-0.0031329439952969,0.0054196706041693,-0.2946653962135315,0.9555799961090088,0.0024604620727969,-0.0003819297407208,-0.0049326786029316,0.0436519980430603,0.4820587635040283,-0.0381383895874023,0,0,0,0
23.4,1788185247233,-1.2676056623458862,1.2957746982574463,-0.0058841407299041,0.0022413989063352,0.3701674342155456,0.9289437532424928,0.0043610346005159,-0.0060455416964374,8.426124111867478e-07,-0.0025179251097142,-0.0003025153710041,0.0379142165184021,-0.0031493669375777,0.0054165115579962,-0.2902128398418426,0.9569416642189026,-0.0016323379229689,-0.0013629329017524,0.2186216893214272,-0.1523181796073913,0.2965232133865356,0.0661964416503906,83,155,-7808,7646
23.5,1788185247333,-1.2676056623458862,1.2957746982574463,-0.0057333796285092,0.0019561676308512,0.3830408453941345,0.923711597919464,0.0021417150056548,0.000620299744687,1.1205372574255306e-06,0.0009795486694201,-0.0166815426200628,0.4015235900878906,-0.0031493669375777,0.0054165115579962,-0.2902128398418426,0.9569416642189026,-0.0016323379229689,-0.0013629329017524,0.2186216893214272,-0.1523181796073913,0.2965232133865356,0.0661964416503906,83,155,-7808,7646
23.6,1788185247433,-0.8450704216957092,1.0704225301742554,-0.0053969989530742,0.0012636767933145,0.4012959897518158,0.9159316420555116,0.0011636040158456,-0.0028875715365767,-2.0428310855111307e-07,-0.0003854594251606,-0.0146707072854042,0.1821925491094589,-0.0035188905894756,0.0042865462601184,-0.2572014629840851,0.9663418531417848,-0.0029258087614503,-0.0001968295842322,0.2236726772641606,1.71661376953125e-05,0.1764929294586181,0.0339612960815429,83,155,-7808,7646
23.7,1788185247533,0.0,0.0,-0.0055133895948529,0.0011265152134001,0.4182491302490234,0.908314883708954,0.0014135011520845,-0.0027109057653253,3.743450109262168e-07,-0.0035592727363109,-0.0069883451797068,0.2990384399890899,-0.0035817846655845,0.0043518925085663,-0.2454361468553543,0.9693964123725892,-0.0035585204413272,-0.0043627262034186,0.278736874988649,0.0868562459945678,-0.0594598054885864,-0.0618362426757812,0,4,0,0
23.8,1788185247633,-1.2676056623458862,1.2957746982574463,-0.0054902592673897,0.001089985249564,0.4216590523719787,0.9067371487617492,0.0054796861582783,-0.0046379073865466,3.391832463911423e-07,-0.0003389905032236,-0.0029811353888362,0.1870483756065368,-0.0036320136860013,0.0043248552829027,-0.2435397356748581,0.9698745012283324,-0.00168153001805,0.000266176158451,-0.1016744739947078,0.0592017173767089,-0.0229682326316833,-0.0312681198120117,16,49,-3022,2053
23.9,1788185247733,0.5070422291755676,2.985915422439575,-0.0054184957407414,0.0008644540794193,0.4256365001201629,0.904877543449402,0.0001413657187986,0.0048562088998446,1.035447440244047e-07,0.0002471109619364,-0.0106689995154738,0.2282205373048782,-0.0036311475560069,0.0035289898514747,-0.2246666699647903,0.974422574043274,0.008634220995629,-0.0225029570460731,0.3827806606761514,1.5652828216552734,0.2183365821838379,-0.0398759841918945,320,129,12311,10548
24.0,1788185247833,0.5070422291755676,2.985915422439575,-0.0054184957407414,0.0008644540794193,0.4256365001201629,0.904877543449402,0.0001413657187986,0.0048562088998446,1.035447440244047e-07,0.0002471109619364,-0.0106689995154738,0.2282205373048782,-0.0035265870392322,0.0035346606746315,-0.2180886715650558,0.9759162068367004,4.81569461370388e-06,0.0071768099184368,0.0846921885786152,0.7376264333724976,0.4703093767166137,0.1389589309692382,320,129,12311,10548
24.1,1788185247933,0.5070422291755676,2.985915422439575,-0.0050818026065826,0.0007278358098119,0.4442421793937683,0.8958920240402222,0.1452235974326978,9.224464690652544e-05,-1.0652259916841838e-05,-0.0004632459895219,0.0132750384509563,0.0715665519237518,-0.0035265870392322,0.0035346606746315,-0.2180886715650558,0.9759162068367004,4.81569461370388e-06,0.0071768099184368,0.0846921885786152,0.7376264333724976,0.4703093767166137,0.1389589309692382,320,129,12311,10548
24.2,1788185248033,5.126760482788086,5.014084339141846,-0.0050245551392436,0.0014142121654003,0.444851815700531,0.8955889344215393,0.1703156850218124,0.0011090955251388,-0.0001044744278406,0.004671205766499,0.0199155639857053,0.0027697796467691,-0.0035265870392322,0.0035346606746315,-0.2180886715650558,0.9759162068367004,4.81569461370388e-06,0.0071768099184368,0.0846921885786152,0.7376264333724976,0.4703093767166137,0.1389589309692382,57,35,14984,14405
24.3,1788185248133,4.929577350616455,5.014084339141846,-0.0050245551392436,0.0014142121654003,0.444851815700531,0.8955889344215393,0.1703156850218124,0.0011090955251388,-0.0001044744278406,0.004671205766499,0.0199155639857053,0.0027697796467691,-0.0022385017946362,0.0048493109643459,-0.2170622944831848,0.97614324092865,0.0078148787511089,0.006672720332892,-0.0424495187187296,-0.1484643816947937,0.1793088912963867,0.730189323425293,84,48,15715,13608
24.4,1788185248233,4.929577350616455,5.014084339141846,-0.0048104170709848,0.0022260160185396,0.444951057434082,0.8955392837524414,0.1661840356234483,-0.0097663473145239,-5.531095415511579e-07,0.0036552788224071,-0.000339863152476,-0.0253498200327157,-0.0022983103990554,0.0045615388080477,-0.2180661857128143,0.9759206771850586,0.0004164951528995,-0.0138274668795074,-0.0489795088563694,-0.1957030892372131,-0.0312317609786987,-0.8892278671264648,84,48,15715,13608
24.5,1788185248333,4.929577350616455,5.014084339141846,-0.0048631667159497,0.002535737119615,0.4414510428905487,0.8972685933113098,0.169123439013915,-0.0063500974418254,-3.314975184475988e-05,0.0005578742711804,0.0094319116324186,-0.0209965240210294,-0.0021577784791588,0.004946295171976,-0.2214596271514892,0.97515469789505,0.0020108087925196,0.0057737664900587,-0.0404018878678449,0.10023695230484,-0.0292461514472961,-0.2556610107421875,84,48,15715,13608
24.6,1788185248433,4.873239517211914,5.323943614959717,-0.0048631667159497,0.002535737119615,0.4414510428905487,0.8972685933113098,0.169123439013915,-0.0063500974418254,-3.314975184475988e-05,0.0005578742711804,0.0094319116324186,-0.0209965240210294,-0.0020343922078609,0.0052957748994231,-0.2214390784502029,0.9751577377319336,0.0007970407003041,0.0082356524350555,0.0160080309579997,-0.2371832728385925,0.0421862602233886,0.9268398284912108,84,48,15715,13608
24.7,1788185248533,4.985915660858154,5.042253494262695,-0.0048485826700925,0.0026632589288055,0.4406543970108032,0.8976597785949707,0.1754941523627244,0.0002557909895151,-8.012893619001558e-08,4.638852857397069e-09,-3.711082285917655e-08,-1.1875463314936496e-06,-0.0015843557193875,0.0046642357483506,-0.2201191335916519,0.9754605293273926,0.0126403564292027,-0.0109558779742078,0.0174844359842148,0.2034356594085693,-0.0450772047042846,-0.2696743011474609,89,103,15003,14832
24.8,1788185248633,4.985915660858154,5.042253494262695,-0.0036940821446478,0.0020488214213401,0.4422003626823425,0.8969062566757202,0.1705189710028833,0.0002597782926319,5.558522594001615e-05,0.0057504219003021,-0.0294436328113079,0.0083383452147245,-0.0015843557193875,0.0046642357483506,-0.2201191335916519,0.9754605293273926,0.0126403564292027,-0.0109558779742078,0.0174844359842148,0.2034356594085693,-0.0450772047042846,-0.2696743011474609,89,103,15003,14832
24.9,1788185248733,4.366197109222412,5.577464580535889,-0.0030399886891245,0.0014949876349419,0.4427330493927002,0.896647036075592,0.1597798437643416,3.125675081676657e-05,5.185903072090775e-05,0.0132976900786161,-0.0308230835944414,0.0231617297977209,0.0005335574969649,0.0029008919373154,-0.212278738617897,0.9772047400474548,0.072576539990904,0.0454212837984912,0.1925267879934565,0.5534151196479797,-0.3045944571495056,-0.0770406723022461,89,103,15003,14832
25.0,1788185248833,4.366197109222412,5.577464580535889,-0.0023707933723926,0.0008768585394136,0.4447857439517975,0.8956335186958313,0.1730663838786675,0.0014930248866312,7.389657274595159e-05,0.0129917291924357,-0.0346987545490264,0.0928433164954185,-0.0015767682343721,0.0012898379936814,-0.2123044282197952,0.977201521396637,-0.0803147566196723,-0.0867331123774759,-0.0587877988085365,-0.620134174823761,-0.4276797175407409,0.0519609451293945,89,103,15003,14832
25.1,1788185248933,4.8450703620910645,5.211267471313477,-0.0020218319259583,9.881338337436318e-05,0.4492738544940948,0.8933918476104736,0.173991948185625,-0.0044331357671552,0.0001459386146067,-0.0210889186710119,-0.028327414765954,-0.0336403138935565,-0.0016824090853333,0.0003687655553221,-0.2071639895439148,0.9783047437667848,-0.0097814863823674,-0.0501860450374581,0.177630045569013,0.2525262832641601,0.1285709142684936,-1.1075096130371094,88,65,14397,15216
25.2,1788185249033,3.88732385635376,4.422535419464111,-0.0015895299147814,-0.0007535242475569,0.4542756378650665,0.8908594250679016,0.161474065251433,-0.0016467879946407,0.0001036485018031,-0.0084241395816206,-0.0359284803271293,0.161388948559761,-0.0021652439609169,-0.0006397394463419,-0.2042345255613327,0.9789193868637084,-0.0183701707451998,-0.0274063647817096,0.0255235340475938,-0.121713638305664,0.0020064711570739,0.7673835754394531,88,65,14397,15216
25.3,1788185249133,4.478873252868652,4.957746505737305,-0.0012892805971205,-0.001815078780055,0.4565222263336181,0.8897092342376709,0.1646100675357149,3.5041185433426046e-05,3.17159350734966e-05,-0.0125623689964413,-0.0109316576272249,0.0288669355213642,-0.002418739721179,-0.0014589335769414,-0.199899286031723,0.9798124432563782,-0.002919522970804,0.0269670408996785,0.1743703899806634,1.3635133504867554,-0.0589562654495239,0.30316162109375,66,129,12400,14984
25.4,1788185249233,4.929577350616455,5.183098793029785,-0.0009151998674497,-0.0030670603737235,0.4618841707706451,0.8869345188140869,0.1701200413359181,0.0059628420181367,-2.4439582471386018e-06,-0.0058689704164862,-0.0116255050525069,0.1040525436401367,-0.0030553461983799,-0.0023676417768001,-0.1962465047836303,0.98054701089859,-0.00406258817134,-0.0079133645571745,0.0497988258687662,-0.2198677062988281,0.1680783033370971,0.5344600677490234,57,46,14256,15176
25.5,1788185249333,5.098591327667236,5.042253494262695,-0.0008810218423604,-0.0036020693369209,0.463060051202774,0.8863191604614258,0.1756453057408712,-0.0014033302326208,6.08820433004877e-05,-0.0085779558867216,-0.0197947416454553,0.0532346442341804,-0.0030553461983799,-0.0023676417768001,-0.1962465047836303,0.98054701089859,-0.00406258817134,-0.0079133645571745,0.0497988258687662,-0.2198677062988281,0.1680783033370971,0.5344600677490234,57,46,14256,15176
25.6,1788185249433,5.042253494262695,5.042253494262695,-0.001041711657308,-0.0039518494158983,0.4652467370033264,0.8851715922355652,0.1635042631828338,0.0023067450424577,3.784622802123455e-07,-0.001457481412217,-0.0021759639494121,0.0140380440279841,-0.0030553461983799,-0.0023676417768001,-0.1962465047836303,0.98054701089859,-0.00406258817134,-0.0079133645571745,0.0497988258687662,-0.2198677062988281,0.1680783033370971,0.5344600677490234,88,39,14958,14316
25.7,1788185249533,4.450704097747803,5.464788913726807,-0.0009415798122063,-0.004255935549736,0.4670886397361755,0.8841997385025024,0.1736768390780857,-0.0009503808879203,4.604794296493671e-05,-0.0003794796939473,-0.0091294459998607,0.0391482226550579,-0.0036328351125121,-0.0024002771824598,-0.1919220238924026,0.9814004898071288,0.0006210526252071,0.0004478517940308,0.028364837627588,-0.00017911195755,-0.1227785944938659,1.0461416244506836,88,39,14958,14316
25.8,1788185249633,4.507042407989502,5.577464580535889,-0.0011751180281862,-0.0041845561936497,0.4696425497531891,0.882845938205719,0.1690906713819631,-7.347722628864882e-05,-3.146544525584579e-05,-0.0054672937840223,0.0054830266162753,0.0966529101133346,-0.0035903453826904,-0.0021276352927088,-0.1824483722448349,0.983206570148468,-0.0103951226752744,0.0231994111912148,0.1613428667721893,-0.0186298489570617,-0.1951679587364196,0.0650138854980468,59,88,13489,16162
25.9,1788185249733,4.760563373565674,5.380281925201416,-0.0011751180281862,-0.0041845561936497,0.4696425497531891,0.882845938205719,0.1690906713819631,-7.347722628864882e-05,-3.146544525584579e-05,-0.0054672937840223,0.0054830266162753,0.0966529101133346,-0.0036311773583292,-0.0012384103611111,-0.1787948012351989,0.9838789105415344,-0.0030554275352408,0.014956900074691,0.0470859685640451,-0.0403481721878051,0.1380801796913147,-0.472665786743164,59,88,13489,16162
26.0,1788185249833,4.760563373565674,5.380281925201416,-0.0019981453660875,-0.0032621421851217,0.4804988801479339,0.8769870400428772,0.178336560539729,-0.0031705152786634,-6.127191640736617e-05,-0.0018698570784181,0.0151410717517137,0.1127697601914405,-0.0033254884183406,-0.0011965725570917,-0.1683474779129028,0.9857214093208312,1.668083397048388e-05,-0.0102146580565258,0.1605103226835025,-0.1809802651405334,-0.1686006784439087,-1.008047103881836,59,88,13489,16162
26.1,1788185249933,4.760563373565674,5.380281925201416,-0.0019981453660875,-0.0032621421851217,0.4804988801479339,0.8769870400428772,0.178336560539729,-0.0031705152786634,-6.127191640736617e-05,-0.0018698570784181,0.0151410717517137,0.1127697601914405,-0.0033254884183406,-0.0011965725570917,-0.1683474779129028,0.9857214093208312,1.668083397048388e-05,-0.0102146580565258,0.1605103226835025,-0.1809802651405334,-0.1686006784439087,-1.008047103881836,59,88,13489,16162
26.2,1788185250033,1.1267606019973757,0.0,-0.0021175874862819,-0.0029000472277402,0.4954688847064972,0.8686182498931885,0.0988992962101104,-0.0012625521488303,-3.105599505211074e-05,0.0022519417107105,-0.0001460750499973,0.1629730314016342,-0.0034625260159373,-0.0008888095617294,-0.1592916250228881,0.9872251152992249,-2.0835951535071463e-05,0.0033666256257045,0.0920248572940907,-0.5892893075942993,0.2408652305603027,0.223978042602539,19,16,4138,785
26.3,1788185250133,0.5633803009986877,-0.9577465057373048,-0.0020383591763675,-0.0030721561051905,0.4953720569610595,0.8686730861663818,0.0249624304245964,-0.0037269151667006,2.4626359615705417e-08,-0.0018956265412271,-0.0097327763214707,-0.0454889386892318,-0.0035048378631472,-0.0010590832680463,-0.1667399406433105,0.9859941005706788,-0.0020276309628191,0.002942412784975,-0.189505550460831,0.2391639351844787,-0.166771650314331,-0.0686330795288086,162,109,5024,-4060
26.4,1788185250233,0.5633803009986877,-0.9577465057373048,-0.0019981968216598,-0.0030899466946721,0.4891294240951538,0.8722034692764282,-0.0134692884090561,0.0007443745824413,1.365092766594389e-06,-0.0003704647533595,-0.0020971032790839,-0.2016448825597763,-0.003438739106059,-0.0010858224704861,-0.1725198328495025,0.984999418258667,0.0028835502536064,0.0002024584163209,-0.2818648818066029,1.1012226343154907,-0.1156688928604126,-0.204742431640625,162,109,5024,-4060
26.5,1788185250333,3.6619718074798575,2.985915422439575,-0.001984282862395,-0.0029868013225495,0.4818685054779053,0.8762362003326416,0.0078195650136478,-0.0027605803061279,-5.594712640640625e-07,0.0019620347302407,0.004481975454837,-0.3380123078823089,-0.0023995488882064,-0.0003737667575478,-0.1858805865049362,0.9825693964958192,0.0403069262353103,0.0630017023016359,-0.0794521283960435,0.2664645314216614,-0.1657661199569702,0.6282482147216797,147,186,13689,12013
26.6,1788185250433,3.6619718074798575,2.985915422439575,-0.001984282862395,-0.0029868013225495,0.4818685054779053,0.8762362003326416,0.0078195650136478,-0.0027605803061279,-5.594712640640625e-07,0.0019620347302407,0.004481975454837,-0.3380123078823089,-0.003589741885662,-0.000641917809844,-0.1910565942525863,0.9815723299980164,-0.0606442695328493,-0.0397261051490383,-0.1543612690024418,-0.7071825265884399,-0.5024121999740601,0.8741312026977539,147,186,13689,12013
26.7,1788185250533,3.6619718074798575,2.985915422439575,-0.0023312172852456,-0.0024906971957534,0.4675056636333465,0.8839834928512573,0.1777758962602709,-0.010001892473541,-9.925193493944282e-05,0.0036725832615047,0.0210008788853883,-0.1213829740881919,-0.0032335147261619,-0.0007805386558175,-0.1927361488342285,0.9812450408935548,0.0059687877336101,-0.0046807156178545,-0.022966816332888,0.1163234114646911,-0.2864623069763183,1.5755290985107422,147,186,13689,12013
26.8,1788185250633,5.295774459838867,5.098591327667236,-0.0020519422832876,-0.0026261897291988,0.4670092463493347,0.8842460513114929,0.1682237466330521,-3.390687682042559e-05,3.290753554207327e-08,0.0073167090304195,-0.0099416030570864,-0.0225045178085565,-0.0034555997699499,-0.0011307969689369,-0.1914679557085037,0.9814921617507936,-0.0061309189514503,-0.0139455030742575,-0.0147826785715446,0.0974612236022949,-0.3795284032821655,0.0681724548339843,55,60,14816,13579
26.9,1788185250733,4.8450703620910645,5.211267471313477,-0.0018102636095136,-0.0027988764923065,0.469031423330307,0.8831751942634583,0.1682630969212175,-0.0040725064048178,1.3025315076607037e-05,0.0006846114993095,0.0004035467864014,0.0489986017346382,-0.0030949087813496,-0.0009582582861185,-0.1875900030136108,0.9822421073913574,0.0002462270819086,0.0063355772119552,0.0787399875507164,-0.1976703405380249,0.0311412811279296,1.3186559677124023,60,78,14447,15475
27.0,1788185250833,4.985915660858154,5.211267471313477,-0.0018102636095136,-0.0027988764923065,0.469031423330307,0.8831751942634583,0.1682630969212175,-0.0040725064048178,1.3025315076607037e-05,0.0006846114993095,0.0004035467864014,0.0489986017346382,-0.0033185956999659,-0.0008575255051255,-0.1856535077095031,0.9826093316078186,-0.0058683123465666,-0.0054923307350123,0.0325998954732438,-0.252954363822937,-0.2561966776847839,-0.13226318359375,60,78,14447,15475
27.1,1788185250933,4.985915660858154,5.211267471313477,-0.0019976336043328,-0.0025389716029167,0.4726758301258087,0.8812304139137268,0.1703326642759102,-0.0024557457148691,-8.095470896827727e-05,-0.0017737487796694,0.0159831922501325,0.0207433458417654,-0.0030837506055831,0.0001873867586255,-0.1826233267784118,0.9831781387329102,0.0104552371793521,0.0384395178965591,0.0659964844603953,0.2785212993621826,0.1508722901344299,-1.0012798309326172,60,78,14447,15475
27.2,1788185251033,5.126760482788086,5.239436626434326,-0.0028964667581021,-0.0014731979463249,0.4758923649787903,0.8794975280761719,0.1631461740382186,-0.0057893595394704,-4.271486703401893e-05,-0.0056933551095426,0.025482328608632,0.0051679708994925,-0.0035067638382315,0.0010093078017234,-0.1831115484237671,0.9830853343009948,-0.0152704056289963,0.0029523413624036,-0.0124596968001353,-0.0948446393013,0.2901581525802612,0.9823522567749025,70,76,14838,13940
27.3,1788185251133,5.042253494262695,5.239436626434326,-0.0032381475903093,-0.0013148204889148,0.4757073521614074,0.8795966506004333,0.1744264932643434,-0.0041194433054745,-6.26941146382488e-05,-0.0091479271650314,0.0122953709214925,-0.0084893144667148,-0.0034535834565758,0.0018361853435635,-0.1818730235099792,0.9833142161369324,0.0031352765414248,0.0150288985318364,0.0205161318604725,-0.0070191025733947,-0.261569082736969,-0.1978731155395507,70,92,14957,14205
27.4,1788185251233,5.267605781555176,5.014084339141846,-0.003722527064383,-0.000865276553668,0.4767624735832214,0.8790237903594971,0.1698244629615885,-0.0031509202949042,-1.832302209671134e-05,0.001105828792788,0.0109410034492611,0.0184891782701015,-0.0038562910631299,0.0016907583922147,-0.1838027387857437,0.9829541444778442,-0.0141207397360463,-0.0148644676536469,-0.0722590233148524,-0.0505666136741638,0.1179962158203125,0.5417690277099609,47,94,14069,15191
27.5,1788185251333,5.267605781555176,5.014084339141846,-0.003722527064383,-0.000865276553668,0.4767624735832214,0.8790237903594971,0.1698244629615885,-0.0031509202949042,-1.832302209671134e-05,0.001105828792788,0.0109410034492611,0.0184891782701015,-0.0038562910631299,0.0016907583922147,-0.1838027387857437,0.9829541444778442,-0.0141207397360463,-0.0148644676536469,-0.0722590233148524,-0.0505666136741638,0.1179962158203125,0.5417690277099609,47,94,14069,15191
27.6,1788185251433,4.732394218444824,5.126760482788086,-0.0043588154949247,-0.0004479681374505,0.4766360223293304,0.8790898323059082,0.1752494827682768,-0.0058131739865631,1.980574525497948e-06,-0.0007420152542181,0.0042826887220144,0.0726235210895538,-0.0035910252481698,0.0031428998336195,-0.1800637990236282,0.983643352985382,0.000584690895026,0.0229460890062978,0.039241048472922,0.0528318881988525,0.028403878211975,-0.8088665008544922,66,93,14940,15668
27.7,1788185251533,3.7183098793029785,4.985915660858154,-0.0045795496553182,9.781750850379468e-05,0.4810999929904938,0.876653790473938,0.1755870993359895,0.0003584125851646,2.3254538429418185e-05,0.003860829398036,-0.0050012632273137,0.1070966944098472,-0.003505028784275,0.0028680134564638,-0.1752351373434066,0.9845162630081176,0.0069357472689275,-0.0069959136545402,0.1465333350471253,-0.5162559151649475,0.2570095062255859,0.5366802215576172,66,93,14940,15668
27.8,1788185251633,2.4788732528686523,3.88732385635376,-0.0046795238740742,0.0003994734724983,0.4852192401885986,0.8743799328804016,0.1497100362008139,0.0063278336183428,3.91581376171077e-06,0.0018720789812505,0.0117899952456355,0.1888010203838348,-0.002511253580451,0.0035491092130541,-0.1618937700986862,0.9867986440658568,0.0116969051493145,-0.0111608948945416,0.2820285196266754,-1.0132412910461426,0.1183022260665893,0.2788419723510742,29,51,3537,7566
27.9,1788185251733,2.4788732528686523,3.88732385635376,-0.0043187593109905,0.0006148730171844,0.5030405521392822,0.8642518520355225,0.0014048987552012,-0.0005260915185119,-6.408781524833546e-07,-0.0156530551612377,-0.0155726196244359,0.2845585346221924,-0.0031217774376273,0.0031118132174015,-0.1507627516984939,0.988560140132904,-0.0192585418653667,-0.0180775375071656,0.2691040347521501,-0.6128720045089722,-0.3689163327217102,0.1707963943481445,29,51,3537,7566
28.0,1788185251833,-0.98591548204422,1.0140844583511353,-0.0044409618712961,-0.0001810000976547,0.5090011954307556,0.8607543706893921,-0.0149346217187304,0.0003759053394612,-1.5185549088263684e-06,-0.0078583974391222,-0.0092850979417562,0.129664197564125,-0.0035426029935479,0.0026592072099447,-0.1438944488763809,0.9895830750465392,-0.0016922791246581,-0.0069718013728993,0.1862170921934909,0.4411793947219848,0.034774363040924,0.1178464889526367,11,29,-3091,3647
28.1,1788185251933,0.8169013857841492,-0.9295774698257446,-0.0044409618712961,-0.0001810000976547,0.5090011954307556,0.8607543706893921,-0.0149346217187304,0.0003759053394612,-1.5185549088263684e-06,-0.0078583974391222,-0.0092850979417562,0.129664197564125,-0.0035398583859205,0.0025079175829887,-0.146958976984024,0.98913311958313,0.0058187460344494,-0.0150455468370521,-0.259411549968869,0.6733270883560181,-0.1487674117088318,0.112701416015625,11,29,-3091,3647
