time_s,timestamp_ms,wheel_vels__velocity_left,wheel_vels__velocity_right,odom__orient_x,odom__orient_y,odom__orient_z,odom__orient_w,odom__lin_x,odom__lin_y,odom__lin_z,odom__ang_x,odom__ang_y,odom__ang_z,imu__orient_x,imu__orient_y,imu__orient_z,imu__orient_w,imu__angvel_x,imu__angvel_y,imu__angvel_z,imu__acc_x,imu__acc_y,imu__acc_z,wheel_status__current_ma_left,wheel_status__current_ma_right,wheel_status__pwm_left,wheel_status__pwm_right
0.0,1788441354779,3.577464818954468,-3.211267709732056,-0.0020416742190718,0.0042228116653859,-0.9949881434440612,0.099882885813713,-0.0006348429874956,0.0006178137125825,-2.445332611195377e-06,0.0,0.0,0.0,-0.012983713299036,0.0030838465318083,-0.9977385997772216,0.0658753737807273,-0.0035544575940252,-0.3260895396428382,-0.5966839739166727,-0.1026601195335388,-0.2533872723579407,0.3379478454589844,438,486,19271,-18450
0.1,1788441354879,3.577464818954468,-3.211267709732056,-0.0020416742190718,0.0042228116653859,-0.9949881434440612,0.099882885813713,-0.0006348429874956,0.0006178137125825,-2.445332611195377e-06,0.0,0.0,0.0,-0.012983713299036,0.0030838465318083,-0.9977385997772216,0.0658753737807273,-0.0035544575940252,-0.3260895396428382,-0.5966839739166727,-0.1026601195335388,-0.2533872723579407,0.3379478454589844,438,486,19271,-18450
0.2,1788441354979,3.577464818954468,-3.211267709732056,-0.0020416742190718,0.0042228116653859,-0.9949881434440612,0.099882885813713,-0.0006348429874956,0.0006178137125825,-2.445332611195377e-06,0.0,0.0,0.0,-0.012983713299036,0.0030838465318083,-0.9977385997772216,0.0658753737807273,-0.0035544575940252,-0.3260895396428382,-0.5966839739166727,-0.1026601195335388,-0.2533872723579407,0.3379478454589844,438,486,19271,-18450
0.3,1788441355079,3.577464818954468,-3.211267709732056,-0.0020416742190718,0.0042228116653859,-0.9949881434440612,0.099882885813713,-0.0006348429874956,0.0006178137125825,-2.445332611195377e-06,0.0,0.0,0.0,-0.012983713299036,0.0030838465318083,-0.9977385997772216,0.0658753737807273,-0.0035544575940252,-0.3260895396428382,-0.5966839739166727,-0.1026601195335388,-0.2533872723579407,0.3379478454589844,438,486,19271,-18450
0.4,1788441355179,3.577464818954468,-3.211267709732056,-0.0020416742190718,0.0042228116653859,-0.9949881434440612,0.099882885813713,-0.0006348429874956,0.0006178137125825,-2.445332611195377e-06,0.0,0.0,0.0,-0.012983713299036,0.0030838465318083,-0.9977385997772216,0.0658753737807273,-0.0035544575940252,-0.3260895396428382,-0.5966839739166727,-0.1026601195335388,-0.2533872723579407,0.3379478454589844,438,486,19271,-18450
0.5,1788441355279,3.577464818954468,-3.211267709732056,-0.0020416742190718,0.0042228116653859,-0.9949881434440612,0.099882885813713,-0.0006348429874956,0.0006178137125825,-2.445332611195377e-06,0.0,0.0,0.0,-0.012983713299036,0.0030838465318083,-0.9977385997772216,0.0658753737807273,-0.0035544575940252,-0.3260895396428382,-0.5966839739166727,-0.1026601195335388,-0.2533872723579407,0.3379478454589844,438,486,19271,-18450
0.6,1788441355379,3.577464818954468,-3.211267709732056,-0.0020416742190718,0.0042228116653859,-0.9949881434440612,0.099882885813713,-0.0006348429874956,0.0006178137125825,-2.445332611195377e-06,0.0,0.0,0.0,-0.012983713299036,0.0030838465318083,-0.9977385997772216,0.0658753737807273,-0.0035544575940252,-0.3260895396428382,-0.5966839739166727,-0.1026601195335388,-0.2533872723579407,0.3379478454589844,438,486,19271,-18450
0.7,1788441355479,3.577464818954468,-3.211267709732056,-0.0020416742190718,0.0042228116653859,-0.9949881434440612,0.099882885813713,-0.0006348429874956,0.0006178137125825,-2.445332611195377e-06,0.0,0.0,0.0,-0.012983713299036,0.0030838465318083,-0.9977385997772216,0.0658753737807273,-0.0035544575940252,-0.3260895396428382,-0.5966839739166727,-0.1026601195335388,-0.2533872723579407,0.3379478454589844,438,486,19271,-18450
0.8,1788441355579,3.577464818954468,-3.211267709732056,-0.0020416742190718,0.0042228116653859,-0.9949881434440612,0.099882885813713,-0.0006348429874956,0.0006178137125825,-2.445332611195377e-06,0.0,0.0,0.0,-0.012983713299036,0.0030838465318083,-0.9977385997772216,0.0658753737807273,-0.0035544575940252,-0.3260895396428382,-0.5966839739166727,-0.1026601195335388,-0.2533872723579407,0.3379478454589844,438,486,19271,-18450
0.9,1788441355679,3.577464818954468,-3.211267709732056,-0.0020416742190718,0.0042228116653859,-0.9949881434440612,0.099882885813713,-0.0006348429874956,0.0006178137125825,-2.445332611195377e-06,0.0,0.0,0.0,-0.012983713299036,0.0030838465318083,-0.9977385997772216,0.0658753737807273,-0.0035544575940252,-0.3260895396428382,-0.5966839739166727,-0.1026601195335388,-0.2533872723579407,0.3379478454589844,438,486,19271,-18450
1.0,1788441355779,3.577464818954468,-3.211267709732056,-0.0020416742190718,0.0042228116653859,-0.9949881434440612,0.099882885813713,-0.0006348429874956,0.0006178137125825,-2.445332611195377e-06,0.0,0.0,0.0,-0.012983713299036,0.0030838465318083,-0.9977385997772216,0.0658753737807273,-0.0035544575940252,-0.3260895396428382,-0.5966839739166727,-0.1026601195335388,-0.2533872723579407,0.3379478454589844,438,486,19271,-18450
1.1,1788441355879,3.577464818954468,-3.211267709732056,-0.0020416742190718,0.0042228116653859,-0.9949881434440612,0.099882885813713,-0.0006348429874956,0.0006178137125825,-2.445332611195377e-06,0.0,0.0,0.0,-0.012983713299036,0.0030838465318083,-0.9977385997772216,0.0658753737807273,-0.0035544575940252,-0.3260895396428382,-0.5966839739166727,-0.1026601195335388,-0.2533872723579407,0.3379478454589844,438,486,19271,-18450
1.2,1788441355979,3.577464818954468,-3.211267709732056,-0.0020416742190718,0.0042228116653859,-0.9949881434440612,0.099882885813713,-0.0006348429874956,0.0006178137125825,-2.445332611195377e-06,0.0,0.0,0.0,-0.012983713299036,0.0030838465318083,-0.9977385997772216,0.0658753737807273,-0.0035544575940252,-0.3260895396428382,-0.5966839739166727,-0.1026601195335388,-0.2533872723579407,0.3379478454589844,438,486,19271,-18450
1.3,1788441356079,3.577464818954468,-3.211267709732056,-0.0020416742190718,0.0042228116653859,-0.9949881434440612,0.099882885813713,-0.0006348429874956,0.0006178137125825,-2.445332611195377e-06,0.0,0.0,0.0,-0.012983713299036,0.0030838465318083,-0.9977385997772216,0.0658753737807273,-0.0035544575940252,-0.3260895396428382,-0.5966839739166727,-0.1026601195335388,-0.2533872723579407,0.3379478454589844,438,486,19271,-18450
1.4,1788441356179,3.577464818954468,-3.211267709732056,-0.0020416742190718,0.0042228116653859,-0.9949881434440612,0.099882885813713,-0.0006348429874956,0.0006178137125825,-2.445332611195377e-06,0.0,0.0,0.0,-0.012983713299036,0.0030838465318083,-0.9977385997772216,0.0658753737807273,-0.0035544575940252,-0.3260895396428382,-0.5966839739166727,-0.1026601195335388,-0.2533872723579407,0.3379478454589844,438,486,19271,-18450
1.5,1788441356279,3.577464818954468,-3.211267709732056,-0.0020416742190718,0.0042228116653859,-0.9949881434440612,0.099882885813713,-0.0006348429874956,0.0006178137125825,-2.445332611195377e-06,0.0,0.0,0.0,-0.012983713299036,0.0030838465318083,-0.9977385997772216,0.0658753737807273,-0.0035544575940252,-0.3260895396428382,-0.5966839739166727,-0.1026601195335388,-0.2533872723579407,0.3379478454589844,438,486,19271,-18450
1.6,1788441356379,3.577464818954468,-3.211267709732056,-0.0020416742190718,0.0042228116653859,-0.9949881434440612,0.099882885813713,-0.0006348429874956,0.0006178137125825,-2.445332611195377e-06,0.0,0.0,0.0,-0.012983713299036,0.0030838465318083,-0.9977385997772216,0.0658753737807273,-0.0035544575940252,-0.3260895396428382,-0.5966839739166727,-0.1026601195335388,-0.2533872723579407,0.3379478454589844,438,486,19271,-18450
1.7,1788441356479,3.577464818954468,-3.211267709732056,-0.0020416742190718,0.0042228116653859,-0.9949881434440612,0.099882885813713,-0.0006348429874956,0.0006178137125825,-2.445332611195377e-06,0.0,0.0,0.0,-0.012983713299036,0.0030838465318083,-0.9977385997772216,0.0658753737807273,-0.0035544575940252,-0.3260895396428382,-0.5966839739166727,-0.1026601195335388,-0.2533872723579407,0.3379478454589844,438,486,19271,-18450
1.8,1788441356579,3.577464818954468,-3.211267709732056,-0.0020416742190718,0.0042228116653859,-0.9949881434440612,0.099882885813713,-0.0006348429874956,0.0006178137125825,-2.445332611195377e-06,0.0,0.0,0.0,-0.012983713299036,0.0030838465318083,-0.9977385997772216,0.0658753737807273,-0.0035544575940252,-0.3260895396428382,-0.5966839739166727,-0.1026601195335388,-0.2533872723579407,0.3379478454589844,438,486,19271,-18450
1.9,1788441356679,3.577464818954468,-3.211267709732056,-0.0020416742190718,0.0042228116653859,-0.9949881434440612,0.099882885813713,-0.0006348429874956,0.0006178137125825,-2.445332611195377e-06,0.0,0.0,0.0,-0.012983713299036,0.0030838465318083,-0.9977385997772216,0.0658753737807273,-0.0035544575940252,-0.3260895396428382,-0.5966839739166727,-0.1026601195335388,-0.2533872723579407,0.3379478454589844,438,486,19271,-18450
2.0,1788441356779,3.577464818954468,-3.211267709732056,-0.0020416742190718,0.0042228116653859,-0.9949881434440612,0.099882885813713,-0.0006348429874956,0.0006178137125825,-2.445332611195377e-06,0.0,0.0,0.0,-0.012983713299036,0.0030838465318083,-0.9977385997772216,0.0658753737807273,-0.0035544575940252,-0.3260895396428382,-0.5966839739166727,-0.1026601195335388,-0.2533872723579407,0.3379478454589844,438,486,19271,-18450
2.1,1788441356879,3.577464818954468,-3.211267709732056,-0.0020416742190718,0.0042228116653859,-0.9949881434440612,0.099882885813713,-0.0006348429874956,0.0006178137125825,-2.445332611195377e-06,0.0,0.0,0.0,-0.012983713299036,0.0030838465318083,-0.9977385997772216,0.0658753737807273,-0.0035544575940252,-0.3260895396428382,-0.5966839739166727,-0.1026601195335388,-0.2533872723579407,0.3379478454589844,438,486,19271,-18450
2.2,1788441356979,3.577464818954468,-3.211267709732056,-0.0020416742190718,0.0042228116653859,-0.9949881434440612,0.099882885813713,-0.0006348429874956,0.0006178137125825,-2.445332611195377e-06,0.0,0.0,0.0,-0.012983713299036,0.0030838465318083,-0.9977385997772216,0.0658753737807273,-0.0035544575940252,-0.3260895396428382,-0.5966839739166727,-0.1026601195335388,-0.2533872723579407,0.3379478454589844,438,486,19271,-18450
2.3,1788441357079,3.577464818954468,-3.211267709732056,-0.0020416742190718,0.0042228116653859,-0.9949881434440612,0.099882885813713,-0.0006348429874956,0.0006178137125825,-2.445332611195377e-06,0.0,0.0,0.0,-0.012983713299036,0.0030838465318083,-0.9977385997772216,0.0658753737807273,-0.0035544575940252,-0.3260895396428382,-0.5966839739166727,-0.1026601195335388,-0.2533872723579407,0.3379478454589844,438,486,19271,-18450
2.4,1788441357179,3.577464818954468,-3.211267709732056,-0.0020416742190718,0.0042228116653859,-0.9949881434440612,0.099882885813713,-0.0006348429874956,0.0006178137125825,-2.445332611195377e-06,0.0,0.0,0.0,-0.012983713299036,0.0030838465318083,-0.9977385997772216,0.0658753737807273,-0.0035544575940252,-0.3260895396428382,-0.5966839739166727,-0.1026601195335388,-0.2533872723579407,0.3379478454589844,438,486,19271,-18450
2.5,1788441357279,3.577464818954468,-3.211267709732056,-0.0020416742190718,0.0042228116653859,-0.9949881434440612,0.099882885813713,-0.0006348429874956,0.0006178137125825,-2.445332611195377e-06,0.0,0.0,0.0,-0.012983713299036,0.0030838465318083,-0.9977385997772216,0.0658753737807273,-0.0035544575940252,-0.3260895396428382,-0.5966839739166727,-0.1026601195335388,-0.2533872723579407,0.3379478454589844,438,486,19271,-18450
2.6,1788441357379,3.577464818954468,-3.211267709732056,-0.0020416742190718,0.0042228116653859,-0.9949881434440612,0.099882885813713,-0.0006348429874956,0.0006178137125825,-2.445332611195377e-06,0.0,0.0,0.0,-0.012983713299036,0.0030838465318083,-0.9977385997772216,0.0658753737807273,-0.0035544575940252,-0.3260895396428382,-0.5966839739166727,-0.1026601195335388,-0.2533872723579407,0.3379478454589844,438,486,19271,-18450
2.7,1788441357479,3.577464818954468,-3.211267709732056,-0.0020416742190718,0.0042228116653859,-0.9949881434440612,0.099882885813713,-0.0006348429874956,0.0006178137125825,-2.445332611195377e-06,0.0,0.0,0.0,-0.012983713299036,0.0030838465318083,-0.9977385997772216,0.0658753737807273,-0.0035544575940252,-0.3260895396428382,-0.5966839739166727,-0.1026601195335388,-0.2533872723579407,0.3379478454589844,438,486,19271,-18450
2.8,1788441357579,3.577464818954468,-3.211267709732056,-0.0020416742190718,0.0042228116653859,-0.9949881434440612,0.099882885813713,-0.0006348429874956,0.0006178137125825,-2.445332611195377e-06,0.0,0.0,0.0,-0.012983713299036,0.0030838465318083,-0.9977385997772216,0.0658753737807273,-0.0035544575940252,-0.3260895396428382,-0.5966839739166727,-0.1026601195335388,-0.2533872723579407,0.3379478454589844,438,486,19271,-18450
2.9,1788441357679,3.577464818954468,-3.211267709732056,-0.0020416742190718,0.0042228116653859,-0.9949881434440612,0.099882885813713,-0.0006348429874956,0.0006178137125825,-2.445332611195377e-06,0.0,0.0,0.0,-0.012983713299036,0.0030838465318083,-0.9977385997772216,0.0658753737807273,-0.0035544575940252,-0.3260895396428382,-0.5966839739166727,-0.1026601195335388,-0.2533872723579407,0.3379478454589844,438,486,19271,-18450
3.0,1788441357779,3.577464818954468,-3.211267709732056,-0.0020416742190718,0.0042228116653859,-0.9949881434440612,0.099882885813713,-0.0006348429874956,0.0006178137125825,-2.445332611195377e-06,0.0,0.0,0.0,-0.012983713299036,0.0030838465318083,-0.9977385997772216,0.0658753737807273,-0.0035544575940252,-0.3260895396428382,-0.5966839739166727,-0.1026601195335388,-0.2533872723579407,0.3379478454589844,438,486,19271,-18450
3.1,1788441357879,3.577464818954468,-3.211267709732056,-0.0020416742190718,0.0042228116653859,-0.9949881434440612,0.099882885813713,-0.0006348429874956,0.0006178137125825,-2.445332611195377e-06,0.0,0.0,0.0,-0.012983713299036,0.0030838465318083,-0.9977385997772216,0.0658753737807273,-0.0035544575940252,-0.3260895396428382,-0.5966839739166727,-0.1026601195335388,-0.2533872723579407,0.3379478454589844,438,486,19271,-18450
3.2,1788441357979,3.577464818954468,-3.211267709732056,-0.0020416742190718,0.0042228116653859,-0.9949881434440612,0.099882885813713,-0.0006348429874956,0.0006178137125825,-2.445332611195377e-06,0.0,0.0,0.0,-0.012983713299036,0.0030838465318083,-0.9977385997772216,0.0658753737807273,-0.0035544575940252,-0.3260895396428382,-0.5966839739166727,-0.1026601195335388,-0.2533872723579407,0.3379478454589844,438,486,19271,-18450
3.3,1788441358079,3.577464818954468,-3.211267709732056,-0.0020416742190718,0.0042228116653859,-0.9949881434440612,0.099882885813713,-0.0006348429874956,0.0006178137125825,-2.445332611195377e-06,0.0,0.0,0.0,-0.012983713299036,0.0030838465318083,-0.9977385997772216,0.0658753737807273,-0.0035544575940252,-0.3260895396428382,-0.5966839739166727,-0.1026601195335388,-0.2533872723579407,0.3379478454589844,438,486,19271,-18450
3.4,1788441358179,3.577464818954468,-3.211267709732056,-0.0020416742190718,0.0042228116653859,-0.9949881434440612,0.099882885813713,-0.0006348429874956,0.0006178137125825,-2.445332611195377e-06,0.0,0.0,0.0,-0.012983713299036,0.0030838465318083,-0.9977385997772216,0.0658753737807273,-0.0035544575940252,-0.3260895396428382,-0.5966839739166727,-0.1026601195335388,-0.2533872723579407,0.3379478454589844,438,486,19271,-18450
3.5,1788441358279,3.577464818954468,-3.211267709732056,-0.0020416742190718,0.0042228116653859,-0.9949881434440612,0.099882885813713,-0.0006348429874956,0.0006178137125825,-2.445332611195377e-06,0.0,0.0,0.0,-0.012983713299036,0.0030838465318083,-0.9977385997772216,0.0658753737807273,-0.0035544575940252,-0.3260895396428382,-0.5966839739166727,-0.1026601195335388,-0.2533872723579407,0.3379478454589844,438,486,19271,-18450
3.6,1788441358379,3.577464818954468,-3.211267709732056,-0.0020416742190718,0.0042228116653859,-0.9949881434440612,0.099882885813713,-0.0006348429874956,0.0006178137125825,-2.445332611195377e-06,0.0,0.0,0.0,-0.012983713299036,0.0030838465318083,-0.9977385997772216,0.0658753737807273,-0.0035544575940252,-0.3260895396428382,-0.5966839739166727,-0.1026601195335388,-0.2533872723579407,0.3379478454589844,438,486,19271,-18450
3.7,1788441358479,3.577464818954468,-3.211267709732056,-0.0020416742190718,0.0042228116653859,-0.9949881434440612,0.099882885813713,-0.0006348429874956,0.0006178137125825,-2.445332611195377e-06,0.0,0.0,0.0,-0.012983713299036,0.0030838465318083,-0.9977385997772216,0.0658753737807273,-0.0035544575940252,-0.3260895396428382,-0.5966839739166727,-0.1026601195335388,-0.2533872723579407,0.3379478454589844,438,486,19271,-18450
3.8,1788441358579,3.577464818954468,-3.211267709732056,-0.0020416742190718,0.0042228116653859,-0.9949881434440612,0.099882885813713,-0.0006348429874956,0.0006178137125825,-2.445332611195377e-06,0.0,0.0,0.0,-0.012983713299036,0.0030838465318083,-0.9977385997772216,0.0658753737807273,-0.0035544575940252,-0.3260895396428382,-0.5966839739166727,-0.1026601195335388,-0.2533872723579407,0.3379478454589844,438,486,19271,-18450
3.9,1788441358679,3.577464818954468,-3.211267709732056,-0.0020416742190718,0.0042228116653859,-0.9949881434440612,0.099882885813713,-0.0006348429874956,0.0006178137125825,-2.445332611195377e-06,0.0,0.0,0.0,-0.012983713299036,0.0030838465318083,-0.9977385997772216,0.0658753737807273,-0.0035544575940252,-0.3260895396428382,-0.5966839739166727,-0.1026601195335388,-0.2533872723579407,0.3379478454589844,438,486,19271,-18450
4.0,1788441358779,3.577464818954468,-3.211267709732056,-0.0020416742190718,0.0042228116653859,-0.9949881434440612,0.099882885813713,-0.0006348429874956,0.0006178137125825,-2.445332611195377e-06,0.0,0.0,0.0,-0.012983713299036,0.0030838465318083,-0.9977385997772216,0.0658753737807273,-0.0035544575940252,-0.3260895396428382,-0.5966839739166727,-0.1026601195335388,-0.2533872723579407,0.3379478454589844,438,486,19271,-18450
4.1,1788441358879,3.577464818954468,-3.211267709732056,-0.0020416742190718,0.0042228116653859,-0.9949881434440612,0.099882885813713,-0.0006348429874956,0.0006178137125825,-2.445332611195377e-06,0.0,0.0,0.0,-0.012983713299036,0.0030838465318083,-0.9977385997772216,0.0658753737807273,-0.0035544575940252,-0.3260895396428382,-0.5966839739166727,-0.1026601195335388,-0.2533872723579407,0.3379478454589844,438,486,19271,-18450
4.2,1788441358979,3.577464818954468,-3.211267709732056,-0.0020416742190718,0.0042228116653859,-0.9949881434440612,0.099882885813713,-0.0006348429874956,0.0006178137125825,-2.445332611195377e-06,0.0,0.0,0.0,-0.012983713299036,0.0030838465318083,-0.9977385997772216,0.0658753737807273,-0.0035544575940252,-0.3260895396428382,-0.5966839739166727,-0.1026601195335388,-0.2533872723579407,0.3379478454589844,438,486,19271,-18450
4.3,1788441359079,3.577464818954468,-3.211267709732056,-0.0020416742190718,0.0042228116653859,-0.9949881434440612,0.099882885813713,-0.0006348429874956,0.0006178137125825,-2.445332611195377e-06,0.0,0.0,0.0,-0.012983713299036,0.0030838465318083,-0.9977385997772216,0.0658753737807273,-0.0035544575940252,-0.3260895396428382,-0.5966839739166727,-0.1026601195335388,-0.2533872723579407,0.3379478454589844,438,486,19271,-18450
4.4,1788441359179,3.577464818954468,-3.211267709732056,-0.0020416742190718,0.0042228116653859,-0.9949881434440612,0.099882885813713,-0.0006348429874956,0.0006178137125825,-2.445332611195377e-06,0.0,0.0,0.0,-0.012983713299036,0.0030838465318083,-0.9977385997772216,0.0658753737807273,-0.0035544575940252,-0.3260895396428382,-0.5966839739166727,-0.1026601195335388,-0.2533872723579407,0.3379478454589844,438,486,19271,-18450
4.5,1788441359279,3.577464818954468,-3.211267709732056,-0.0020416742190718,0.0042228116653859,-0.9949881434440612,0.099882885813713,-0.0006348429874956,0.0006178137125825,-2.445332611195377e-06,0.0,0.0,0.0,-0.012983713299036,0.0030838465318083,-0.9977385997772216,0.0658753737807273,-0.0035544575940252,-0.3260895396428382,-0.5966839739166727,-0.1026601195335388,-0.2533872723579407,0.3379478454589844,438,486,19271,-18450
4.6,1788441359379,3.577464818954468,-3.211267709732056,-0.0020416742190718,0.0042228116653859,-0.9949881434440612,0.099882885813713,-0.0006348429874956,0.0006178137125825,-2.445332611195377e-06,0.0,0.0,0.0,-0.012983713299036,0.0030838465318083,-0.9977385997772216,0.0658753737807273,-0.0035544575940252,-0.3260895396428382,-0.5966839739166727,-0.1026601195335388,-0.2533872723579407,0.3379478454589844,438,486,19271,-18450
4.7,1788441359479,3.577464818954468,-3.211267709732056,-0.0164059940725564,0.0030474513769149,-0.9978321194648744,0.0636609718203544,-0.0209666605479983,-0.0197185326531918,-0.0001029644054705,-0.0215392392128705,-0.3261920213699341,-0.6347420811653137,-0.012983713299036,0.0030838465318083,-0.9977385997772216,0.0658753737807273,-0.0035544575940252,-0.3260895396428382,-0.5966839739166727,-0.1026601195335388,-0.2533872723579407,0.3379478454589844,438,486,19271,-18450
4.8,1788441359579,4.11267614364624,-3.774647951126098,-0.0186432469636201,0.0040165372192859,-0.9993665218353271,0.0300457254052162,-0.0289706908883701,-0.0165525470403796,4.094749965139309e-05,-0.0394955277442932,0.0365952961146831,-0.7255190014839172,-0.0199098549783229,0.0041615301743149,-0.9997137784957886,0.0125956526026129,-0.0111089154620912,-0.0974438640066523,-0.7367579664018821,0.2593493461608886,-0.5094825029373169,-1.1019067764282229,438,486,19271,-18450
4.9,1788441359679,3.859154939651489,-4.084506988525391,-0.0188799798488616,0.0041534635238349,-0.9997432827949524,0.0118179377168416,-0.0218067485585297,-0.0202607496454433,-1.24783664954269e-05,-0.0198963712900877,-0.0062805134803056,-0.7519331574440002,0.017262814566493,-0.0058639952912926,0.9988458156585692,0.0444372780621051,-0.0523690933382365,0.0169006981204609,-1.044112062242264,-0.0842822194099426,-0.3038256764411926,0.2133026123046875,509,302,20257,-14215
5.0,1788441359779,4.169013977050781,-3.91549301147461,0.0171580296009778,-0.006332947872579,0.9972395300865172,0.071963369846344,-0.0075480231214098,0.0065689327190509,-2.089373302556137e-06,-0.0429419539868831,0.0131349526345729,-1.1652454137802124,0.0165828354656696,-0.0069281095638871,0.9949728846549988,0.0985194519162178,-0.0514287892499287,0.0212381064149174,-1.2249221607222818,-0.1368462443351745,-0.2848891019821167,-0.1012144088745117,388,182,16402,-14508
5.1,1788441359879,4.14084529876709,-4.507042407989502,0.0171580296009778,-0.006332947872579,0.9972395300865172,0.071963369846344,-0.0075480231214098,0.0065689327190509,-2.089373302556137e-06,-0.0429419539868831,0.0131349526345729,-1.1652454137802124,0.0148474276065826,-0.0070342235267162,0.988957703113556,0.1472848057746887,-0.0163893957707445,0.0185559861313505,-1.1986273162495718,0.0838215351104736,0.1018939018249511,0.0378665924072265,333,219,17559,-13201
5.2,1788441359979,3.94366192817688,-4.11267614364624,0.0142578165978193,-0.0069820825010538,0.9821714162826538,0.1873157173395156,-0.0102531254099784,0.0123057863011054,2.5055686282505446e-06,-0.013503941707313,0.0298118591308593,-1.1758646965026855,0.0169278122484684,-0.0063238870352506,0.9721436500549316,0.2336885035037994,0.0153196270610412,-0.0663445126205576,-1.197393959098885,0.4739449024200439,0.3352897763252258,0.9099769592285156,374,347,17772,-16302
5.3,1788441360079,3.859154939651489,-3.492957830429077,0.0160453747957944,-0.0063795503228902,0.9702507257461548,0.2414858341217041,-0.0069508247949172,0.0074074876937485,-3.1496072106332075e-06,-0.0230503380298614,0.0196899306029081,-1.1501637697219849,0.0156275127083063,-0.0072820438072085,0.9636613130569458,0.266570121049881,-0.0732352552343946,0.0001995070342619,-1.1277345831986385,-1.54693865776062,0.1453006863594055,-0.0064592361450195,408,143,18472,-13755
5.4,1788441360179,-0.3661971688270569,0.0,0.0154254706576466,-0.0071326973848044,0.963886559009552,0.2657702565193176,-0.0080993874847734,0.0170210191181304,-1.88592707091109e-05,-0.0549443662166595,0.0198028739541769,-1.0514739751815796,-0.0003296807408332,-0.0039681429043412,0.9616755843162536,0.2741611897945404,-0.0945552947347631,0.1065410148326009,0.0876524683560999,-1.722296953201294,-0.7346037030220032,3.795149803161621,408,143,18472,-13755
5.5,1788441360279,0.0,0.0,0.0013157513458281,-0.0030138860456645,0.96307772397995,0.2692035138607025,-0.0017408024306352,-0.0047176472407138,-9.263180856360342e-06,0.0276508517563343,-0.0188248082995414,0.031083034351468,0.001411385834217,-0.0029820082709193,0.961858332157135,0.273527979850769,-0.0047963476679323,0.0005293486452967,-0.0146409506382727,-0.1516751050949096,-0.2371749281883239,-0.0498485565185546,0,0,0,0
5.6,1788441360379,0.0,0.0,0.0015366817824542,-0.0029526138678193,0.9631138443946838,0.269073486328125,-0.0002082013003626,-0.0006378649484165,-2.1532609703434357e-06,0.0,0.0,0.0,0.0015772059559822,-0.0029601845890283,0.96187824010849,0.2734577357769012,0.0002554006426998,-0.001578600944741,-0.0002210136152632,0.0555126667022705,-0.0623009800910949,-0.0883874893188476,0,0,0,0
5.7,1788441360479,0.0,0.0,0.0015366817824542,-0.0029526138678193,0.9631138443946838,0.269073486328125,-0.0002032443122946,-0.0002084072938823,-8.840830805223154e-08,0.0,0.0,0.0,0.0015772059559822,-0.0029601845890283,0.96187824010849,0.2734577357769012,0.0002554006426998,-0.001578600944741,-0.0002210136152632,0.0555126667022705,-0.0623009800910949,-0.0883874893188476,0,0,0,0
5.8,1788441360579,0.0,0.0,0.0015366817824542,-0.0029526138678193,0.9631138443946838,0.269073486328125,0.0,0.0,0.0,0.0,0.0,0.0,0.0015997923910617,-0.0029111355543136,0.9618920087814332,0.2734093964099884,-0.0001890528692554,-0.0004083052440485,-0.0002928859674603,-0.0489952564239501,-0.0117920637130737,0.04638671875,0,0,0,0
5.9,1788441360679,0.0,0.0,0.0015366817824542,-0.0029526138678193,0.9631138443946838,0.269073486328125,0.0,0.0,0.0,0.0,0.0,0.0,0.0016257045790553,-0.0029708640649914,0.9618996977806092,0.2733815908432007,4.263473248638483e-06,-0.0032213150890717,0.0002507502755428,-0.013871431350708,-0.0143673419952392,0.0392436981201171,0,0,0,0
6.0,1788441360779,0.0,0.0,0.0015366817824542,-0.0029526138678193,0.9631138443946838,0.269073486328125,0.0,0.0,0.0,0.0,0.0,0.0,0.0015683630481362,-0.0029488019645214,0.9618945121765136,0.2734005153179168,3.7997395221584543e-06,0.0017504553628084,-8.342511962809973e-05,-0.0324323773384094,-0.021668255329132,0.0409784317016601,0,0,0,0
6.1,1788441360879,0.0,0.0,0.0015366817824542,-0.0029526138678193,0.9631138443946838,0.269073486328125,0.0,0.0,0.0,0.0,0.0,0.0,0.0015646619722247,-0.0029448866844177,0.9618980884552002,0.2733877599239349,5.443959401881793e-06,0.0001464331263152,7.974317565559388e-05,-0.0377106666564941,-0.018072485923767,0.0266180038452148,0,0,0,0
6.2,1788441360979,0.0,0.0,0.0015366817824542,-0.0029526138678193,0.9631138443946838,0.269073486328125,0.0,0.0,0.0,0.0,0.0,0.0,0.0015574246644973,-0.0029204925522208,0.961902379989624,0.2733729481697082,0.0012492507976331,0.0017570899800909,-0.0002647731488968,0.0052003860473632,0.0034683346748352,-0.0263519287109375,0,0,0,0
6.3,1788441361079,0.0,0.0,0.0015366817824542,-0.0029526138678193,0.9631138443946838,0.269073486328125,0.0,0.0,0.0,0.0,0.0,0.0,0.0015316875651478,-0.0029323007911443,0.9619124531745912,0.2733376324176788,-0.0003486278770864,-0.0001994672542852,0.000444072026963,-0.0056744813919067,0.0191397070884704,-0.0002422332763671,0,0,0,0
6.4,1788441361179,0.0,0.0,0.0015366817824542,-0.0029526138678193,0.9631138443946838,0.269073486328125,0.0,0.0,0.0,0.0,0.0,0.0,0.0014806678518652,-0.002914766781032,0.9619084596633912,0.2733523249626159,-0.001409608944513,0.001388502551853,0.0006235136770749,0.0059230327606201,-0.0155890583992004,-0.068826675415039,0,0,0,0
6.5,1788441361279,0.0,0.0,0.0015366817824542,-0.0029526138678193,0.9631138443946838,0.269073486328125,0.0,0.0,0.0,0.0,0.0,0.0,0.0014806678518652,-0.002914766781032,0.9619084596633912,0.2733523249626159,-0.001409608944513,0.001388502551853,0.0006235136770749,0.0059230327606201,-0.0155890583992004,-0.068826675415039,0,0,0,0
6.6,1788441361379,0.0,0.0,0.0015366817824542,-0.0029526138678193,0.9631138443946838,0.269073486328125,0.0,0.0,0.0,0.0,0.0,0.0,0.0012945104390382,-0.0029492368921637,0.96191668510437,0.2733236849308014,-0.0011871334040172,0.003924098139348,0.0007165066652396,-0.0218367576599121,-0.0268701910972595,0.0133733749389648,0,0,0,0
6.7,1788441361479,0.0,0.0,0.0013114134781062,-0.0029779383912682,0.9631245732307434,0.2690361440181732,0.0001405744725392,-0.000156789567196,-1.401563252847592e-06,-0.0034685835707932,0.0085801091045141,0.0016154330223798,0.0008808467537164,-0.0030185030773282,0.961916446685791,0.2733257412910461,-0.0018583155415804,0.0050420567853837,0.0003742394114491,0.008996307849884,-0.005820870399475,-0.0241641998291015,0,0,0,0
6.8,1788441361579,0.0,0.0,0.0013114134781062,-0.0029779383912682,0.9631245732307434,0.2690361440181732,0.0,0.0,0.0,0.0,0.0,0.0,0.0007658638060092,-0.0030273720622062,0.9619153738021852,0.2733293771743774,-0.0025988032787287,0.0070351232254202,-0.0002250797085453,-0.0011699199676513,0.0101697444915771,-0.0025300979614257,0,0,0,0
6.9,1788441361679,0.0,0.0,0.0013114134781062,-0.0029779383912682,0.9631245732307434,0.2690361440181732,0.0,0.0,0.0,0.0,0.0,0.0,0.0005318569019436,-0.0030451966449618,0.9619227051734924,0.2733042240142822,-0.0009312304994219,0.004712830678521,0.0009597218468562,0.0115678310394287,-0.0067560672760009,-0.0007591247558593,0,0,0,0
7.0,1788441361779,0.0,0.0,0.0005578159471042,-0.0030716541223227,0.963139832019806,0.2689831554889679,8.305612965232482e-05,-9.331444047871249e-05,-7.799610520064146e-07,-0.0046672960743308,0.0108403544872999,0.0009931951062753,0.0002223644405603,-0.0031367382034659,0.961925208568573,0.2732945680618286,-0.0024340781823771,0.0026639111120738,0.000107669844276,0.0145766139030456,0.0060354471206665,0.0030269622802734,0,0,0,0
7.1,1788441361879,0.0,0.0,0.0005578159471042,-0.0030716541223227,0.963139832019806,0.2689831554889679,0.0,0.0,0.0,0.0,0.0,0.0,-2.11792066693306e-05,-0.0032112644985318,0.961922824382782,0.2733021676540375,-0.0017788672639494,0.0029192751664834,0.0003566743710664,0.0056520104408264,-0.0073920488357543,-0.095616340637207,0,0,0,0
7.2,1788441361979,0.0,0.0,0.0005578159471042,-0.0030716541223227,0.963139832019806,0.2689831554889679,0.0,0.0,0.0,0.0,0.0,0.0,-0.0001889104023575,-0.0032788962125778,0.9619237184524536,0.2732983827590942,-0.0016962209405917,0.0038565897829538,7.068999550593345e-05,-0.0573630332946777,-0.023209810256958,-0.007735252380371,0,0,0,0
7.3,1788441362079,0.0,0.0,0.0001041665091179,-0.0032032551243901,0.963143825531006,0.2689679861068725,0.0,0.0,0.0,0.0,-9.153665603278681e-10,0.0,-0.0002788826823234,-0.0033170767128467,0.9619291424751282,0.2732788622379303,-0.0018189935200069,0.0005840529853428,-0.0004340042797284,0.0136751532554626,0.0450055003166198,0.024947166442871,0,0,0,0
7.4,1788441362179,0.0,0.0,0.0001041665091179,-0.0032032551243901,0.963143825531006,0.2689679861068725,0.0,0.0,0.0,0.0,-9.105740605974687e-10,0.0,-0.0004266770556569,-0.003338566981256,0.9619262218475342,0.2732885479927063,-0.0009595013711793,0.0022204695803975,0.000178992584236,-0.0058419108390808,0.0018664002418518,0.0067911148071289,0,0,0,0
7.5,1788441362279,0.0,0.0,0.0001041665091179,-0.0032032551243901,0.963143825531006,0.2689679861068725,0.0,0.0,0.0,0.0,-8.897011460895499e-10,0.0,-0.0004266770556569,-0.003338566981256,0.9619262218475342,0.2732885479927063,-0.0009595013711793,0.0022204695803975,0.000178992584236,-0.0058419108390808,0.0018664002418518,0.0067911148071289,0,0,0,0
7.6,1788441362379,0.0,0.0,-0.0003381796996109,-0.0032986633013933,0.9631416201591492,0.2689741551876068,0.0,0.0,0.0,0.0,0.0,0.0,-0.0006552757695317,-0.0033810352906584,0.9619224071502686,0.2733010351657867,-0.0006450758474659,0.001534678380122,-0.0002564682473569,0.0057236552238464,-0.0284993052482604,0.013829231262207,0,0,0,0
7.7,1788441362479,0.0,0.0,-0.0003381796996109,-0.0032986633013933,0.9631416201591492,0.2689741551876068,0.0,0.0,0.0,0.0,0.0,0.0,-0.0007724463939666,-0.0033867033198475,0.9619229435920716,0.2732985615730285,-0.0007841686362725,0.0005963776168378,-0.0005140396497943,-0.0173908472061157,-0.0304790139198303,-0.0060272216796875,0,0,0,0
7.8,1788441362579,0.0,0.0,-0.0003381796996109,-0.0032986633013933,0.9631416201591492,0.2689741551876068,0.0,0.0,0.0,0.0,0.0,0.0,-0.0008569248020648,-0.003410430625081,0.9619341492652892,0.2732585966587066,0.000179813483068,-0.0012116517870903,0.0010858071569738,0.0223690867424011,0.000282347202301,0.0067052841186523,0,0,0,0
7.9,1788441362679,0.0,0.0,-0.0003381796996109,-0.0032986633013933,0.9631416201591492,0.2689741551876068,0.0,0.0,0.0,0.0,0.0,0.0,-0.0008796313777565,-0.0034413123503327,0.9619266390800476,0.2732846438884735,-0.0011710983265055,0.0007466613748795,-0.0010243918286366,-0.0015956759452819,-0.0175020694732666,0.0245790481567382,0,0,0,0
8.0,1788441362779,0.0,0.0,-0.0007206776062957,-0.0034052655100822,0.9631466865539552,0.2689544260501861,0.0,0.0,0.0,0.0,2.4259430020379114e-09,0.0,-0.0008796313777565,-0.0034413123503327,0.9619266390800476,0.2732846438884735,-0.0011710983265055,0.0007466613748795,-0.0010243918286366,-0.0015956759452819,-0.0175020694732666,0.0245790481567382,0,0,0,0
8.1,1788441362879,0.0,0.0,-0.0007206776062957,-0.0034052655100822,0.9631466865539552,0.2689544260501861,0.0,0.0,0.0,0.0,2.4150244026799324e-09,0.0,-0.0009465003386139,-0.0034527108073234,0.9619275331497192,0.2732813060283661,-0.0009247465566477,0.0009259181522143,-0.0002263745882886,-0.0038189888000488,0.0038032531738281,-0.0004549026489257,0,0,0,0
8.2,1788441362979,0.0,0.0,-0.0007206776062957,-0.0034052655100822,0.9631466865539552,0.2689544260501861,0.0,0.0,0.0,0.0,2.4603858950200674e-09,0.0,-0.0009411778301,-0.0034368447959423,0.9619315266609192,0.2732673287391662,0.0001656989840093,0.0007545483044758,0.0002746629645133,0.0021396279335021,0.0171226263046264,-0.0110807418823242,0,0,0,0
8.3,1788441363079,0.0,0.0,-0.0007206776062957,-0.0034052655100822,0.9631466865539552,0.2689544260501861,0.0,0.0,0.0,0.0,2.4603858950200674e-09,0.0,-0.0009411778301,-0.0034368447959423,0.9619315266609192,0.2732673287391662,0.0001656989840093,0.0007545483044758,0.0002746629645133,0.0021396279335021,0.0171226263046264,-0.0110807418823242,0,0,0,0
8.4,1788441363179,0.0,0.0,-0.0007206776062957,-0.0034052655100822,0.9631466865539552,0.2689544260501861,0.0,0.0,0.0,0.0,2.427266387883264e-09,0.0,-0.000878038816154,-0.0032363096252083,0.9644690155982972,0.2641746997833252,0.0102085027138475,-0.0061126604577588,0.3707968058805738,-0.1756663918495178,0.7193310260772705,-0.0677556991577148,321,373,-11921,12286
8.5,1788441363279,-3.492957830429077,4.084506988525391,-0.001054735854268,-0.0033408352173864,0.9641732573509216,0.2652502357959747,-0.00645009240569,0.0010639827325766,2.407293232347903e-07,-0.0011322670616209,0.0136774936690926,0.1614554077386856,-0.000878038816154,-0.0032363096252083,0.9644690155982972,0.2641746997833252,0.0102085027138475,-0.0061126604577588,0.3707968058805738,-0.1756663918495178,0.7193310260772705,-0.0677556991577148,321,373,-11921,12286
8.6,1788441363379,-3.492957830429077,3.2957746982574463,-0.0002588633797131,-0.0033480937127023,0.976393461227417,0.2159731090068817,0.0054213210019754,-0.0099498602236719,2.253610032014542e-06,-0.0098266303539276,-0.0069485208950936,1.0749375820159912,-0.000878038816154,-0.0032363096252083,0.9644690155982972,0.2641746997833252,0.0102085027138475,-0.0061126604577588,0.3707968058805738,-0.1756663918495178,0.7193310260772705,-0.0677556991577148,128,150,-10346,9877
8.7,1788441363479,-3.492957830429077,3.2957746982574463,-0.0002588633797131,-0.0033480937127023,0.976393461227417,0.2159731090068817,0.0054213210019754,-0.0099498602236719,2.253610032014542e-06,-0.0098266303539276,-0.0069485208950936,1.0749375820159912,-0.000878038816154,-0.0032363096252083,0.9644690155982972,0.2641746997833252,0.0102085027138475,-0.0061126604577588,0.3707968058805738,-0.1756663918495178,0.7193310260772705,-0.0677556991577148,128,150,-10346,9877
8.8,1788441363579,-3.492957830429077,3.2957746982574463,-0.0008069929899647,-0.0052785915322601,0.9946501851081848,0.1031616106629371,0.0116020030905583,-0.0111789262075529,-5.29865903882737e-06,-0.0028803972527384,0.005581026431173,0.766017496585846,-0.0010973867028951,-0.00510726403445,0.9962120652198792,0.0867996960878372,0.0025618316656699,0.0070405963098457,0.6759721501103685,0.0851794481277465,-0.0455831885337829,-0.1385488510131836,128,150,-10346,9877
8.9,1788441363679,-2.197183132171631,1.8591549396514893,-0.0010573051404207,-0.0051316581666469,0.9961934685707092,0.0870127603411674,0.007371145447147,-0.0053903455945966,7.536152522210097e-07,0.0047932714223861,0.0073760957457125,0.673618495464325,-0.0010973867028951,-0.00510726403445,0.9962120652198792,0.0867996960878372,0.0025618316656699,0.0070405963098457,0.6759721501103685,0.0851794481277465,-0.0455831885337829,-0.1385488510131836,128,150,-10346,9877
9.0,1788441363779,-1.8028168678283687,1.7464789152145386,-0.0009781693806871,-0.0048564742319285,0.9993281960487366,0.0363128259778022,0.0065824381897037,-0.0070843546170918,-4.042338378901866e-07,0.0024430437479168,-0.015035968273878,0.6198216676712036,-0.0008909730240702,-0.0046719219535589,0.9997126460075378,0.023497873917222,0.0067851153715709,-0.0026718392778368,0.491213225969716,0.011823832988739,0.1067276000976562,0.2390851974487304,203,65,-9308,6440
9.1,1788441363879,-1.94366192817688,1.774647831916809,-0.0009781693806871,-0.0048564742319285,0.9993281960487366,0.0363128259778022,0.0065824381897037,-0.0070843546170918,-4.042338378901866e-07,0.0024430437479168,-0.015035968273878,0.6198216676712036,-0.0009869709610939,-0.0044227465987205,0.9999796152114868,0.0044953608885407,0.0069160926877095,0.0002515169891399,0.5681106521818582,-0.1384642124176025,-0.171636700630188,-0.1699533462524414,206,126,-9026,6604
9.2,1788441363979,-1.2676056623458862,2.2253520488739014,0.0008431604364886,0.0044210865162312,-0.9999854564666748,0.0029658179264515,0.0045897365232957,-0.0065579782964005,1.928313073907104e-06,0.0042406348511576,-0.0046811397187411,0.5245471000671387,-0.0009869709610939,-0.0044227465987205,0.9999796152114868,0.0044953608885407,0.0069160926877095,0.0002515169891399,0.5681106521818582,-0.1384642124176025,-0.171636700630188,-0.1699533462524414,135,236,-6119,10819
9.3,1788441364079,0.0,4.2816901206970215,0.0006060766172595,0.0044364808127284,-0.9991967678070068,0.0398226790130138,0.0405527973594467,-0.0066834553278015,9.535293895027377e-06,0.0036347836721688,-0.0078034941107034,0.5032072067260742,0.0006842967122793,0.0044358232989907,-0.9993211627006532,0.0365657173097133,0.0043523794760316,-0.0042204136398126,0.4988242722358197,0.946742594242096,0.0175521373748779,0.4895715713500976,158,157,6972,15314
9.4,1788441364179,2.7323944568634038,5.070422649383545,0.0003190154966432,0.0041314796544611,-0.998323142528534,0.0577380843460559,0.0873926755440251,-0.0024869723878125,2.949693787657044e-05,0.0086675025522708,-0.0117580909281969,0.5579841732978821,5.637388676404953e-05,0.0036033084616065,-0.9971747994422911,0.0750294402241706,0.0094679612692616,-0.0048751963577421,0.4926277606734576,1.5769765377044678,0.2093429565429687,-0.2884254455566406,92,38,9438,14230
9.5,1788441364279,1.8028168678283687,3.577464818954468,8.101051207631826e-06,0.0037513771094381,-0.9974758625030518,0.0709070488810539,0.1251527778749724,-0.0055604331616303,2.870657686792251e-05,0.0148529401049017,-0.0162241980433464,0.5539078712463379,0.0002407003194093,0.003509858623147,-0.995890498161316,0.090497151017189,0.0023794612739279,0.002751339868941,0.3572434388343943,-1.2996739149093628,-0.0576865077018737,-0.1010313034057617,0,189,4275,3464
9.6,1788441364379,0.0,0.0,0.0002021702821366,0.003549700602889,-0.995319128036499,0.0965770259499549,0.0786658949235144,-0.0040639728996475,2.7528242229714444e-05,0.0024519227445125,-0.0167895313352346,0.2072817236185073,0.0001704329624772,0.0036673117429018,-0.9954133629798888,0.095597468316555,7.894800709850825e-05,-0.0005629391167749,0.0532800575763084,-1.013408064842224,-0.0467292070388793,0.1939535140991211,0,189,4275,3464
9.7,1788441364479,0.0,0.0,0.0002057685924228,0.0036728479899466,-0.9950322508811952,0.0994853377342224,0.0031608116087724,-0.0021914931836932,2.538538225473175e-06,-0.000162657466717,0.0003004569443874,0.0218668822199106,0.0001704329624772,0.0036673117429018,-0.9954133629798888,0.095597468316555,7.894800709850825e-05,-0.0005629391167749,0.0532800575763084,-1.013408064842224,-0.0467292070388793,0.1939535140991211,0,189,4275,3464
9.8,1788441364579,0.0,0.0,6.635350291617215e-05,0.0036639822646975,-0.9951509833335876,0.0982903987169265,-0.000576766502401,0.0006727989082042,-5.70761419923943e-07,0.0004251427599228,-0.0002660802856553,-0.0066621783189475,4.681199789047241e-05,0.003682573325932,-0.9955999851226808,0.0936333164572715,-0.0015641172732756,-0.0010640637572463,-0.0016868054754613,0.0439146161079406,-0.1067792177200317,0.0747461318969726,0,0,0,0
9.9,1788441364679,0.0,0.0,6.635350291617215e-05,0.0036639822646975,-0.9951509833335876,0.0982903987169265,0.0,0.0,0.0,0.0,-3.0418195740011806e-10,0.0,1.1519528925418854e-05,0.0036603938788175,-0.995599627494812,0.0936376228928566,-0.0001353678355413,-0.0026584357515691,-0.003164534022634,0.0576030015945434,-0.0441350936889648,0.0372943878173828,0,0,0,0
10.0,1788441364779,0.0,0.0,6.635350291617215e-05,0.0036639822646975,-0.9951509833335876,0.0982903987169265,0.0,0.0,0.0,0.0,-3.095778355888257e-10,0.0,2.1778978407382965e-05,0.0036825388669967,-0.9955986142158508,0.093646764755249,2.213554016482797e-06,-0.0008870313921186,0.00129341437521,0.0291744470596313,-0.0345348119735717,-0.0147886276245117,0,0,0,0
10.1,1788441364879,0.0,0.0,6.635350291617215e-05,0.0036639822646975,-0.9951509833335876,0.0982903987169265,0.0,0.0,0.0,0.0,-3.0485314272965525e-10,0.0,6.899330765008926e-05,0.0036386335268616,-0.9956001043319702,0.0936328619718551,0.0013342325347848,0.0013968959449827,4.850136699762631e-05,0.0335575938224792,-0.039219856262207,0.0229120254516601,0,0,0,0
10.2,1788441364979,0.0,0.0,6.635350291617215e-05,0.0036639822646975,-0.9951509833335876,0.0982903987169265,0.0,0.0,0.0,0.0,-3.0153460284232376e-10,0.0,6.337929517030716e-05,0.0036380421370267,-0.9956002235412598,0.0936314761638641,4.240573278790985e-06,-0.0003748297828445,-9.40856366573146e-05,-0.0043058395385742,-0.0123866200447082,0.0499114990234375,0,0,0,0
10.3,1788441365079,0.0,0.0,6.635350291617215e-05,0.0036639822646975,-0.9951509833335876,0.0982903987169265,0.0,0.0,0.0,0.0,-3.0532626427159926e-10,0.0,6.337929517030716e-05,0.0036380421370267,-0.9956002235412598,0.0936314761638641,4.240573278790985e-06,-0.0003748297828445,-9.40856366573146e-05,-0.0043058395385742,-0.0123866200447082,0.0499114990234375,0,0,0,0
10.4,1788441365179,0.0,0.0,6.635350291617215e-05,0.0036639822646975,-0.9951509833335876,0.0982903987169265,0.0,0.0,0.0,0.0,-3.0837171705044847e-10,0.0,-3.6945566534996033e-06,0.0036206385120749,-0.995604395866394,0.093588538467884,-0.0005263897407261,-0.0017913946753725,-0.0012793895519614,0.0392943024635314,-0.030435562133789,0.0175657272338867,0,0,0,0
10.5,1788441365279,0.0,0.0,-0.0002204402699135,0.0035939950030297,-0.9949267506599426,0.1005373150110244,0.0194337816946512,-0.0034481086715495,6.390582666556726e-06,0.0016898814355954,-0.0125421192497015,0.0942023545503616,-7.274094969034195e-05,0.0036436924710869,-0.9955710768699646,0.0939418449997901,-0.0011863835321016,-0.0030230492231694,0.0134107447330443,0.4888349175453186,0.0815005898475647,0.0167970657348632,249,344,6988,9776
10.6,1788441365379,4.394366264343262,6.056337833404541,-0.0002204402699135,0.0035939950030297,-0.9949267506599426,0.1005373150110244,0.0194337816946512,-0.0034481086715495,6.390582666556726e-06,0.0016898814355954,-0.0125421192497015,0.0942023545503616,-0.0010494580492377,0.0033220630139112,-0.9941430687904358,0.1080163270235061,0.0058196011460418,-0.0273274287363307,0.2148810832062473,0.817209005355835,0.2186437249183654,-0.3180875778198242,138,116,13626,17651
10.7,1788441365479,4.394366264343262,6.056337833404541,-0.0007727686315774,0.0031768840271979,-0.9932743906974792,0.1157389655709266,0.147726207017168,0.0035777884101953,8.90479167395156e-05,0.008485559374094,-0.0105487015098333,0.2263295501470565,-0.0007192771881818,0.0030780285596847,-0.9935781955718994,0.1131036430597305,0.0140843549744937,0.0140725897303636,0.2546201942316947,0.6257340908050537,-0.2451912760734558,-0.2142324447631836,138,116,13626,17651
10.8,1788441365579,4.309859275817871,6.0,0.000208904792089,0.0030040014535188,-0.9906631708145142,0.1362993270158767,0.168727209059576,0.0016069098440996,-1.6080618238599345e-05,-0.0062030358240008,0.0089782821014523,0.2543386220932007,0.0013210596516728,0.003324163146317,-0.9900088906288148,0.1409595906734466,-0.0059672272798815,0.024805005681077,0.2218877623933401,0.3218860626220703,0.1677459478378296,0.5611371994018555,91,30,11911,14763
10.9,1788441365679,4.450704097747803,6.0,0.0044557745568454,0.0038926885463297,-0.9886944890022278,0.1498268991708755,0.165484854868777,0.0021949402532314,-0.0002535629645034,-0.0044105155393481,0.1226948127150535,0.2635083794593811,0.0013210596516728,0.003324163146317,-0.9900088906288148,0.1409595906734466,-0.0059672272798815,0.024805005681077,0.2218877623933401,0.3218860626220703,0.1677459478378296,0.5611371994018555,122,137,11493,15317
11.0,1788441365779,4.394366264343262,5.915493011474609,0.0044557745568454,0.0038926885463297,-0.9886944890022278,0.1498268991708755,0.165484854868777,0.0021949402532314,-0.0002535629645034,-0.0044105155393481,0.1226948127150535,0.2635083794593811,0.0034545985981822,0.0039081843569874,-0.9872199892997742,0.1592780798673629,-0.0123568509679034,0.0191996366449185,0.1586052511695967,-0.4439240097999573,-0.270226240158081,1.9488039016723635,106,30,13575,14946
11.1,1788441365879,3.91549301147461,5.211267471313477,0.0028360900469124,0.004079854581505,-0.9856899976730348,0.1684949845075607,0.1609808180370759,0.0042996972597108,7.528867662113347e-05,-0.0048789242282509,-0.0238694120198488,0.153089240193367,0.0028210822492837,0.004068193025887,-0.9863560199737548,0.1645522564649582,-0.0003064383053071,-0.020147017482279,0.1663609175493125,-0.1022267341613769,-0.1994320750236511,1.137629508972168,106,30,13575,14946
11.2,1788441365979,5.154929637908936,5.070422649383545,0.0005676678265444,0.0042725866660475,-0.9836408495903016,0.1800893098115921,0.1622648054198144,-0.0006060700952731,0.0001235257798492,-0.0077770431526005,-0.0500662997364997,0.2775119841098785,0.0016240747645497,0.0047178193926811,-0.9838262796401978,0.1790562272071838,-0.0018656508475597,0.060160161351376,0.0675468873452633,-0.0772865414619445,-0.1213871240615844,1.2744455337524414,253,20,16105,13271
11.3,1788441366079,5.183098793029785,5.211267471313477,0.0011416326742619,0.0046489359810948,-0.9829872846603394,0.1836111098527908,0.1677403664464581,0.0010073404964491,-1.3855908004007571e-05,-0.0029988656751811,-0.0054115075618028,0.0390116572380065,0.0007540537044405,0.0046264613047242,-0.9837394952774048,0.1795399934053421,-0.0045040495836119,-0.058326582610325,0.0325232903061175,-0.671192467212677,0.1305212974548339,0.1233348846435546,230,70,17093,10802
11.4,1788441366179,4.901408672332764,5.183098793029785,-0.0003465142799541,0.0040328535251319,-0.9828237295150756,0.1845023781061172,0.1630136347353433,-0.0050631929415251,3.822691441252306e-06,0.0031695023644715,-0.0216792840510606,-0.0085925683379173,-0.0007042791694402,0.0039073526859283,-0.9836708307266236,0.1799331754446029,-0.0044654576352136,-0.0356696733958617,-0.0338545830704721,-0.3687885999679565,0.172567069530487,-0.4527044296264648,223,107,17783,11801
11.5,1788441366279,5.295774459838867,4.873239517211914,-0.0026634102687239,0.00250477460213,-0.9827941656112672,0.1846681833267212,0.1616557026459529,0.005828611214541,0.0001604708831524,0.0349097736179828,-0.0545353554189205,0.0395416431128978,-0.0029186177998781,0.0021934593096375,-0.983531892299652,0.1806976050138473,0.0470491652502297,-0.0428814362769142,0.0764302834696512,0.1302601099014282,-0.1367232799530029,0.983713150024414,258,20,18975,12663
11.6,1788441366379,5.126760482788086,4.957746505737305,-0.0036665461957454,0.0027190966065973,-0.9831923842430116,0.1825153529644012,0.1588955989331426,-0.0066301393721347,4.016886462630951e-05,-0.0020024392288178,-0.0168362092226743,-0.059837233275175,-0.0034236097708344,0.0029200054705142,-0.984201431274414,0.1769953221082687,-0.0036973609308799,0.0133088294631196,-0.0230757996926008,-0.2637706995010376,0.1685565114021301,-0.0536508560180664,232,25,17391,13496
11.7,1788441366479,4.366197109222412,5.070422649383545,-0.0032536250073462,0.0032736521679908,-0.9832659363746644,0.1821172684431076,0.1664380552099843,0.0027115841251735,-3.644392951724416e-05,-0.0169916320592165,0.0164118167012929,0.0233507864177227,-0.0042012948542833,0.0032750917598605,-0.9833563566207886,0.1816092729568481,0.0419133896773111,-0.0151363079650888,0.171368744956103,0.8918738961219788,-0.4562177062034607,0.1035604476928711,232,25,17391,13496
11.8,1788441366579,4.788732528686523,4.873239517211914,-0.0048410259187221,0.0029640113934874,-0.9820985794067384,0.1882820427417755,0.1638497221167887,0.0031352595561482,7.749472018987559e-05,0.0209708027541637,-0.0374689437448978,0.1694169044494629,-0.0042012948542833,0.0032750917598605,-0.9833563566207886,0.1816092729568481,0.0419133896773111,-0.0151363079650888,0.171368744956103,0.8918738961219788,-0.4562177062034607,0.1035604476928711,281,29,18007,15103
11.9,1788441366679,4.788732528686523,4.760563373565674,-0.005780542269349,0.002402248326689,-0.9810519814491272,0.1936437338590622,0.1587820759931313,0.0036281088524379,4.585058033886683e-05,0.0116180619224905,-0.0013338450808078,0.09980358928442,-0.0026996852830052,0.0031347600743174,-0.9812237024307252,0.1928288638591766,-0.0047290093745983,0.1171396155276174,0.1072290505454695,0.0391671061515808,0.1825659871101379,0.1604423522949218,302,90,18421,14838
12.0,1788441366779,5.098591327667236,4.676056385040283,-0.0021951480302959,0.0032017685007303,-0.9800325036048888,0.198799580335617,0.1652695821555,0.006267823159218,-0.0002037952805604,-0.0012441455619409,0.0571622066199779,0.1005916893482208,-0.0006434256210923,0.0033958656713366,-0.9804543256759644,0.1967168152332306,0.0028022947083139,0.0455935968986614,0.0597320156323104,0.0081062316894531,-0.3069791793823242,0.1726846694946289,287,33,18448,14039
12.1,1788441366879,4.957746505737305,4.8450703620910645,-0.0006803355645388,0.0032910068985074,-0.9793461561203004,0.2021627873182296,0.1654397818814864,0.005402254525544,-5.862560065624176e-05,0.0056411339901387,0.0080872755497694,0.0531906373798847,-0.0009534657001495,0.0030641434714198,-0.9796742796897888,0.2005694955587387,0.0075484330865332,-0.0169680185218118,0.0695209602125943,-0.0988826751708984,0.1943525075912475,-0.2762899398803711,274,30,17378,14291
12.2,1788441366979,4.8450703620910645,4.929577350616455,-0.0007845458458177,0.0030293560121208,-0.978463649749756,0.2063958495855331,0.1586198315029677,0.0033191609966562,2.3712088200955863e-05,0.0058840080164372,-0.0022511754650622,0.0879018530249595,-0.0009534657001495,0.0030641434714198,-0.9796742796897888,0.2005694955587387,0.0075484330865332,-0.0169680185218118,0.0695209602125943,-0.0988826751708984,0.1943525075912475,-0.2762899398803711,332,19,18313,13453
12.3,1788441367079,4.985915660858154,5.492957592010498,-0.0013346076011657,0.0031363747548311,-0.9778287410736084,0.2093783468008041,0.1581312795433727,0.0039093936047299,1.5049230632352655e-05,-0.0031634818296879,-0.0141063695773482,0.0445017591118812,-0.0015687765553593,0.0031412271782755,-0.9786548614501952,0.2054809927940368,-0.0045945493199342,-0.0234682585791167,0.0406051368095513,-0.1498396396636963,-0.0988246202468872,-0.0727243423461914,294,127,17738,12272
12.4,1788441367179,4.929577350616455,5.746479034423828,-0.0005946751334704,0.0034668340813368,-0.9768144488334656,0.2140586525201797,0.1623650503183617,0.0059585479885019,-5.62628035796971e-05,0.0007871685083955,0.0158358048647642,0.1176547184586525,-0.0005415305495262,0.0035040713846683,-0.9775953888893129,0.2104632258415222,-0.0020357341319673,0.0020207635220543,0.0994035812193667,0.1628848910331726,0.2621296048164367,-0.2559213638305664,258,57,17727,11395
12.5,1788441367279,4.901408672332764,4.591549396514893,-0.0002015572390519,0.0035124404821544,-0.9760185480117798,0.2176588177680969,0.1616956097381178,-0.0002998670760944,-4.271666732341805e-05,0.0006311504985205,0.011928585357964,0.0580256171524524,-0.0002828733995556,0.0034490460529923,-0.976729452610016,0.214447483420372,0.0026998227687457,-0.0118993962671191,0.0342899346718577,-0.4233778715133667,-0.2062914967536926,0.0144605636596679,293,23,18392,13366
12.6,1788441367379,5.098591327667236,4.760563373565674,-0.0003556680458132,0.0033803386613726,-0.9757314324378968,0.2189441174268722,0.15684791884014,3.133035699794494e-05,2.9492846784402903e-05,0.0030951062217354,-0.0058020893484354,0.0149598736315965,-0.0003627790138125,0.0033324863761663,-0.9763832688331604,0.2160195708274841,-0.0003919829683371,0.0151377561451367,0.0450731021636309,0.5392370820045471,-0.1685971617698669,-0.0074977874755859,344,24,18957,11837
12.7,1788441367479,4.760563373565674,5.295774459838867,-0.0003178862389177,0.0034873990807682,-0.9752670526504515,0.2210021466016769,0.1638861960052501,-0.0005449705668277,-1.2527825242713668e-05,-0.0057491124607622,0.008059199899435,0.0424087457358837,-0.0001705372706055,0.0037057967856526,-0.976002275943756,0.2177285850048065,-0.005886641722794,0.0001764039614448,0.0400347906448068,-0.4405161738395691,-0.1298345923423767,0.1656045913696289,332,24,17729,14715
12.8,1788441367579,4.873239517211914,5.802816867828369,0.0006447256309911,0.0036896434612572,-0.9745929837226868,0.2239518165588379,0.1688818952129312,0.0018751514115901,-8.225038624933083e-05,0.0070799854584038,0.0338636077940464,0.0867581963539123,0.0009310711175203,0.0037055313587188,-0.9754167795181274,0.2203350067138672,0.0053133157870368,0.0310466082464682,0.0820602017757319,-0.4644194841384887,-0.0362191200256347,0.2109870910644531,319,53,18375,10965
12.9,1788441367679,4.732394218444824,4.760563373565674,0.0001281284494325,0.0032940837554633,-0.9736061096191406,0.2282109856605529,0.1637906449802434,0.0025203676888281,0.000127821420385,0.0041654552333056,-0.0333989970386028,0.0884073823690414,0.0002133408561348,0.0034028748050332,-0.974307119846344,0.2251981049776077,-0.0088607323754524,0.0140779389351171,0.0833528209078098,0.1864612698554992,0.3022884726524353,0.2546567916870117,315,29,18617,14327
13.0,1788441367779,4.929577350616455,5.239436626434326,0.0001281284494325,0.0032940837554633,-0.9736061096191406,0.2282109856605529,0.1637906449802434,0.0025203676888281,0.000127821420385,0.0041654552333056,-0.0333989970386028,0.0884073823690414,0.0005271369591355,0.0031419536098837,-0.9731207489967346,0.2302737832069397,0.0140290671998535,0.0027779096507819,0.0802422369544427,-0.3008062243461609,0.3814470171928406,0.461343765258789,307,102,18175,12826
13.1,1788441367879,5.267605781555176,5.239436626434326,0.0005367121775634,0.0033208895474672,-0.9719932675361632,0.2349847555160522,0.1554267813471488,-0.0020207576345081,5.511077123358036e-06,-0.0052169542759656,0.0021388356108218,0.0335609763860702,0.0004345569759607,0.0031089074909687,-0.9729537963867188,0.2309787422418594,0.0133966414986102,-0.0042391445259743,0.0115004224134849,0.165779709815979,0.1396321654319763,-0.4245882034301758,317,95,19940,12437
13.2,1788441367979,5.014084339141846,5.323943614959717,0.0003142865025438,0.0030252449214458,-0.9719327688217164,0.2352388203144073,0.1618183280718175,-0.0026270043466231,-8.627704160231367e-07,0.0,0.0,0.0,0.0008620033040642,0.0028942553326487,-0.9730111956596376,0.2307384014129638,0.0026353439136914,0.0126868160346241,0.0170489100739724,-0.033865213394165,-0.2445954084396362,0.1800365447998047,329,32,20192,10587
13.3,1788441368079,5.070422649383545,4.788732528686523,0.0004279933054931,0.0029512564651668,-0.9720036387443542,0.2349469065666198,0.1606621843747142,0.0001467176007411,-1.924570610906552e-05,0.0042985486797988,0.004081591963768,-0.0130312088876962,0.0010106358677148,0.0026942668482661,-0.9728103280067444,0.2315855920314788,0.0113117646634323,0.0047699462339021,0.0432923557752821,-0.1407062411308288,0.0277686119079589,0.1540346145629882,340,43,17596,14668
13.4,1788441368179,5.239436626434326,4.788732528686523,0.0015561832115054,0.0027414720971137,-0.9711939692497252,0.2382695227861404,0.1673428231665306,-0.0025361172664413,-9.132492605799446e-05,0.0120277684181928,0.0318029969930648,0.1223679408431053,0.0022248169407248,0.0034614959731698,-0.9717485308647156,0.235982671380043,-0.0252780389677829,0.0252949063243725,0.03754503419878,0.2398900389671325,-0.1738835573196411,0.2454299926757812,279,25,18069,12738
13.5,1788441368279,5.352112770080566,4.563380241394043,0.0002626602072268,0.0022916952148079,-0.9701358079910278,0.2425512075424194,0.1621751358662547,-0.0021190154221588,0.0001367781143091,0.0160553585737943,-0.0752918571233749,0.063216783106327,-0.000926855020225,0.0018790178000926,-0.9712241888046264,0.2381579130887985,0.0100738038932022,-0.1033770057316473,0.0126263151184888,0.2790246605873108,-0.107306957244873,-0.0812444686889648,402,67,21714,10042
13.6,1788441368379,5.633802890777588,4.563380241394043,-0.0052566267549991,0.0006081676110625,-0.9712309837341307,0.2380810528993606,0.1600734952317131,-0.0060624884076669,0.0003289168948186,0.0028636963106691,-0.1085058003664016,-0.1229868754744529,-0.0061631519347429,0.0001860046759247,-0.9729162454605104,0.2310760468244552,0.0105385682743184,-0.0203210928626023,-0.085229249260509,0.9580273628234864,-0.9352704286575316,-0.0109758377075195,387,37,20786,10028
13.7,1788441368479,5.408450603485107,4.929577350616455,-0.0060928650200366,0.0001962326932698,-0.971765637397766,0.2358695119619369,0.1627263240661495,-0.005341624470135,0.000138267115078,0.0082706660032272,-0.0395064875483512,-0.0993176773190498,-0.0038671931251883,0.0014674989506602,-0.973912239074707,0.2268871963024139,-0.0099789990174182,0.0621976155076576,-0.081967844661382,0.3821051120758056,-0.1583203673362732,0.0321455001831054,372,56,20913,12020
13.8,1788441368579,5.633802890777588,4.788732528686523,-0.0030402187258005,0.0022278828546404,-0.973356306552887,0.2292668521404266,0.1705229894271442,-0.0045431414898401,-0.0001312833206863,-0.0260573271661996,0.0514535568654537,-0.0997677072882652,-0.0028273146599531,0.0024017440155148,-0.9744751453399658,0.2244646102190017,-0.0279532248976406,0.0501034777105897,-0.101238910732349,-0.1168226599693298,-0.2641419172286987,0.1279230117797851,330,37,21177,8913
13.9,1788441368679,4.647887229919434,4.056337833404541,-9.789573960006236e-05,0.003232141258195,-0.974429488182068,0.2246703803539276,0.1620906009024374,-0.0057405142149823,-0.0001732265424887,-0.0094248810783028,0.0636970102787017,-0.1043142601847648,0.0006073312833905,0.0036376509815454,-0.9758192300796508,0.218548372387886,-0.0142283426418008,0.0392176553869603,-0.0956565217981222,0.0368385314941406,0.0852306485176086,-0.1867389678955078,158,28,14364,10702
14.0,1788441368779,3.2676055431365967,4.14084529876709,-9.789573960006236e-05,0.003232141258195,-0.974429488182068,0.2246703803539276,0.1620906009024374,-0.0057405142149823,-0.0001732265424887,-0.0094248810783028,0.0636970102787017,-0.1043142601847648,0.0034652408212423,0.0041793314740061,-0.9758692383766174,0.2182881087064743,0.0041385894677097,0.0761145116411663,0.0397443115691023,-0.7054907083511353,0.0851896405220031,-1.5506963729858398,84,68,9945,9614
14.1,1788441368879,1.0985915660858154,3.88732385635376,0.0027478237170726,0.0038585204165428,-0.9731476306915284,0.230133056640625,0.085362439071555,0.0012734311582517,2.435240548492993e-05,0.0019126790575683,-0.0206529609858989,0.2652821838855743,0.0026324726641178,0.0038358634337782,-0.9741523861885072,0.2258439660072326,-0.0002179736834641,-0.0273369878756989,0.2690914968740037,-0.7799391746520996,0.7171855568885803,-0.1169071197509765,14,72,2832,9550
14.2,1788441368979,0.0,3.492957830429077,0.0026088510639965,0.0036622886545956,-0.9706097841262816,0.2406167984008789,0.0638551568267694,0.0011438583951494,1.10497786048601e-05,0.0050047314725816,-0.0088918460533022,0.448432594537735,0.0032599736005067,0.0035000517964363,-0.9665111899375916,0.2565799653530121,0.0037775248239173,0.0137028965989059,0.5086960584630847,-1.4580446481704712,0.1866390109062194,0.2842893600463867,251,39,-12165,10169
14.3,1788441369079,-3.746478796005249,3.549295663833618,0.003513989970088,0.0033622880000621,-0.9556690454483032,0.2944026887416839,-0.0042056628058934,-0.0025774544453016,3.842359248347185e-06,-0.0072961440309882,0.0073749129660427,0.9614444971084596,0.0035940743982791,0.0033564018085598,-0.951829433441162,0.3065886199474334,-0.0051211931730704,-0.0007927435076816,0.9856183837956668,0.5025182962417603,-0.6868866086006165,0.0104026794433593,82,154,-11348,10849
14.4,1788441369179,-3.323943614959717,3.211267709732056,0.0035159026738256,0.0032783159986138,-0.9481505155563354,0.3177854120731354,0.0042270778605418,-0.0118975112457178,-1.8644853754650695e-07,-0.0011093990178778,-0.0031279174145311,1.0230165719985962,0.0036677774041891,0.002935248427093,-0.9355788230895996,0.3530868291854858,0.0090471605455417,0.0038945938695849,0.969115013505626,0.0900455713272094,-0.3196423053741455,-0.2024030685424804,138,119,-10863,9348
14.5,1788441369279,-3.1549296379089355,3.3521127700805664,0.0037859738804399,0.0029801838099956,-0.9231511354446412,0.3844070136547088,0.0033244887243635,-0.0077620227839686,3.3728873668826944e-06,-0.0049513899721205,0.002049199771136,0.9868263602256776,0.0038069961592555,0.0028213690966367,-0.9150949120521544,0.4032106697559356,0.0013834223936199,-0.0092074432407585,0.9741693078680062,-0.3538307547569275,0.1027446985244751,-0.4652929306030273,122,101,-11534,8914
14.6,1788441369379,-3.4084506034851074,3.577464818954468,0.0035181120038032,0.0027645216323435,-0.9006051421165466,0.4346151053905487,0.0026503896365546,-0.0054226639755554,1.0521209700796528e-06,-0.0031628131400793,-0.0009708160068839,0.9774370193481444,0.0034553995355963,0.0023372862488031,-0.8899886012077332,0.4559638500213623,0.0083233800725202,-0.0177023062863099,0.9934193701482106,-0.1245988607406616,0.6643524169921875,-0.2832050323486328,146,76,-10867,10428
14.7,1788441369479,-3.323943614959717,3.380281686782837,0.0037328829057514,0.0024951072409749,-0.8795410990715027,0.4758017063140869,0.0065382356774551,-0.0040354925141743,6.782008472630472e-07,-0.0016066500684246,0.0079985437914729,0.9824802279472352,0.0039536664262413,0.0024927295744419,-0.8763877749443054,0.4815833866596222,0.0048967819775289,0.0128228295716606,0.9675883082530028,-0.0557973384857177,-0.4666761755943298,0.290837287902832,172,47,-11437,9253
14.8,1788441369579,-2.760563373565674,3.014084577560425,0.0036481316201388,0.0024993903934955,-0.8568759560585022,0.5155036449432373,0.0100249521081879,-0.0017218610993843,3.409781586411125e-06,-0.0107670966535806,-0.0068288780748844,0.9250916838645936,0.0038237776607275,0.0028016483411192,-0.8440207242965698,0.5362897515296936,-0.0097131734861918,0.0102930629251397,0.8625779825396388,-0.3369429111480713,0.2313570380210876,0.6201400756835938,315,201,-14735,11152
14.9,1788441369679,-3.380281686782837,3.6056337356567374,0.0038992967456579,0.0028037934098392,-0.8343865275382996,0.5511589646339417,0.0049340212243841,-0.0091268329425222,6.066309339919991e-07,-0.0027623334899544,0.0054626711644232,0.8735236525535583,0.0041138669475913,0.0026038074865937,-0.8233470916748047,0.5675172805786133,0.005659075696416,0.0034503708284831,0.9381311903224808,-0.1459429264068603,0.0948239564895629,0.1475343704223632,315,201,-14735,11152
15.0,1788441369779,-3.2676055431365967,3.549295663833618,0.003700669389218,0.0024425941519439,-0.8040691614151001,0.5945192575454712,0.0089827639398687,-0.0100068995367916,5.410205165558155e-06,-0.0047005349770188,-0.0116741741076111,0.9170042276382446,0.0038059093058109,0.0026859007775783,-0.812583863735199,0.582825779914856,-0.017293039897661,-0.0100689414190187,0.9599532696374308,0.3286510109901428,-0.3805713653564453,0.1138820648193359,329,136,-14298,9707
15.1,1788441369879,-3.0985915660858154,3.633802890777588,0.0035032422747462,0.0018144682981073,-0.7772225141525269,0.6292135119438171,0.0087791736339889,-0.0088277336717006,-3.1634183396561517e-06,0.0046941628679633,-0.0085594626143574,0.9305865168571472,0.0034762294963002,0.0020207744091749,-0.7851925492286682,0.6192386746406555,-0.0053190049126442,-0.0069537037003389,0.940938789419298,0.2739753127098083,-0.0805280804634094,0.1867961883544922,306,124,-15334,9446
15.2,1788441369979,-3.211267709732056,2.9577465057373047,0.0026898018550127,0.000501979375258,-0.7471083998680115,0.6646966338157654,0.0048068402957303,-0.0050187421027465,4.721607798558282e-06,0.0076230242848396,-0.0398872271180152,0.9594537615776062,0.002588571049273,6.646104156970978e-05,-0.7449461221694946,0.6671196818351746,0.0295225873124563,-0.0397223440250702,0.893574353984047,0.1751747131347656,-0.1513264179229736,0.3174543380737304,294,94,-14490,10854
15.3,1788441370079,-3.3521127700805664,2.8450703620910645,0.0021417869720607,-0.0007055187015794,-0.7161940336227417,0.6978975534439087,0.0047215146102546,-0.0112452606243259,2.096280033633519e-06,-0.015648104250431,0.0022587669081985,0.9248244762420654,0.0019847685471177,-0.0006624199450016,-0.7125739455223083,0.7015938758850098,-0.0152451678248734,-0.0068586968534531,0.9259575496258624,-0.1705212593078613,-0.0237716436386108,0.7431859970092773,287,174,-13893,11947
15.4,1788441370179,-3.211267709732056,2.929577350616455,0.0021356742363423,-0.0003472384414635,-0.6781583428382874,0.7349126935005188,0.0102734686285625,-0.011568147097634,-1.1293589826981628e-07,0.0041402424685657,-0.0001821419573388,0.9424736499786376,0.0020396700128912,-0.0003612227737903,-0.6857086420059204,0.7278732657432556,-4.710396355794035e-05,0.0011168139360259,0.931615038487471,-0.0108527541160583,-0.2822272777557373,-0.4610414505004883,265,174,-14796,11699
15.5,1788441370279,-3.436619758605957,3.323943614959717,0.0019474851433187,-0.000549113319721,-0.6438243985176086,0.7651705145835876,0.0079130047306035,-0.0119797667185704,2.027689926456677e-07,-0.0001399199391016,-0.0043089669197797,0.9536644220352172,0.0020115934312343,-0.0005000149831175,-0.6424383521080017,0.766334593296051,0.0048591663857791,0.0149837752097871,0.97149222020569,0.0125243663787841,0.1380642652511596,0.2519302368164062,281,188,-13737,11052
15.6,1788441370379,-3.211267709732056,3.802816867828369,0.0017628205241635,-0.0004018548061139,-0.6067227721214294,0.7949113845825195,0.0095078985649526,-0.0108284738980847,1.8922865022519648e-06,-0.0022094044834375,-0.0075001418590545,0.9756665229797364,0.0012300470843911,-0.0006888378411531,-0.5811493992805481,0.8137957453727722,-0.0111872963836685,-0.0157607855750893,0.9354315058983208,0.0644790530204773,-0.4734289050102234,0.0214033126831054,295,96,-14227,8523
15.7,1788441370479,-3.211267709732056,3.802816867828369,0.0010673019569367,-0.0008754355949349,-0.5696437358856201,0.8218905329704285,0.009578952060929,-0.0054955277433988,4.883357897478661e-06,-0.007592225447297,-0.0201314184814691,0.9632762670516968,-1.2617558240890505e-05,0.0003831190988421,-0.5467495322227478,0.8372962474822998,-0.0770126926926242,0.0394611390340361,0.710221188370098,-0.0390561819076538,-0.4276150465011596,0.5583200454711914,295,96,-14227,8523
15.8,1788441370579,-2.7323944568634038,2.7323944568634038,0.0006386919412761,-0.0007247449830174,-0.5531008243560791,0.8331137299537659,0.0076099263355148,-0.0093643291221569,4.112709146851856e-06,-0.0182327050715684,-0.0038851641584187,0.8366951942443848,-0.0016910824924707,0.004911383613944,-0.5342503190040588,0.845310389995575,-0.2101087578489763,0.160083362620637,0.8111599446003874,-0.210809051990509,-0.1655393838882446,0.0689563751220703,331,83,-12985,8128
15.9,1788441370679,0.0,0.0,-0.0047719636932015,0.0093591967597603,-0.5067216753959656,0.8620456457138062,0.0093933761944643,-0.0142933699380432,1.8465792800334232e-05,-0.0523828826844692,0.0141867054626345,0.5368824601173401,-0.0045236619189381,0.009275697171688,-0.5083916783332825,0.8610641360282898,-0.0015428249239083,0.0083770956418674,0.3477326715880067,0.559784471988678,-0.6791577339172363,-0.5200643539428711,331,83,-12985,8128
16.0,1788441370779,-2.985915422439575,-3.3521127700805664,-0.0019128930289298,-0.0006262944079935,-0.5086453557014465,0.8609737753868103,-0.0187680243121123,0.0038864774772639,-6.967037840918779e-05,0.2197473794221878,-0.216035708785057,-0.1407197117805481,-0.0017792247235774,0.001591557636857,-0.5166478753089905,0.8561947345733643,-0.1027770939211265,0.1166265711219289,-0.1432895832611721,-1.2285313606262207,0.3414696455001831,0.1053581237792968,516,58,-19717,-10660
16.1,1788441370879,-4.11267614364624,-3.9718310832977295,-0.0023738488089293,0.0036149129737168,-0.5144173502922058,0.8575289845466614,-0.1005310240441193,0.0098639405598945,0.000165084003401,-0.0973077937960624,0.1001843735575676,-0.1339844316244125,-0.0033977134153246,0.007873935624957,-0.521440327167511,0.8532446026802063,-0.1263574436098872,0.1280542721062764,-0.1516382187365682,-0.7432512044906616,-0.2548590302467346,0.0416135787963867,470,110,-20416,-12669
16.2,1788441370979,-4.3380279541015625,-4.676056385040283,-0.003999849781394,0.0103367790579795,-0.5222456455230713,0.8527231216430664,-0.1499333338000252,0.0004571281131952,0.0003168002876518,-0.0576335527002811,0.062249768525362,-0.1712191700935363,-0.0038341078907251,0.0101213818415999,-0.5277023315429688,0.849360466003418,0.0146132378441435,0.0059063879869171,-0.1680181185200321,0.6289632320404053,-0.0673457980155944,-0.511932373046875,425,34,-19339,-9762
16.3,1788441371079,-1.8028168678283687,-2.05633807182312,-0.0026930838357657,0.0061795432120561,-0.5242823362350464,0.8515178561210632,-0.1208866173653881,0.0035939696162485,-0.0001424076609027,0.1038774102926254,-0.0990424379706382,-0.018486138433218,-0.0008461093530058,0.0008775331079959,-0.5273768901824951,0.8496305346488953,0.165521730908711,-0.1063347090806677,0.042615072822003,1.27755868434906,-0.0610055923461914,0.2776479721069336,280,18,-15452,-6275
16.4,1788441371179,0.0,-1.0985915660858154,8.229829836636782e-05,-0.0017954639624804,-0.5234254598617554,0.8520694971084595,-0.0320709250760259,-0.004645071497096,-4.716690452171101e-05,0.1309620440006256,-0.1025070920586586,0.015866694971919,-0.0008461093530058,0.0008775331079959,-0.5273768901824951,0.8496305346488953,0.165521730908711,-0.1063347090806677,0.042615072822003,1.27755868434906,-0.0610055923461914,0.2776479721069336,97,132,0,0
16.5,1788441371279,-1.94366192817688,-2.7042253017425537,0.0002918742247857,-0.0015849720221012,-0.5249143838882446,0.8511534333229065,-0.0314549550114062,0.001131437154441,-1.3117125245625129e-06,-0.0076422630809247,0.0020649635698646,-0.0197477992624044,5.350355058908463e-05,-0.0011131465435028,-0.5303443074226379,0.8477816581726074,-0.0220430242698502,0.0163292703679052,-0.105233552433135,-0.9212955832481384,0.027363896369934,0.2627468109130859,511,50,-16606,-8689
16.6,1788441371379,-4.197183132171631,-4.422535419464111,-0.0017424948746338,0.0036008651368319,-0.531790018081665,0.8468668460845947,-0.1150124638612972,0.0009392869684173,0.0002235662129425,-0.1127055436372757,0.0862152054905891,-0.1715713143348693,-0.0028183655813336,0.0065189721062779,-0.5410721898078918,0.8409462571144104,-0.0552970716183877,0.0271514485587444,-0.1810498946011528,0.4661198854446411,-0.0064208507537841,-0.1429767608642578,382,24,-18889,-9596
16.7,1788441371479,-4.197183132171631,-4.422535419464111,-0.0025626013521105,0.006824248470366,-0.538212776184082,0.8427774906158447,-0.1395062725210097,8.178509323448387e-05,6.85272550121604e-05,-0.0167706105858087,0.0296518430113792,-0.1177243739366531,-0.0023667905479669,0.006917648948729,-0.5423459410667419,0.8401234149932861,0.0084693655284483,0.0294850615195824,-0.0757253174801693,-0.1359905004501342,-0.1359850764274597,0.5005912780761719,382,24,-18889,-9596
16.8,1788441371579,0.0,-0.6760563254356384,-0.000946418964304,0.0023012463934719,-0.5388649702072144,0.8423884510993958,-0.1112870138177302,-0.0009973510583247,-0.0001433885449135,0.1053003817796707,-0.0872789099812507,-0.0064402632415294,-3.8957223296165466e-05,0.0001658974215388,-0.5420534610748291,0.8403439521789551,0.0096570251238601,0.0001611850532374,-0.0217585978385117,0.9134861826896667,-0.1431198120117187,-0.1020698547363281,103,28,4847,0
16.9,1788441371679,1.5774648189544678,-0.8732394576072693,1.492117007728666e-05,0.0003334126959089,-0.5386992692947388,0.8424980044364929,-0.0029864660862337,0.0007793594442279,3.2830163759263275e-06,0.0102109750732779,-0.0026859233621507,-0.0394209697842597,8.875317871570587e-05,0.0002323649823665,-0.5437905788421631,0.8392209410667419,0.002911055819986,0.0051249344003547,-0.0844813497364354,-0.0917904376983642,-0.2221038341522216,-0.0102834701538085,103,28,4847,0
17.0,1788441371779,2.676056385040283,-3.436619758605957,0.0002537483524065,0.000355062802555,-0.5490357875823975,0.8357986807823181,0.0043666434051458,-0.0025106810525613,-4.757134699119678e-06,0.0011613477254286,0.0079515194520354,-0.4793294966220855,0.000493342988193,0.0007696449756622,-0.5703924894332886,0.821371853351593,-0.0015606971437433,0.0185012981288949,-0.8393063273714895,0.2622532844543457,-0.0744616389274597,0.2619705200195312,212,109,13376,-9602
17.1,1788441371879,4.535211086273193,-4.535211086273193,0.0007525439141318,0.001009879168123,-0.5941587090492249,0.8043468594551086,-0.0099823475665008,0.0079562236430814,5.707314131614821e-06,0.0055418331176042,0.0090773589909076,-1.1518315076828003,0.0010539880022406,0.0010510152205824,-0.6193550229072571,0.7851096987724304,0.0140939398534734,0.0146295976688068,-1.3573578020560335,-0.0384118556976318,-0.0977060794830322,-0.3509521484375,123,33,12555,-10655
17.2,1788441371979,4.084506988525391,-4.478873252868652,0.0011415746994316,0.0007778170984238,-0.64541095495224,0.7638343572616577,-0.0178822844353501,0.0185301907107716,3.474500790546394e-06,0.0098691703751683,-0.0053504430688917,-1.3527072668075562,0.0011221459135413,0.0007040193304419,-0.6559470891952515,0.7548057436943054,0.0063057918131404,-0.0049098361120416,-1.3293100624870482,0.1829055547714233,-0.0038667917251586,0.3178701400756836,143,94,12997,-9871
17.3,1788441372079,4.056337833404541,-3.774647951126098,0.0011415746994316,0.0007778170984238,-0.64541095495224,0.7638343572616577,-0.0178822844353501,0.0185301907107716,3.474500790546394e-06,0.0098691703751683,-0.0053504430688917,-1.3527072668075562,0.0016175098717212,0.0010886015370488,-0.7091240882873535,0.7050811052322388,-0.0067695649814057,0.01148395596868,-1.1195937954696464,-0.2452639937400818,-0.0543993115425109,-0.4444112777709961,161,121,12704,-11919
17.4,1788441372179,0.0,-0.9577465057373048,0.0016157439677044,0.0011780244531109,-0.7095271944999695,0.7046751976013184,-0.0029776868054847,0.0132944825047518,1.3838885758870175e-06,-0.0058342940174043,0.0113791171461343,-1.1161465644836426,0.0013200491666793,0.0014553638175129,-0.7292177081108093,0.6842790246009827,-0.0165609265745737,0.0010293248454776,-1.153641513620198,-0.9486997723579408,0.2318143248558044,-0.2664127349853515,165,191,0,0
17.5,1788441372279,0.0,0.0,0.001649870770052,0.0014257521834224,-0.7324290871620178,0.6808398962020874,-0.0229700477815503,0.0102421823804345,4.311910242259034e-06,0.0099402861669659,0.0058206273242831,-0.2030864506959915,0.0017704972997307,0.0013991668820381,-0.7328189611434937,0.6804199814796448,0.0082515103854436,-0.0011765796509889,0.0465821110918509,-0.3186405897140503,-0.1073729991912841,0.2611560821533203,165,191,0,0
17.6,1788441372379,0.0,0.0,0.0017316199373453,0.0014447453431785,-0.7300202250480652,0.683421790599823,0.0026157211949697,-0.0052575351553277,2.809120281052661e-06,0.0021322853863239,-8.24896851554513e-05,0.0175953581929206,0.001782695762813,0.0014215502887964,-0.7330684661865234,0.6801510453224182,0.0017097168339248,-0.0008334663027013,-0.0011616367917796,0.0342322587966918,0.2190084457397461,-0.0190801620483398,0,0,0,0
17.7,1788441372479,0.0,0.0,0.0017316199373453,0.0014447453431785,-0.7300202250480652,0.683421790599823,-0.000210149839673,0.0002032184627422,-9.986319746297404e-07,0.0,0.0,0.0,0.0018297592177987,0.0014425199478864,-0.7330446243286133,0.6801766157150269,-0.0011718785109903,0.0009558586458925,0.0003008493898684,-0.0043655037879943,-0.1693924665451049,0.009866714477539,0,0,0,0
17.8,1788441372579,0.0,0.0,0.0017316199373453,0.0014447453431785,-0.7300202250480652,0.683421790599823,0.0,0.0,0.0,0.0,0.0,0.0,0.0018297592177987,0.0014425199478864,-0.7330446243286133,0.6801766157150269,-0.0011718785109903,0.0009558586458925,0.0003008493898684,-0.0043655037879943,-0.1693924665451049,0.009866714477539,0,0,0,0
17.9,1788441372679,0.0,0.0,0.0017316199373453,0.0014447453431785,-0.7300202250480652,0.683421790599823,0.0,0.0,0.0,0.0,0.0,0.0,0.0018031075596809,0.0014805933460593,-0.7329994440078735,0.6802251935005188,-0.0011788734992481,-0.0008765382528814,0.0004351573546354,0.0100882053375244,-0.0770145058631897,0.0407838821411132,0,0,0,0
18.0,1788441372779,0.0,0.0,0.0017316199373453,0.0014447453431785,-0.7300202250480652,0.683421790599823,0.0,0.0,0.0,0.0,0.0,0.0,0.0017642080783843,0.0015086783096194,-0.733005940914154,0.6802182793617249,-0.0005109444879814,-0.0009149977956909,0.0002568512658274,0.0116673707962036,-0.0905602574348449,0.0658712387084961,0,0,0,0
18.1,1788441372879,0.0,0.0,0.0017316199373453,0.0014447453431785,-0.7300202250480652,0.683421790599823,0.0,0.0,0.0,0.0,0.0,0.0,0.0017568264156579,0.0015113418921828,-0.7330020666122437,0.6802224516868591,0.0008196596223005,5.655187464784744e-05,4.793463649271574e-05,0.0026720762252807,-0.0651077628135681,0.0228548049926757,0,0,0,0
18.2,1788441372979,0.0,0.0,0.0017316199373453,0.0014447453431785,-0.7300202250480652,0.683421790599823,0.0,0.0,0.0,0.0,0.0,0.0,0.0017439154908061,0.0014653950929641,-0.7330202460289001,0.6802030801773071,-0.0003656999968428,-0.000324664619929,-0.0020330494609794,-0.0201674103736877,0.0485543012619018,0.1173591613769531,0,0,0,0
18.3,1788441373079,0.0,0.0,0.0017316199373453,0.0014447453431785,-0.7300202250480652,0.683421790599823,0.0,0.0,0.0,0.0,0.0,0.0,0.0017953105270862,0.0014646667987108,-0.7329921722412109,0.6802332401275635,0.0002299525180099,0.0014876530964499,0.0009882942931109,0.0313389301300048,-0.0167680382728576,-0.0268831253051757,0,0,0,0
18.4,1788441373179,0.0,0.0,0.0017316199373453,0.0014447453431785,-0.7300202250480652,0.683421790599823,0.0,0.0,0.0,0.0,0.0,0.0,0.0018403837457299,0.0014616074040532,-0.7329898476600647,0.6802356243133545,0.0009493739419962,0.0005830240027422,0.0012583753596868,0.0054855942726135,-0.0052012205123901,0.0038557052612304,0,0,0,0
18.5,1788441373279,0.0,0.0,0.0017316199373453,0.0014447453431785,-0.7300202250480652,0.683421790599823,0.0,0.0,0.0,0.0,0.0,0.0,0.0018231635913252,0.0014661708846688,-0.7329816818237305,0.6802443265914917,-0.0011801915027872,-7.664572125316725e-05,-0.0003652554988286,0.0191574096679687,-0.020037293434143,0.0464115142822265,54,55,-2705,2705
18.6,1788441373379,-2.450704336166382,2.563380241394043,0.0017316199373453,0.0014447453431785,-0.7300202250480652,0.683421790599823,0.0,0.0,0.0,0.0,0.0,0.0,0.001906749792397,0.001289133913815,-0.7266001105308533,0.6870567798614502,0.0152193808179854,-0.0048217047247276,0.5052939559548955,-0.1399082541465759,0.8925508260726929,-0.1171989440917968,227,241,-12803,12161
18.7,1788441373479,-3.4084506034851074,3.380281686782837,0.0020487818401306,0.0013078858610242,-0.7140780091285706,0.7000619769096375,0.003481731366146,0.0024211603860836,-3.776306718215337e-07,0.0071644694544374,0.0020309216342866,0.7870282530784607,0.0018654642626643,0.0009351158514618,-0.6938241720199585,0.7201415300369263,0.0022203600312674,-0.0100335473851524,1.116984651873857,-0.0962015390396118,-0.2795543670654297,0.3703546524047851,227,241,-12803,12161
18.8,1788441373579,-2.985915422439575,3.014084577560425,0.0017370758578181,0.0008239018497988,-0.6763685345649719,0.7365608215332031,0.0073339594878843,-0.0112744151259809,1.4626250228917488e-06,-0.0018287027487531,-0.0093020685017108,1.0745432376861572,0.0013631666079163,0.0006019473075866,-0.6573766469955444,0.7535606622695923,-0.0052105987939688,-0.0114202562816169,0.8696102781479983,-0.1701460480690002,0.1972129940986633,-0.4253492355346679,200,172,-12588,10883
18.9,1788441373679,0.4225352108478546,0.591549277305603,0.001373310573399,0.0007745784241706,-0.6362131237983704,0.7715117931365967,0.0074387449729656,-0.0131436717007809,5.249901434580193e-07,-0.0048157689161598,0.001515635754913,0.958949863910675,0.0014273589476943,0.000766166485846,-0.6425298452377319,0.766258955001831,-0.0043925603591276,0.0096141821664665,1.0424153722433267,0.1719059348106384,-0.1014407873153686,0.1863832473754882,200,172,-12588,10883
19.0,1788441373779,0.4225352108478546,0.591549277305603,0.0013142443494871,0.000992162618786,-0.6213175654411316,0.7835572361946106,0.0171449597439192,-0.0132940470226188,1.3398453821497533e-06,-0.0087453322485089,0.0001640463888179,0.1049491912126541,0.0012859860435128,0.0009985407814383,-0.6261712312698364,0.7796838879585266,-0.0055185807450273,-0.003061305147844,-0.2252749900569225,-0.3347434997558594,-0.3987774848937988,-0.1549367904663086,145,39,4394,0
19.1,1788441373879,3.2957746982574463,-2.929577350616455,0.0014167464105412,0.0007367798825725,-0.6448892951011658,0.7642743587493896,0.0002685397983138,0.0020040863179425,3.5351331847967293e-06,0.0047584003768861,0.0013010276015847,-0.7837263345718384,0.0013000490143895,0.0005560321733355,-0.6591405272483826,0.7520185112953186,0.0047832454290115,-0.0196460496273843,-1.0760828924758483,0.4660089015960693,-0.3052709102630615,-0.4319133758544922,200,276,12983,-13181
19.2,1788441373979,4.478873252868652,-4.760563373565674,0.0017994863446801,0.0008582207374274,-0.6858140826225281,0.7277740836143494,-0.0037728658139879,0.0083632543080053,5.771959648182728e-06,0.005106121301651,0.0106133436784148,-1.2268160581588743,0.0018399041146039,0.0008015325292944,-0.685754656791687,0.7278299927711487,0.0090671269213006,0.0176777034278606,-1.200922164869946,0.116800308227539,-0.2440824508666992,0.4677667617797851,84,60,0,0
19.3,1788441374079,0.0,0.0,0.0019447316881269,0.0008768278639763,-0.7008660435676575,0.7132896780967712,-0.0052001851334175,0.0121457486419891,1.216792005816908e-06,0.0029430298600345,-0.0018106003990396,-0.0321470759809017,0.0018871165812015,0.0008892901241779,-0.7032924890518188,0.7108976244926453,0.0038612943214831,0.0016070255871877,0.036168163817636,0.0978891253471374,-0.2557804584503174,0.1569652557373047,84,60,0,0
19.4,1788441374179,0.0,0.0,0.0018787714652717,0.0008676630095578,-0.7002094984054565,0.7139344215393066,-0.0004851658642628,0.0013846646136763,-2.3321331528437947e-07,5.3853952408644545e-09,7.180526839789536e-09,0.0,0.001876151189208,0.0008512968197464,-0.7031627297401428,0.7110260128974915,-0.0003372992475345,-0.0010102381673807,0.0075801820615068,-0.0211639404296875,-0.2412618994712829,0.0239591598510742,0,0,0,0
19.5,1788441374279,0.0,0.0,0.0018787714652717,0.0008676630095578,-0.7002094984054565,0.7139344215393066,-1.819783917260213e-05,0.0012295289112208,-1.8748335376558451e-06,0.0,0.0,0.0,0.0019259732216596,0.0008975258097052,-0.7031740546226501,0.7110146284103394,0.0030677991926846,0.0020646914066435,5.386847240608805e-05,0.0034907460212707,0.0531593561172485,0.0449190139770507,0,0,0,0
19.6,1788441374379,0.0,0.0,0.0018787714652717,0.0008676630095578,-0.7002094984054565,0.7139344215393066,-0.0002171142018916,0.0002075665140219,-1.1448503113340013e-06,0.0,0.0,0.0,0.0019259732216596,0.0008975258097052,-0.7031740546226501,0.7110146284103394,0.0030677991926846,0.0020646914066435,5.386847240608805e-05,0.0034907460212707,0.0531593561172485,0.0449190139770507,0,0,0,0
19.7,1788441374479,0.0,0.0,0.0018787714652717,0.0008676630095578,-0.7002094984054565,0.7139344215393066,0.0,0.0,0.0,0.0,0.0,0.0,0.0018420154228806,0.0009027477353811,-0.703188955783844,0.7110001444816589,-0.0028103093804912,0.0001624397799322,-0.0020487683414846,0.0095956921577453,-0.0497559905052185,0.0409164428710937,0,0,0,0
19.8,1788441374579,0.0,0.0,0.0018787714652717,0.0008676630095578,-0.7002094984054565,0.7139344215393066,0.0,0.0,0.0,0.0,0.0,0.0,0.0018921922892332,0.0009116074070334,-0.7031916379928589,0.7109972834587097,-0.000707645620158,0.0006920525229847,-0.0002695602724304,0.0104432702064514,-0.0646018385887146,0.0157203674316406,0,0,0,0
19.9,1788441374679,0.0,0.0,0.0018787714652717,0.0008676630095578,-0.7002094984054565,0.7139344215393066,0.0,0.0,0.0,0.0,0.0,0.0,0.0019034501165151,0.0009075514972209,-0.7031971216201782,0.7109919190406799,0.0009748268626627,1.4277485218061672e-05,-0.0001970136462743,0.0284518003463745,-0.0757476091384887,0.0552129745483398,0,0,0,0
20.0,1788441374779,0.0,0.0,0.0018787714652717,0.0008676630095578,-0.7002094984054565,0.7139344215393066,0.0,0.0,0.0,0.0,0.0,0.0,0.0018914984539151,0.0008688811212778,-0.7031947374343872,0.7109942436218262,0.0009363340955984,-0.0017984635998609,0.0001701851460568,-0.0169263482093811,0.029269516468048,0.0616254806518554,0,0,0,0
20.1,1788441374879,0.0,0.0,0.0018787714652717,0.0008676630095578,-0.7002094984054565,0.7139344215393066,0.0,0.0,0.0,0.0,0.0,0.0,0.0018519181758165,0.0008587418124079,-0.7031663060188293,0.7110225558280945,-0.0001320214343802,-0.001554553813871,0.0011221097295819,-0.0430905818939209,0.0203732848167419,0.0126104354858398,0,0,0,0
20.2,1788441374979,0.0,0.0,0.0018787714652717,0.0008676630095578,-0.7002094984054565,0.7139344215393066,0.0,0.0,0.0,0.0,0.0,0.0,0.0018431926146149,0.0008685495704412,-0.7031905055046082,0.7109984755516052,5.83868202947798e-06,-0.0005944660944555,-0.0010351392507592,0.0051445364952087,-0.0136995315551757,0.0228214263916015,0,0,0,0
20.3,1788441375079,-1.436619758605957,1.0704225301742554,0.0018787714652717,0.0008676630095578,-0.7002094984054565,0.7139344215393066,0.0,0.0,0.0,0.0,0.0,0.0,0.0017656963318586,0.0008227908983826,-0.702131986618042,0.7120442390441895,-0.0038487148566958,-0.0034398244473304,0.0708382646857404,-0.5584113597869873,0.6594412326812744,0.0843009948730468,12,44,-1701,1701
20.4,1788441375179,-1.436619758605957,1.0704225301742554,0.001917709596455,0.000858781801071,-0.6952826976776123,0.7187332510948181,0.0029285666904846,-0.0047234961931191,-2.0646437659228864e-06,0.0008837125496938,0.0011092294007539,0.2932294011116028,0.0017262576147913,0.0006960770115256,-0.6802513003349304,0.7329766154289246,-0.0038612450338793,-0.0038359913729316,0.9361921085075032,-0.1325417160987854,-0.0397729277610778,0.5688285827636719,12,44,-1701,1701
20.5,1788441375279,-3.492957830429077,3.3521127700805664,0.0013615906937047,0.0007616088259965,-0.6372318863868713,0.7706705331802368,0.0084539169726406,-0.0122343704247848,4.434594441405091e-06,-0.0064302766695618,-0.0006109731621108,1.0348740816116333,0.0017262576147913,0.0006960770115256,-0.6802513003349304,0.7329766154289246,-0.0038612450338793,-0.0038359913729316,0.9361921085075032,-0.1325417160987854,-0.0397729277610778,0.5688285827636719,142,149,-10512,9868
20.6,1788441375379,-3.211267709732056,2.873239517211914,0.0013089732965454,0.0009819895494729,-0.6190596222877502,0.785342276096344,0.0077668947538153,-0.012827823495583,-2.195136971293682e-06,-0.0088429199531674,0.0061702635139226,0.9614248871803284,0.0009342683479189,0.0009574070572853,-0.5986173152923584,0.8010340929031372,-0.0110542567377541,0.0123315537057738,1.0665748613676111,0.188712477684021,-0.3197827935218811,-0.5060091018676758,142,149,-10512,9868
20.7,1788441375479,-3.211267709732056,2.873239517211914,0.0013089732965454,0.0009819895494729,-0.6190596222877502,0.785342276096344,0.0077668947538153,-0.012827823495583,-2.195136971293682e-06,-0.0088429199531674,0.0061702635139226,0.9614248871803284,0.0004831366240978,0.0006804866716265,-0.5546917915344238,0.8320555686950684,-0.0031719586243671,4.048801486449075e-05,0.768208384241309,-0.0155189633369445,0.0117766857147216,-0.0326042175292968,142,149,-10512,9868
20.8,1788441375579,-2.7042253017425537,2.7042253017425537,-0.0002598281716927,0.0017805048264563,-0.5346687436103821,0.8450596928596497,0.0112459445687981,-0.0003510836106206,1.2317369151888009e-06,-0.0501451380550861,0.0262382794171571,0.6636239886283875,0.0004831366240978,0.0006804866716265,-0.5546917915344238,0.8320555686950684,-0.0031719586243671,4.048801486449075e-05,0.768208384241309,-0.0155189633369445,0.0117766857147216,-0.0326042175292968,419,313,-17031,11866
20.9,1788441375679,-1.6619718074798584,2.760563373565674,-0.0016350760124623,0.0062357457354664,-0.5223801732063293,0.8526883125305176,0.0055891925512056,-0.0158791784311981,3.276535759515579e-05,-0.1486898064613342,0.1256915479898452,0.6033316850662231,-0.0003722226247191,0.001826754771173,-0.504088282585144,0.8636500835418701,0.1151082537148825,-0.0946829499665461,0.2354931144978801,-0.1840100884437561,-1.2702511548995972,-0.2103891372680664,419,313,-17031,11866
21.0,1788441375779,2.253521203994751,-1.8028168678283687,0.0003391711215954,-0.0007036890601739,-0.5024675726890564,0.8645956516265869,0.0165821578521967,-0.0035657528172419,1.457982154547325e-06,0.140538603067398,-0.1224201247096061,0.0159217417240142,-0.0003722226247191,0.001826754771173,-0.504088282585144,0.8636500835418701,0.1151082537148825,-0.0946829499665461,0.2354931144978801,-0.1840100884437561,-1.2702511548995972,-0.2103891372680664,119,241,8369,-11306
21.1,1788441375879,3.94366192817688,-3.91549301147461,0.0010219262912869,-0.0004639790859073,-0.5207235813140869,0.8537246584892273,-0.0075940762457044,0.000528142192609,1.9262007555403903e-06,-0.0057548866607248,0.0132739963009953,-0.5556293725967407,0.0008894894272089,-0.0004784315824508,-0.5304967761039734,0.8476864695549011,-0.0070715231286788,-0.0040395084852657,-0.6802407381881489,0.5242539644241333,-0.5970054864883423,-1.2932891845703125,221,256,12837,-12700
21.2,1788441375979,4.14084529876709,-3.802816867828369,0.0008439116063527,0.0003406276518944,-0.5651485323905945,0.8249886631965637,-0.0041604999583141,0.0010450394307566,6.023401727510178e-07,-0.0101903500035405,0.0163169726729393,-1.2454029321670532,0.0010958882048726,0.0008227592334151,-0.601757287979126,0.798677921295166,-0.00394586919044,0.0293823644799571,-1.324148522967472,-0.1960988044738769,-0.3030418157577514,-0.3052597045898437,138,120,12306,-10929
21.3,1788441376079,3.859154939651489,-3.690140962600708,0.0013105955440551,0.0006843019509688,-0.6159976720809937,0.7877466082572937,-0.0094170613634606,0.0188751508690513,8.005599002740345e-06,0.0116567872464656,0.0079310163855552,-1.3041867017745972,0.0013966718688607,0.0007135923951864,-0.6319308876991272,0.7750232219696045,0.0118283800471538,0.0031407080168413,-1.2835707628192805,-0.0373868346214294,-0.0651355981826782,-0.3956832885742187,123,91,11969,-12032
21.4,1788441376179,0.0,0.0,0.0014671932440251,0.0005738227628171,-0.6619493961334229,0.749547004699707,-0.0120703826209119,0.0103428706099416,1.8609715040620596e-06,0.0057252016849815,0.0065824575722217,-1.2153093814849854,0.0016464767977595,0.0005797902122139,-0.6744205951690674,0.7383453845977783,0.0113720494614709,-0.0002671746464289,-0.1478163321993839,-0.0735533833503723,0.4972141981124878,-0.034255027770996,52,103,0,0
21.5,1788441376279,0.0,0.0,0.0014671932440251,0.0005738227628171,-0.6619493961334229,0.749547004699707,-0.0120703826209119,0.0103428706099416,1.8609715040620596e-06,0.0057252016849815,0.0065824575722217,-1.2153093814849854,0.0015595750883221,0.0005705030634999,-0.6731773614883423,0.7394791841506958,0.0016625355954432,-0.0012604251400683,0.0161459477325955,0.0723453760147094,-0.1485082507133484,0.0190448760986328,0,0,0,0
21.6,1788441376379,0.0,0.0,0.0015710543375462,0.0006069932132959,-0.6702380180358887,0.7421442866325378,-0.0004304589689395,0.000832760309004,-2.558696017265486e-06,0.0,0.0,0.0,0.0015418697148561,0.000530851073563,-0.673218309879303,0.7394419312477112,-0.0003137947001336,1.604880846820615e-05,-0.0006296160969101,0.0158011317253112,-0.1489511132240295,0.063873291015625,0,0,0,0
21.7,1788441376479,0.0,0.0,0.0015710543375462,0.0006069932132959,-0.6702380180358887,0.7421442866325378,0.0,0.0,0.0,0.0,0.0,0.0,0.0015670619904994,0.000542452558875,-0.6732094287872314,0.7394500970840454,-0.0019211828641032,0.0005452447922032,-0.0008150630617823,0.0037521123886108,-0.1077824234962463,0.0460596084594726,0,0,0,0
21.8,1788441376579,0.0,0.0,0.0015710543375462,0.0006069932132959,-0.6702380180358887,0.7421442866325378,0.0,0.0,0.0,0.0,0.0,0.0,0.0015469286590814,0.0005120504647493,-0.6731839776039124,0.739473283290863,0.0005649051143108,-0.0013412952661317,0.0014533502218181,0.0552409887313842,-0.0500837564468383,-0.0380611419677734,0,0,0,0
21.9,1788441376679,0.0,0.0,0.0015710543375462,0.0006069932132959,-0.6702380180358887,0.7421442866325378,0.0,0.0,0.0,0.0,0.0,0.0,0.0015450501814484,0.0004464583471417,-0.673195481300354,0.7394627928733826,0.0001374058020926,0.0004651324549824,-0.000489738697083,-0.0158931016921997,-0.0817964673042297,0.0479373931884765,0,0,0,0
22.0,1788441376779,0.0,0.0,0.0015433721709996,0.0004860961344093,-0.6699413061141968,0.742412269115448,0.0,0.0,0.0,0.0,0.0,0.0,0.0015246178954839,0.0004199407994747,-0.6731732487678528,0.7394830584526062,0.0001358320660366,-0.0016769426891038,0.0015140565715209,0.0013947486877441,-0.0405983328819274,0.0624933242797851,0,0,0,0
22.1,1788441376879,0.0,0.0,0.0015433721709996,0.0004860961344093,-0.6699413061141968,0.742412269115448,0.0,0.0,0.0,0.0,0.0,0.0,0.0015497589483857,0.0004510302096605,-0.6731765866279602,0.7394800186157227,0.0003592118605263,0.0001553176769515,8.958503590159027e-05,0.0521991848945617,0.0066416263580322,-0.0088882446289062,0,0,0,0
22.2,1788441376979,0.0,0.0,0.0015433721709996,0.0004860961344093,-0.6699413061141968,0.742412269115448,0.0,0.0,0.0,0.0,0.0,0.0,0.0015179961919784,0.0004001408815383,-0.6732006669044495,0.7394581437110901,0.0012015394626992,-0.0023300466722804,-0.0008129647006735,-0.04253751039505,-0.0099705457687377,0.0091009140014648,0,0,0,0
22.3,1788441377079,0.0,0.0,0.0015433721709996,0.0004860961344093,-0.6699413061141968,0.742412269115448,0.0,0.0,0.0,0.0,0.0,0.0,0.0015277545899152,0.0004065986722707,-0.6732041239738464,0.7394551038742065,0.0007570349510772,1.6140465678885875e-05,-0.0005262647306688,-0.0334711074829101,0.0064658522605896,-0.0230312347412109,0,0,0,0
22.4,1788441377179,0.0,0.0,0.0015433721709996,0.0004860961344093,-0.6699413061141968,0.742412269115448,0.0,0.0,0.0,0.0,0.0,0.0,0.0015487652271986,0.0004095481708645,-0.6732064485549927,0.7394528388977051,-0.0001029986689523,-0.0010533441171634,9.572865809943028e-06,0.0051533579826354,-0.0895854234695434,0.0641012191772461,0,0,0,0
22.5,1788441377279,-2.08450698852539,2.7042253017425537,0.0015433721709996,0.0004860961344093,-0.6699413061141968,0.742412269115448,0.0,0.0,0.0,0.0,0.0,0.0,0.0015625050291419,0.0002366797998547,-0.6646205186843872,0.7471795082092285,0.0093034672210903,-0.0035319461373203,0.5660506808513683,-0.0335426926612854,0.4727380275726318,0.2387189865112304,265,188,-12488,10226
22.6,1788441377379,-3.633802890777588,3.2676055431365967,0.0015433721709996,0.0004860961344093,-0.6699413061141968,0.742412269115448,0.0,0.0,0.0,0.0,0.0,0.0,0.0015083905309438,0.0004976792261004,-0.6384645104408264,0.7696496248245239,-0.0074312788304623,0.0155797876834493,1.0177090487709943,0.0696549415588378,0.1708415150642395,0.196329116821289,104,155,-10935,11513
22.7,1788441377479,-3.211267709732056,3.380281686782837,0.0013223378919064,0.0005906976293772,-0.6076775789260864,0.794182538986206,0.0090551760015836,-0.0170160320470327,7.042283152094083e-06,-0.009096035733819,0.0020764430519193,1.0621851682662964,0.001287025399506,0.0004947418347001,-0.5968127250671387,0.802379310131073,-0.0014538647880637,-0.0043092054541001,1.0327823168029848,-0.2612895965576172,0.3276146650314331,0.5898561477661133,104,155,-10935,11513
22.8,1788441377579,-3.521126747131348,3.014084577560425,0.000823266338557,0.0001926144759636,-0.5685735940933228,0.8226320147514343,0.0049841221466264,-0.0097591867164967,2.244654973574048e-06,-0.0074256351217627,-0.00953827239573,1.0059713125228882,0.0007932167500257,0.0001720776781439,-0.5763071775436401,0.8172327876091003,-0.0097019688626267,-0.02081186064712,0.9971188896959544,0.2199397683143615,-0.5714455246925354,0.4162569046020508,118,63,-10042,10326
22.9,1788441377679,-2.563380241394043,2.873239517211914,0.0008653879049234,-0.0004108984139747,-0.5307438969612122,0.8475317358970642,0.0136324264507845,-0.0125792880457203,-4.44016905654414e-07,0.0056280344724655,-0.0078685013577342,0.8927208781242371,0.0007577100768685,-0.0009971000254154,-0.5096721649169922,0.8603678345680237,0.010188617914093,-0.0205160347745013,0.8264789293078276,0.2635447382926941,-0.5154561400413513,0.4884710311889648,252,107,-12219,8371
23.0,1788441377779,-0.1971831023693084,-0.3380281627178192,0.0007563836406916,-0.0014373832382261,-0.4939000308513641,0.8695172071456909,0.0145510117300781,-0.0106801931601329,3.763018952990219e-06,0.0123594943434,-0.0210530348122119,0.7462736964225769,0.0007577100768685,-0.0009971000254154,-0.5096721649169922,0.8603678345680237,0.010188617914093,-0.0205160347745013,0.8264789293078276,0.2635447382926941,-0.5154561400413513,0.4884710311889648,191,23,-10777,6768
23.1,1788441377879,-0.6478873491287231,0.0,0.0011742685455828,-0.001871860702522,-0.4849373996257782,0.8745460510253906,-0.023625922900679,-0.005529047421714,1.1896353472404267e-06,0.0053574927151203,0.0006590117118321,0.0152943758293986,0.0013249022886157,-0.0017560794949531,-0.4890453815460205,0.8722555637359619,-0.0002298032263819,0.0066416545368942,0.0515095764568894,0.5377804636955261,0.5015449523925781,0.239750862121582,147,161,0,0
23.2,1788441377979,1.7464789152145386,-1.0704225301742554,0.0002366882981732,-0.0032789148390293,-0.4830626547336578,0.8755795955657959,-0.0216928594224447,0.0046998806699345,-9.430417315094932e-06,-0.0077214823104441,-0.072146400809288,0.114309050142765,0.000554378144443,-0.001926421187818,-0.4879322052001953,0.8728792071342468,-0.0233287340181657,-0.0469740071534714,-0.2160276520400719,0.1974243521690368,-1.0929620265960691,-0.1208944320678711,373,514,10674,-13058
23.3,1788441378079,2.9577465057373047,-3.014084577560425,0.0009639267227612,-0.00174644542858,-0.4819619357585907,0.8761898279190063,0.0015120140942306,0.0034332111242442,-5.753086794843109e-06,-0.0041637569665908,0.070549190044403,0.0522581040859222,0.0005815913900732,-0.0009173871949315,-0.5158064961433411,0.8567044138908386,0.0020514417108092,0.0036503928278067,-0.8814603514438961,0.7615598440170288,-0.0495792031288147,-0.1107521057128906,398,184,16307,-14113
23.4,1788441378179,4.2816901206970215,-4.788732528686523,0.0004760764713864,-0.0003788791946135,-0.5413938760757446,0.8407688140869141,-0.0098098332498683,0.0062380807008768,2.199525177872371e-06,-0.0120374821126461,0.0130648324266076,-1.1722923517227173,0.0002727918326854,-0.0004805196076631,-0.5408466458320618,0.8411210179328918,-0.0204234863740933,0.0068679813383803,-1.183296868865252,-0.2447390556335449,-0.944107174873352,-0.4281854629516601,398,184,16307,-14113
23.5,1788441378279,4.197183132171631,-4.3380279541015625,0.0010749942157417,-0.0003479430451989,-0.5895801186561584,0.8077090382575989,-0.0114649944094033,0.0047350623629829,-1.3048449138070589e-06,0.0062790559604763,-0.0010001357877627,-1.2231367826461792,0.0014924639835953,-0.0001956336200237,-0.6291220188140869,0.7773051261901855,0.0220404080857639,0.0056069650773086,-1.180533323075361,0.0107179284095764,0.0560419559478759,-0.2046899795532226,294,115,15846,-14007
23.6,1788441378379,4.2816901206970215,-3.774647951126098,0.0013732301304116,-0.0004857743624597,-0.6351446509361267,0.7723918557167053,-0.0057616280693708,0.0048818521144829,2.4192351493403293e-06,0.0192245431244373,-0.0119075933471322,-1.2056005001068115,0.0018138904124498,-1.2757256627082825e-05,-0.6622411012649536,0.7492887377738953,0.0087624743744512,0.0279646615217792,-1.1891666163548509,-0.1836788058280944,-0.2723695635795593,-0.6911764144897461,218,206,14664,-13841
23.7,1788441378479,4.2816901206970215,-3.774647951126098,0.0017829718999564,-9.264890104532242e-05,-0.6579141616821289,0.7530908584594727,-0.0048315486761351,0.0134475076536197,-1.8196205489070024e-06,0.0034325495362281,0.0218411535024642,-1.2458446025848389,0.0017383135855197,-2.3273751139640808e-05,-0.7054281234741211,0.7087792754173279,0.0071396772305978,0.0114031390346913,-1.1039726951110602,-0.6715648174285889,1.164021134376526,0.4741621017456054,218,206,14664,-13841
23.8,1788441378579,0.0,0.0,0.0019649281166493,9.423127630725504e-05,-0.7031604647636414,0.7110284566879272,-0.0161382865834515,0.0148663530856824,6.509984575788284e-06,0.0027915446553379,0.008236133493483,-0.1384912580251693,0.0020807366818189,0.0001308806240558,-0.703956127166748,0.7102404832839966,0.002286239391982,-0.0011110703168059,0.0302506041083466,0.0414497256278991,-0.3786853551864624,0.2121477127075195,0,0,0,0
23.9,1788441378679,0.0,0.0,0.0020687384530901,0.0001444102381356,-0.7011926770210266,0.7129688858985901,0.0038290596794069,-0.0057740719870752,-1.8731444619964503e-06,0.0,0.0,0.0,0.0021359762176871,9.600911289453506e-05,-0.7045204639434814,0.709680438041687,0.0038924525953038,0.0014507793711305,0.0013029744171252,-0.0117526650428771,0.1582841873168945,-0.0803432464599609,0,0,0,0
24.0,1788441378779,0.0,0.0,0.0020687384530901,0.0001444102381356,-0.7011926770210266,0.7129688858985901,0.0004249646530512,-0.0004147159394338,2.459803458757776e-06,0.0,0.0,0.0,0.0021757883951067,0.0001469952985644,-0.7042673230171204,0.709931492805481,0.0009634009059008,0.0011879034783003,-0.0007303042031444,-0.0412184596061706,-0.0738261938095092,0.0587959289550781,0,0,0,0
24.1,1788441378879,0.0,0.0,0.0020687384530901,0.0001444102381356,-0.7011926770210266,0.7129688858985901,0.0,0.0,0.0,0.0,0.0,0.0,0.0021225092932581,0.000119375064969,-0.7042697072029114,0.709929347038269,0.0001981935266709,-0.0010033755299252,0.0010735228254471,0.0044066309928894,-0.1164295673370361,0.0227584838867187,0,0,0,0
24.2,1788441378979,0.0,0.0,0.0020687384530901,0.0001444102381356,-0.7011926770210266,0.7129688858985901,0.0,0.0,0.0,0.0,0.0,0.0,0.0020807795226573,3.9200298488140106e-05,-0.7042796015739441,0.7099196314811707,5.658229568289793e-06,0.0009026024794741,-0.0010638862847241,0.0152949690818786,-0.1061574816703796,0.017425537109375,0,0,0,0
24.3,1788441379079,0.0,0.0,0.0020687384530901,0.0001444102381356,-0.7011926770210266,0.7129688858985901,0.0,0.0,0.0,0.0,0.0,0.0,0.0020973971113562,5.206279456615448e-05,-0.704265296459198,0.7099338173866272,0.0001816581361847,0.0013992352676423,0.0013491268470775,0.0138718485832214,-0.0901538729667663,0.0444297790527343,0,0,0,0
24.4,1788441379179,0.0,0.0,0.0020687384530901,0.0001444102381356,-0.7011926770210266,0.7129688858985901,0.0,0.0,0.0,0.0,0.0,0.0,0.002078833989799,3.666803240776062e-05,-0.7042478919029236,0.7099510431289673,0.000268415183838,-6.768074434279502e-05,0.0004371797542726,0.0241702198982238,-0.0829459428787231,0.0498609542846679,0,0,0,0
24.5,1788441379279,0.0,0.0,0.0020687384530901,0.0001444102381356,-0.7011926770210266,0.7129688858985901,0.0,0.0,0.0,0.0,0.0,0.0,0.0020868415012955,8.59750434756279e-05,-0.7042567729949951,0.7099423408508301,2.914477458099615e-06,0.0020993149283414,0.0009840508453571,-0.016666293144226,-0.0175848007202148,-0.0173635482788085,0,0,0,0
24.6,1788441379379,0.0,0.0,0.0020687384530901,0.0001444102381356,-0.7011926770210266,0.7129688858985901,0.0,0.0,0.0,0.0,0.0,0.0,0.0020868415012955,8.59750434756279e-05,-0.7042567729949951,0.7099423408508301,2.914477458099615e-06,0.0020993149283414,0.0009840508453571,-0.016666293144226,-0.0175848007202148,-0.0173635482788085,0,0,0,0
24.7,1788441379479,0.0,0.0,0.0020687384530901,0.0001444102381356,-0.7011926770210266,0.7129688858985901,0.0,0.0,0.0,0.0,0.0,0.0,0.0020706923678517,0.0001221075654029,-0.704255998134613,0.7099431753158569,0.0001964693164375,0.0007421500994437,0.0008696001406292,-0.0128383040428161,-0.0055159330368041,0.0116281509399414,0,0,0,0
24.8,1788441379579,0.0,0.0,0.0020687384530901,0.0001444102381356,-0.7011926770210266,0.7129688858985901,0.0,0.0,0.0,0.0,0.0,0.0,0.0020240992307662,6.7112036049366e-05,-0.704242467880249,0.709956705570221,0.0009746335520035,-0.0004133369390852,0.000291598985385,0.0058726072311401,-0.0422648191452026,0.0535802841186523,0,0,0,0
24.9,1788441379679,0.0,1.2394366264343262,0.0020687384530901,0.0001444102381356,-0.7011926770210266,0.7129688858985901,0.0,0.0,0.0,0.0,0.0,0.0,0.0019918391481041,6.837677210569382e-05,-0.7041244506835938,0.7100737690925598,-0.0009155664953811,-0.0008220284174437,0.0063294500245606,-0.1346218585968017,0.0804304480552673,0.0287361145019531,219,224,-9986,5505
25.0,1788441379779,-3.6056337356567374,3.436619758605957,0.0019719542469829,0.0001391150290146,-0.6631114482879639,0.7485180497169495,0.006874941258645,-0.0054812435636917,-6.937089263910115e-07,0.0022142499219626,0.0002974506933242,1.0923289060592651,0.0019549671560525,5.80688938498497e-05,-0.6651517748832703,0.7467056512832642,0.0050906066112299,-0.0030534336275814,1.171304347481381,0.1538571715354919,-0.4498697519302368,0.3233671188354492,124,105,-11043,10004
25.1,1788441379879,-3.521126747131348,3.549295663833618,0.0016670899931341,0.0001465747482143,-0.6263179183006287,0.7795659899711609,0.002336027715745,-0.006395800447961,-6.410168470015344e-07,-0.0089286072179675,-0.0096579017117619,0.9820979833602904,0.0016433726996183,0.0001909136772155,-0.6271668672561646,0.7788832187652588,-0.0174597555326684,0.0071356406630239,0.974726716255063,0.2056945562362671,-0.4771918058395386,0.8028478622436523,129,98,-10583,8638
25.2,1788441379979,-3.183098554611206,3.211267709732056,0.0009860435966402,8.980941493064165e-05,-0.58877032995224,0.8082997798919678,0.0071824477838103,-0.0032980875306568,7.439628915681403e-06,-0.0131421918049454,-0.0178220588713884,0.98596853017807,0.0007870765402913,0.0001871343702077,-0.5803269743919373,0.8143831491470337,-0.0169423137918931,0.0030299348331867,1.0196925969800572,-0.0183890461921691,-0.2953131794929504,0.1637916564941406,140,78,-11782,8305
25.3,1788441380079,-2.873239517211914,3.126760482788086,0.0009723694529384,-0.0001053483574651,-0.5429714322090149,0.8397505879402161,0.010759418294414,-0.0098866721206124,-2.550782657188933e-06,0.0052454397082328,0.0009195524035021,0.9825019240379332,0.000996540300548,-5.337595939636231e-05,-0.5440361499786377,0.8390611410140991,-0.0055146197833774,0.0245403817442152,0.9192114903256988,-0.082114040851593,-0.547534167766571,0.5237617492675781,144,35,-10583,7746
25.4,1788441380179,-2.4788732528686523,2.6478872299194336,0.0010297695407643,-0.0006538252346217,-0.5091153979301453,0.8606973886489868,0.0094922975197182,-0.0054050357587071,-2.362724637228025e-06,0.0106193982064723,-0.0160455722361803,0.842340350151062,0.0010051690042018,-0.0007511377334594,-0.5120729207992554,0.8589410781860352,0.0101158685379929,-0.0228260986209853,0.8232783343177474,0.4476616978645324,-0.4499862194061279,-0.6030635833740234,161,112,-9832,7863
25.5,1788441380279,-2.450704336166382,2.816901445388794,0.0011280128965154,-0.000751495885197,-0.4798411428928375,0.8773543834686279,0.0086970804611195,-0.0015017342794357,1.8215067647585492e-06,0.0064800675027072,0.0011347003746777,0.7055335640907288,0.0010908739641308,-0.0011899936944246,-0.4754737913608551,0.8797284960746765,0.0139255028504858,-0.0284786654494005,0.7355926316392176,-0.0837454199790954,-0.528382420539856,0.130594253540039,272,69,-11901,7766
25.6,1788441380379,-2.507042169570923,2.281690120697021,0.0013696776004508,-0.0012888064375147,-0.4489887952804565,0.8935354351997375,0.0023952066995794,-0.0039622243573952,4.186402213374917e-08,0.007585231680423,0.0056992098689079,0.7331514358520508,0.0014306707307696,-0.0014393618330359,-0.4460518360137939,0.89500492811203,0.011379481070398,-0.0064027062220957,0.7810172248807298,-0.100610077381134,-0.2347506880760193,0.2144231796264648,286,194,-12668,9865
25.7,1788441380479,-2.05633807182312,2.197183132171631,0.0015408634208142,-0.0023332401178777,-0.4323256015777588,0.901713252067566,0.0110920193631467,-0.0055559159235867,8.124806084195875e-06,0.0261756423860788,-0.0340775474905967,0.7685778141021729,0.0018479768186807,-0.0034150071442127,-0.4156180918216705,0.9095309972763062,0.0062496196025042,-0.003011061811363,0.6495404036394149,0.067912220954895,0.0506560206413269,-0.1269330978393554,248,97,-11940,7616
25.8,1788441380579,-2.0281689167022705,2.422535181045532,0.0016709349583834,-0.0024770512245595,-0.3882321119308471,0.9215568900108336,0.0061150619526328,-0.0083370311865605,-3.3837880861673063e-06,-0.0054527688771486,0.0143549814820289,0.6020232439041138,0.001642876304686,-0.0025027822703123,-0.3918978869915008,0.9200038313865662,0.0010351827955447,0.0075250658925965,0.6062882750759162,-0.1537317037582397,0.327605664730072,-0.381352424621582,325,123,-13164,8211
25.9,1788441380679,-1.8591549396514893,2.197183132171631,0.0016901121707633,-0.0023035737685859,-0.3736286461353302,0.9275739789009094,0.0066073429187909,-0.0080210203067897,-1.3560398091909745e-06,-0.0009827463654801,0.0086196893826127,0.6588706970214844,0.0016721431165933,-0.0022215731441974,-0.3643885254859924,0.9312428832054138,-0.0006321881268422,0.0037831779618277,0.6528969729981173,-0.1288361549377441,-0.0883461833000183,0.0516490936279296,233,120,-11469,6140
26.0,1788441380779,-0.8732394576072693,0.9014084339141846,0.0016679279506206,-0.0020570110063999,-0.3356915116310119,0.9419682621955872,0.0068049314623674,-0.0047353580077578,2.3314278547614808e-06,0.0036217865999788,0.0017362915677949,0.5020539164543152,0.0017143106088042,-0.0020489795133471,-0.3354799151420593,0.9420435428619384,0.0057318800787197,0.0006943304091571,0.4793159863381842,0.1353762745857238,-0.2794588804244995,0.0997085571289062,269,61,-7048,3794
26.1,1788441380879,1.5774648189544678,-1.4929577112197876,0.0018024465534836,-0.00206900248304,-0.3242364525794983,0.9459720849990844,0.0062728944075351,-0.004714324431949,-1.9270334928629046e-07,0.0015409544575959,0.0008454999770037,0.1215614080429077,0.0018830392509698,-0.0022205738350749,-0.3297716677188873,0.944056272506714,0.0071275365064902,-0.0078317012085564,-0.0912637232059657,0.799456000328064,-0.4951980710029602,0.031503677368164,254,209,11757,-8363
26.2,1788441380979,4.0,-3.3521127700805664,0.00194490281865,-0.002447061240673,-0.35751673579216,0.9339014887809752,0.0104093912855177,0.0001433033154165,-4.485743769059566e-06,0.00373962149024,-0.0042406804859638,-0.9285972118377686,0.0019364990293979,-0.0024568177759647,-0.3623812198638916,0.9320247173309326,0.0063287213708576,-0.0050496227048688,-0.9698821877402074,-0.0199611186981201,-0.3443255424499511,0.0221061706542968,146,130,11660,-8712
26.3,1788441381079,3.239436626434326,-3.7183098793029785,0.0018848887411877,-0.0027891993522644,-0.3825233876705169,0.9239396452903748,0.0056752988191144,0.0109303417719279,3.074316230742005e-06,0.0010251107160001,-0.0173539351671934,-1.128214955329895,0.0016427543014287,-0.0030581494793295,-0.4094892144203186,0.912308394908905,-0.0077770623970989,-0.0166892427096916,-1.1258361441085083,-0.4758333563804626,-0.1660232543945312,0.0761680603027343,65,61,9756,-8152
26.4,1788441381179,3.94366192817688,-2.6478872299194336,0.0015425493475049,-0.0029866560362279,-0.447344571352005,0.8943553566932678,0.0029328411760931,0.0050363280462996,-6.0494559225381415e-06,-0.0326904356479644,0.0378837697207927,-0.8316344022750854,0.0014009568840265,-0.0025366283953189,-0.4591733813285827,0.8883419036865234,-0.0386131179381929,0.0332678673272201,-0.8648125866960156,0.898966908454895,-1.268024444580078,0.2027854919433593,287,190,16409,-8339
26.5,1788441381279,6.3380279541015625,-1.0140844583511353,0.0013866436202079,-0.0012734844349324,-0.5006556510925293,0.8656445145606995,0.055095488958889,0.0013086459498286,-3.263315970447908e-05,-0.0160179547965526,0.0178174525499343,-1.1602799892425537,0.0009164502844214,-0.0015418166294693,-0.5173043608665466,0.8557995557785034,-0.0195593344412753,-0.0323199676363968,-1.0595411326255226,-0.4611536860466003,0.153064489364624,-0.3305578231811523,181,15,18811,-1427
26.6,1788441381379,1.2957746982574463,0.7323943376541138,-0.0035346741788089,-0.0085698096081614,-0.5324169397354126,0.8464314937591553,0.0688329298234837,0.0061360784111933,0.0002333828207849,-0.004552224650979,-0.2832704782485962,-0.6055895090103149,-0.0038889702409505,-0.0090811252593994,-0.5392423868179321,0.8420926332473755,0.0003666376611114,-0.0834854587921028,-0.3575936630839842,-1.7557235956192017,0.4989887475967407,-0.7975645065307617,35,50,0,0
26.7,1788441381479,-1.8309859037399288,-0.8450704216957092,-0.0003045065095648,-0.0037950607948005,-0.5341365933418274,0.8453896045684814,-0.0229372627098788,0.0081261519413151,4.050775405597211e-05,0.0072390376590192,0.2402095198631286,-0.0843077301979065,0.0009310971945524,-0.0016027875244617,-0.5349113941192627,0.8449060916900635,-0.0260027137741053,-0.0525388044459315,0.0532230936969487,0.0603732466697692,-0.9880260229110718,1.7688398361206057,179,520,-9382,-13209
26.8,1788441381579,-0.98591548204422,-0.9577465057373048,0.0014258807059377,-0.000760932045523,-0.5366656184196472,0.8437933921813965,-0.0716970424900715,-0.0212577232166039,1.912035569537728e-05,-0.0100814346224069,0.0085102394223213,-0.2202246338129043,0.0013694642111659,-0.0007323157042264,-0.541516900062561,0.8406884670257568,-0.0121053889975981,0.0076060584640271,-0.2822382498621692,-0.2835044860839844,-0.2917894721031189,-0.7614068984985352,1,38,0,0
26.9,1788441381679,0.0,0.0,0.001035530003719,-0.0005841254605911,-0.5400122404098511,0.8416563272476196,0.0100310016216202,0.0117181553138836,-3.160840978142389e-06,-0.0035645673051476,0.0003107761731371,0.0495986901223659,0.001076053828001,-0.0004808316007256,-0.5445706844329834,0.8387141823768616,-0.0017417326048956,0.0057321639521325,0.1036619124385732,-0.1792988777160644,-0.251664400100708,0.0740242004394531,0,5,0,0
27.0,1788441381779,0.0,0.0,0.0010859149042516,-0.0005672280094586,-0.5399777293205261,0.8416785001754761,-0.0020078405675883,-0.0014407000704734,-6.455908648295751e-07,0.0001792854454834,0.0004231850907672,-0.0218646544963121,0.0010794401168823,-0.0005715768784284,-0.5436443090438843,0.839314877986908,-0.0001931914306613,-9.318659034925792e-05,0.0178709136957271,0.1335949897766113,-0.1716839671134948,0.0280561447143554,0,0,0,0
27.1,1788441381879,0.0,0.0,0.0010793526889756,-0.0005971158971078,-0.5396755933761597,0.8418720960617065,-5.9444375078027535e-06,0.0004137716202439,-1.0195963094105122e-06,1.1998360083254054e-09,4.799344033301622e-09,0.0,0.0010546818375587,-0.0006288522854447,-0.5433132648468018,0.8395290970802307,0.0009354402965239,-1.1738075781403686e-05,-0.0028942868395487,0.0425704717636108,-0.0677286982536315,0.0319471359252929,0,0,0,0
27.2,1788441381979,0.0,0.0,0.0010793526889756,-0.0005971158971078,-0.5396755933761597,0.8418720960617065,0.0,0.0,0.0,0.0,2.376469243614565e-09,0.0,0.0010021571069955,-0.0006663454696536,-0.5432777404785156,0.839552104473114,0.0003573255699051,-0.0001913251854871,-0.0015099055121469,0.0360002517700195,-0.0924229621887207,0.0354318618774414,0,0,0,0
27.3,1788441382079,0.0,0.0,0.0010793526889756,-0.0005971158971078,-0.5396755933761597,0.8418720960617065,0.0,0.0,0.0,0.0,1.818285966237454e-09,0.0,0.0010202433913946,-0.0007267817854881,-0.5432702302932739,0.8395570516586304,0.0016480641542645,0.0003057913841697,0.0007414329982933,-0.0097435712814331,-0.0683399438858032,0.0660066604614257,0,0,0,0
27.4,1788441382179,0.0,0.0,0.0010793526889756,-0.0005971158971078,-0.5396755933761597,0.8418720960617065,0.0,0.0,0.0,0.0,2.5324138341886733e-09,0.0,0.0010381722822785,-0.0006602918729186,-0.5432825088500977,0.8395490050315857,0.00053619729258,0.0005128947175417,-0.0006300359675107,0.0346711874008178,-0.0858166813850402,0.0480318069458007,0,0,0,0
27.5,1788441382279,0.0,0.0,0.0010793526889756,-0.0005971158971078,-0.5396755933761597,0.8418720960617065,0.0,0.0,0.0,0.0,2.4342106108576904e-09,0.0,0.0010077646002173,-0.000683288089931,-0.5432873368263245,0.8395460247993469,0.0005219222528067,0.0010149096278075,-0.0002552721168352,-0.0252692699432373,-0.0423553586006164,0.0229778289794921,0,0,0,0
27.6,1788441382379,0.0,0.0,0.0010793526889756,-0.0005971158971078,-0.5396755933761597,0.8418720960617065,0.0,0.0,0.0,0.0,2.359572759402795e-09,0.0,0.0010012276470661,-0.0007279096171259,-0.5432617664337158,0.8395624160766602,0.0003598109932854,-0.0012721795158586,0.0006194626997854,-0.0148175358772277,-0.007499873638153,0.0037641525268554,0,0,0,0
27.7,1788441382479,0.0,0.0,0.0010793526889756,-0.0005971158971078,-0.5396755933761597,0.8418720960617065,0.0,0.0,0.0,0.0,2.49454279455108e-09,0.0,0.0009842915460467,-0.0007593156769871,-0.543256402015686,0.8395659923553467,0.000711276720208,-0.0007322308502493,0.0006170751750794,-0.0077875256538391,-0.0008217692375183,-0.0160112380981445,0,0,0,0
27.8,1788441382579,0.0,0.0,0.0010793526889756,-0.0005971158971078,-0.5396755933761597,0.8418720960617065,0.0,0.0,0.0,0.0,2.467073212386594e-09,0.0,0.0010290201753377,-0.0007835961878299,-0.5432407259941101,0.8395760655403137,0.0011620734006761,-0.0015740439016135,0.001063652502378,-0.0056961774826049,0.0029769539833068,0.0022706985473632,0,0,0,0
27.9,1788441382679,0.4507042169570923,0.0,0.0010793526889756,-0.0005971158971078,-0.5396755933761597,0.8418720960617065,0.0,0.0,0.0,0.0,2.4184958480333307e-09,0.0,0.0010687066242098,-0.0008450401946902,-0.5432710647583008,0.8395562171936035,0.0035564252946323,0.0001653549172481,-0.0024091191415521,0.270856499671936,-0.1061842441558837,0.0321111679077148,178,51,9159,1378
28.0,1788441382779,3.2676055431365967,0.8169013857841492,0.0008513279026374,-0.0009799513500183,-0.5473229289054871,0.8369204998016357,0.0412310846391399,-0.0027501086571677,3.133548418532825e-06,-0.0021011745557188,-0.0084834108129143,-0.325618028640747,0.0007720673456788,-0.0010857060551643,-0.5537019968032837,0.8327138423919678,-0.0004678744927648,-0.0193348119335342,-0.3802785121206564,0.1383567452430725,0.0649759769439697,0.0002861022949218,336,144,16405,2623
28.1,1788441382879,6.2816901206970215,0.9577465057373048,-0.0091745667159557,-0.0156301483511924,-0.5647298693656921,0.8250768780708313,0.0797195990662543,-0.0007434561258038,0.0007968383169178,-0.0072602545842528,-0.5051767230033875,-0.4020678102970123,-0.0122491233050823,-0.0180103778839111,-0.5735281705856323,0.8188962936401367,-0.0818941434274555,-0.3592197754773641,-0.5296310059836402,-0.6023083925247192,0.6909955739974976,-2.810141086578369,555,57,0,0
28.2,1788441382979,-1.408450722694397,-1.0985915660858154,-0.0010083286324515,-0.004035297781229,-0.5716572403907776,0.8204820156097412,-0.0275268005047155,0.0049257237575981,0.0002360037092483,0.0217371080070734,0.5972265005111694,0.0658537745475769,0.001142555847764,-0.0006154235452413,-0.5734939575195312,0.8192088007926941,-0.0035504305851546,0.5101132508125236,0.2641003990871624,-1.304639458656311,0.7183582782745361,-1.0263748168945312,82,247,-6565,-7884
28.3,1788441383079,-2.3380281925201416,-0.98591548204422,0.0016688620671629,-0.0004499834321904,-0.5716941952705383,0.8204649686813354,-0.0543744212249727,-0.0230680108873992,3.906781764433922e-05,0.0193098876625299,0.0298841763287782,-0.1294897049665451,0.0017046006396412,-0.0004883958026766,-0.5766368508338928,0.8169987201690674,0.0005695980733446,-0.0099007393955672,-0.268409177725195,-0.3681737184524536,-0.007538616657257,-1.9565815925598145,10,52,0,0
