time_s,timestamp_ms,wheel_vels__velocity_left,wheel_vels__velocity_right,odom__orient_x,odom__orient_y,odom__orient_z,odom__orient_w,odom__lin_x,odom__lin_y,odom__lin_z,odom__ang_x,odom__ang_y,odom__ang_z,imu__orient_x,imu__orient_y,imu__orient_z,imu__orient_w,imu__angvel_x,imu__angvel_y,imu__angvel_z,imu__acc_x,imu__acc_y,imu__acc_z,wheel_status__current_ma_left,wheel_status__current_ma_right,wheel_status__pwm_left,wheel_status__pwm_right
0.0,1788170944002,0.0,0.0,-0.0039654285646975,-0.0019804458133876,0.7019401788711548,0.7122220993041992,0.0,0.0,0.0,-0.000177542126039,1.2700425941147842e-05,-1.164508944384579e-06,-0.0005248133093118,0.0043974742293357,-0.9073119163513184,0.4204350709915161,-0.0001221770624419,3.0326291873306928e-06,-1.127906136880146e-11,-0.0040125250816345,-0.0021882057189941,-0.0023698806762695,0,0,0,0
0.1,1788170944102,0.0,0.0,-0.0039654285646975,-0.0019804458133876,0.7019401788711548,0.7122220993041992,0.0,0.0,0.0,-0.000177542126039,1.2700425941147842e-05,-1.164508944384579e-06,-0.0005248133093118,0.0043974742293357,-0.9073119163513184,0.4204350709915161,-0.0001221770624419,3.0326291873306928e-06,-1.127906136880146e-11,-0.0040125250816345,-0.0021882057189941,-0.0023698806762695,0,0,0,0
0.2,1788170944202,0.0,0.0,-0.0039654285646975,-0.0019804458133876,0.7019401788711548,0.7122220993041992,0.0,0.0,0.0,-0.000177542126039,1.2700425941147842e-05,-1.164508944384579e-06,-0.0005248133093118,0.0043974742293357,-0.9073119163513184,0.4204350709915161,-0.0001221770624419,3.0326291873306928e-06,-1.127906136880146e-11,-0.0040125250816345,-0.0021882057189941,-0.0023698806762695,0,0,0,0
0.3,1788170944302,0.0,0.0,-0.0039654285646975,-0.0019804458133876,0.7019401788711548,0.7122220993041992,0.0,0.0,0.0,-0.000177542126039,1.2700425941147842e-05,-1.164508944384579e-06,-0.0005248133093118,0.0043974742293357,-0.9073119163513184,0.4204350709915161,-0.0001221770624419,3.0326291873306928e-06,-1.127906136880146e-11,-0.0040125250816345,-0.0021882057189941,-0.0023698806762695,0,0,0,0
0.4,1788170944402,0.0,0.0,-0.0039654285646975,-0.0019804458133876,0.7019401788711548,0.7122220993041992,0.0,0.0,0.0,-0.000177542126039,1.2700425941147842e-05,-1.164508944384579e-06,-0.0005248133093118,0.0043974742293357,-0.9073119163513184,0.4204350709915161,-0.0001221770624419,3.0326291873306928e-06,-1.127906136880146e-11,-0.0040125250816345,-0.0021882057189941,-0.0023698806762695,0,0,0,0
0.5,1788170944502,0.0,0.0,-0.0039654285646975,-0.0019804458133876,0.7019401788711548,0.7122220993041992,0.0,0.0,0.0,-0.000177542126039,1.2700425941147842e-05,-1.164508944384579e-06,-0.0005248133093118,0.0043974742293357,-0.9073119163513184,0.4204350709915161,-0.0001221770624419,3.0326291873306928e-06,-1.127906136880146e-11,-0.0040125250816345,-0.0021882057189941,-0.0023698806762695,0,0,0,0
0.6,1788170944602,0.0,0.0,-0.0039654285646975,-0.0019804458133876,0.7019401788711548,0.7122220993041992,0.0,0.0,0.0,-0.000177542126039,1.2700425941147842e-05,-1.164508944384579e-06,-0.0005248133093118,0.0043974742293357,-0.9073119163513184,0.4204350709915161,-0.0001221770624419,3.0326291873306928e-06,-1.127906136880146e-11,-0.0040125250816345,-0.0021882057189941,-0.0023698806762695,0,0,0,0
0.7,1788170944702,0.0,0.0,-0.0039654285646975,-0.0019804458133876,0.7019401788711548,0.7122220993041992,0.0,0.0,0.0,-0.000177542126039,1.2700425941147842e-05,-1.164508944384579e-06,-0.0005248133093118,0.0043974742293357,-0.9073119163513184,0.4204350709915161,-0.0001221770624419,3.0326291873306928e-06,-1.127906136880146e-11,-0.0040125250816345,-0.0021882057189941,-0.0023698806762695,0,0,0,0
0.8,1788170944802,0.0,0.0,-0.0039654285646975,-0.0019804458133876,0.7019401788711548,0.7122220993041992,0.0,0.0,0.0,-0.000177542126039,1.2700425941147842e-05,-1.164508944384579e-06,-0.0005248133093118,0.0043974742293357,-0.9073119163513184,0.4204350709915161,-0.0001221770624419,3.0326291873306928e-06,-1.127906136880146e-11,-0.0040125250816345,-0.0021882057189941,-0.0023698806762695,0,0,0,0
0.9,1788170944902,0.0,0.0,-0.0039654285646975,-0.0019804458133876,0.7019401788711548,0.7122220993041992,0.0,0.0,0.0,-0.000177542126039,1.2700425941147842e-05,-1.164508944384579e-06,-0.0005248133093118,0.0043974742293357,-0.9073119163513184,0.4204350709915161,-0.0001221770624419,3.0326291873306928e-06,-1.127906136880146e-11,-0.0040125250816345,-0.0021882057189941,-0.0023698806762695,0,0,0,0
1.0,1788170945002,0.0,0.0,-0.0039654285646975,-0.0019804458133876,0.7019401788711548,0.7122220993041992,0.0,0.0,0.0,-0.000177542126039,1.2700425941147842e-05,-1.164508944384579e-06,-0.0005248133093118,0.0043974742293357,-0.9073119163513184,0.4204350709915161,-0.0001221770624419,3.0326291873306928e-06,-1.127906136880146e-11,-0.0040125250816345,-0.0021882057189941,-0.0023698806762695,0,0,0,0
1.1,1788170945102,0.0,0.0,-0.0039654285646975,-0.0019804458133876,0.7019401788711548,0.7122220993041992,0.0,0.0,0.0,-0.000177542126039,1.2700425941147842e-05,-1.164508944384579e-06,-0.0005248133093118,0.0043974742293357,-0.9073119163513184,0.4204350709915161,-0.0001221770624419,3.0326291873306928e-06,-1.127906136880146e-11,-0.0040125250816345,-0.0021882057189941,-0.0023698806762695,0,0,0,0
1.2,1788170945202,0.0,0.0,-0.0039654285646975,-0.0019804458133876,0.7019401788711548,0.7122220993041992,0.0,0.0,0.0,-0.000177542126039,1.2700425941147842e-05,-1.164508944384579e-06,-0.0005248133093118,0.0043974742293357,-0.9073119163513184,0.4204350709915161,-0.0001221770624419,3.0326291873306928e-06,-1.127906136880146e-11,-0.0040125250816345,-0.0021882057189941,-0.0023698806762695,0,0,0,0
1.3,1788170945302,0.0,0.0,-0.0039654285646975,-0.0019804458133876,0.7019401788711548,0.7122220993041992,0.0,0.0,0.0,-0.000177542126039,1.2700425941147842e-05,-1.164508944384579e-06,-0.0005248133093118,0.0043974742293357,-0.9073119163513184,0.4204350709915161,-0.0001221770624419,3.0326291873306928e-06,-1.127906136880146e-11,-0.0040125250816345,-0.0021882057189941,-0.0023698806762695,0,0,0,0
1.4,1788170945402,0.0,0.0,-0.0039654285646975,-0.0019804458133876,0.7019401788711548,0.7122220993041992,0.0,0.0,0.0,-0.000177542126039,1.2700425941147842e-05,-1.164508944384579e-06,-0.0005248133093118,0.0043974742293357,-0.9073119163513184,0.4204350709915161,-0.0001221770624419,3.0326291873306928e-06,-1.127906136880146e-11,-0.0040125250816345,-0.0021882057189941,-0.0023698806762695,0,0,0,0
1.5,1788170945502,0.0,0.0,-0.0039654285646975,-0.0019804458133876,0.7019401788711548,0.7122220993041992,0.0,0.0,0.0,-0.000177542126039,1.2700425941147842e-05,-1.164508944384579e-06,-0.0005248133093118,0.0043974742293357,-0.9073119163513184,0.4204350709915161,-0.0001221770624419,3.0326291873306928e-06,-1.127906136880146e-11,-0.0040125250816345,-0.0021882057189941,-0.0023698806762695,0,0,0,0
1.6,1788170945602,0.0,0.0,-0.0039654285646975,-0.0019804458133876,0.7019401788711548,0.7122220993041992,0.0,0.0,0.0,-0.000177542126039,1.2700425941147842e-05,-1.164508944384579e-06,-0.0005248133093118,0.0043974742293357,-0.9073119163513184,0.4204350709915161,-0.0001221770624419,3.0326291873306928e-06,-1.127906136880146e-11,-0.0040125250816345,-0.0021882057189941,-0.0023698806762695,0,0,0,0
1.7,1788170945702,0.0,0.0,-0.0039654285646975,-0.0019804458133876,0.7019401788711548,0.7122220993041992,0.0,0.0,0.0,-0.000177542126039,1.2700425941147842e-05,-1.164508944384579e-06,-0.0005248133093118,0.0043974742293357,-0.9073119163513184,0.4204350709915161,-0.0001221770624419,3.0326291873306928e-06,-1.127906136880146e-11,-0.0040125250816345,-0.0021882057189941,-0.0023698806762695,0,0,0,0
1.8,1788170945802,0.0,0.0,-0.0039654285646975,-0.0019804458133876,0.7019401788711548,0.7122220993041992,0.0,0.0,0.0,-0.000177542126039,1.2700425941147842e-05,-1.164508944384579e-06,-0.0005248133093118,0.0043974742293357,-0.9073119163513184,0.4204350709915161,-0.0001221770624419,3.0326291873306928e-06,-1.127906136880146e-11,-0.0040125250816345,-0.0021882057189941,-0.0023698806762695,0,0,0,0
1.9,1788170945902,0.0,0.0,-0.0039654285646975,-0.0019804458133876,0.7019401788711548,0.7122220993041992,0.0,0.0,0.0,-0.000177542126039,1.2700425941147842e-05,-1.164508944384579e-06,-0.0005248133093118,0.0043974742293357,-0.9073119163513184,0.4204350709915161,-0.0001221770624419,3.0326291873306928e-06,-1.127906136880146e-11,-0.0040125250816345,-0.0021882057189941,-0.0023698806762695,0,0,0,0
2.0,1788170946002,0.0,0.0,-0.0039654285646975,-0.0019804458133876,0.7019401788711548,0.7122220993041992,0.0,0.0,0.0,-0.000177542126039,1.2700425941147842e-05,-1.164508944384579e-06,-0.0005248133093118,0.0043974742293357,-0.9073119163513184,0.4204350709915161,-0.0001221770624419,3.0326291873306928e-06,-1.127906136880146e-11,-0.0040125250816345,-0.0021882057189941,-0.0023698806762695,0,0,0,0
2.1,1788170946102,0.0,0.0,-0.0039654285646975,-0.0019804458133876,0.7019401788711548,0.7122220993041992,0.0,0.0,0.0,-0.000177542126039,1.2700425941147842e-05,-1.164508944384579e-06,-0.0005248133093118,0.0043974742293357,-0.9073119163513184,0.4204350709915161,-0.0001221770624419,3.0326291873306928e-06,-1.127906136880146e-11,-0.0040125250816345,-0.0021882057189941,-0.0023698806762695,0,0,0,0
2.2,1788170946202,0.0,0.0,-0.0039654285646975,-0.0019804458133876,0.7019401788711548,0.7122220993041992,0.0,0.0,0.0,-0.000177542126039,1.2700425941147842e-05,-1.164508944384579e-06,-0.0005248133093118,0.0043974742293357,-0.9073119163513184,0.4204350709915161,-0.0001221770624419,3.0326291873306928e-06,-1.127906136880146e-11,-0.0040125250816345,-0.0021882057189941,-0.0023698806762695,0,0,0,0
2.3,1788170946302,0.0,0.0,-0.0039654285646975,-0.0019804458133876,0.7019401788711548,0.7122220993041992,0.0,0.0,0.0,-0.000177542126039,1.2700425941147842e-05,-1.164508944384579e-06,-0.0005248133093118,0.0043974742293357,-0.9073119163513184,0.4204350709915161,-0.0001221770624419,3.0326291873306928e-06,-1.127906136880146e-11,-0.0040125250816345,-0.0021882057189941,-0.0023698806762695,0,0,0,0
2.4,1788170946402,0.0,0.0,-0.0039654285646975,-0.0019804458133876,0.7019401788711548,0.7122220993041992,0.0,0.0,0.0,-0.000177542126039,1.2700425941147842e-05,-1.164508944384579e-06,-0.0005248133093118,0.0043974742293357,-0.9073119163513184,0.4204350709915161,-0.0001221770624419,3.0326291873306928e-06,-1.127906136880146e-11,-0.0040125250816345,-0.0021882057189941,-0.0023698806762695,0,0,0,0
2.5,1788170946502,0.0,0.0,-0.0039654285646975,-0.0019804458133876,0.7019401788711548,0.7122220993041992,0.0,0.0,0.0,-0.000177542126039,1.2700425941147842e-05,-1.164508944384579e-06,-0.0005248133093118,0.0043974742293357,-0.9073119163513184,0.4204350709915161,-0.0001221770624419,3.0326291873306928e-06,-1.127906136880146e-11,-0.0040125250816345,-0.0021882057189941,-0.0023698806762695,0,0,0,0
2.6,1788170946602,0.0,0.0,-0.0039654285646975,-0.0019804458133876,0.7019401788711548,0.7122220993041992,0.0,0.0,0.0,-0.000177542126039,1.2700425941147842e-05,-1.164508944384579e-06,-0.0005248133093118,0.0043974742293357,-0.9073119163513184,0.4204350709915161,-0.0001221770624419,3.0326291873306928e-06,-1.127906136880146e-11,-0.0040125250816345,-0.0021882057189941,-0.0023698806762695,0,0,0,0
2.7,1788170946702,0.0,0.0,-0.0039654285646975,-0.0019804458133876,0.7019401788711548,0.7122220993041992,0.0,0.0,0.0,-0.000177542126039,1.2700425941147842e-05,-1.164508944384579e-06,-0.0005248133093118,0.0043974742293357,-0.9073119163513184,0.4204350709915161,-0.0001221770624419,3.0326291873306928e-06,-1.127906136880146e-11,-0.0040125250816345,-0.0021882057189941,-0.0023698806762695,0,0,0,0
2.8,1788170946802,0.0,0.0,-0.0039654285646975,-0.0019804458133876,0.7019401788711548,0.7122220993041992,0.0,0.0,0.0,-0.000177542126039,1.2700425941147842e-05,-1.164508944384579e-06,-0.0005248133093118,0.0043974742293357,-0.9073119163513184,0.4204350709915161,-0.0001221770624419,3.0326291873306928e-06,-1.127906136880146e-11,-0.0040125250816345,-0.0021882057189941,-0.0023698806762695,0,0,0,0
2.9,1788170946902,0.0,0.0,-0.0039654285646975,-0.0019804458133876,0.7019401788711548,0.7122220993041992,0.0,0.0,0.0,-0.000177542126039,1.2700425941147842e-05,-1.164508944384579e-06,-0.0005248133093118,0.0043974742293357,-0.9073119163513184,0.4204350709915161,-0.0001221770624419,3.0326291873306928e-06,-1.127906136880146e-11,-0.0040125250816345,-0.0021882057189941,-0.0023698806762695,0,0,0,0
3.0,1788170947002,0.0,0.0,-0.0039654285646975,-0.0019804458133876,0.7019401788711548,0.7122220993041992,0.0,0.0,0.0,-0.000177542126039,1.2700425941147842e-05,-1.164508944384579e-06,-0.0005248133093118,0.0043974742293357,-0.9073119163513184,0.4204350709915161,-0.0001221770624419,3.0326291873306928e-06,-1.127906136880146e-11,-0.0040125250816345,-0.0021882057189941,-0.0023698806762695,0,0,0,0
3.1,1788170947102,0.0,0.0,-0.0039654285646975,-0.0019804458133876,0.7019401788711548,0.7122220993041992,0.0,0.0,0.0,-0.000177542126039,1.2700425941147842e-05,-1.164508944384579e-06,-0.0005248133093118,0.0043974742293357,-0.9073119163513184,0.4204350709915161,-0.0001221770624419,3.0326291873306928e-06,-1.127906136880146e-11,-0.0040125250816345,-0.0021882057189941,-0.0023698806762695,0,0,0,0
3.2,1788170947202,0.0,0.0,-0.0039654285646975,-0.0019804458133876,0.7019401788711548,0.7122220993041992,0.0,0.0,0.0,-0.000177542126039,1.2700425941147842e-05,-1.164508944384579e-06,-0.0005248133093118,0.0043974742293357,-0.9073119163513184,0.4204350709915161,-0.0001221770624419,3.0326291873306928e-06,-1.127906136880146e-11,-0.0040125250816345,-0.0021882057189941,-0.0023698806762695,0,0,0,0
3.3,1788170947302,0.0,0.0,-0.0039654285646975,-0.0019804458133876,0.7019401788711548,0.7122220993041992,0.0,0.0,0.0,-0.000177542126039,1.2700425941147842e-05,-1.164508944384579e-06,-0.0005248133093118,0.0043974742293357,-0.9073119163513184,0.4204350709915161,-0.0001221770624419,3.0326291873306928e-06,-1.127906136880146e-11,-0.0040125250816345,-0.0021882057189941,-0.0023698806762695,0,0,0,0
3.4,1788170947402,0.0,0.0,-0.0039654285646975,-0.0019804458133876,0.7019401788711548,0.7122220993041992,0.0,0.0,0.0,-0.000177542126039,1.2700425941147842e-05,-1.164508944384579e-06,-0.0005248133093118,0.0043974742293357,-0.9073119163513184,0.4204350709915161,-0.0001221770624419,3.0326291873306928e-06,-1.127906136880146e-11,-0.0040125250816345,-0.0021882057189941,-0.0023698806762695,0,0,0,0
3.5,1788170947502,0.0,0.0,-0.0039654285646975,-0.0019804458133876,0.7019401788711548,0.7122220993041992,0.0,0.0,0.0,-0.000177542126039,1.2700425941147842e-05,-1.164508944384579e-06,-0.0005248133093118,0.0043974742293357,-0.9073119163513184,0.4204350709915161,-0.0001221770624419,3.0326291873306928e-06,-1.127906136880146e-11,-0.0040125250816345,-0.0021882057189941,-0.0023698806762695,0,0,0,0
3.6,1788170947602,0.0,0.0,-0.0039654285646975,-0.0019804458133876,0.7019401788711548,0.7122220993041992,0.0,0.0,0.0,-0.000177542126039,1.2700425941147842e-05,-1.164508944384579e-06,-0.0005248133093118,0.0043974742293357,-0.9073119163513184,0.4204350709915161,-0.0001221770624419,3.0326291873306928e-06,-1.127906136880146e-11,-0.0040125250816345,-0.0021882057189941,-0.0023698806762695,0,0,0,0
3.7,1788170947702,0.0,0.0,-0.0039654285646975,-0.0019804458133876,0.7019401788711548,0.7122220993041992,0.0,0.0,0.0,-0.000177542126039,1.2700425941147842e-05,-1.164508944384579e-06,-0.0005248133093118,0.0043974742293357,-0.9073119163513184,0.4204350709915161,-0.0001221770624419,3.0326291873306928e-06,-1.127906136880146e-11,-0.0040125250816345,-0.0021882057189941,-0.0023698806762695,0,0,0,0
3.8,1788170947802,0.0,0.0,-0.0039654285646975,-0.0019804458133876,0.7019401788711548,0.7122220993041992,0.0,0.0,0.0,-0.000177542126039,1.2700425941147842e-05,-1.164508944384579e-06,-0.0005248133093118,0.0043974742293357,-0.9073119163513184,0.4204350709915161,-0.0001221770624419,3.0326291873306928e-06,-1.127906136880146e-11,-0.0040125250816345,-0.0021882057189941,-0.0023698806762695,0,0,0,0
3.9,1788170947902,0.0,0.0,-0.0039654285646975,-0.0019804458133876,0.7019401788711548,0.7122220993041992,0.0,0.0,0.0,-0.000177542126039,1.2700425941147842e-05,-1.164508944384579e-06,-0.0005248133093118,0.0043974742293357,-0.9073119163513184,0.4204350709915161,-0.0001221770624419,3.0326291873306928e-06,-1.127906136880146e-11,-0.0040125250816345,-0.0021882057189941,-0.0023698806762695,0,0,0,0
4.0,1788170948002,0.0,0.0,-0.0039654285646975,-0.0019804458133876,0.7019401788711548,0.7122220993041992,0.0,0.0,0.0,-0.000177542126039,1.2700425941147842e-05,-1.164508944384579e-06,-0.0005248133093118,0.0043974742293357,-0.9073119163513184,0.4204350709915161,-0.0001221770624419,3.0326291873306928e-06,-1.127906136880146e-11,-0.0040125250816345,-0.0021882057189941,-0.0023698806762695,0,0,0,0
4.1,1788170948102,0.0,0.0,-0.0039654285646975,-0.0019804458133876,0.7019401788711548,0.7122220993041992,0.0,0.0,0.0,-0.000177542126039,1.2700425941147842e-05,-1.164508944384579e-06,-0.0005248133093118,0.0043974742293357,-0.9073119163513184,0.4204350709915161,-0.0001221770624419,3.0326291873306928e-06,-1.127906136880146e-11,-0.0040125250816345,-0.0021882057189941,-0.0023698806762695,0,0,0,0
4.2,1788170948202,0.0,0.0,-0.0039654285646975,-0.0019804458133876,0.7019401788711548,0.7122220993041992,0.0,0.0,0.0,-0.000177542126039,1.2700425941147842e-05,-1.164508944384579e-06,-0.0005248133093118,0.0043974742293357,-0.9073119163513184,0.4204350709915161,-0.0001221770624419,3.0326291873306928e-06,-1.127906136880146e-11,-0.0040125250816345,-0.0021882057189941,-0.0023698806762695,0,0,0,0
4.3,1788170948302,0.0,0.0,-0.0039654285646975,-0.0019804458133876,0.7019401788711548,0.7122220993041992,0.0,0.0,0.0,-0.000177542126039,1.2700425941147842e-05,-1.164508944384579e-06,-0.0005248133093118,0.0043974742293357,-0.9073119163513184,0.4204350709915161,-0.0001221770624419,3.0326291873306928e-06,-1.127906136880146e-11,-0.0040125250816345,-0.0021882057189941,-0.0023698806762695,0,0,0,0
4.4,1788170948402,0.0,0.0,-0.0039654285646975,-0.0019804458133876,0.7019401788711548,0.7122220993041992,0.0,0.0,0.0,-0.000177542126039,1.2700425941147842e-05,-1.164508944384579e-06,-0.0005248133093118,0.0043974742293357,-0.9073119163513184,0.4204350709915161,-0.0001221770624419,3.0326291873306928e-06,-1.127906136880146e-11,-0.0040125250816345,-0.0021882057189941,-0.0023698806762695,0,0,0,0
4.5,1788170948502,0.0,0.0,-0.0039654285646975,-0.0019804458133876,0.7019401788711548,0.7122220993041992,0.0,0.0,0.0,-0.000177542126039,1.2700425941147842e-05,-1.164508944384579e-06,-0.0005248133093118,0.0043974742293357,-0.9073119163513184,0.4204350709915161,-0.0001221770624419,3.0326291873306928e-06,-1.127906136880146e-11,-0.0040125250816345,-0.0021882057189941,-0.0023698806762695,0,0,0,0
4.6,1788170948602,0.0,0.0,-0.0039654285646975,-0.0019804458133876,0.7019401788711548,0.7122220993041992,0.0,0.0,0.0,-0.000177542126039,1.2700425941147842e-05,-1.164508944384579e-06,-0.0005262605845928,0.0044015711173415,-0.9073117971420288,0.4204350113868713,-0.0001079057357877,1.021634681192423e-05,-4.4195830835152646e-11,-0.0146723389625549,0.0082795023918151,-0.0002784729003906,0,0,0,0
4.7,1788170948702,0.0,0.0,-0.0039685643278062,-0.0019811578094959,0.7019400596618652,0.712222158908844,0.0,0.0,0.0,-1.940385482157581e-05,2.094396586471703e-05,0.0,-0.0005245991051197,0.0044057555496692,-0.9073117971420288,0.4204350113868713,-3.7726710008008425e-05,8.707637271344755e-05,-4.99147059443658e-11,0.0093224644660949,0.0043790340423583,-0.0064725875854492,0,0,0,0
4.8,1788170948802,0.0,0.0,-0.0039735613390803,-0.0019785142503678,0.7019402384757996,0.7122220396995544,0.0,0.0,0.0,-1.4873590771458112e-05,7.977288623806089e-05,1.02710882856627e-05,-0.0005195084959268,0.004409285262227,-0.9073117971420288,0.4204350113868713,-1.9785170649636866e-06,9.447020090632052e-05,-2.7274491527079946e-12,0.0040106773376464,0.0058677196502685,-0.0161724090576171,0,0,0,0
4.9,1788170948902,0.0,0.0,-0.0039754016324877,-0.0019743884913623,0.7019404172897339,0.7122218012809753,0.0,0.0,0.0,5.360198701964691e-05,3.544670471455902e-05,2.4038029096118407e-06,-0.0005168141797184,0.0044082487002015,-0.9073117971420288,0.4204350113868713,6.56732044341525e-05,3.275878656407437e-05,1.9920157469899336e-06,-0.0250636935234069,0.0054047107696533,-0.0127143859863281,0,0,0,0
5.0,1788170949002,0.0,0.0,-0.0039734775200486,-0.0019708722829818,0.7019404172897339,0.7122218012809753,0.0,0.0,0.0,0.0001508253917563,4.531988452072255e-05,0.0,-0.0005139671266078,0.0044044237583875,-0.9073117971420288,0.4204350113868713,0.000129810778885,4.10577054986908e-06,7.25374252824266e-12,-0.0002616047859191,-0.0256866216659545,-0.0058002471923828,0,0,0,0
5.1,1788170949102,0.0,0.0,-0.0039674462750554,-0.0019671793561428,0.7019405961036682,0.7122217416763306,0.0,0.0,0.0,0.0002027454320341,-5.989099372527562e-05,5.826149390486535e-06,-0.0005130115896463,0.004398550838232,-0.9073117971420288,0.4204350113868713,0.000140521447081,-4.311126534498775e-05,-9.324954850852814e-11,0.0100579261779785,0.0169015526771545,0.0120096206665039,0,0,0,0
5.2,1788170949202,0.0,0.0,-0.0039647286757826,-0.0019657583907246,0.7019405961036682,0.7122217416763306,0.0,0.0,0.0,0.0,7.845283533924885e-09,0.0,-0.0005105463787913,0.0043843071907758,-0.9073119163513184,0.4204350709915161,0.0002372668488849,-5.9249463834429125e-05,-2.2510829761055062e-10,0.0117013454437255,0.0069196224212646,0.0063886642456054,0,0,0,0
5.3,1788170949302,0.0,0.0,-0.0039430134929716,-0.0019525384996086,0.7019407749176025,0.7122217416763306,0.0,0.0,0.0,0.0003210761933587,-6.309243326541036e-05,0.0,-0.000507041811943,0.0043689459562301,-0.9073119163513184,0.4204350709915161,0.0003281654419005,-5.964031926781371e-05,1.9874584579442224e-06,0.0026493668556213,0.0113430619239807,0.0102243423461914,0,0,0,0
5.4,1788170949402,0.0,0.0,-0.0039314250461757,-0.0019440489122644,0.7019407749176025,0.7122218608856201,0.0,0.0,0.0,0.0003517213335726,-4.529806756181642e-05,-3.5027098874707008e-06,-0.0005021402612328,0.0043536191806197,-0.907312035560608,0.4204351305961609,0.000382458031486,-2.792319062276049e-05,2.188064301172538e-06,0.0227223634719848,-0.0140512585639953,0.0106019973754882,0,0,0,0
5.5,1788170949502,0.0,0.0,-0.0039276033639907,-0.0019406944047659,0.7019407749176025,0.7122218608856201,0.0,0.0,0.0,0.0002110823406837,-1.2217014955240302e-05,0.0,-0.0004957662895321,0.0043407334014773,-0.907312035560608,0.4204351305961609,0.0003196592459168,2.879003051977793e-05,1.985792099551309e-06,0.0124423503875732,0.0145936012268066,-0.0069665908813476,0,0,0,0
5.6,1788170949602,0.0,0.0,-0.0039132921956479,-0.0019250286277383,0.7019408345222473,0.7122219204902649,0.0,0.0,0.0,0.0003372752107679,2.6718826120486483e-05,1.1895685929630415e-06,-0.0004888260737061,0.004327499307692,-0.9073121547698976,0.4204351902008056,0.0003158517480686,-3.5717936455111335e-07,-1.7465740749546628e-12,0.0103387236595153,-0.0036738514900207,-0.0055007934570312,0,0,0,0
5.7,1788170949702,0.0,0.0,-0.0039003111887723,-0.0019133768510073,0.7019408941268921,0.7122219204902649,0.0,0.0,0.0,0.0003587362880352,-2.5604032998671755e-05,2.558404503361089e-06,-0.0004837717860937,0.0043130228295922,-0.9073121547698976,0.4204351902008056,0.0002871282310645,-4.153497942349456e-05,-1.7908046515928414e-10,-0.0007896423339843,-0.0234392881393432,0.0011882781982421,0,0,0,0
5.8,1788170949802,0.0,0.0,-0.0038916822522878,-0.001907080411911,0.7019409537315369,0.7122218608856201,0.0,0.0,0.0,0.0001783626066753,-2.6621632059686817e-05,0.0,-0.0004816800355911,0.0043059280142188,-0.9073121547698976,0.4204351902008056,0.0002220879430882,-3.1322916346242364e-05,-1.0640395755805301e-10,-0.0042967796325683,-0.0266368389129638,0.0064096450805664,0,0,0,0
5.9,1788170949902,0.0,0.0,-0.0038870482239872,-0.0019035612931475,0.7019410133361816,0.7122219800949097,0.0,0.0,0.0,5.773890370619483e-05,-9.598355063644703e-06,0.0,-0.0004800036549568,0.004301393404603,-0.907312273979187,0.4204352498054504,-2.9208914886394957e-05,1.9270530750571497e-05,-8.376799736012933e-12,-0.0127905011177062,-0.0048814415931701,-0.0044116973876953,0,0,0,0
6.0,1788170950002,0.0,0.0,-0.0038935574702918,-0.0019062648061662,0.7019411325454712,0.7122217416763306,0.0,0.0,0.0,-0.0001268216146854,3.245737389079295e-05,8.867756150721107e-06,-0.000481329858303,0.004311328753829,-0.9073121547698976,0.4204351902008056,-0.0001954136137446,3.696247882435972e-05,-1.0822902752439205e-10,-0.0108633637428283,-0.0106779932975769,-0.0166120529174804,0,0,0,0
6.1,1788170950102,0.0,0.0,-0.0039028991013765,-0.0019127071136608,0.7019411325454712,0.7122216820716858,0.0,0.0,0.0,-0.0001210126865771,2.024585955950897e-05,-3.58763736585388e-06,-0.0004842197522521,0.004322956316173,-0.9073121547698976,0.4204351902008056,-0.00019656678957,5.1637490688354736e-05,-1.312648201902671e-10,-0.0178274512290954,0.001864731311798,-0.0201921463012695,0,0,0,0
6.2,1788170950202,0.0,0.0,-0.0039105275645852,-0.0019162233220413,0.7019411325454712,0.7122216820716858,0.0,0.0,0.0,-0.0001435299200238,6.7888293415308e-05,0.0,-0.0004839245229959,0.0043299654498696,-0.9073121547698976,0.4204351902008056,-0.0001277226147051,8.383706210675685e-05,-1.5518265608140714e-10,0.0182424783706665,0.0086211562156677,0.0195074081420898,0,0,0,0
6.3,1788170950302,0.0,0.0,-0.0039194873534142,-0.0019168633734807,0.701941192150116,0.7122215032577515,0.0,0.0,0.0,-0.0001244937739102,0.0001229333283845,7.0912419687374495e-06,-0.0004814807325601,0.0043372400104999,-0.9073121547698976,0.4204351902008056,-0.0001153687914342,0.0001256482933776,-2.2338936603275534e-10,0.0151230096817016,0.0141116976737976,0.00848388671875,0,0,0,0
6.4,1788170950402,0.0,0.0,-0.0039255721494555,-0.0019157163333147,0.7019414901733398,0.7122212648391724,0.0,0.0,0.0,-5.129002238390967e-05,9.474335820414126e-05,1.0161605132452678e-05,-0.0004771305248141,0.0043433774262666,-0.907312035560608,0.4204351305961609,-5.377474874289629e-05,0.0001397413423066,-1.126398664429604e-10,0.0081455111503601,0.0190556049346923,0.0153570175170898,0,0,0,0
6.5,1788170950502,0.0,0.0,-0.0039320653304457,-0.0019108782289549,0.7019414305686951,0.7122213244438171,0.0,0.0,0.0,1.0889524673984852e-05,9.906164632411674e-05,0.0,-0.0004710173234343,0.0043462729081511,-0.907312035560608,0.4204351305961609,3.653074886467758e-05,9.76208947032591e-05,4.7458443668031615e-11,-0.0065772533416748,-0.0049854516983032,0.0257453918457031,0,0,0,0
6.6,1788170950602,0.0,0.0,-0.0039330371655523,-0.0019068786641582,0.7019413113594055,0.7122212648391724,0.0,0.0,0.0,6.310991011559963e-05,8.858265937305987e-05,-2.3808042897144333e-06,-0.0004664221778512,0.0043452298268675,-0.907312035560608,0.4204351305961609,8.760459645736172e-05,8.266560417445682e-05,1.277236884192463e-10,-0.0137041211128234,-0.0106114149093627,-0.013899803161621,0,0,0,0
6.7,1788170950702,0.0,0.0,-0.0039317589253187,-0.0019016255391761,0.7019413709640503,0.7122213244438171,0.0,0.0,0.0,8.819985669106245e-05,3.829160050372593e-05,0.0,-0.0004630107432603,0.0043423930183053,-0.907312035560608,0.4204351305961609,0.0001006417543773,3.051203891468182e-05,2.0147693703579343e-06,0.0074836015701293,-0.0217481851577758,0.0111122131347656,0,0,0,0
6.8,1788170950802,0.0,0.0,-0.0039301258511841,-0.0018997937440872,0.7019413709640503,0.7122213244438171,0.0,0.0,0.0,9.639275958761571e-05,6.222435331437737e-06,0.0,-0.0004620561376214,0.0043369038030505,-0.9073121547698976,0.4204351902008056,6.889351918756919e-05,-4.270385049641237e-05,-4.3947021289296144e-11,0.0087561607360839,-0.0125007629394531,-0.0052251815795898,0,0,0,0
6.9,1788170950902,0.0,0.0,-0.0039233868010342,-0.0018991964170709,0.7019414901733398,0.7122213244438171,5.861298055409071e-07,8.5148529102941e-09,1.7156709616673695e-09,4.419354445417412e-05,-8.604231697972864e-05,2.3447767034667777e-06,-0.0004634913057088,0.0043344628065824,-0.9073121547698976,0.4204351902008056,4.445525184975013e-05,-8.329142722353057e-05,-5.891529742305785e-11,-0.0006962418556213,-0.0178247690200805,0.0122976303100585,0,0,0,0
7.0,1788170951002,0.0,0.0,-0.0039200480096042,-0.0019021683838218,0.7019414901733398,0.7122213244438171,0.0,0.0,0.0,2.882570015572128e-06,-0.0001134143749368,0.0,-0.0004683500155806,0.0043316725641489,-0.9073121547698976,0.4204351902008056,7.926999302978826e-06,-0.0001231762321071,-1.4683745711865824e-11,0.0080280900001525,0.0040585994720458,-0.0116596221923828,0,0,0,0
7.1,1788170951102,0.0,0.0,-0.003915037959814,-0.0019066127715632,0.7019414901733398,0.7122212648391724,0.0,0.0,0.0,8.909192956707557e-07,-0.0001146284412243,-1.219654222950339e-06,-0.0004743626341223,0.0043283766135573,-0.9073121547698976,0.4204351902008056,1.9294291215633834e-06,-8.314635403653932e-05,-2.400517473216817e-12,0.0065868496894836,0.0454180836677551,-0.0345878601074218,0,0,0,0
7.2,1788170951202,0.0,0.0,-0.0039123776368796,-0.0019074206938967,0.7019412517547607,0.7122215032577515,0.0,0.0,0.0,3.551931513356976e-05,-3.413941158214584e-05,-1.0522501725063194e-05,-0.0004753321409225,0.004325863905251,-0.9073121547698976,0.4204351902008056,4.129977575165439e-05,-1.8798131626092687e-05,-1.1677251937430186e-11,0.0015217065811157,0.0037182569503784,-0.0021123886108398,0,0,0,0
7.3,1788170951302,0.0,0.0,-0.0039099766872823,-0.0019054177682846,0.7019409537315369,0.7122218608856201,0.0,0.0,0.0,5.300060729496181e-05,7.082279012138315e-07,-7.1568292696611024e-06,-0.000473977997899,0.0043233586475253,-0.9073121547698976,0.4204351902008056,4.561275566146021e-05,1.2911682516276574e-05,8.044685799059484e-12,-0.0054704546928405,-0.01784348487854,0.0033845901489257,0,0,0,0
7.4,1788170951402,0.0,0.0,-0.003910104278475,-0.0019038328900933,0.7019410133361816,0.7122218608856201,0.0,0.0,0.0,2.2361757146427408e-05,3.812709837802686e-05,2.3817806322767865e-06,-0.0004722233861684,0.0043233390897512,-0.9073121547698976,0.4204351902008056,5.412721091820153e-06,4.124976296853081e-05,4.091392975438882e-12,0.0180437564849853,-0.0552204847335815,-0.0079402923583984,0,0,0,0
7.5,1788170951502,0.0,0.0,-0.0039118342101573,-0.0019047874957323,0.701940655708313,0.7122220993041992,0.0,0.0,0.0,-5.040917312726378e-05,-6.137442596809706e-06,-1.0911009667324834e-05,-0.0004733325913548,0.0043254913762211,-0.9073121547698976,0.4204351902008056,-7.381849185397552e-05,-1.6175813245329657e-05,1.860515154710237e-11,0.0194343924522399,0.0154799222946167,-0.0081291198730468,0,0,0,0
7.6,1788170951602,0.0,0.0,-0.0039118342101573,-0.0019047874957323,0.701940655708313,0.7122220993041992,0.0,0.0,0.0,-5.040917312726378e-05,-6.137442596809706e-06,-1.0911009667324834e-05,-0.000474483706057,0.0043263807892799,-0.9073121547698976,0.4204351902008056,-8.304219623518969e-05,-4.314067558295016e-05,5.5686548685626055e-11,0.0173419713973999,0.0046945214271545,-0.0028114318847656,0,0,0,0
7.7,1788170951702,0.0,0.0,-0.0039118342101573,-0.0019047874957323,0.701940655708313,0.7122220993041992,0.0,0.0,0.0,-5.040917312726378e-05,-6.137442596809706e-06,-1.0911009667324834e-05,-0.000474483706057,0.0043263807892799,-0.9073121547698976,0.4204351902008056,-8.304219623518969e-05,-4.314067558295016e-05,5.5686548685626055e-11,0.0173419713973999,0.0046945214271545,-0.0028114318847656,0,0,0,0
7.8,1788170951802,0.0,0.0,-0.0039118342101573,-0.0019047874957323,0.701940655708313,0.7122220993041992,0.0,0.0,0.0,-5.040917312726378e-05,-6.137442596809706e-06,-1.0911009667324834e-05,-0.000474483706057,0.0043263807892799,-0.9073121547698976,0.4204351902008056,-8.304219623518969e-05,-4.314067558295016e-05,5.5686548685626055e-11,0.0173419713973999,0.0046945214271545,-0.0028114318847656,0,0,0,0
7.9,1788170951902,0.0,0.0,-0.0039089079946279,-0.0019259869586676,0.7019401788711548,0.7122225761413574,0.0,0.0,0.0,-3.29830072587356e-05,-8.333573350682855e-05,-1.1864057114507889e-06,-0.0004936084151268,0.0043295975774526,-0.9073121547698976,0.4204351902008056,-3.5536705747687016e-05,-9.314009422079486e-05,4.4889729910247225e-11,-0.0225663781166076,-0.0134283900260925,-0.0124177932739257,0,0,0,0
8.0,1788170952002,0.0,0.0,-0.0039068963378667,-0.0019277476239949,0.7019402980804443,0.7122224569320679,0.0,0.0,0.0,2.0855390175711364e-05,-5.260590114630759e-05,2.954609726657509e-06,-0.0004973402246832,0.0043271360918879,-0.9073121547698976,0.4204351902008056,2.4293779789650345e-05,-6.208649990477224e-05,-2.4545666845869638e-11,-0.0135618448257446,-0.0048289895057678,-0.0194673538208007,0,0,0,0
8.1,1788170952102,0.0,0.0,-0.0039068963378667,-0.0019277476239949,0.7019402980804443,0.7122224569320679,0.0,0.0,0.0,2.0855390175711364e-05,-5.260590114630759e-05,2.954609726657509e-06,-0.0004982277750968,0.0043249865993857,-0.9073121547698976,0.4204351902008056,5.3830099087495e-05,-4.805093567534256e-05,-3.781451602125958e-11,0.0061625838279724,-0.0016188621520996,0.0021467208862304,0,0,0,0
8.2,1788170952202,0.0,0.0,-0.0039023195859044,-0.0019284612499177,0.7019400596618652,0.712222695350647,0.0,0.0,0.0,4.6615348026080035e-08,5.826918680895688e-08,-7.45845591154648e-06,-0.0005011744797229,0.0043212734162807,-0.9073121547698976,0.4204351902008056,4.102094337877709e-05,-9.272215981837034e-05,-5.7036976823991356e-11,-0.0229269862174987,0.0110099911689758,-0.0140953063964843,0,0,0,0
8.3,1788170952302,0.0,0.0,-0.0038927018176764,-0.0019296235404908,0.7019400000572205,0.7122228145599365,0.0,0.0,0.0,9.972801490221173e-05,-6.852379738120362e-05,1.1896170235559111e-06,-0.0005028853192925,0.0043155159801244,-0.9073121547698976,0.4204351902008056,0.0001065601881673,-7.047054657798213e-05,-1.3992488878244335e-10,0.0077145099639892,0.0068358182907104,0.0080299377441406,0,0,0,0
8.4,1788170952402,0.0,0.0,-0.0038853483274579,-0.0019287790637463,0.70194011926651,0.7122228741645813,0.0,0.0,0.0,0.0001020831259666,-0.0001025940655381,9.984823918784969e-07,-0.0005050394684076,0.0043076258152723,-0.9073121547698976,0.4204351902008056,7.886644399126976e-05,-0.0001209006438181,-1.525696390693718e-10,0.0106999278068542,0.0250153541564941,-0.0204849243164062,0,0,0,0
8.5,1788170952502,0.0,0.0,-0.0038813445717096,-0.0019302816363051,0.7019400596618652,0.7122228741645813,0.0,0.0,0.0,7.118036592146382e-05,-0.0001537252246635,-2.361455699428916e-06,-0.000511260703206,0.0043008355423808,-0.907312273979187,0.4204352498054504,7.406344762496743e-05,-0.0001791804744063,-1.985149291583093e-06,-0.0114456415176391,0.0032708644866943,0.0079622268676757,0,0,0,0
8.6,1788170952602,0.0,0.0,-0.0038743182085454,-0.0019332374213263,0.7019401788711548,0.7122227549552917,0.0,0.0,0.0,5.93810727878008e-05,-0.0001312498643528,0.0,-0.0005141431465744,0.0042975367978215,-0.907312273979187,0.4204352498054504,7.12237181471771e-05,-0.0001600311212714,-2.8504004382804965e-10,-0.0040786862373352,-0.0038657784461975,0.0059280395507812,0,0,0,0
8.7,1788170952702,0.0,0.0,-0.003867267165333,-0.0019367996137589,0.7019404172897339,0.7122225165367126,0.0,0.0,0.0,-8.323659130837768e-06,-5.132687510922551e-05,7.235506927827373e-06,-0.0005184141919016,0.0042941141873598,-0.907312273979187,0.4204352498054504,-2.367358181526905e-05,-3.735809464652568e-05,1.8109463400688595e-11,-0.0032230615615844,-0.0102541446685791,-0.0018339157104492,0,0,0,0
8.8,1788170952802,0.0,0.0,-0.0038677605334669,-0.0019377360586076,0.7019404768943787,0.7122225165367126,0.0,0.0,0.0,-4.012955832877197e-05,-1.2766601685143542e-05,1.1858671769005014e-06,-0.0005187643691897,0.0042952205985784,-0.907312273979187,0.4204352498054504,-1.8850655938710205e-06,1.276417899849938e-05,-4.903621819690795e-13,0.0113295912742614,-0.003442108631134,0.0244197845458984,0,0,0,0
8.9,1788170952902,0.0,0.0,-0.0038681209553033,-0.0019378833239898,0.7019404768943787,0.7122225165367126,0.0,0.0,0.0,-1.807098124118056e-05,7.434116469084984e-06,1.4961743772801128e-06,-0.0005178768187761,0.0042926995083689,-0.907312273979187,0.4204352498054504,7.49153307336235e-05,-1.6048210784605085e-05,-2.9552098532999185e-11,-0.0067319869995117,-0.00401371717453,-0.0227222442626953,0,0,0,0
9.0,1788170953002,0.0,0.0,-0.0038665977772325,-0.0019362788880243,0.7019404768943787,0.7122225165367126,0.0,0.0,0.0,6.351334013743326e-05,-1.0297699191141874e-05,0.0,-0.0005171317607164,0.0042890170589089,-0.907312273979187,0.4204352498054504,0.0001245739753051,-2.8651372112728496e-05,-5.823043600014854e-11,0.0057812929153442,0.0009525418281555,-0.022247314453125,0,0,0,0
9.1,1788170953102,0.0,0.0,-0.0038623008877038,-0.0019337143748998,0.7019404768943787,0.7122223973274231,0.0,0.0,0.0,0.000137383933179,-3.2190415367949754e-05,2.441702690703096e-06,-0.0005164705216884,0.0042847674340009,-0.907312273979187,0.4204352498054504,0.0001746814589815,-5.381420250198944e-05,-9.811926422321281e-11,0.012600839138031,0.0129784345626831,0.0106496810913085,0,0,0,0
9.2,1788170953202,0.0,0.0,-0.0038520998787134,-0.0019292600918561,0.7019402980804443,0.712222695350647,0.0,0.0,0.0,0.0002046052686637,-0.0001007726677926,-6.056769962015096e-06,-0.0005179429426789,0.004267368465662,-0.9073123931884766,0.4204353094100952,0.0001567624776641,-0.0001313246076244,-3.1759699151127206e-10,0.0099868178367614,-0.003316044807434,0.0159816741943359,0,0,0,0
9.3,1788170953302,0.0,0.0,-0.0038321809843182,-0.0019286925671622,0.7019400000572205,0.7122231125831604,0.0,0.0,0.0,8.138082921504974e-05,-0.0001344698976026,-9.567619599692987e-06,-0.0005219643935561,0.0042589418590068,-0.9073123931884766,0.4204353094100952,7.130350700601666e-05,-0.0001232872967069,-1.829904116811474e-06,-0.0026001334190368,0.0188382267951965,-0.0134210586547851,0,0,0,0
9.4,1788170953402,0.0,0.0,-0.0038261853624135,-0.0019311148207634,0.7019400596618652,0.7122231721878052,0.0,0.0,0.0,5.423795664682984e-05,-0.0001461145147914,0.0,-0.0005278522148728,0.004252441227436,-0.9073123931884766,0.4204353094100952,4.785515385181216e-05,-0.0001593721508987,-1.0356485634462038e-10,-0.0009932518005371,-0.009693443775177,-0.0096998214721679,0,0,0,0
9.5,1788170953502,0.0,0.0,-0.0038261853624135,-0.0019311148207634,0.7019400596618652,0.7122231721878052,0.0,0.0,0.0,5.423795664682984e-05,-0.0001461145147914,0.0,-0.000530301593244,0.0042495727539062,-0.9073123931884766,0.4204353094100952,6.161976984933832e-05,-0.0001045771237781,-1.9903388174923844e-06,-0.0008455514907836,-0.0154235959053039,0.013711929321289,0,0,0,0
9.6,1788170953602,0.0,0.0,-0.0038261853624135,-0.0019311148207634,0.7019400596618652,0.7122231721878052,0.0,0.0,0.0,5.423795664682984e-05,-0.0001461145147914,0.0,-0.000532635487616,0.0042460151016712,-0.9073123931884766,0.4204353094100952,6.12224665005228e-05,-9.934855430175304e-05,-1.604162127710171e-10,0.0044478178024291,-0.0280112624168396,0.0061120986938476,0,0,0,0
9.7,1788170953702,0.0,0.0,-0.0038123494014143,-0.0019340859726071,0.7019404172897339,0.7122228741645813,0.0,0.0,0.0,6.529910751851276e-05,-4.5037089876132086e-05,-8.545430887352268e-07,-0.0005332622677087,0.0042412402108311,-0.9073123931884766,0.4204353094100952,1.294400900689356e-05,3.686057639203542e-05,9.586401351235229e-12,-0.006946325302124,0.0226398706436157,0.0116786956787109,0,0,0,0
9.8,1788170953802,0.0,0.0,-0.0038130306638777,-0.0019325262401252,0.7019404172897339,0.7122228741645813,0.0,0.0,0.0,6.735326678608544e-06,5.359179704100825e-05,0.0,-0.0005302848294377,0.0042426381260156,-0.9073123931884766,0.4204353094100952,-8.60918631925818e-06,0.0001159128810869,1.7603286383595573e-06,0.0082417726516723,-0.0147787928581237,-0.0081233978271484,0,0,0,0
9.9,1788170953902,0.0,0.0,-0.0038196132518351,-0.0019284335430711,0.7019405961036682,0.7122227549552917,0.0,0.0,0.0,-6.500424206024036e-05,0.0001749910734361,6.04427032158128e-06,-0.0005241017788648,0.0042499816045165,-0.9073123931884766,0.4204353094100952,-8.617359100198443e-05,0.0001127061552825,-1.5178054778999251e-10,-0.0258736014366149,0.00928795337677,-0.0132036209106445,0,0,0,0
10.0,1788170954002,0.0,0.0,-0.0038316585123538,-0.0019267603056505,0.7019402980804443,0.7122228145599365,0.0,0.0,0.0,-9.701590170152484e-05,0.000118581818242,-7.864493454690091e-06,-0.0005207872018218,0.0042570875957608,-0.9073123931884766,0.4204353094100952,-8.750616002880931e-05,0.000115783699698,1.9836927484963563e-06,-0.0096179842948913,-0.0032716393470764,-0.009068489074707,0,0,0,0
10.1,1788170954102,0.0,0.0,-0.003837498370558,-0.0019263722933828,0.7019401788711548,0.7122229337692261,0.0,0.0,0.0,-7.158626249292865e-05,7.15391433914192e-05,0.0,-0.0005184523761272,0.0042624529451131,-0.9073123931884766,0.4204353094100952,-7.020317485331511e-05,6.956037665809822e-05,-9.46319836205356e-11,0.0008746981620788,0.002055287361145,-0.0234708786010742,0,0,0,0
10.2,1788170954202,0.0,0.0,-0.0038399307522922,-0.0019270426128059,0.7019401788711548,0.7122229337692261,0.0,0.0,0.0,-5.555443203775212e-05,2.39598193729762e-05,0.0,-0.0005182949826121,0.0042652124539017,-0.9073123931884766,0.4204353094100952,-5.498115458753736e-05,1.8647687783889096e-05,-1.541755981518029e-11,-0.0120781660079956,0.0055521130561828,-0.0077762603759765,0,0,0,0
10.3,1788170954302,0.0,0.0,-0.0038406541571021,-0.0019276852253824,0.7019401788711548,0.7122229337692261,0.0,0.0,0.0,-8.539478244529164e-07,-1.000204065348953e-05,0.0,-0.0005186907947063,0.0042657880112528,-0.9073123931884766,0.4204353094100952,4.27854619874843e-06,-1.6568620299050566e-05,-7.676785451698221e-13,-0.0070517659187316,0.0140056014060974,0.013681411743164,0,0,0,0
10.4,1788170954402,0.0,0.0,-0.0038403808139264,-0.0019273967482149,0.7019401788711548,0.7122229337692261,0.0,0.0,0.0,8.301422894874122e-06,1.37402867039782e-05,0.0,-0.0005180267617106,0.0042655821889638,-0.9073123931884766,0.4204353094100952,7.654976926239745e-06,2.737240813562831e-05,3.1228352310988282e-12,0.0076203346252441,-0.0005080699920654,0.0299310684204101,0,0,0,0
10.5,1788170954502,0.0,0.0,-0.0038441761862486,-0.0019259011605754,0.7019400596618652,0.7122231125831604,-5.97851982483231e-07,-8.687991347424743e-09,-1.6549960804914922e-09,-6.521503382828087e-05,8.237246220232919e-05,-8.370843715965748e-06,-0.0005153333768248,0.0042700683698058,-0.9073123931884766,0.4204353094100952,-0.0001217687910842,0.0001100975821077,-1.8102787111055518e-10,0.004717469215393,0.009613037109375,0.0189695358276367,0,0,0,0
10.6,1788170954602,0.0,0.0,-0.0038513238541781,-0.0019268763717263,0.7019398808479309,0.7122231721878052,0.0,0.0,0.0,-0.0001550675951875,0.0001101140951504,-7.028559593891259e-06,-0.0005137380212545,0.0042789848521351,-0.907312273979187,0.4204352498054504,-0.0002029426109327,0.0001373678936735,-5.025880345120035e-10,-0.0038279294967651,0.0032466053962707,-0.0130977630615234,0,0,0,0
10.7,1788170954702,0.0,0.0,-0.0038630720227956,-0.0019293616060167,0.7019397616386414,0.71222323179245,0.0,0.0,0.0,-0.0001817593438317,0.0001116933926823,3.580454176699277e-06,-0.0005124704912304,0.0042885607108473,-0.907312273979187,0.4204352498054504,-0.0001615693998694,0.0001061535093679,-2.746418642757624e-10,0.0105863809585571,0.0014883875846862,-0.0165119171142578,0,0,0,0
10.8,1788170954802,0.0,0.0,-0.0038679223507642,-0.0019299722043797,0.7019397616386414,0.7122231721878052,0.0,0.0,0.0,-0.0001540727971587,0.0001178154780063,1.1824040484498255e-06,-0.000510074198246,0.004295970313251,-0.907312273979187,0.4204352498054504,-0.0001008752579153,0.0001158590249066,1.9927304995148395e-06,0.0033725500106811,-0.0350130796432495,0.0086145401000976,0,0,0,0
10.9,1788170954902,0.0,0.0,-0.0038782886695116,-0.0019294974626973,0.7019397616386414,0.7122231721878052,0.0,0.0,0.0,-6.89255612087436e-05,6.761684926459566e-05,0.0,-0.0005076322704553,0.0043019065633416,-0.907312273979187,0.4204352498054504,-7.023616257078937e-05,6.777093500026762e-05,-9.210287163744532e-11,0.0030379891395568,0.0006998777389526,0.0015172958374023,0,0,0,0
11.0,1788170955002,0.0,0.0,-0.003879876807332,-0.0019292403012514,0.7019395232200623,0.7122234106063843,-5.96317531344006e-07,-8.666101996422986e-09,-1.6799797668474964e-09,-1.774238990037702e-05,2.5942654247046448e-05,-1.3120422408974264e-05,-0.0005068089812994,0.0043034488335251,-0.907312273979187,0.4204352498054504,-1.7565924483105966e-05,2.0714061941021185e-05,-5.459485145718047e-12,-0.011599063873291,-0.0283130407333374,0.0068588256835937,0,0,0,0
11.1,1788170955102,0.0,0.0,-0.0038806984666734,-0.0019294563680887,0.7019394636154175,0.712223470211029,0.0,0.0,0.0,-2.929647234850563e-05,1.6842694094520994e-05,-3.5555769954953576e-06,-0.0005080560222268,0.0043042665347456,-0.907312273979187,0.4204352498054504,-1.6336870395732523e-05,-4.02936996548633e-05,1.009460665586256e-11,-0.001228928565979,0.0059301257133483,-0.0105705261230468,0,0,0,0
11.2,1788170955202,0.0,0.0,-0.0038799373432993,-0.0019321207655593,0.7019395232200623,0.7122234106063843,7.446116952350378e-07,1.082183756698588e-08,2.096835615886275e-09,-1.5725827324786223e-05,-3.5326385841472074e-05,2.978772954520537e-06,-0.0005104979500174,0.0043040057644248,-0.907312273979187,0.4204352498054504,-6.297919768814774e-06,-6.714866648415828e-05,6.331876157671238e-12,-0.0070573091506958,-0.0015799403190612,0.0160160064697265,0,0,0,0
11.3,1788170955302,0.0,0.0,-0.003875971538946,-0.0019340200815349,0.7019395232200623,0.7122234106063843,0.0,0.0,0.0,4.517396882874891e-05,-4.729280408355408e-05,0.0,-0.000512670725584,0.0043016728013753,-0.907312273979187,0.4204352498054504,4.399677784736476e-05,-4.54372497277015e-05,-3.1949122500064266e-11,-0.0013213157653808,0.0161316990852355,-0.0119361877441406,0,0,0,0
11.4,1788170955402,-1.2957746982574463,1.183098554611206,-0.0039456849917769,-0.0019657243974506,0.7023437023162842,0.711824357509613,0.0017732880137879,-0.0021102928536897,5.17978585955637e-07,-0.0029429644346237,0.0009711342281661,0.0227512586861848,-0.0005351807922124,0.0042412774637341,-0.9050321578979492,0.4253217875957489,0.0066417966306854,-0.0051053064826532,0.3295179093815183,-0.367178201675415,0.976926326751709,-0.5732221603393555,212,257,-11545,11945
11.5,1788170955502,-3.633802890777588,3.6056337356567374,-0.0037817847914993,-0.0020867022685706,0.7327309250831604,0.6805048584938049,0.0050060192594997,0.0145584046301571,-3.437889635937096e-06,-0.0053789601661264,-0.0036868203897029,1.0619561672210691,-0.0006763460114598,0.0042512016370892,-0.8850487470626831,0.4654783904552459,0.0023145568451178,-0.0085021180700954,1.192513241752533,0.1887863874435424,-0.6950603723526001,0.2915258407592773,76,124,-10994,10924
11.6,1788170955602,-3.183098554611206,3.549295663833618,-0.0037898942828178,-0.002173428190872,0.7603966593742371,0.6494442224502563,0.0038406205110291,0.0040181908981519,-4.400529626553912e-07,-0.0063350554555654,-0.0086855962872505,0.9835113883018494,-0.0008848411962389,0.004242462106049,-0.8628256916999817,0.5054829120635986,-0.0029526642595338,-0.0195489921243696,0.9882576950027372,0.1890174746513366,-0.1716750264167785,-0.1660852432250976,75,151,-10633,10729
11.7,1788170955702,-3.2676055431365967,3.380281686782837,-0.0036029685288667,-0.0024639281909912,0.7978934645652771,0.6027826070785522,0.0029745032629475,-0.0054497978175158,1.8852722215144496e-06,-0.0029282160103321,-0.0150411771610379,0.9972962141036988,-0.0010682763531804,0.0041917329654097,-0.831040620803833,0.5561949610710144,0.00154578034363,-0.0025575365965192,1.1485026660584512,-0.1260762810707092,0.2442265152931213,-0.1172294616699218,117,91,-10580,10100
11.8,1788170955802,-3.2676055431365967,3.2957746982574463,-0.0036098319105803,-0.0024986637290567,0.8097042441368103,0.5868217349052429,0.0101352168137176,-0.0011257813157613,1.907238344497477e-07,-0.0030183519702404,-0.0048758825287222,0.9945083856582642,-0.0014485782012343,0.0041888179257512,-0.8144079446792603,0.5802758932113647,-0.0059645084401865,-0.0233300526183735,0.9824037924335348,0.0458789467811584,-0.2860652208328247,-0.0540199279785156,86,107,-10568,10383
11.9,1788170955902,-3.3521127700805664,3.2957746982574463,-0.0030104606412351,-0.0029155744705349,0.8511875867843628,0.5248449444770813,0.0033861462762198,-0.0040401634023278,8.957360365857213e-07,-0.0031150798313319,-0.0109898820519447,0.9744787216186525,-0.0017223693430423,0.0038148360326886,-0.7781187891960144,0.6281032562255859,-0.0006736138324627,-0.0098230792016489,0.9723725697759832,0.1064005494117736,-0.0783853530883789,0.0189533233642578,79,140,-10167,10469
12.0,1788170956002,-3.2957746982574463,3.380281686782837,-0.0026264088228344,-0.0029718154110014,0.8788691759109497,0.4770463705062866,0.0070774839097876,-0.0022786952215729,4.045634272932983e-06,0.0030285292305052,-0.0145522588863968,1.017608880996704,-0.0019112844020128,0.0034751556813716,-0.7456262111663818,0.6663526892662048,0.0051733263168588,-0.0148465335952229,1.0347757655550842,0.1886093020439148,-0.0468308329582214,0.1936626434326172,109,72,-10206,9890
12.1,1788170956102,-3.239436626434326,3.2676055431365967,-0.0024485168978571,-0.0033613650593906,0.9014739990234376,0.4328131973743438,0.0092228369196572,-0.0045184541712024,4.13646716081138e-06,-0.0042887143790721,-0.0182240977883338,1.013270139694214,-0.0024825157597661,0.0032776370644569,-0.7046988606452942,0.7094945907592773,-0.0012707950805453,-0.0274580018588931,1.0976384645360877,-0.1753948330879211,0.3572655916213989,-0.1205244064331054,99,88,-9542,9421
12.2,1788170956202,-1.1267606019973757,1.211267590522766,-0.0023330738767981,-0.0033701891079545,0.91852605342865,0.395339161157608,0.0093903724800116,-0.0060167646780706,3.513558725748908e-07,0.0030250120908021,-0.0012053383979946,0.8670307397842407,-0.0024050902575254,0.0032319640740752,-0.6773988604545593,0.7356049418449402,0.0055879627826912,-0.002585910922678,0.7704408913847122,0.3405647873878479,-0.1417127847671508,0.1292839050292968,8,42,-633,93
12.3,1788170956302,0.0,0.0,-0.0019967094995081,-0.0035259653814136,0.9231482148170472,0.3844229578971863,0.0061945922025857,-0.0001443229895987,5.580627133905587e-07,-0.0021187928505241,-0.0150223514065146,-0.0131846582517027,-0.0026839040219783,0.0030306307598948,-0.6735848188400269,0.7390989661216736,-0.0026662506636608,-0.0097273942356612,-0.0803232081417458,-0.1463268399238586,-0.091280996799469,-0.0216903686523437,0,0,0,0
12.4,1788170956402,0.0,0.0,-0.0020478528458625,-0.0034438318107277,0.923262357711792,0.3841490447521209,-0.0020183182623747,-0.0003349462388686,-2.079956882907572e-07,-6.628755363635719e-05,0.0035459850914776,0.0174240507185459,-0.0025418102741241,0.0030986368656158,-0.6732114553451538,0.7394391894340515,-0.0001625958169935,0.00290986677836,-3.980066667861178e-05,-0.1417403817176818,-0.0709998607635498,0.0035476684570312,0,0,0,0
12.5,1788170956502,0.0,0.0,-0.0020309751853346,-0.0034246768336743,0.923246443271637,0.3841875791549682,8.320707098197523e-05,-9.614843087400848e-05,-7.151148583060458e-08,0.0004735607071779,0.0005573047674261,0.0009557186858728,-0.0025484589859843,0.0030510034412145,-0.6731913089752197,0.7394576072692871,0.0002186663228392,-0.0025250742976592,-0.0006655505515142,0.0495455265045166,0.0091745257377624,0.0316648483276367,0,0,0,0
12.6,1788170956602,0.0,0.0,-0.0020506037399172,-0.0034466630313545,0.9232510924339294,0.3841762244701385,1.6466365919627353e-05,-1.9712752273792745e-05,-1.3724190432958952e-07,-0.0010126752313226,0.0005596302216872,0.0002010332536883,-0.002535892650485,0.0030758762732148,-0.6731653809547424,0.7394812107086182,0.00160684212915,-0.0001160491543258,0.0010196220343673,-0.0181291103363037,0.0111626982688903,0.0205974578857421,0,0,0,0
12.7,1788170956702,0.0,0.0,-0.002012787386775,-0.0034317204263061,0.9232454299926758,0.3841903209686279,-5.72418558047498e-05,6.698087255494839e-05,-1.3116484370171752e-07,-0.0004810554382856,0.0005671895341947,-0.0006547237280756,-0.0025585731491446,0.0030537908896803,-0.6731889247894287,0.7394598722457886,-0.0006635284779006,-0.0002735888999869,-0.0003954004204213,0.0333980917930603,0.0076674818992614,0.0064411163330078,0,0,0,0
12.8,1788170956802,0.0,0.0,-0.002025093184784,-0.0034455116838216,0.9232533574104308,0.3841708600521087,6.004714551641324e-05,-7.075025754673185e-05,-1.0903594588416295e-09,-0.0005766843096353,0.0001973716716747,0.0006934597040526,-0.0025738598778843,0.0030628079548478,-0.6731500625610352,0.7394951581954956,-0.000406743274084,0.0004791182103387,0.0002957803198437,0.0081704258918762,-0.008171796798706,0.0098581314086914,0,0,0,0
12.9,1788170956902,0.0,0.0,-0.0020353631116449,-0.0034267024602741,0.9232659339904784,0.3841405212879181,3.599101807837865e-05,-4.249472558062633e-05,3.008151954918568e-07,0.0006870589568279,-0.0002921920968219,0.000411631364841,-0.0025391224771738,0.0030707921832799,-0.6731553673744202,0.7394903898239136,0.0009721937107137,-0.0002637147531062,0.0002797027854818,0.0157238841056823,0.010991096496582,0.0566673278808593,0,0,0,0
13.0,1788170957002,0.0,0.0,-0.0020087319426238,-0.003427495015785,0.9232594966888428,0.3841564059257507,-6.65837868753368e-05,7.796123934252992e-05,-5.64554516042815e-08,0.0002664985950104,-0.0006076397839933,-0.0007696462562307,-0.002553854137659,0.0030430294573307,-0.6731539964675903,0.7394916415214539,1.2874460987040938e-05,-0.0004729572997746,0.0003067829818886,0.023752212524414,-0.0042635202407836,-0.0074329376220703,0,0,0,0
13.1,1788170957102,0.0,0.0,-0.0020088031888008,-0.003415695624426,0.923279583454132,0.384108304977417,0.00018031678035,-0.0002109693823761,-2.79676838554696e-07,0.0004317458951845,0.0001750040537444,0.0020775296725332,-0.0025418028235435,0.0030553033575415,-0.6731185913085938,0.7395239472389221,-0.0008536508584746,0.0012847478451644,-0.0007428549031174,-0.0134452581405639,-0.0103427767753601,-0.0052690505981445,0,0,0,0
13.2,1788170957202,-1.2394366264343262,1.211267590522766,-0.0021588027011603,-0.0034695868380367,0.923658013343811,0.3831959962844848,0.0002101658062107,-0.0010950548707207,5.819089395704778e-09,-0.0032977266237139,0.0032859025523066,0.0316754654049873,-0.002538695000112,0.003067523241043,-0.673076868057251,0.7395617961883545,-0.0004199120200223,9.915462769190448e-05,0.0014569065808495,-0.0415717959403991,0.0201253294944763,0.0079603195190429,353,370,-12417,12213
13.3,1788170957302,-3.549295663833618,3.633802890777588,-0.0020393063314259,-0.0033719935454428,0.9393488764762878,0.3429405093193054,0.0071260444355846,-0.0039654832354648,1.0824823904266374e-06,-0.001869473955594,-0.0037232700269669,1.1225098371505735,-0.0024164402857422,0.0030956417322158,-0.6353848576545715,0.7721856236457825,0.0050368878236669,-0.0038425361090351,1.1656498900300258,2.467632293701172e-05,-0.2084290385246276,0.0323057174682617,71,78,-10620,10232
13.4,1788170957402,-3.183098554611206,3.380281686782837,-0.0018264105310663,-0.0033122720196843,0.9543611407279968,0.2986308932304382,0.0056959426622385,-0.0127332324034549,6.989605365851067e-07,0.0053305369801819,-0.0115597061812877,1.0018409490585327,-0.0025059217587113,0.0027826400473713,-0.5990735292434692,0.8006852269172668,0.0068159623475023,-0.0142433061803313,1.0888557634997678,-0.3821563124656677,0.1541106700897216,-0.2193078994750976,84,105,-10788,10006
13.5,1788170957502,-3.380281686782837,3.492957830429077,-0.0017181939911097,-0.003221372840926,0.9678730368614196,0.2514131367206573,0.0073300786444281,-0.0109558222094536,-1.1905307114152255e-06,0.0054670763202011,0.0045022326521575,0.9891194701194764,-0.0025060130283236,0.0028377939015626,-0.5513975620269775,0.8342339992523193,-0.0088047885855887,0.0021092917595475,0.9575039076380232,-0.4187352061271667,0.0403520464897155,0.2685861587524414,102,67,-10186,9563
13.6,1788170957602,-3.323943614959717,3.4084506034851074,-0.0019497110042721,-0.0035266221966594,0.9801166653633118,0.198381245136261,0.0060479621220378,-0.0098721718796092,5.1848868387467196e-08,-0.0091385534033179,0.007496225181967,1.002649426460266,-0.0027209529653191,0.0031070513650774,-0.5133926272392273,0.8581438660621643,-0.0160253140031578,0.0076070672614015,0.929798406553885,-0.2165519595146179,-0.0270923376083374,0.0752134323120117,83,94,-10212,9837
13.7,1788170957702,-3.1549296379089355,3.1549296379089355,-0.0017873598262667,-0.0038583676796406,0.9886561632156372,0.1501361578702926,0.0085535895844443,-0.013745973203424,-8.820456109024734e-07,-0.0058526564389467,-5.533063449547626e-05,0.979681670665741,-0.0031341277062892,0.0029238685965538,-0.4707751870155334,0.8822428584098816,-0.0163975113333921,-0.007401036367958,0.9445653701583216,-0.2860262393951416,0.1047852039337158,0.0251922607421875,124,112,-10924,10626
13.8,1788170957802,-3.4084506034851074,3.2676055431365967,-0.0014070693869143,-0.0039731287397444,0.99140727519989,0.1307433396577835,0.0003474769152937,-0.0069009669391844,1.0528411580983758e-06,-0.0040173935703933,-0.0236288197338581,0.9784391522407532,-0.0034827189520001,0.0026007164269685,-0.4269300997257232,0.9042741656303406,-0.0120016209017289,-0.0074086769927163,1.0511460735990243,-0.1571723818778991,0.1365166306495666,0.2917366027832031,102,109,-9923,10189
13.9,1788170957902,-3.239436626434326,3.239436626434326,-0.0016935216262936,-0.004482552409172,0.9983069896697998,0.0579673536121845,0.0047814703426515,-0.0110039172050864,4.892553967668397e-07,-0.013461286202073,0.0069571617059409,0.9693408012390136,-0.0037626205012202,0.0030458234250545,-0.3870045840740204,0.9220651388168336,-0.0202112500467677,-0.003927376916246,0.9025074235217928,-0.1731534600257873,0.1436828374862671,-0.0297937393188476,119,117,-10710,10532
14.0,1788170958002,-3.323943614959717,3.183098554611206,-0.001558972056955,-0.0046464782208204,0.9999006986618042,0.0132129732519388,0.0079799878294513,-0.0131870521423466,-3.137265105816581e-07,-0.0065099201165139,0.0076035424135625,0.996499478816986,-0.0040437299758195,0.0030534509569406,-0.3409858047962188,0.9400547742843628,-0.0218804805471123,-0.0035476187571826,0.9396591933838826,-0.2031898498535156,0.224230945110321,-0.3402996063232422,91,149,-10211,10641
14.1,1788170958102,-1.7183098793029783,1.6056338548660278,0.0010839268798008,0.0052321730181574,-0.999126672744751,0.0414400845766067,0.0081147446035779,-0.0102195004958779,1.0834111483414846e-06,-0.0077750170603394,-0.0019270359771326,0.7916970252990723,-0.004564831033349,0.0027312682941555,-0.2930534482002258,0.956081211566925,-0.0016644639400825,-0.0100611594260914,0.6313098141186259,0.3049728274345398,-0.4046660661697387,-0.0568819046020507,61,70,-5891,5994
14.2,1788170958202,0.0,0.0,0.0010410837130621,0.0052164606750011,-0.9987085461616516,0.0505263172090053,0.0050814567968252,-0.0065125082167163,9.945387634170475e-08,9.432838123757392e-05,-0.0045276340097188,0.4548126459121704,-0.0045242281630635,0.0026849610731005,-0.2832956314086914,0.9590181708335876,-0.000824040321232,-0.0077303096850018,0.068331352053727,0.1106985807418823,-0.2287861704826355,0.0992593765258789,8,10,1820,-1982
14.3,1788170958302,2.0,-2.3943662643432617,0.000897608930245,0.0052069565281271,-0.9984103441238404,0.0561140775680542,0.0032310472872009,0.0018561162068588,2.097619573548581e-07,-0.0022948128171265,-0.0068004922941327,-0.011545549146831,-0.0045242281630635,0.0026849610731005,-0.2832956314086914,0.9590181708335876,-0.000824040321232,-0.0077303096850018,0.068331352053727,0.1106985807418823,-0.2287861704826355,0.0992593765258789,244,271,13328,-12734
14.4,1788170958402,3.633802890777588,-3.183098554611206,-0.0007507648551836,0.0049093011766672,-0.9999483823776244,0.0088638756424188,-0.0041999684929667,-0.0001723077522627,-4.483207188960364e-06,0.00883558858186,-0.0224334206432104,-1.1341737508773804,-0.0045356350019574,0.0009705135598778,-0.3491716384887695,0.9370473623275756,0.0141345951602841,0.0071443343513687,-1.0321006282707033,-0.5590333342552185,-1.1150115728378296,-4.252118110656738,83,54,10248,-10222
14.5,1788170958502,3.183098554611206,-3.3521127700805664,0.0005746350507251,-0.004793977830559,0.9986159801483154,0.0523716621100902,0.0023568314208702,0.0127479992955996,-6.597879551331108e-06,-0.0054747606627643,0.0075079440139234,-1.0047630071640017,-0.0045598605647683,0.0010740319266915,-0.3907759487628937,0.9204738736152648,-0.0326712472878829,-0.1212146191296586,-0.9533006727438964,-0.8096063733100891,-0.6521058678627014,1.9938621520996092,95,88,10313,-10798
14.6,1788170958602,3.239436626434326,-3.2676055431365967,-0.0006569199031218,-0.0043997368775308,0.9951581954956056,0.0981858968734741,-0.0056080416904107,0.0093957383285234,-2.055156683950302e-05,-0.0039293547160923,-0.0001803875784389,-1.029026985168457,-0.0036234511062502,0.002896649762988,-0.4367992281913757,0.8995471000671387,-0.0093056796535291,0.1299007104101699,-1.1394816927760685,0.1213971376419067,-0.0623261928558349,0.5489826202392578,56,56,9887,-10446
14.7,1788170958702,3.014084577560425,-3.380281686782837,-0.0013715275563299,-0.0040864991024136,0.9892261028289796,0.146332561969757,-0.0106620682698226,0.0129453491633765,1.8963211288650527e-05,0.0061057657003402,0.0320055000483989,-0.9760287404060364,-0.0032359370961785,0.0028114700689911,-0.4756571650505066,0.8796202540397644,0.0043605854616069,-0.0122226056783493,-0.8988619476637938,0.1653773188591003,-0.5046665072441101,0.3587045669555664,128,89,11176,-9996
14.8,1788170958802,3.2676055431365967,-3.239436626434326,-0.0018059440189972,-0.0039144102483987,0.9854881167411804,0.1696897745132446,-0.0083931102029272,0.0091419058704668,6.238780436087665e-06,0.0049033327959477,0.022068178281188,-0.9395674467086792,-0.0029167123138904,0.0031917365267872,-0.5054898858070374,0.8628217577934265,-0.0005100035708992,0.0034505220316491,-1.066424571750973,-0.0463626980781555,0.6479440927505493,0.2242870330810547,116,134,10524,-10706
14.9,1788170958902,3.2676055431365967,-3.1549296379089355,-0.0020936215296387,-0.0033203922212123,0.9689280986785888,0.2473115921020507,-0.0034154388876409,0.0087495505824162,2.171126671195433e-06,0.0058742095716297,0.0136085925623774,-1.0178053379058838,-0.0024192100390791,0.0030912263318896,-0.5597504377365112,0.828652024269104,0.0049854499002586,0.0142997867168003,-1.0584903066271514,-0.3158313632011413,-0.2025731205940246,0.3200998306274414,98,102,10418,-10913
15.0,1788170959002,3.239436626434326,-3.183098554611206,-0.0019420313183218,-0.003495875513181,0.956968069076538,0.2901657521724701,-0.0089179967083137,0.0118379265048723,-1.9078683054975405e-06,-0.0001896955654956,0.000577671395149,-0.9915308952331544,-0.0025699287652969,0.0032008979469537,-0.6069629788398743,0.7947195768356323,-0.0023904949873669,0.0203441947092897,-0.9065714633735938,0.0773064494132995,-0.1864147782325744,-0.2223100662231445,85,110,10320,-11066
15.1,1788170959102,3.2957746982574463,-3.0985915660858154,-0.0022581953089684,-0.0035397640895098,0.9417946338653564,0.3361626863479614,-0.0035963189151927,0.0117260002492968,1.3951101413612037e-06,0.0012045274488627,0.0110740726813673,-0.991724967956543,-0.0024548973888158,0.0034365430474281,-0.6415749192237854,0.7670487761497498,0.0022886968072863,0.01317185472056,-0.9542575145232988,-0.0954813361167907,-0.2545222640037536,-0.2053861618041992,74,141,10138,-11547
15.2,1788170959202,3.380281686782837,-3.183098554611206,-0.00251926924102,-0.0035316685680299,0.9219856262207032,0.3871997594833374,-0.0044107839318165,0.0091266224300373,1.535755111373954e-06,-0.0005665618227794,0.0134569173678755,-1.0101401805877686,-0.0024744505062699,0.0035632131621241,-0.6755985617637634,0.7372569441795349,-0.0007825881454383,0.0117850990899969,-0.9660731972766792,-0.2956324219703674,-0.3455857038497925,-0.089879035949707,65,123,9817,-11202
15.3,1788170959302,4.985915660858154,-2.0,-0.0025507372338324,-0.0035263036843389,0.9009974598884584,0.4338025450706482,0.0175389367003248,0.0029244582744312,1.5409733980427894e-06,0.0028294546063989,0.0142686227336525,-1.0499317646026611,-0.0026326905936002,0.0035011721774935,-0.7086796164512634,0.7055168747901917,0.0021746272931874,0.0119211117930453,-1.0021842267893295,0.9382310509681702,-0.2935522794723511,-0.0052042007446289,240,8,16228,-2895
15.4,1788170959402,8.22535228729248,1.436619758605957,-0.0028205851558595,-0.0032171760685741,0.8793005347251892,0.4762481153011322,0.097757793133687,-0.0004708467142744,-2.496328838883852e-05,0.0033530588261783,0.0120282936841249,-1.0234004259109497,-0.0020267609506845,0.0037870565429329,-0.7481734156608582,0.6634894013404846,-0.0009855900237378,0.0146692024938989,-1.1367614865804196,0.7428495287895203,-0.29507577419281,-0.3922662734985351,228,155,25256,8500
15.5,1788170959502,8.394366264343262,1.97183096408844,-0.0029178191907703,-0.0030358987860381,0.8542710542678833,0.5198107957839966,0.1871795226136837,0.0026941534486657,-0.0001233128295176,0.0080259954556822,0.018785435706377,-0.9640949368476868,-0.0018732557073235,0.0037711104378104,-0.7775859832763672,0.6287625432014465,0.0030744934223204,-0.0032123797748807,-0.9338617965071494,-0.1343323588371276,-0.4462438225746155,0.217534065246582,125,33,22592,5643
15.6,1788170959602,8.28169059753418,1.7183098793029783,-0.0035443988163024,-0.0027690175920724,0.830533504486084,0.5569506883621216,0.1783221727789876,6.462403310645062e-05,-1.5890635072430606e-05,-0.0036114701069891,0.0225493665784597,-1.021665334701538,-0.0012242970988154,0.004279782064259,-0.8135792016983032,0.5814371705055237,0.0083649030256815,0.0103480098517561,-0.991755611185392,0.1815783977508545,-0.5478537082672119,-0.4317226409912109,128,55,22497,6024
15.7,1788170959702,8.36619758605957,1.8591549396514893,-0.0039328332059085,-0.002391685731709,0.7960928678512573,0.6051568984985352,0.1783548996921621,0.0010366643644114,-7.101854887359188e-05,-0.0037261329125612,0.0082367388531565,-0.9681419730186462,-0.000924308784306,0.0045092115178704,-0.8382965326309204,0.5451952219009399,-0.0089940321258772,-0.0025609914101265,-0.9631444147987512,-0.1743794679641723,-0.5554546117782593,0.0893640518188476,135,61,22231,5638
15.8,1788170959802,8.535211563110352,1.6901408433914185,-0.004251645412296,-0.0016942500369623,0.784092903137207,0.6206265687942505,0.1732586294329461,-0.0052649043532889,-7.964232968802512e-05,0.0197297986596822,0.0380185693502426,-0.979090690612793,0.0001997575163841,0.00468410551548,-0.861628532409668,0.5075176954269409,0.0036446099799671,0.0316798097762434,-1.000988425588614,-0.2135111093521118,0.2079584002494812,1.010183334350586,122,102,21769,6505
15.9,1788170959902,8.0,2.2253520488739014,-0.0045552588999271,-0.0009923054603859,0.7527610063552856,0.6582773327827454,0.1835608456717876,-0.0029218947930485,-2.1027325083494632e-05,0.01125671248883,0.0221080407500267,-0.9685630798339844,0.0004980349913239,0.0044408459216356,-0.8828640580177307,0.4696073532104492,0.0065397668385317,-0.0182497210997486,-1.0614419734301594,0.3008172512054443,-0.6420050859451294,-0.4801340103149414,134,63,21206,6705
16.0,1788170960002,8.197182655334473,1.94366192817688,-0.00463886000216,-0.0006597572937607,0.7086762189865112,0.7055183053016663,0.1892453166263134,0.0066298059089454,-7.262219650313664e-05,0.0114635517820715,0.0208321940153837,-0.8645386695861816,0.0009700208902359,0.004510236904025,-0.9085758328437804,0.4176944494247436,0.0080095335214746,-3.8016110561424006e-05,-0.7950643242019974,0.2429197430610656,-0.427906334400177,-0.5387563705444336,142,10,22799,5206
16.1,1788170960102,7.97183084487915,2.0,-0.0048913587816059,-6.423052400350571e-05,0.6681618094444275,0.7439998984336853,0.1739075174252008,0.0003089522512233,-2.0790390941483483e-05,0.0098693817853927,0.0239294674247503,-0.9976575374603271,0.0015349518507719,0.0046478686854243,-0.9295697808265686,0.3686136603355407,0.0042340372830471,0.0162513800136101,-1.111531050255723,-0.4626905918121338,-0.1104145050048828,-0.1489419937133789,65,84,21121,7657
16.2,1788170960202,7.943662166595459,2.2253520488739014,-0.0049059996381402,-0.0002030057366937,0.6367760896682739,0.7710331082344055,0.1695996255340364,0.0042398518094741,-2.04015122148378e-05,0.0001788961235433,0.0063910190947353,-0.8509228229522705,0.0014065336436033,0.0046703703701496,-0.9432674646377563,0.3319980502128601,-0.001867637457816,-0.0053648668830843,-0.858542987533827,0.248736023902893,-0.4391529560089111,-0.1346311569213867,119,56,21624,6352
16.3,1788170960302,5.6619720458984375,1.5211267471313477,-0.0050800098106265,0.0001250682398676,0.6203746199607849,0.7842891216278076,0.1881030964610349,-0.0030010073236277,-2.573093033171674e-05,0.0056717246770858,0.0185772310942411,-0.8764712810516357,0.0021053794771432,0.004818788729608,-0.955126404762268,0.2961518466472626,0.0041727982546638,0.018181278791767,-0.7466589768511877,-0.913215160369873,0.0771114826202392,0.2971343994140625,25,37,12267,4460
16.4,1788170960402,3.239436626434326,1.042253494262695,-0.0051398547366261,0.000158063834533,0.5835861563682556,0.8120349049568176,0.1063416185197039,0.0044715044803798,1.3895350475832416e-05,0.000453854096122,-0.0053211529739201,-0.4709696471691131,0.0020288163796067,0.0047695003449916,-0.9628775715827942,0.2698888182640075,0.0056032671501861,0.0129159753962313,-0.3601475448173478,-0.9604979753494264,0.1390963792800903,-0.0422840118408203,9,6,6340,1941
16.5,1788170960502,0.6478873491287231,0.6197183132171631,-0.0051108910702168,0.0003798438701778,0.5705695152282715,0.8212332725524902,0.0203506899148055,0.0029356181580553,1.601525969638038e-06,0.0014757447643205,-0.0015703783137723,-0.1776024848222732,0.0020822035148739,0.004682938568294,-0.9655997157096864,0.2599827945232391,0.0026486541606171,0.0010607643860304,-0.14980074627427,-0.7237907648086548,0.2149408459663391,-0.0121984481811523,0,3,185,0
16.6,1788170960602,0.0,0.0,-0.0049620135687291,0.0002618790604174,0.5702564716339111,0.821451723575592,0.0004993309365963,-0.0014362175907946,5.257467590295547e-07,0.0012550292303785,-0.0041792765259742,0.0101457759737968,0.0019261697307229,0.0046230889856815,-0.9657214283943176,0.2595323622226715,-0.0016576669484807,-0.0024566980341889,-0.0027763315268523,-0.0158323645591735,-0.1248322129249572,-0.0123271942138671,0,0,0,0
16.7,1788170960702,0.0,0.0,-0.0050213830545544,0.0003178571350872,0.570206344127655,0.8214861154556274,3.572020807292502e-05,-4.127248591330834e-05,4.878717542177852e-07,-0.0001654279476497,0.0027856016531586,0.0004294706741347,0.0019680112600326,0.0046116402372717,-0.9657142758369446,0.2595586478710174,0.0001951667505572,-0.0031353294760407,-0.0005987089008075,0.108824610710144,-0.010324478149414,-0.0095043182373046,0,0,0,0
16.8,1788170960802,0.0,0.0,-0.0050208922475576,0.0002866920549422,0.5702037811279297,0.8214878439903259,-1.0958230764402308e-05,1.238264202311577e-05,2.9195147066848997e-08,-0.0006914497353136,-0.0010304915485903,-0.0001305875484831,0.0019392697140574,0.0046169813722372,-0.9657219052314758,0.2595305442810058,0.0005489110971856,0.0002434382821848,-0.0002289316346177,-0.0444549322128295,0.0113899111747741,0.0114679336547851,0,0,0,0
16.9,1788170960902,0.0,0.0,-0.0050075305625796,0.0002353719901293,0.5701799988746643,0.821504533290863,-0.0001122687223271,0.0001307268779688,3.533224107533168e-07,-5.1017785153817385e-05,-0.0003897974966093,-0.0012974481796845,0.0019204653799533,0.0046302136033773,-0.9657317399978638,0.2594940960407257,0.0011905692284617,8.113210998668441e-05,-0.0025872759190515,-0.0106918811798095,0.0134660005569458,0.0277891159057617,0,0,0,0
17.0,1788170961002,0.0,0.0,-0.0050094686448574,0.0002361035440117,0.5701746940612793,0.8215081691741943,0.0001287097854061,-0.0001510670624874,1.811240990735759e-07,-0.0002749390550889,-0.0004010928096249,0.0014793128939345,0.0018951892852783,0.0046227574348449,-0.9657303094863892,0.2594996690750122,0.0006808307799787,-0.0014365213615726,-0.0011004389676077,-0.0325720310211181,-0.0420441031455993,-0.0156469345092773,0,0,0,0
17.1,1788170961102,0.0,0.0,-0.0050099780783057,0.0002584313042461,0.5701798796653748,0.821504533290863,2.5554809859257387e-05,-3.10698324670548e-05,5.019142101809883e-07,0.0003670075384434,0.001725809299387,0.0003150432894472,0.001939439214766,0.0046230284497141,-0.9657204151153564,0.2595362961292267,0.0011536095231464,0.001037366745949,0.0019456925075358,0.0094616413116455,0.0294629335403442,0.0117788314819335,0,0,0,0
17.2,1788170961202,0.0,0.0,-0.004970219451934,0.0002362837549299,0.5701966881752014,0.8214931488037109,-1.4044091664017415e-05,1.6663048009492496e-05,4.5564169233103806e-08,-0.000250315235462,-0.0013895542360842,-0.0001729756477288,0.0019104517996311,0.0046080397441983,-0.9657132625579834,0.2595630288124084,0.0001872160948604,0.0004192218590951,0.0013965790839247,-0.0151517987251281,0.0239662528038024,0.0097999572753906,0,0,0,0
17.3,1788170961302,0.0,0.0,-0.0049934750422835,0.0002231867983937,0.5701953768730164,0.8214938640594482,-0.0001227552892868,0.0001443011530974,-1.9978732424225518e-07,-0.0003708010481204,-0.0003900721203535,-0.001416542334482,0.0018951138481497,0.004625272937119,-0.9657187461853028,0.25954270362854,-0.0001513136413611,-0.0004548300263205,-0.0025550115665652,-0.0182851552963256,-0.0096096992492675,-0.0027122497558593,0,0,0,0
17.4,1788170961402,0.0,0.0,-0.0049943081103265,0.0002408830914646,0.5702165365219116,0.821479082107544,9.05635632541885e-05,-0.0001057524851837,2.924612189388304e-07,0.0011903563281521,-0.000496277352795,0.0010459617478772,0.0019059982150793,0.0046165389940142,-0.9657136797904968,0.2595613598823547,0.0009030861257634,-0.0013490364307552,-0.0007622226005867,-0.0282752513885498,-0.0002306699752807,0.0117464065551757,0,0,0,0
17.5,1788170961502,0.0,0.0,-0.004997971933335,0.0002351358998566,0.5702041983604431,0.8214877247810364,-6.632457378475575e-05,7.857590277303322e-05,2.2452100501474427e-07,0.0003738785453606,0.0007793694385327,-0.0007529543945565,0.0018911203369498,0.0046254163607954,-0.965715229511261,0.2595557868480682,-0.0003408355389767,-0.0011761029213414,0.0001211140153735,-0.0125057101249694,0.0127150416374206,0.0224580764770507,0,0,0,0
17.6,1788170961602,0.0,0.0,-0.0049913618713617,0.0001987558789551,0.5701651573181152,0.821514904499054,-0.0001273766035469,0.0001487428505195,4.225029523701256e-07,-0.000234802821069,0.000764612108469,-0.0014615766704082,0.0018714033067226,0.0046315276995301,-0.9657283425331116,0.2595070004463196,-0.000230700675362,0.0006621648651219,-0.0011210267805516,-0.0100549459457397,-0.0087884068489074,0.0042009353637695,0,0,0,0
17.7,1788170961702,0.0,0.0,-0.0049385130405426,0.0002184850163757,0.5701980590820312,0.8214923739433289,0.0001106763346206,-0.0001299328661962,-3.6610743181777043e-07,0.0006865387549623,0.0004800182941835,0.0012799497926607,0.0018763979896903,0.0045787720009684,-0.9657166600227356,0.2595511674880981,0.0004150340927185,0.0003481870583713,0.0011213915179195,0.004815399646759,-0.0375127792358398,-0.0104646682739257,0,0,0,0
17.8,1788170961802,0.0,0.0,-0.0049494002014398,0.0002299200277775,0.5701952576637268,0.8214942812919617,-1.4846121811374518e-05,1.839469880405838e-05,5.573170799212546e-08,-0.0001210649497807,0.0007833233103156,-0.0001674428640399,0.0018545994535088,0.0045471442863345,-0.9657018184661864,0.2596073448657989,0.0008833288313123,-0.0028486906608249,0.0022570660193841,-0.0042997002601623,0.0217872262001037,0.0092267990112304,0,0,0,0
17.9,1788170961902,0.0,0.0,-0.004911336582154,0.0002320031635463,0.5702600479125977,0.8214494585990906,7.431887636781973e-05,-8.670434310751572e-05,-2.356015069662704e-07,0.0004498100897762,0.0004180440155323,0.0008541622664779,0.0018782215192914,0.0045379418879747,-0.9656991362571716,0.2596172094345093,0.0009220944796819,0.0002741070341302,0.000642860727173,-0.0247955918312072,0.0093166232109069,0.0073423385620117,0,0,0,0
18.0,1788170962002,0.0,0.0,-0.00489033292979,0.0002669489476829,0.5702279806137085,0.8214719295501709,-0.0001122378315831,0.0001311440165357,3.450460054290418e-07,0.0004565154085867,0.0004420036857482,-0.0012899399735033,0.001918114721775,0.0045092171058058,-0.9657061696052552,0.2595913410186767,0.0004871303178271,0.0012241282874292,0.0004931960012109,-0.0042111277580261,0.0273953676223754,0.0256004333496093,0,0,0,0
18.1,1788170962102,0.0,0.0,-0.0048866760917007,0.0003056323621422,0.5702550411224365,0.8214530944824219,3.217988262403005e-05,-3.806433381286745e-05,-9.877356987419244e-08,0.0006135775474831,0.0004916951293125,0.0003680876689031,0.001939401961863,0.0044955657795071,-0.9657005667686462,0.2596123218536377,0.0004079214694775,0.0004572847674349,9.91884942410502e-06,0.008854866027832,0.000705599784851,-0.012430191040039,0,0,0,0
18.2,1788170962202,0.0,0.0,-0.0048832758329808,0.0003281759563833,0.5702551603317261,0.8214529752731323,4.090975032574551e-07,-1.0962667470044088e-06,-5.915299267784012e-09,0.0003768916649278,0.0003937476722057,9.361014235764742e-06,0.001961606554687,0.0044836327433586,-0.9657004475593568,0.2596125602722168,0.00038934676254,0.0004267325169554,8.438467965520843e-06,-0.0074614882469177,0.0023331046104431,0.0162010192871093,0,0,0,0
18.3,1788170962302,0.0,0.0,-0.0048797377385199,0.0003585356753319,0.5702552199363708,0.8214530348777771,0.0,0.0,0.0,0.0003693389007821,0.0004255171515978,-1.194512719848717e-06,0.0019841445609927,0.0044725341722369,-0.9657004475593568,0.2596128284931183,0.0003626883834987,0.0004248165910311,7.906317332968634e-06,0.0039440393447875,0.0092890262603759,0.0049161911010742,0,0,0,0
18.4,1788170962402,0.0,0.0,-0.0048787966370582,0.0003723364789038,0.5702553987503052,0.8214529156684875,8.278168946230683e-07,-2.218321470343346e-06,-1.1782891516739329e-08,0.0003433190577197,0.0004290024226065,1.0654997822712176e-05,0.0020137950778007,0.0044609373435378,-0.9657003283500672,0.2596129477024078,0.0002710860915687,0.0004204089797206,3.985518921290876e-06,0.0150536894798278,-0.0029323101043701,0.0312271118164062,0,0,0,0
18.5,1788170962502,0.0,0.0,-0.0048824679106473,0.0004110732115805,0.5702551007270813,0.8214529752731323,-4.16631057801404e-07,1.11645712753485e-06,5.849947958556143e-09,0.0001796597352949,0.0004253539373166,-1.1916762332475628e-06,0.0020390972495079,0.0044568059965968,-0.9657003283500672,0.2596129477024078,0.0001878297277025,0.0004572977179884,2.1333577778096998e-06,-0.0184367299079895,-0.0131716728210449,-0.0052947998046875,0,0,0,0
18.6,1788170962602,0.0,0.0,-0.0048866774886846,0.00042878347449,0.5702551603317261,0.8214529752731323,0.0,0.0,0.0,0.000160963187227,0.0004220510600134,2.383837909292197e-06,0.0020570326596498,0.0044549880549311,-0.9657003283500672,0.2596129477024078,0.000162477172905,0.0004469450873666,2.1257707943994097e-06,-0.0217504501342773,0.0030813217163085,-4.9591064453125e-05,0,0,0,0
18.7,1788170962702,0.0,0.0,-0.00489222118631,0.0004512893501669,0.5702550411224365,0.8214529156684875,0.0,0.0,0.0,0.0001531798479845,0.000374157592887,2.3845932446420197e-06,0.002081318758428,0.0044521633535623,-0.9657003283500672,0.2596129477024078,0.0001504924602258,0.0003488562397876,1.983806647225833e-06,0.0121785402297973,0.011804461479187,0.0076179504394531,0,0,0,0
18.8,1788170962802,0.0,0.0,-0.0048939753323793,0.0004605697467923,0.5702551007270813,0.8214529752731323,0.0,0.0,0.0,0.0001550503220641,0.0003471605014055,2.399575805611676e-06,0.0020975777879357,0.0044490033760666,-0.9657002091407776,0.2596129179000854,0.0001639892846442,0.0003248242679171,1.9995209556589188e-06,0.0033254623413085,-0.0081517696380615,0.0007820129394531,0,0,0,0
18.9,1788170962902,0.0,0.0,-0.0048972340300679,0.0004884675145149,0.5702551007270813,0.8214528560638428,0.0,0.0,0.0,0.0001711775694275,0.0002908468595705,2.374487166889594e-06,0.0021139811724424,0.0044446242973208,-0.9657002091407776,0.2596129179000854,0.000185564930759,0.0002887225320449,7.983457566164098e-10,0.0052061676979064,0.0148769617080688,-0.0126256942749023,0,0,0,0
19.0,1788170963002,0.0,0.0,-0.0048965862952172,0.0005017789080739,0.5702551007270813,0.8214528560638428,0.0,0.0,0.0,0.0002013790508499,0.0002525332092773,2.3420823254127754e-06,0.0021275645121932,0.0044386694207787,-0.9657002091407776,0.2596129179000854,0.0002193227805644,0.0002617216557029,2.1182703559351738e-06,-0.0002175569534301,-0.0177303552627563,-0.0184946060180664,0,0,0,0
19.1,1788170963102,0.0,0.0,-0.004893840290606,0.0005196691490709,0.5702551007270813,0.8214528560638428,0.0,0.0,0.0,0.0002391317684669,0.0002355225151404,0.0,0.0021405844017863,0.0044314367696642,-0.9657002091407776,0.2596129179000854,0.0002369571414811,0.0002358056555033,8.360596016259314e-10,-0.0126168131828308,-0.0126811861991882,-0.0178127288818359,0,0,0,0
19.2,1788170963202,0.0,0.0,-0.0048936875537037,0.0005319905467331,0.5702551007270813,0.8214528560638428,0.0,0.0,0.0,0.0001218271136167,0.0001987315481528,0.0,0.0021579591557383,0.0044254455715417,-0.9657002091407776,0.2596129179000854,0.0001556266908907,0.000258923378329,1.983505715107164e-06,0.0002392530441284,-0.0142509341239929,0.0179767608642578,0,0,0,0
19.3,1788170963302,0.0,0.0,-0.0048959259875118,0.0005500039551407,0.5702551603317261,0.8214528560638428,-4.168141034257279e-07,1.1169500130055704e-06,5.590911450160223e-09,0.0001101586531149,0.0002381514204898,-2.3844015686336206e-06,0.0021724756807088,0.0044228062033653,-0.9657002091407776,0.2596129179000854,0.0001107985341408,0.0002533003874412,4.0068357071749257e-10,0.0147693157196044,0.0290843844413757,0.0158843994140625,0,0,0,0
19.4,1788170963402,0.0,0.0,-0.0048987017944455,0.0005598871503025,0.5702551603317261,0.821452796459198,0.0,0.0,0.0,7.368229853454977e-05,0.0002406528365099,2.3835309548303485e-06,0.0021836180239915,0.0044226506724953,-0.9657002091407776,0.2596129179000854,5.20759959996958e-05,0.0002427018289125,1.5533009415518262e-06,0.0023542046546936,-0.0045355558395385,0.0026226043701171,0,0,0,0
19.5,1788170963502,0.0,0.0,-0.0049033318646252,0.0005690972320735,0.5702552795410156,0.8214527368545532,0.0,0.0,0.0,8.8183514890261e-06,0.000146436956129,4.782834821526194e-06,0.0021907752379775,0.0044238986447453,-0.9657002091407776,0.2596129179000854,-7.015960797833441e-06,0.0001089685119344,-1.2076691206249038e-11,-0.0091322660446167,-0.0147306323051452,-0.0299386978149414,0,0,0,0
19.6,1788170963602,0.0,0.0,-0.0049064732156693,0.0005705072544515,0.5702553391456604,0.8214526176452637,-5.080217858732672e-07,1.3613646614271916e-06,6.767942413514794e-09,-4.1090697777690366e-05,4.401246769702993e-05,-5.812325071019586e-06,0.0021932059898972,0.0044273752719163,-0.9657002091407776,0.2596129179000854,-3.914276809594319e-05,2.41499455232396e-05,-1.418081520421928e-11,-0.0134891867637634,0.0140283703804016,0.0113172531127929,0,0,0,0
19.7,1788170963702,0.0,0.0,-0.004909498617053,0.0005701777990907,0.5702553987503052,0.8214525580406189,4.1288425374278913e-07,-1.1064203648864146e-06,-5.504287653987941e-09,-4.341301610111259e-05,1.8000435375142843e-05,3.5428840874374146e-06,0.0021934984251856,0.00442935526371,-0.965700089931488,0.259612888097763,-4.424735570129554e-05,2.669776968429487e-05,-1.7678474579587143e-11,0.0297099947929382,0.01768159866333,0.0167608261108398,0,0,0,0
19.8,1788170963802,0.0,0.0,-0.0049101687036454,0.0005701899062842,0.5702553987503052,0.8214525580406189,0.0,0.0,0.0,-2.7234495064476505e-05,1.96467535715783e-05,0.0,0.0021932106465101,0.0044306861236691,-0.965700089931488,0.259612888097763,-3.2925311788123234e-05,-1.835341327416672e-05,8.63194067681539e-12,0.0078208446502685,0.0158758163452148,-0.0045671463012695,0,0,0,0
19.9,1788170963902,0.0,0.0,-0.0049112923443317,0.0005662941839545,0.5702552795410156,0.8214526772499084,0.0,0.0,0.0,-6.232516170712188e-05,-6.32317314739339e-05,-1.1932274901482742e-06,0.0021919794380664,0.0044311881065368,-0.965700089931488,0.259612888097763,-3.633613546091048e-05,-4.769658909340018e-05,1.8612365944264447e-11,0.0202094316482543,-0.0072578787803649,-0.0151519775390625,0,0,0,0
20.0,1788170964002,0.0,0.0,-0.0049139959737658,0.0005609525833278,0.5702553987503052,0.8214526176452637,5.11166674595278e-07,-1.369790415239522e-06,-6.839410763387058e-09,-0.0001106693816836,-5.3834064601687714e-05,4.386225555208512e-06,0.002183630131185,0.0044389655813574,-0.965700089931488,0.259612888097763,-0.0001576674017734,-9.993541830295746e-05,-2.0321383165875453e-06,0.0035392045974731,-0.000819981098175,-0.0176200866699218,0,0,0,0
20.1,1788170964102,0.0,0.0,-0.0049179261550307,0.0005500903353095,0.5702551007270813,0.821452796459198,0.0,0.0,0.0,-0.0001345579657936,-0.0001020305426209,-4.774667559104273e-06,0.0021773492917418,0.0044438429176807,-0.965700089931488,0.259612888097763,-0.000131012393553,-9.719421695940848e-05,1.90678635425202e-10,-0.002009630203247,-0.0046691298484802,0.0096492767333984,0,0,0,0
20.2,1788170964202,0.0,0.0,-0.0049192439764738,0.0005453070625662,0.5702551007270813,0.8214527368545532,0.0,0.0,0.0,-8.73439566930756e-05,-7.425603689625859e-05,0.0,0.0021714325994253,0.0044476417824625,-0.965700089931488,0.259612888097763,-6.28923098830121e-05,-7.636498939739376e-05,7.528098419042425e-11,-0.0181699991226196,-0.0050566792488098,0.0170745849609375,0,0,0,0
20.3,1788170964302,0.0,0.0,-0.0049187908880412,0.0005399191286414,0.5702551603317261,0.8214526772499084,0.0,0.0,0.0,-2.9615404855576344e-05,-9.458520071348175e-05,0.0,0.00216681137681,0.0044478103518486,-0.965700089931488,0.259612888097763,-9.972805294850117e-06,-0.0001254088720422,-2.039150419505345e-06,-0.0185047388076782,-0.0125150680541992,-0.016977310180664,0,0,0,0
20.4,1788170964402,0.0,0.0,-0.0049152569845318,0.0005356976762413,0.5702552795410156,0.8214526772499084,0.0,0.0,0.0,2.008347655646503e-05,-0.0001016527094179,-1.4952363471820718e-06,0.0021611889824271,0.0044451095163822,-0.965700089931488,0.259612888097763,3.980305103912422e-05,-0.000128979258145,-1.9886758138400843e-06,0.0136338472366333,-0.0147840976715087,0.0006790161132812,0,0,0,0
20.5,1788170964502,0.0,0.0,-0.0049111060798168,0.0005324841476976,0.5702552199363708,0.8214526772499084,0.0,0.0,0.0,4.489982529776171e-05,-0.0001425025257049,-1.6964586393442005e-06,0.0021568611264228,0.0044430270791053,-0.965700089931488,0.259612888097763,-1.2889836414179772e-05,-7.551526356922184e-05,1.4663616094280548e-11,0.0121403932571411,0.0323041677474975,0.0093450546264648,0,0,0,0
20.6,1788170964602,0.0,0.0,-0.0049084131605923,0.0005283255595713,0.5702552199363708,0.8214527368545532,0.0,0.0,0.0,7.4391036832821555e-06,-7.558148354291916e-05,0.0,0.002153281122446,0.0044420436024665,-0.965700089931488,0.259612888097763,1.3642741403677937e-05,-7.88247151026861e-05,-1.618718282552976e-11,-0.0113557577133178,0.0015186667442321,0.0196685791015625,0,0,0,0
20.7,1788170964702,0.0,0.0,-0.0049038804136216,0.0005276114679872,0.5702552199363708,0.8214527368545532,0.0,0.0,0.0,9.364992001792416e-05,-4.2296665924368426e-05,0.0,0.0021513430401682,0.0044366419315338,-0.9657002091407776,0.2596129179000854,0.0001398720852193,-4.7200219387919705e-05,-9.870907360662146e-11,0.0104415416717529,-0.0354620218276977,-0.0092525482177734,0,0,0,0
20.8,1788170964802,0.0,0.0,-0.0048996568657457,0.000528528355062,0.5702553987503052,0.8214527368545532,4.144528712733962e-07,-1.1106225214598185e-06,-5.602555259058996e-09,0.0001587885781191,-6.588493124581873e-05,5.9272360886097886e-06,0.0021492633968591,0.0044274926185607,-0.9657002091407776,0.2596129179000854,0.0001936801846589,-0.0001134288093001,1.991561303934459e-06,0.0151819586753845,-0.0144298076629638,0.0018911361694335,0,0,0,0
20.9,1788170964902,0.0,0.0,-0.0048835175111889,0.0005273867864161,0.5702553391456604,0.821452796459198,0.0,0.0,0.0,0.0001112194149754,-0.0001445813686586,-1.201091322400316e-06,0.0021432340145111,0.004417760297656,-0.9657002091407776,0.2596129179000854,0.0001062310860986,-0.0001516624983767,-2.2846664390097915e-10,-0.0048766732215881,0.0185051560401916,-0.0031814575195312,0,0,0,0
21.0,1788170965002,0.0,0.0,-0.0048775603063404,0.0005249273963272,0.5702553391456604,0.821452796459198,0.0,0.0,0.0,7.941596413729712e-05,-0.0001307124621234,1.1944881634917692e-06,0.0021390467882156,0.0044133402407169,-0.9657003283500672,0.2596129477024078,7.442993260189999e-05,-0.0001303755317754,-1.376314221547377e-10,-0.011829674243927,0.0242000222206115,-0.0374135971069335,0,0,0,0
21.1,1788170965102,0.0,0.0,-0.0048713064752519,0.0005236021243035,0.5702553391456604,0.8214528560638428,0.0,0.0,0.0,8.885611168807372e-05,-5.48752213944681e-05,0.0,0.002136749215424,0.0044075557962059,-0.9657003283500672,0.2596129477024078,8.545119253672294e-05,-1.8490680187087973e-05,-2.4272700514365447e-11,0.0050238370895385,-0.0317123532295227,-0.0211734771728515,0,0,0,0
21.2,1788170965202,0.0,0.0,-0.0048694964498281,0.0005252445116639,0.5702553391456604,0.8214528560638428,0.0,0.0,0.0,2.4923927412601188e-05,2.6756881197798062e-05,0.0,0.0021390384063124,0.0044072093442082,-0.9657003283500672,0.2596129477024078,-1.3783954863605184e-05,7.957523605528476e-05,-1.6489522552397903e-11,0.01477712392807,-0.0129732489585876,-0.0188350677490234,0,0,0,0
21.3,1788170965302,0.0,0.0,-0.0048768729902803,0.0005280929617583,0.5702553391456604,0.821452796459198,0.0,0.0,0.0,-0.0001199539401568,0.0001227337197633,0.0,0.002142789773643,0.0044126212596893,-0.9657003283500672,0.2596129477024078,-0.0001341467931482,0.0001311308768456,-2.6073709734022646e-10,-0.0045454502105712,0.0023210048675537,0.0012092590332031,0,0,0,0
21.4,1788170965402,0.0,0.0,-0.0048861363902688,0.0005298603791743,0.5702553391456604,0.8214527368545532,0.0,0.0,0.0,-0.0001661883725319,0.0001726965856505,1.1733101246136355e-06,0.0021481802687048,0.0044218087568879,-0.9657003283500672,0.2596129477024078,-0.000170550837349,0.0001721010633464,1.9837900000602114e-06,-0.0256738662719726,0.0134941339492797,-0.0131616592407226,0,0,0,0
21.5,1788170965502,0.0,0.0,-0.0048986598849296,0.0005329390987753,0.5702553987503052,0.8214526176452637,0.0,0.0,0.0,-0.0001395690342178,0.0001861959608504,4.764710865856614e-06,0.0021561915054917,0.0044329455122351,-0.9657002091407776,0.2596129179000854,-0.0001088452011993,0.0001854098058051,2.0054857517868925e-06,-0.002012550830841,0.0023190379142761,-0.0184545516967773,0,0,0,0
21.6,1788170965602,0.0,0.0,-0.0049046156927943,0.0005367372650653,0.5702553987503052,0.8214526176452637,0.0,0.0,0.0,-3.112500417046249e-05,0.0001086942793335,-2.913079470090452e-06,0.0021621920168399,0.0044364761561155,-0.9657002091407776,0.2596129179000854,-9.365978911502552e-06,0.000134219796359,-1.8812784157589018e-11,-0.0059810280799865,-0.0218502879142761,0.0095882415771484,0,0,0,0
21.7,1788170965702,0.0,0.0,-0.0049073942936956,0.0005441457033157,0.57025545835495,0.8214525580406189,0.0,0.0,0.0,6.263474642764777e-05,0.0001062568480847,4.763045581057668e-06,0.0021695308387279,0.0044353995472192,-0.9657002091407776,0.2596129179000854,8.909893386218849e-05,0.0001167738854387,1.4915627394265404e-10,-0.0041074752807617,-0.02073734998703,0.009016990661621,0,0,0,0
21.8,1788170965802,0.0,0.0,-0.0049074012786149,0.0005463398993015,0.57025545835495,0.8214525580406189,0.0,0.0,0.0,6.093045158195309e-05,8.835484914015979e-05,0.0,0.0021767290309071,0.0044329697266221,-0.9657002091407776,0.2596129179000854,9.324684397630092e-05,0.0001550031370099,1.9848520641845715e-06,-0.0430112481117248,-0.010006308555603,-0.0178661346435546,0,0,0,0
21.9,1788170965902,0.0,0.0,-0.0049095442518591,0.0005619670264422,0.57025545835495,0.8214525580406189,0.0,0.0,0.0,0.0001379166787955,0.0003491010284051,2.477335101502831e-06,0.0021869121119379,0.0044318223372101,-0.965700089931488,0.259612888097763,7.915934086327845e-05,0.0002137155611936,2.687014710264598e-10,0.0222011804580688,0.0024510025978088,0.0096626281738281,0,0,0,0
22.0,1788170966002,0.0,0.0,-0.0049123764038085,0.0005710655823349,0.5702553987503052,0.8214526176452637,0.0,0.0,0.0,2.956277603516355e-05,0.0001114366095862,-1.92976881407958e-06,0.0022017816081643,0.004431645385921,-0.965700089931488,0.259612888097763,6.87429441230013e-05,0.0002733931799997,3.548091243297543e-10,0.0083662867546081,0.0186383128166198,0.0012273788452148,0,0,0,0
22.1,1788170966102,0.0,0.0,-0.0049175266176462,0.0005871918983757,0.57025545835495,0.8214524984359741,0.0,0.0,0.0,8.368098497157916e-05,0.0002422341785859,2.3977090677362867e-06,0.0022133039310574,0.004430859349668,-0.965700089931488,0.259612888097763,7.993439417181747e-05,0.0002282798501775,2.739379133175529e-10,0.0208808779716491,0.0113776326179504,-0.0145435333251953,0,0,0,0
22.2,1788170966202,0.0,0.0,-0.0049188397824764,0.0005947081372141,0.57025545835495,0.8214524388313293,0.0,0.0,0.0,7.771791570121422e-05,0.000156832698849,1.1939919204451144e-06,0.0022214297205209,0.0044291596859693,-0.965700089931488,0.259612888097763,6.194999872803721e-05,0.0001054174201802,9.798126792524866e-11,0.0110552310943603,-0.004708707332611,-0.004408836364746,0,0,0,0
22.3,1788170966302,0.0,0.0,-0.0049183797091245,0.0005995312239974,0.57025545835495,0.8214524388313293,0.0,0.0,0.0,9.172096179099752e-05,8.832793537294492e-05,1.243097926817427e-06,0.0022242367267608,0.00442720297724,-0.965700089931488,0.259612888097763,7.259419100557064e-05,2.5445080446533347e-05,2.8970288900553267e-11,0.0086030960083007,-0.0320143699645996,0.0217342376708984,0,0,0,0
22.4,1788170966402,0.0,0.0,-0.0049161640927195,0.0006009694188833,0.5702555179595947,0.8214524388313293,0.0,0.0,0.0,4.014615842606872e-05,-9.586803571437486e-06,2.907845555455424e-06,0.0022174278274178,0.0044234935194253,-0.9657005667686462,0.259611040353775,-9.97529929464742e-06,-0.0004945218547617,-0.0001288857302017,-0.0097213387489318,0.0170003771781921,0.0313911437988281,212,153,8201,5811
22.5,1788170966502,3.802816867828369,2.4788732528686523,-0.004913967102766,0.0007751404773443,0.565568208694458,0.8246864676475525,0.0805442532906008,-0.0042790957364667,-9.40540487355057e-06,0.0049513150006532,0.0165451094508171,-0.1811129599809646,0.0022214027121663,0.0043234368786215,-0.9673173427581788,0.2535225450992584,0.0016469626522957,0.0112884943964693,-0.1461344644473944,0.4012499451637268,0.5494418144226074,-0.0903148651123046,197,192,13097,10637
22.6,1788170966602,6.14084529876709,4.2816901206970215,-0.0044952849857509,0.000381477875635,0.5590928196907043,0.8290927410125732,0.1381397718075222,-0.0129253419574901,1.1016999864208877e-05,0.0040026740171015,-0.0059200306423008,-0.2079494893550872,0.001840366050601,0.0040811635553836,-0.9690753817558287,0.2467240840196609,-0.0056124265003282,-0.0163345121571479,-0.2416546316158697,1.0114363431930542,0.3615937232971191,0.0372772216796875,184,170,18265,13397
22.7,1788170966702,5.97183084487915,4.3380279541015625,-0.0047164736315608,0.0005262403283268,0.5482088923454285,0.8363279700279236,0.1772928292994957,-0.0087143431072398,-0.0001030413924169,2.990308871630987e-07,0.0120288701727986,-0.2586530745029449,0.0017277421429753,0.0040423460304737,-0.972841739654541,0.2314294725656509,0.007366752269175,-0.0453200899292803,-0.2497149752274599,0.23708575963974,-0.473349392414093,0.1273775100708007,124,72,16696,11873
22.8,1788170966802,5.802816867828369,4.309859275817871,-0.0047702938318252,0.0008882735855877,0.543057382106781,0.8396816849708557,0.1566800008862842,-0.0135021653927847,9.093321133788526e-07,0.0068293553777039,0.0140891959890723,-0.2440172731876373,0.0020665116608142,0.0040523065254092,-0.9752892851829528,0.2208848744630813,0.0052932097563216,0.0209001918652737,-0.2236048270470592,-0.214910626411438,0.1960951089859008,0.0743255615234375,131,83,16812,11599
22.9,1788170966902,5.85915470123291,4.197183132171631,-0.0044893780723214,0.0005288135726004,0.5260284543037415,0.8504549860954285,0.1540941577318959,-0.0131484676612295,4.315091518347802e-05,0.0032527500297874,0.0009203890804201,-0.2631882727146148,0.002012712880969,0.0040476098656654,-0.9780773520469666,0.2081929296255111,-0.0009089719566011,0.0309224525066428,-0.2576097598705149,-0.1343312263488769,0.3010405898094177,0.0966720581054687,122,91,16599,12011
23.0,1788170967002,5.7183098793029785,4.591549396514893,-0.0043324530124664,-0.0001328635262325,0.5154111981391907,0.8569320440292358,0.1591572422794424,-0.005991737036019,5.892840142111521e-05,-0.0077691101469099,-0.0054953144863247,-0.2732280790805816,0.0012683998793363,0.0040869181975722,-0.9805583953857422,0.196181058883667,0.0014737724082191,-0.0115393715880554,-0.2649367110560808,0.0727713704109191,-0.2808470726013183,-0.1778669357299804,60,151,15156,14053
23.1,1788170967102,5.605633735656738,4.563380241394043,-0.0043247509747743,-0.0004038250772282,0.5093032121658325,0.8605762124061584,0.1742309913401985,-0.0028404320308905,1.4240777480324145e-06,-0.0085782688111066,-0.0092673161998391,-0.1352991163730621,0.0013226168230175,0.004365699365735,-0.98225075006485,0.187516987323761,-0.0102791151114251,0.0193505588647374,-0.1551985332621349,-0.099599003791809,0.1543506979942321,-0.2755622863769531,128,105,15355,13228
23.2,1788170967202,5.464788913726807,4.450704097747803,-0.0045092557556927,-0.0004095290787518,0.5034312605857849,0.8640233874320984,0.1562482261850212,-0.006444353540638,-5.7968022934038415e-05,0.0073426477611064,0.0154496729373931,-0.1312571763992309,0.0011019138619303,0.0043145464733242,-0.9834384322166444,0.1811882555484771,0.00822615490556,-0.0075400067031175,-0.1285928336471007,0.1307557225227356,-0.0251824855804443,-0.2788991928100586,118,113,15867,13515
23.3,1788170967302,5.6619720458984375,4.563380241394043,-0.0045310459099709,-0.0007557707140222,0.4959189295768738,0.8683566451072693,0.1662890223552036,-0.0051482131865955,-2.242064872029295e-05,-0.0047223777510225,-0.0024997752625495,-0.1617148518562317,0.0007894318550825,0.0044938018545508,-0.985030472278595,0.1723198890686035,0.0028502050654011,-0.0090435977575861,-0.1540458418307483,-0.0201026797294616,0.086440622806549,-0.043771743774414,72,94,15108,12924
23.4,1788170967402,5.577464580535889,4.2816901206970215,-0.0044477945193648,-0.0007916572503745,0.4886559844017029,0.8724648952484131,0.1541796660646589,-0.0143358566944412,-3.267036895850023e-05,0.000896057114005,0.0024368865415453,-0.2119360715150833,0.0006314292550086,0.0044057900086045,-0.9865301847457886,0.1635186970233917,0.0004429466355862,-0.0174324438201228,-0.2432189601180587,-0.1149263978004455,0.1044554114341735,0.5791454315185547,58,79,14782,13416
23.5,1788170967502,6.422535419464111,3.8309860229492183,-0.0042149815708398,-0.0008434001356363,0.479098379611969,0.8777506947517395,0.17376151077439,-0.0130141924441612,1.81625870838611e-05,-0.003790307091549,-0.0013723749434575,-0.2724882066249847,0.000633280724287,0.0043332111090421,-0.9882673621177672,0.1526710242033004,-0.0146746131811711,0.00755688005763,-0.370141750649499,-0.282791256904602,-0.4156292676925659,-0.3056678771972656,122,72,17291,10724
23.6,1788170967602,6.2816901206970215,3.859154939651489,-0.0041905925609171,-0.0008604708127677,0.4631343185901642,0.8862777352333069,0.1583444922387233,-0.0058974031611418,-9.510303367027873e-06,0.0043925121426582,0.0074217994697391,-0.3589288294315338,0.00072524510324,0.004190114326775,-0.99147766828537,0.1302079111337661,0.0034208923706221,0.0056432432009715,-0.3542170954377795,0.2044928669929504,0.0570893287658691,-0.1183605194091796,107,99,17092,11228
23.7,1788170967702,6.3380279541015625,3.802816867828369,-0.0041079986840486,-0.0008133308729156,0.443835973739624,0.896098256111145,0.1585699042675902,-0.0114991302161832,-5.657726599570601e-06,-0.0026971392799168,0.0024004871957004,-0.3701593577861786,0.0007162652909755,0.0041129048913717,-0.99350905418396,0.1136761456727981,0.0059499050181685,0.0123210128391024,-0.3612431195964547,-0.0051299929618835,0.2486472725868225,0.2012367248535156,117,88,16906,11352
23.8,1788170967802,5.915493011474609,4.169013977050781,-0.0038878764025866,-0.0003103493945673,0.4376794099807739,0.8991225957870483,0.1589558985427773,-0.0071776685891262,-2.340860079023364e-05,0.0204024463891983,0.0181550476700067,-0.3269535899162292,0.0007737623527646,0.0036188578233122,-0.9946302175521852,0.1034272611141204,0.0063890486614276,-0.0094852314874988,-0.2905552508779305,0.0816320776939392,0.0984318256378173,-0.0828332901000976,107,134,16028,12346
23.9,1788170967902,6.0,4.197183132171631,-0.0036815903149545,-0.0003084776690229,0.4212094247341156,0.906955897808075,0.1591650374346134,-0.0147792812111365,-4.761903180246608e-05,-0.00120315188542,-0.0018349267775192,-0.2574953436851501,0.0011212592944502,0.0035552671179175,-0.9960066676139832,0.0892014279961586,0.008881047492539,-0.0145509722922958,-0.2447672321259126,0.2234372496604919,-0.3488219976425171,0.4134244918823242,102,82,16042,11990
24.0,1788170968002,6.11267614364624,4.2253522872924805,-0.0039574922993779,0.0005167865892872,0.411114364862442,0.9115750193595886,0.1601983317805424,-0.0073612847559266,-5.977959844956868e-05,0.0093163633719086,0.0210565943270921,-0.2289292216300964,0.0015944959595799,0.0034591434523463,-0.9970039129257202,0.0772583559155464,0.0072856372197062,-0.0232108195628708,-0.2324462170752738,0.1897898912429809,-0.0878151059150695,-0.2627830505371094,138,44,16414,11640
24.1,1788170968102,5.492957592010498,4.619718074798584,-0.0039014993235468,0.0005774555029347,0.3994078636169433,0.916764795780182,0.1638142458628101,-0.0116216702649459,-8.298210933187724e-05,0.0069190091453492,0.0125882234424352,-0.1575766205787658,0.0017944257706403,0.0034741293638944,-0.9978635907173156,0.0652143135666847,0.0061158615194262,-0.0240643715120752,-0.1428671580253672,0.242076575756073,-0.3164649605751037,0.4082393646240234,77,84,15488,12801
24.2,1788170968202,5.380281925201416,4.507042407989502,-0.004261368419975,0.000456501962617,0.3928396105766296,0.9195969700813292,0.1649680245734372,-0.0073606367103881,7.717986475257428e-05,-0.0039639347232878,-0.0132657894864678,-0.1617090255022049,0.0017078565433621,0.0039850464090704,-0.9982988238334656,0.058144886046648,-0.0129523640658303,-0.0039307478522256,-0.1446502597941893,0.0651517510414123,0.2136174440383911,0.2570466995239258,105,99,16059,13173
24.3,1788170968302,5.6619720458984375,4.478873252868652,-0.0041425116360187,0.0005528751062229,0.3865130543708801,0.9222745299339294,0.170025656047236,-0.0090711230777211,1.9195518592222457e-05,0.0107894754037261,-0.0030007404275238,-0.1270946115255355,0.0021444987505674,0.0038010533899068,-0.9986487030982972,0.0517858080565929,-0.002091885539516,0.0249303741320299,-0.1426819985561777,0.0749441385269165,0.1900972127914428,-0.1812753677368164,118,121,15191,13277
24.4,1788170968402,5.633802890777588,4.535211086273193,-0.004593901336193,0.0002943236613646,0.3797371685504913,0.9250829219818116,0.1676840484551174,-0.0050484398408298,-5.838971143628694e-05,-0.0141318896785378,-0.0017669355729594,-0.1628206819295883,0.0020939670503139,0.0044410703703761,-0.9990938901901244,0.0422760620713233,-0.0105814128579108,0.0172376964326443,-0.1627516508429026,-0.0341813564300537,0.294503390789032,-0.1327695846557617,129,107,15044,13128
24.5,1788170968502,5.380281925201416,4.788732528686523,-0.0048083383589982,5.6788441725075245e-05,0.3719440400600433,0.9282427430152892,0.1631288523775623,-0.0092078897474804,-2.244055414432137e-05,0.0021962507162243,-0.0068652359768748,-0.1196054965257644,0.0018496355041861,0.0045209936797618,-0.9993268847465516,0.0363587699830532,0.0017631382398805,-0.0116482157121559,-0.1165437292688678,-0.1473406553268432,0.0719201564788818,0.3130455017089844,103,150,13706,14731
24.6,1788170968602,5.211267471313477,4.816901206970215,-0.0052872500382363,0.0006152570713311,0.3706820011138916,0.9287445545196532,0.1669329934473651,-0.003472454328861,-6.236329242016295e-06,-0.01158376224339,0.0034078371245414,-0.0170134212821722,0.0022405609488487,0.004917905665934,-0.9993658661842346,0.0351956449449062,-0.011113049360614,0.0042865471915633,-0.0365799138200236,0.0524563789367675,-0.1596139669418335,0.3614835739135742,100,108,14583,14503
24.7,1788170968702,5.239436626434326,4.957746505737305,-0.005510679911822,0.0004743133904412,0.3695054352283478,0.9292121529579164,0.1636016103037614,-0.0032752164360443,5.1707445572156175e-05,-0.0100484872236847,-0.0016507147811353,-0.0496222637593746,0.002393159084022,0.0050891507416963,-0.9994286298751832,0.0333289057016372,-0.0023122980834392,0.0078658586446536,-0.0370994688161226,-0.2326672077178955,0.1017212867736816,0.5158195495605469,120,104,14638,13822
24.8,1788170968802,5.154929637908936,5.014084339141846,-0.005770456045866,0.0005956349195912,0.3675347864627838,0.9299917221069336,0.1680454595619648,-0.0058886838764716,-1.416925537745923e-05,-0.0052892216481268,0.0049133566208183,-0.0461521074175834,0.0031239204108715,0.0053304973989725,-0.9994752407073976,0.031799029558897,-0.0055731277579962,0.0313047770109115,-0.006426809850653,-0.2240350842475891,0.0877515077590942,0.1727848052978515,122,91,14893,13599
24.9,1788170968902,4.957746505737305,4.985915660858154,-0.0063444776460528,0.0014183609746396,0.3649025857448578,0.9310229420661926,0.170860723616528,-0.0040617970570896,-5.646003885979003e-05,0.0078478008508682,0.0253445301204919,-0.0418629124760627,0.0032712602987885,0.0056134359911084,-0.9995555877685548,0.0290947929024696,-0.0201760165713573,0.0075212098809885,-0.0442886316829222,0.053412914276123,0.030475914478302,0.6120567321777344,90,137,14658,14743
25.0,1788170969002,5.126760482788086,5.098591327667236,-0.0064470022916793,0.0008403270039707,0.3648173213005066,0.9310564398765564,0.1710987802725078,-0.0052530535647319,3.6671434158414455e-05,-0.0131951551884412,-0.0175366960465908,0.0096164681017398,0.0034171314910054,0.0057051805779337,-0.9995481967926024,0.0293135065585374,0.0064223818791932,0.0309019002531232,0.0056606651574666,-0.2212741374969482,0.031121551990509,0.4348573684692383,124,96,13448,14699
25.1,1788170969102,4.901408672332764,5.239436626434326,-0.0066169798374176,0.0011976591777056,0.3671064972877502,0.93015456199646,0.1742122248335611,-0.0032750303423054,-5.683068182327484e-05,-0.0003517174336593,0.0236637182533741,0.0827165842056274,0.0029589142650365,0.0058691063895821,-0.9994603991508484,0.0321833826601505,-0.0092762570206575,-0.0179296909974639,0.0962597060896531,-0.0818851590156555,0.0172475576400756,1.1035709381103516,136,68,13787,14700
25.2,1788170969202,4.676056385040283,5.464788913726807,-0.0062347943894565,0.0006460973527282,0.3696688115596771,0.929142415523529,0.1752765565761352,-0.002389423750119,4.558008822725542e-05,-0.0022421169560402,-0.0234373416751623,0.0348995849490165,0.0029734512791037,0.0058678388595581,-0.9993363618850708,0.0358284004032611,-0.0102515503925863,0.0122200882885495,0.0660321460991047,-0.3581231236457824,0.0165169239044189,0.3587627410888672,56,121,12322,16216
25.3,1788170969302,4.619718074798584,5.88732385635376,-0.0062799081206321,0.0004060000646859,0.377998411655426,0.9257848858833312,0.1693578970554567,0.0005521288798266,1.1140656736672196e-05,0.009071085602045,-0.0163411535322666,0.2067184001207351,0.00269082095474,0.0058222543448209,-0.9989995360374452,0.0442586317658424,-0.0075368885132117,-0.0110075130439343,0.1859401796801951,-0.1387448906898498,0.1045777797698974,0.0655117034912109,90,90,12734,14489
25.4,1788170969402,4.478873252868652,5.492957592010498,-0.0059541594237089,0.0002802663948386,0.3845907151699066,0.9230679273605348,0.1710607109044621,-0.0004470966348181,1.2657031226029223e-05,-0.0010689231567084,-0.009178401902318,0.1448986530303955,0.0021842326968908,0.0055416729301214,-0.998682975769043,0.0509598515927791,-0.0047982545055178,-0.016152046930938,0.1254027727031982,0.0468121170997619,-0.0991793870925903,-0.169870376586914,88,95,13240,15659
25.5,1788170969502,4.619718074798584,5.436619758605957,-0.0060271699912846,0.0004196539521217,0.3908970057964325,0.9204145669937134,0.1742653141305947,0.0017487748228962,3.4188415560170475e-05,0.0067986031062901,0.0114169670268893,0.160394012928009,0.00242889393121,0.005532031878829,-0.9983342885971068,0.0573767535388469,0.0095123898797392,0.0412014745830842,0.174114704400224,0.0027229189872741,-0.1100954413414001,-0.7502555847167969,117,102,12662,15895
25.6,1788170969602,4.676056385040283,5.605633735656738,-0.0051637785509228,0.0002305230591446,0.3973739147186279,0.9176422357559204,0.1694714537078989,3.456071079574157e-05,4.281913040964536e-05,0.0090364878997206,-0.0172112546861171,0.1408924907445907,0.0022751986980438,0.0046251444146037,-0.9977847337722778,0.0663255751132965,0.0143826890921196,0.0359860169299315,0.1569468357033539,-0.1785017251968383,-0.2917219996452331,-0.7124004364013672,105,122,12825,15434
25.7,1788170969702,4.957746505737305,5.352112770080566,-0.0049294121563434,0.0001363722840324,0.401672899723053,0.9157699346542358,0.1708039370917408,3.2028131387331874e-05,-3.063073119060255e-06,0.0049252570606768,-0.0059369881637394,0.138283297419548,0.0013431366533041,0.0043336385861039,-0.9975281357765198,0.0701217129826545,0.01961318932341,-0.0489542240362635,0.0474455697970752,0.0729959607124328,-0.4359188675880432,0.0226917266845703,108,103,13830,14084
25.8,1788170969802,4.535211086273193,5.408450603485107,-0.0043664830736815,0.0001187633024528,0.4031656384468078,0.9151166081428528,0.1704625854766434,-1.4114828935789697e-05,-2.84271282604565e-05,0.0097076594829559,0.0144484471529722,0.0176400821655988,0.0010140100494027,0.0038716848939657,-0.9973191022872924,0.0730655193328857,0.006325109766843,-0.0343451959050123,0.0715642846455144,0.276843786239624,-0.1135645508766174,-0.1026124954223632,49,158,12813,16454
25.9,1788170969902,4.647887229919434,5.577464580535889,-0.0039891232736408,-0.0001079679932445,0.4079397320747375,0.9130001068115234,0.1613801124455424,0.000929684397038,2.2495036023982165e-05,0.0051401737146079,-0.0017418829957023,0.1408705562353134,0.001237622462213,0.0038216989487409,-0.9966920018196106,0.0811725333333015,-0.0053977710488944,0.0266299030269533,0.1651016816776739,-0.3310499787330627,-0.0198767781257629,-0.139017105102539,113,170,12402,15981
26.0,1788170970002,4.366197109222412,5.605633735656738,-0.0037335904780775,-0.0005723268841393,0.4192625880241394,0.9078571200370787,0.1680001361906191,-0.0002742720746205,-5.056762617643474e-05,0.0019695020746439,7.998800720088184e-05,0.1745756715536117,0.0006327098235487,0.0036754496395587,-0.995967447757721,0.0896386578679084,0.0015408965793314,-0.022277161236137,0.1594536758008724,0.2169901728630066,0.2606558203697204,0.1752967834472656,117,110,13651,15469
26.1,1788170970102,4.816901206970215,5.549295902252197,-0.0032610339112579,-0.0009472761303186,0.4272702634334564,0.9041176438331604,0.168778548034384,0.001662688956809,2.242903925102852e-06,-0.0015844277804717,-0.0085002658888697,0.1347934007644653,0.0002303244546055,0.0033430159091949,-0.9951140880584716,0.09867525100708,0.0082251670643699,-0.0040099101832422,0.1572820158921661,0.0712347626686096,0.2713202834129333,0.0849056243896484,104,107,12083,15716
26.2,1788170970202,4.507042407989502,5.492957592010498,-0.0031377426348626,-0.0014624674804508,0.4333864152431488,0.9012014865875244,0.1668860565017526,-0.0017393272388247,-2.484949640113913e-06,-0.0020369079429656,-0.011733055114746,0.1505394279956817,-0.0003632856532931,0.0033283857628703,-0.99443519115448,0.1052969247102737,0.0108288147217899,-0.0197307487821006,0.1589776594787296,0.1771243810653686,0.1000617742538452,0.0128507614135742,113,117,13027,15780
26.3,1788170970302,4.535211086273193,5.690140724182129,-0.0027224963996559,-0.0014936712104827,0.4404388666152954,0.8977771997451782,0.1719416513103226,0.0043298022474975,7.686486077801788e-05,-0.0004480365023482,-0.0171275585889816,0.1475061029195785,-0.0003301138058304,0.0029335329309105,-0.993657410144806,0.1124117076396942,0.0120929372979246,0.0136369732413898,0.1342246460516291,-0.0871676206588745,-0.2872369885444641,-0.28271484375,117,108,13187,15126
26.4,1788170970402,4.253520965576172,5.88732385635376,-0.0026621934957802,-0.0020323400385677,0.4461803734302521,0.8949368596076965,0.1699607113376942,0.0009672448034393,-1.3646975352172669e-05,-0.004791913088411,-0.0050619835965335,0.1394426524639129,-0.00110006891191,0.0031772600486874,-0.9925926327705384,0.1214442402124404,-0.0037788094018952,-0.0067296554478995,0.2042117594064474,-0.4635556936264038,0.0843741297721862,0.4716510772705078,66,106,11796,16879
26.5,1788170970502,6.3380279541015625,3.9718310832977295,-0.0022463793866336,-0.0028517625760287,0.4552239775657654,0.8903695940971375,0.1781269730541588,-0.003580768309177,0.0001168651763519,-0.0027214682195335,-0.0340620167553424,0.087934985756874,-0.0015114117413759,0.0030973404645919,-0.9918559193611144,0.1273181736469268,0.0034040814619132,0.0157924334882354,-0.0675454894150657,0.1283016204833984,-0.622222900390625,0.1103067398071289,153,15,18375,8865
26.6,1788170970602,6.450704097747803,3.577464818954468,-0.0028569272253662,-0.0029303519986569,0.4370958805084228,0.8994056582450867,0.1505640554867015,-0.0044959657149664,-4.30369114905788e-05,-0.0202311035245656,0.0019837513100355,-0.5511341094970703,-0.0020446982234716,0.0035906489938497,-0.9945886731147766,0.1038089841604232,0.0022270694114152,-0.0374570838965669,-0.513143563412773,0.6494709849357605,-0.2165113091468811,0.0156078338623046,89,147,17062,12247
26.7,1788170970702,5.97183084487915,4.253520965576172,-0.0028709913603961,-0.0032916041091084,0.4207704961299896,0.9071565270423888,0.1601749775389038,-0.0080927060462771,5.409835532429846e-05,-0.0144278220832347,-0.0116510838270187,-0.3440736532211303,-0.0021752594038844,0.0038319360464811,-0.9960811138153076,0.0883350372314453,-0.0131904404217584,0.0004828847089565,-0.3186385254376402,-0.0657060146331787,-0.3330385088920593,0.1611089706420898,75,162,15762,12810
26.8,1788170970802,5.77464771270752,4.2253522872924805,-0.002649369649589,-0.0037141360808163,0.4150682985782623,0.9097788333892822,0.1625089935442328,-0.008737824493274,4.274422520533676e-05,0.0004840636975131,-0.0181906875222921,-0.2529118657112121,-0.0024251714348793,0.0035319840535521,-0.997167468070984,0.0750918984413147,0.0108549577637204,-0.003574828253767,-0.255856424011816,0.0871725082397461,-0.2300382852554321,0.3005428314208984,129,117,16464,12193
26.9,1788170970902,5.85915470123291,4.0,-0.0026258614379912,-0.0034819187130779,0.3958166241645813,0.9183192253112792,0.1612962959352624,-0.0091768278940816,8.862720848497115e-06,-0.0040080435574054,-0.00163057341706,-0.276387482881546,-0.0024463683366775,0.0037412988021969,-0.9981114268302916,0.0612663552165031,-0.0156296729515262,-0.0038561948692629,-0.2823449021513426,0.0487961769104003,0.1995702981948852,-0.2240638732910156,90,136,16408,12814
27.0,1788170971002,5.88732385635376,4.14084529876709,-0.0024366474244743,-0.0032688369974493,0.3850131928920746,0.9229021072387696,0.164176344290379,-0.0068494557745037,-2.607481088444815e-05,0.0107968337833881,0.0040701823309063,-0.2373877912759781,-0.002308152616024,0.003349901176989,-0.9987940192222596,0.0489278770983219,0.0033726561009233,-0.0085763148539571,-0.2377456368600576,0.0228437185287475,-0.0156260132789611,0.2777967453002929,138,95,16277,12411
27.1,1788170971102,5.380281925201416,4.619718074798584,-0.0024708029814064,-0.0030000677797943,0.37522092461586,0.9269272685050964,0.1678036543427324,-0.0042281489133035,-1.7588756054826115e-05,9.45694264373742e-05,0.0055773393251001,-0.1805447936058044,-0.0020347395911812,0.0033577503636479,-0.999197483062744,0.0398637913167476,0.0016769546859517,-0.0001184671797081,-0.11501313014261,-0.1320201158523559,-0.048241913318634,-0.1882572174072265,91,96,15727,13289
27.2,1788170971202,5.605633735656738,4.676056385040283,-0.0022322069853544,-0.0027676909230649,0.3700465559959411,0.9290063977241516,0.1711580081815189,-0.0036475363180031,-1.4262164605041906e-05,0.0137880155816674,0.0089694112539291,-0.1199821978807449,-0.0014774287119507,0.0029734671115875,-0.9994688630104064,0.0324191823601722,0.0021495797913818,0.0219272784240003,-0.1338247974510772,-0.0041555166244506,-0.1218770146369934,0.0058794021606445,128,96,15365,12838
27.3,1788170971302,5.521126747131348,4.563380241394043,-0.0021883188746869,-0.0024824570864439,0.36237233877182,0.9320275783538818,0.1637717078140962,-0.0052793374076655,-3.638142993404523e-05,-0.002563044661656,0.001498396275565,-0.1483967155218124,-0.0015488034114241,0.0029164832085371,-0.9996610879898072,0.02582523599267,-0.0070218207340485,-0.0106806994037119,-0.1547979239175047,-0.1106085181236267,-0.2690613865852356,0.11077880859375,109,100,15535,13081
27.4,1788170971402,5.295774459838867,4.619718074798584,-0.0016638441011309,-0.0017688423395156,0.3564945459365845,0.9342942833900452,0.1696319785253561,-0.0053826442333107,-7.919836916378135e-05,0.0205479077994823,0.00989181548357,-0.1256817132234573,-0.0012313965708017,0.002169681712985,-0.9998003840446472,0.0198238398879766,0.0025551387590802,-0.0174037068725541,-0.1304616018384673,-0.0321493744850158,0.388802707195282,0.2880506515502929,67,178,13688,15746
27.5,1788170971502,4.619718074798584,5.464788913726807,-0.001842456869781,-0.0012844044249504,0.3551624417304992,0.9348018765449524,0.1763421649172254,0.0016055242346852,3.089292280065451e-05,-0.0009213376324623,0.0129576614126563,0.0050926869735121,-0.0007184762507677,0.0022634025663137,-0.999805748462677,0.0195680670440197,-0.0028773945732901,0.0113607739226899,0.0588432526380521,-0.0574323534965515,0.2042595744132995,0.5690946578979492,64,136,12234,16613
27.6,1788170971602,4.450704097747803,5.6619720458984375,-0.001771334791556,-0.0014661671593785,0.3618566691875458,0.9322309494018556,0.1743752357121536,-0.0009776775124836,-4.170025467770796e-05,9.455378858547192e-06,-0.0027436658274382,0.1988349109888076,-0.0007234336808323,0.0022251391783356,-0.9996206164360046,0.0274425148963928,-0.0099959304382049,-0.0098137456407644,0.168860018706291,-0.0071717500686645,-0.0319992303848266,0.2180805206298828,95,145,13384,15468
27.7,1788170971702,4.619718074798584,5.464788913726807,-0.0019701640121638,-0.000738289032597,0.3701260387897491,0.9289791584014891,0.1723678914809611,0.0001163568306428,-2.5700064475458e-05,-0.0029148054309189,0.0116135897114872,0.139078214764595,0.0002599097788333,0.0023260628804564,-0.9993405342102052,0.0362376421689987,-0.0183814501567409,0.0288285719880622,0.1267378430121675,-0.2294892072677612,-0.0319859385490417,0.1182270050048828,95,130,12783,15913
27.8,1788170971802,4.478873252868652,5.77464771270752,-0.0023990413174033,-0.000560607004445,0.3729006052017212,0.9278680086135864,0.1721922231913293,-0.0002308430921813,-5.284667307452896e-05,-0.0158722884953022,0.0151435667648911,0.1425784975290298,0.0006587142124772,0.0023102983832359,-0.9989745616912842,0.0452124923467636,-0.0013159823114902,-0.0021846828540149,0.3169577239008366,0.3218495845794678,0.4672808647155761,-0.0425376892089843,134,83,13233,14857
27.9,1788170971902,4.563380241394043,5.492957592010498,-0.0024608520325273,0.0002536055981181,0.3834461867809295,0.9235599040985109,0.1657644298699618,0.0039516931192895,-8.902388302667514e-05,0.0034268414601683,0.0149425454437732,0.2039114236831665,0.0015369169414043,0.0024568308144807,-0.998592972755432,0.052951231598854,-0.0121848245557433,0.0087173572651558,0.1087603112529649,0.0865252017974853,-0.0084049105644226,-0.0994796752929687,85,118,12970,15695
28.0,1788170972002,4.478873252868652,5.380281925201416,-0.0035217646509408,0.0011833886383101,0.3924844264984131,0.9197511076927184,0.1731785086564843,0.0009899889915807,3.5859864815167554e-05,-0.0066747800447046,0.0138972112908959,0.1674671620130539,0.0024511124938726,0.0028134761378169,-0.998151957988739,0.0606536194682121,0.0064995056625016,0.0346757978298337,0.1866654081172583,-0.2022472620010376,-0.0785701870918273,-0.4405012130737304,98,122,13067,16147
28.1,1788170972102,4.478873252868652,5.633802890777588,-0.0042221127077937,0.0022429865784943,0.40114825963974,0.9160006642341614,0.1697642128700479,0.0031539191427076,-0.0001020860493765,-0.0098007377237081,0.0292845629155635,0.1507146507501602,0.0033409260213375,0.0031959498301148,-0.9975378513336182,0.0699784904718399,-0.0041254308142562,0.0023184429874003,0.1441619814403416,0.1636395454406738,-0.2675440311431885,0.6003036499023438,107,134,13164,15417
28.2,1788170972202,4.591549396514893,5.6619720458984375,-0.0047419983893632,0.0021689140703529,0.4066746830940246,0.9135581851005554,0.1717362237053367,0.0033005455504107,-2.746453566925559e-05,-0.009454651735723,0.0022285082377493,0.1298597306013107,0.0040410114452242,0.0038179829716682,-0.9970969557762146,0.0759389176964759,-0.0045018375689302,0.0305199665862845,0.1621853012187176,-0.2176723480224609,0.2359240055084228,0.4481544494628906,100,119,13285,14903
28.3,1788170972302,4.929577350616455,5.211267471313477,-0.0057923328131437,0.0030674622394144,0.4112825393676758,0.9114843606948853,0.1788695413112301,-0.0015899175035125,-5.080756997539601e-05,-0.0168463066220283,0.0245193410664796,0.0548104830086231,0.004881476983428,0.0044746967032551,-0.9967959523200988,0.079712264239788,-0.0128303049844121,0.0099606182784725,0.0149908631012895,0.0902410745620727,-0.226127028465271,-0.2007083892822265,101,116,13803,14963
