time_s,timestamp_ms,wheel_vels__velocity_left,wheel_vels__velocity_right,odom__orient_x,odom__orient_y,odom__orient_z,odom__orient_w,odom__lin_x,odom__lin_y,odom__lin_z,odom__ang_x,odom__ang_y,odom__ang_z,imu__orient_x,imu__orient_y,imu__orient_z,imu__orient_w,imu__angvel_x,imu__angvel_y,imu__angvel_z,imu__acc_x,imu__acc_y,imu__acc_z,wheel_status__current_ma_left,wheel_status__current_ma_right,wheel_status__pwm_left,wheel_status__pwm_right
0.0,1788431521746,0.0,0.0,-0.0010439597535878,-0.0027703968808054,-0.1369648277759552,0.9905714988708496,-0.0008825200552519,0.0008218523095663,-3.930485297102703e-06,0.0,-1.8498472753591955e-09,0.0,0.0003538457676768,-0.0034088753163814,0.3231295049190521,0.9463486075401306,3.148536174299716e-05,-0.0001529840779101,-7.236075490257012e-11,0.0465201139450073,-0.0482277274131774,0.041421890258789,0,0,0,0
0.1,1788431521846,0.0,0.0,-0.0010439597535878,-0.0027703968808054,-0.1369648277759552,0.9905714988708496,0.0,0.0,0.0,0.0,-1.7464778512277235e-09,0.0,0.0003530988469719,-0.0034150602295994,0.3231295049190521,0.9463486075401306,-0.0001227459759027,-2.17289306172035e-05,1.9831875601635245e-06,0.0008881092071533,0.021168828010559,-0.0014371871948242,0,0,0,0
0.2,1788431521946,0.0,0.0,-0.0010439597535878,-0.0027703968808054,-0.1369648277759552,0.9905714988708496,0.0,0.0,0.0,0.0,-1.789058012846567e-09,0.0,0.0003475239500403,-0.0034140618517994,0.3231295049190521,0.9463486075401306,-0.0001199826140142,0.0001030939609016,-1.6715979217847011e-10,-0.0143408775329589,-0.0862952470779419,-0.0094919204711914,0,0,0,0
0.3,1788431522046,0.0,0.0,-0.0010439597535878,-0.0027703968808054,-0.1369648277759552,0.9905714988708496,0.0,0.0,0.0,0.0,-1.903531776648037e-09,0.0,0.0003388747572898,-0.0034090764820575,0.3231295049190521,0.9463486075401306,-0.0001028085863777,0.0001809487426689,-2.79303491938777e-10,-0.0028873682022094,0.0121868848800659,0.0054006576538085,0,0,0,0
0.4,1788431522146,0.0,0.0,-0.0010439597535878,-0.0027703968808054,-0.1369648277759552,0.9905714988708496,0.0,0.0,0.0,0.0,-1.8190992046029921e-09,0.0,0.0003361413255333,-0.0034023886546492,0.3231295049190521,0.9463486075401306,2.935324982232489e-06,0.0001560630584138,6.885721600933221e-12,-0.0191032290458679,0.054629623889923,-0.0271635055541992,0,0,0,0
0.5,1788431522246,0.0,0.0,-0.0010439597535878,-0.0027703968808054,-0.1369648277759552,0.9905714988708496,0.0,0.0,0.0,0.0,-1.7534875773606016e-09,0.0,0.0003439374268054,-0.0033928351476788,0.3231295049190521,0.9463486075401306,0.0001228148347959,0.0001177636326559,2.1710349602079367e-10,-0.0137088298797607,-0.0339032411575317,0.0106372833251953,0,0,0,0
0.6,1788431522346,0.0,0.0,-0.0010439597535878,-0.0027703968808054,-0.1369648277759552,0.9905714988708496,0.0,0.0,0.0,0.0,-1.7888814873856516e-09,0.0,0.000341372564435,-0.0033878134563565,0.3231295049190521,0.9463486075401306,4.831576591811237e-05,0.0001084005709186,7.882131562247879e-11,0.0166127681732177,-0.1003944277763366,0.0015792846679687,0,0,0,0
0.7,1788431522446,0.0,0.0,-0.0010439597535878,-0.0027703968808054,-0.1369648277759552,0.9905714988708496,0.0,0.0,0.0,0.0,-1.7888814873856516e-09,0.0,0.0003413930535316,-0.0033865543082356,0.3231295049190521,0.9463486075401306,2.9356656783302503e-05,8.159758385064097e-05,3.478610967093685e-11,-0.0482116341590881,0.0164793729782104,0.0522117614746093,0,0,0,0
0.8,1788431522546,0.0,0.0,-0.0010439597535878,-0.0027703968808054,-0.1369648277759552,0.9905714988708496,0.0,0.0,0.0,0.0,-1.7888814873856516e-09,0.0,0.0003413930535316,-0.0033865543082356,0.3231295049190521,0.9463486075401306,2.9356656783302503e-05,8.159758385064097e-05,3.478610967093685e-11,-0.0482116341590881,0.0164793729782104,0.0522117614746093,0,0,0,0
0.9,1788431522646,0.0,0.0,-0.0010439597535878,-0.0027703968808054,-0.1369648277759552,0.9905714988708496,0.0,0.0,0.0,0.0,-1.7888814873856516e-09,0.0,0.0003413930535316,-0.0033865543082356,0.3231295049190521,0.9463486075401306,2.9356656783302503e-05,8.159758385064097e-05,3.478610967093685e-11,-0.0482116341590881,0.0164793729782104,0.0522117614746093,0,0,0,0
1.0,1788431522746,0.0,0.0,-0.0010439597535878,-0.0027703968808054,-0.1369648277759552,0.9905714988708496,0.0,0.0,0.0,0.0,-1.7953175612817063e-09,0.0,0.0003408528864383,-0.0033829342573881,0.3231295049190521,0.9463486075401306,-7.198658131642265e-05,2.746728851484305e-05,-2.9728216434441876e-11,0.0143990516662597,0.0335298180580139,0.0027265548706054,0,0,0,0
1.1,1788431522846,0.0,0.0,-0.0010439597535878,-0.0027703968808054,-0.1369648277759552,0.9905714988708496,0.0,0.0,0.0,0.0,-1.7953175612817063e-09,0.0,0.0003408528864383,-0.0033829342573881,0.3231295049190521,0.9463486075401306,-7.198658131642265e-05,2.746728851484305e-05,-2.9728216434441876e-11,0.0143990516662597,0.0335298180580139,0.0027265548706054,0,0,0,0
1.2,1788431522946,0.0,0.0,-0.0010439597535878,-0.0027703968808054,-0.1369648277759552,0.9905714988708496,0.0,0.0,0.0,0.0,-1.7953175612817063e-09,0.0,0.0003408528864383,-0.0033829342573881,0.3231295049190521,0.9463486075401306,-7.198658131642265e-05,2.746728851484305e-05,-2.9728216434441876e-11,0.0143990516662597,0.0335298180580139,0.0027265548706054,0,0,0,0
1.3,1788431523046,0.0,0.0,-0.0010439597535878,-0.0027703968808054,-0.1369648277759552,0.9905714988708496,0.0,0.0,0.0,0.0,-1.8263195400436414e-09,0.0,0.0002915207296609,-0.0034040566533803,0.3231295049190521,0.9463486075401306,-0.0002403456697176,4.416962513576346e-05,1.989380245940208e-06,0.018089473247528,-0.0073940753936767,-0.0008563995361328,0,0,0,0
1.4,1788431523146,0.0,0.0,-0.0010439597535878,-0.0027703968808054,-0.1369648277759552,0.9905714988708496,0.0,0.0,0.0,0.0,-1.7894365988979642e-09,0.0,0.0002800449728965,-0.0034061996266245,0.3231295049190521,0.9463486075401306,-0.000170887862058,1.0494195532882002e-05,-2.7735917254729124e-11,-0.0216987133026123,-0.0057208538055419,0.0169839859008789,0,0,0,0
1.5,1788431523246,0.0,0.0,-0.0010439597535878,-0.0027703968808054,-0.1369648277759552,0.9905714988708496,0.0,0.0,0.0,0.0,-2.6518918172513395e-09,0.0,0.000272667966783,-0.0034065665677189,0.3231295049190521,0.9463486075401306,-0.0001224894449638,6.931475658836792e-05,-1.2759176768850144e-10,0.0002210736274719,0.0189077258110046,-0.0042762756347656,0,0,0,0
1.6,1788431523346,0.0,0.0,-0.0010439597535878,-0.0027703968808054,-0.1369648277759552,0.9905714988708496,0.0,0.0,0.0,0.0,-1.7872199276069976e-09,0.0,0.0002675959840416,-0.0034043071791529,0.3231295049190521,0.9463486075401306,-8.200164032336134e-05,0.0001021512479752,-1.259597487596863e-10,0.0976356863975524,-0.0011399984359741,0.0281028747558593,0,0,0,0
1.7,1788431523446,0.0,0.0,-0.0010439597535878,-0.0027703968808054,-0.1369648277759552,0.9905714988708496,0.0,0.0,0.0,0.0,-1.7904794313849946e-09,0.0,0.0002672113478183,-0.0034015718847513,0.3231295049190521,0.9463486075401306,3.008820262914139e-06,4.7028715986244886e-05,1.877877981754436e-12,0.0218951106071472,0.0830669403076171,-0.0170621871948242,0,0,0,0
1.8,1788431523546,0.0,0.0,-0.0010439597535878,-0.0027703968808054,-0.1369648277759552,0.9905714988708496,0.0,0.0,0.0,0.0,-1.788137415914548e-09,0.0,0.0002684323117136,-0.0033975858241319,0.3231295049190521,0.9463486075401306,2.2447910030179035e-05,8.795822003013512e-05,2.970532443017e-11,0.0043210387229919,0.0864247679710388,-0.0244464874267578,0,0,0,0
1.9,1788431523646,0.0,0.0,-0.0010439597535878,-0.0027703968808054,-0.1369648277759552,0.9905714988708496,0.0,0.0,0.0,0.0,-1.8190395856265691e-09,0.0,0.0002694120630621,-0.0033937562257051,0.3231295049190521,0.9463486075401306,6.915967443019052e-05,4.718877851665102e-05,5.1995957347600985e-11,0.041664183139801,0.1232415437698364,-0.0260791778564453,0,0,0,0
2.0,1788431523746,0.0,0.0,-0.001170004485175,-0.002973907161504,-0.1368001848459243,0.9905934929847716,0.0004523631958047,-0.0005165949199817,-3.288637677796593e-06,-0.00298738386482,-0.006778369192034,0.005146546754986,0.0002728821709752,-0.0033878702670335,0.3231295049190521,0.9463486075401306,5.096708167638622e-05,0.0001669793839141,1.2718913235849883e-10,0.0267759561538696,-0.1365253329277038,-0.0322818756103515,0,0,0,0
2.1,1788431523846,0.0,0.0,-0.001170004485175,-0.002973907161504,-0.1368001848459243,0.9905934929847716,0.0,0.0,0.0,0.0,1.1931230448070096e-09,0.0,0.0002615898847579,-0.003375981003046,0.3231295347213745,0.9463487267494202,-0.0002097775991055,0.0003526299736697,-9.846616675517991e-10,0.0641123056411743,-0.0089169740676879,0.0042476654052734,0,0,0,0
2.2,1788431523946,0.0,0.0,-0.001170004485175,-0.002973907161504,-0.1368001848459243,0.9905934929847716,0.0,0.0,0.0,0.0,1.191193699234816e-09,0.0,0.0002504019066691,-0.00336495321244,0.3231295347213745,0.9463487267494202,-0.0001269451560407,0.0003164924864995,1.980133249440624e-06,-0.01301771402359,0.0157340764999389,0.0063552856445312,0,0,0,0
2.3,1788431524046,0.0,0.0,-0.001170004485175,-0.002973907161504,-0.1368001848459243,0.9905934929847716,0.0,0.0,0.0,0.0,1.2167814533725616e-09,0.0,0.0002417592331767,-0.0033547030761837,0.3231295347213745,0.9463487267494202,-7.761530615674791e-05,0.0002424639369781,-2.8240633807779267e-10,-0.036712646484375,-0.0457518696784973,0.0242547988891601,0,0,0,0
2.4,1788431524146,0.0,0.0,-0.001170004485175,-0.002973907161504,-0.1368001848459243,0.9905934929847716,0.0,0.0,0.0,0.0,8.872397816439558e-10,0.0,0.0002370337024331,-0.0033452697098255,0.3231295645236969,0.9463488459587096,8.107141550088429e-06,0.0001207433005142,1.4717014081232558e-11,-0.0105482935905456,0.0542358756065368,-0.0007753372192382,0,0,0,0
2.5,1788431524246,0.0,0.0,-0.001170004485175,-0.002973907161504,-0.1368001848459243,0.9905934929847716,0.0,0.0,0.0,0.0,1.1927748788664871e-09,0.0,0.000234629958868,-0.0033414438366889,0.3231295645236969,0.9463488459587096,-4.324905485380185e-05,6.822268818695722e-05,-4.4595261706498106e-11,0.0178549885749816,-0.0171744227409362,0.0025234222412109,0,0,0,0
2.6,1788431524346,0.0,0.0,-0.001170004485175,-0.002973907161504,-0.1368001848459243,0.9905934929847716,0.0,0.0,0.0,0.0,1.1690741708036967e-09,0.0,0.000233351252973,-0.0033424505963921,0.3231295645236969,0.9463488459587096,-3.5084273346899475e-05,-4.926065845268607e-05,2.4131599244012077e-11,0.0098596215248107,-0.0242108106613159,0.0022306442260742,0,0,0,0
2.7,1788431524446,0.0,0.0,-0.001170004485175,-0.002973907161504,-0.1368001848459243,0.9905934929847716,0.0,0.0,0.0,0.0,9.191248873108291e-10,0.0,0.0002334732562303,-0.0033474871888756,0.3231295645236969,0.9463488459587096,-4.09870090500378e-05,-9.626083511186694e-05,5.930337814036024e-11,-0.0193268060684204,-0.0923733115196228,0.0232419967651367,0,0,0,0
2.8,1788431524546,0.0,0.0,-0.001170004485175,-0.002973907161504,-0.1368001848459243,0.9905934929847716,0.0,0.0,0.0,0.0,1.2533354354360424e-09,0.0,0.0002301437780261,-0.0033528329804539,0.3231295645236969,0.9463488459587096,-0.0001009298476181,-8.800388053522738e-05,1.3540812045120402e-10,0.0361914038658142,-0.0127155780792236,-0.0361480712890625,0,0,0,0
2.9,1788431524646,0.0,0.0,-0.001170004485175,-0.002973907161504,-0.1368001848459243,0.9905934929847716,0.0,0.0,0.0,0.0,1.1922918208284727e-09,0.0,0.0002262545749545,-0.003360484726727,0.3231295347213745,0.9463487267494202,-0.0001590033058729,-0.000139562907559,1.9934204132804785e-06,0.0052475929260253,0.0253481268882751,-0.0214595794677734,0,0,0,0
3.0,1788431524746,0.0,0.0,-0.001170004485175,-0.002973907161504,-0.1368001848459243,0.9905934929847716,0.0,0.0,0.0,0.0,1.1710761249617008e-09,0.0,0.0002201925963163,-0.0033725453540682,0.3231295347213745,0.9463487267494202,-0.00017857100818,-0.0001490054937206,3.9782501657354587e-10,-0.0093655586242675,0.0401475429534912,-0.0369386672973632,0,0,0,0
3.1,1788431524846,0.0,0.0,-0.001170004485175,-0.002973907161504,-0.1368001848459243,0.9905934929847716,0.0,0.0,0.0,0.0,1.2182398423377092e-09,0.0,0.0002176575362682,-0.0033811060711741,0.3231295347213745,0.9463487267494202,-9.591368768983746e-05,-0.0002038616055685,2.6260129235967064e-10,-0.002595841884613,-0.0055468082427978,0.0085821151733398,0,0,0,0
3.2,1788431524946,0.0,0.0,-0.001170004485175,-0.002973907161504,-0.1368001848459243,0.9905934929847716,0.0,0.0,0.0,0.0,1.2048575470657852e-09,0.0,0.0002202540636062,-0.0033877631649374,0.3231295347213745,0.9463487267494202,8.12490256452936e-05,-0.0001437781851125,-1.7534705376043848e-10,-0.015030562877655,0.0020442605018615,-0.0073623657226562,0,0,0,0
3.3,1788431525046,0.0,0.0,-0.001170004485175,-0.002973907161504,-0.1368001848459243,0.9905934929847716,0.0,0.0,0.0,0.0,1.1929067733618124e-09,0.0,0.0002308264374732,-0.0033927513286471,0.3231295049190521,0.9463486075401306,0.0001417565292415,-0.0001198124753131,-2.6891763271942283e-10,0.0443251132965087,0.0338556170463562,0.010110855102539,0,0,0,0
3.4,1788431525146,0.0,0.0,-0.001170004485175,-0.002973907161504,-0.1368001848459243,0.9905934929847716,0.0,0.0,0.0,0.0,1.1684307965609262e-09,0.0,0.0002404013648629,-0.0033943988382816,0.3231295049190521,0.9463486075401306,0.000174998428741,-9.1686207399388e-05,-2.412358798184327e-10,0.0227951407432556,0.0479553341865539,-0.0141773223876953,0,0,0,0
3.5,1788431525246,0.0,0.0,-0.001170004485175,-0.002973907161504,-0.1368001848459243,0.9905934929847716,0.0,0.0,0.0,0.0,1.8143814228821494e-09,0.0,0.0002524945884943,-0.0033936640247702,0.3231295049190521,0.9463486075401306,0.000269642422114,-0.0001163221269118,-1.9845039125872204e-06,-0.1121134161949157,-0.0354263186454772,-0.0184516906738281,0,0,0,0
3.6,1788431525346,0.0,0.0,-0.001170004485175,-0.002973907161504,-0.1368001848459243,0.9905934929847716,0.0,0.0,0.0,0.0,9.14694153753004e-10,0.0,0.0002686502411961,-0.0033983960747718,0.3231295049190521,0.9463486075401306,0.0002682439024777,-0.0001863257766989,-1.9889491724685115e-06,0.0074546337127685,0.0051909685134887,-0.0041866302490234,0,0,0,0
3.7,1788431525446,0.0,0.0,-0.001170004485175,-0.002973907161504,-0.1368001848459243,0.9905934929847716,0.0,0.0,0.0,0.0,1.2116670999873236e-09,0.0,0.0002832477912306,-0.0034003108739852,0.3231295049190521,0.9463486075401306,0.0003140267218252,-0.000106827682598,-5.048548330744078e-10,0.0493608117103576,-0.0169978141784667,-0.000990867614746,0,0,0,0
3.8,1788431525546,0.0,0.0,-0.001170004485175,-0.002973907161504,-0.1368001848459243,0.9905934929847716,0.0,0.0,0.0,0.0,1.2026670770381995e-09,0.0,0.0003009624779224,-0.0033984817564487,0.3231295049190521,0.9463486075401306,0.0003861034438591,-6.797074821590215e-05,-4.2017161754033015e-10,-0.0295034050941467,0.0125029683113098,0.0241861343383789,0,0,0,0
3.9,1788431525646,0.0,0.0,-0.001170004485175,-0.002973907161504,-0.1368001848459243,0.9905934929847716,0.0,0.0,0.0,0.0,1.2198807519681052e-09,0.0,0.0003217421472072,-0.0033916607499122,0.3231295049190521,0.9463486075401306,0.0004043469775341,1.7150536189862055e-05,-1.9608847241378997e-06,0.0035856962203979,-0.0002260208129882,-0.0225896835327148,0,0,0,0
4.0,1788431525746,0.0,0.0,-0.001170004485175,-0.002973907161504,-0.1368001848459243,0.9905934929847716,0.0,0.0,0.0,0.0,1.194280119243274e-09,0.0,0.0003400342538952,-0.003380237147212,0.3231295049190521,0.9463486075401306,0.0003326780812238,9.200228429579953e-05,-2.112334220647556e-06,0.0220035314559936,-0.0213762521743774,-0.0058298110961914,0,0,0,0
4.1,1788431525846,0.0,0.0,-0.001170004485175,-0.002973907161504,-0.1368001848459243,0.9905934929847716,0.0,0.0,0.0,0.0,1.2201480936724352e-09,0.0,0.0003477903082966,-0.0033736620098352,0.3231295049190521,0.9463486075401306,0.0001838901144878,8.70342539009632e-05,2.3978684495135047e-10,-0.0460444688796997,0.0096833705902099,0.0107889175415039,0,0,0,0
4.2,1788431525946,0.0,0.0,-0.001170004485175,-0.002973907161504,-0.1368001848459243,0.9905934929847716,0.0,0.0,0.0,0.0,1.2094416579344622e-09,0.0,0.0003560138866305,-0.0033687390387058,0.3231295347213745,0.9463487267494202,0.0001681780684603,2.601715448574904e-05,6.930790559684995e-11,-0.0213901996612548,0.0241565108299255,0.0033168792724609,0,0,0,0
4.3,1788431526046,0.0,0.0,-0.001170004485175,-0.002973907161504,-0.1368001848459243,0.9905934929847716,0.0,0.0,0.0,0.0,1.202128507848954e-09,0.0,0.0003578215837478,-0.0033653061836957,0.3231295347213745,0.9463487267494202,-5.510352271536368e-05,7.837374086655184e-05,1.9864867129570795e-06,0.0274759531021118,0.0297272205352783,0.0117807388305664,0,0,0,0
4.4,1788431526146,0.0,0.0,-0.001170004485175,-0.002973907161504,-0.1368001848459243,0.9905934929847716,0.0,0.0,0.0,0.0,1.2043561703478643e-09,0.0,0.0003440845757722,-0.0033643655478954,0.3231295347213745,0.9463487267494202,-0.0002873410861561,0.0001030218677749,-3.9689494089311455e-10,-0.0368503332138061,-0.0441997647285461,-0.0025234222412109,0,0,0,0
4.5,1788431526246,0.0,0.0,-0.001170004485175,-0.002973907161504,-0.1368001848459243,0.9905934929847716,0.0,0.0,0.0,0.0,1.227799084624337e-09,0.0,0.000328479334712,-0.0033624181523919,0.3231295347213745,0.9463487267494202,-0.0002919945215106,0.0001798605255169,1.979305394798266e-06,0.0033955574035644,-0.0348464846611022,0.022867202758789,0,0,0,0
4.6,1788431526346,0.0,0.0,-0.001170004485175,-0.002973907161504,-0.1368001848459243,0.9905934929847716,0.0,0.0,0.0,0.0,1.2321592635089471e-09,0.0,0.0003200992941856,-0.0033601848408579,0.3231295347213745,0.9463487267494202,-0.0002149557510804,0.0001548806073535,1.9657883237895304e-06,-0.025292694568634,-0.0693910121917724,-0.0096263885498046,0,0,0,0
4.7,1788431526446,0.0,0.0,-0.001170004485175,-0.002973907161504,-0.1368001848459243,0.9905934929847716,0.0,0.0,0.0,0.0,1.833799112560541e-09,0.0,0.0003103855997323,-0.003353115171194,0.3231295347213745,0.9463487267494202,-5.448580236086353e-05,0.0001407070674845,-1.1523652388848515e-10,0.0035109519958496,0.0246462821960449,-0.0074777603149414,0,0,0,0
4.8,1788431526546,0.0,0.0,-0.001170004485175,-0.002973907161504,-0.1368001848459243,0.9905934929847716,0.0,0.0,0.0,0.0,8.989333166731227e-10,0.0,0.0003109676763415,-0.0033467384055256,0.3231295347213745,0.9463487267494202,0.0001090767769405,8.474746296585231e-05,1.2884872731447398e-10,0.0263875722885131,-0.0070148706436157,-0.0168666839599609,0,0,0,0
4.9,1788431526646,0.0,0.0,-0.001170004485175,-0.002973907161504,-0.1368001848459243,0.9905934929847716,0.0,0.0,0.0,0.0,1.1931091670192018e-09,0.0,0.0003165630623698,-0.0033415406942367,0.3231295347213745,0.9463487267494202,0.0001869580895633,5.935799664627245e-05,-1.9863552858646877e-06,0.0262501239776611,0.0279396772384643,-0.0019645690917968,0,0,0,0
5.0,1788431526746,0.0,0.0,-0.001170004485175,-0.002973907161504,-0.1368001848459243,0.9905934929847716,0.0,0.0,0.0,0.0,1.243952163498818e-09,0.0,0.0003261463716626,-0.0033377204090356,0.3231295645236969,0.9463488459587096,0.0002338365098495,3.022520644135096e-06,-1.981457925785475e-06,-0.0100482106208801,0.0023766756057739,-0.0378313064575195,0,0,0,0
5.1,1788431526846,0.0,0.0,-0.001170004485175,-0.002973907161504,-0.1368001848459243,0.9905934929847716,0.0,0.0,0.0,0.0,9.115294075101588e-10,0.0,0.0003377525135874,-0.003335028886795,0.3231295645236969,0.9463488459587096,0.000129694564375,-2.0980860939388038e-05,-4.093373717288684e-11,-0.0048524141311645,0.0065796971321105,0.0290098190307617,0,0,0,0
5.2,1788431526946,0.0,0.0,-0.001170004485175,-0.002973907161504,-0.1368001848459243,0.9905934929847716,0.0,0.0,0.0,0.0,1.225261891946161e-09,0.0,0.0003421586006879,-0.0033343210816383,0.3231295645236969,0.9463488459587096,0.0001119064866226,-5.695068318140718e-06,-9.530523952002592e-12,0.0258374810218811,-0.0293887853622436,0.0018520355224609,0,0,0,0
5.3,1788431527046,0.0,0.0,-0.001170004485175,-0.002973907161504,-0.1368001848459243,0.9905934929847716,0.0,0.0,0.0,0.0,1.1697944835020735e-09,0.0,0.0003422312438488,-0.0033347066491842,0.3231295645236969,0.9463488459587096,-0.0001009734638179,-8.708502129388953e-06,1.388909708742035e-11,-0.0011391043663024,0.1180170774459838,-0.0123472213745117,0,0,0,0
5.4,1788431527146,0.0,0.0,-0.001170004485175,-0.002973907161504,-0.1368001848459243,0.9905934929847716,0.0,0.0,0.0,0.0,1.193226184525997e-09,0.0,0.0003493092954158,-0.0033312393352389,0.3231295645236969,0.9463488459587096,0.0002161296891336,1.5904948226577246e-05,5.306257106848637e-11,0.0063374638557434,-0.1187531352043151,-0.0201692581176757,0,0,0,0
5.5,1788431527246,0.0,0.0,-0.001170004485175,-0.002973907161504,-0.1368001848459243,0.9905934929847716,0.0,0.0,0.0,0.0,1.2627475731719071e-09,0.0,0.0003562159836292,-0.0033310428261756,0.3231295645236969,0.9463488459587096,7.825140146518791e-05,-0.0001030770943383,-1.2174948989529684e-10,-0.0451864004135131,-0.1135808825492858,0.0421772003173828,0,0,0,0
5.6,1788431527346,0.0,0.0,-0.001170004485175,-0.002973907161504,-0.1368001848459243,0.9905934929847716,0.0,0.0,0.0,0.0,9.293069647142715e-10,0.0,0.0003555957227945,-0.0033407388255,0.3231295645236969,0.9463488459587096,-0.0001273063783419,-0.0002679708869011,5.127046948106605e-10,0.0019475221633911,-0.0615985989570617,0.0021381378173828,0,0,0,0
5.7,1788431527446,0.0,0.0,-0.001170004485175,-0.002973907161504,-0.1368001848459243,0.9905934929847716,0.0,0.0,0.0,0.0,1.1691392298729395e-09,0.0,0.0003490597009658,-0.0033575883135199,0.3231295347213745,0.9463487267494202,-0.0002836142836139,-0.0003138849892428,1.9831935877623606e-06,0.0157834291458129,0.0365971326828002,0.0073328018188476,0,0,0,0
5.8,1788431527546,0.0,0.0,-0.001170004485175,-0.002973907161504,-0.1368001848459243,0.9905934929847716,0.0,0.0,0.0,0.0,1.1943618316578863e-09,0.0,0.0003388775512576,-0.0033796010538935,0.3231295347213745,0.9463487267494202,-0.0003048707498442,-0.0003173955355139,2.1526970240630874e-06,0.0209143161773681,0.0278452038764953,-0.0243911743164062,0,0,0,0
5.9,1788431527646,0.0,0.0,-0.001170004485175,-0.002973907161504,-0.1368001848459243,0.9905934929847716,0.0,0.0,0.0,0.0,1.2362360024553711e-09,0.0,0.0003325259312987,-0.0033962223678827,0.3231295049190521,0.9463486075401306,-0.0002665951654016,-0.0002834045677769,1.135276534509268e-09,0.0136605501174926,0.0369413495063781,0.0049858093261718,0,0,0,0
6.0,1788431527746,0.0,0.0,-0.001170004485175,-0.002973907161504,-0.1368001848459243,0.9905934929847716,0.0,0.0,0.0,0.0,9.25818088859387e-10,0.0,0.0003272918984293,-0.0034096157178282,0.3231295049190521,0.9463486075401306,-0.0001540271169595,-0.0002421846817426,1.9432702398130744e-06,-0.067137062549591,-0.0356974005699157,-0.0040416717529296,0,0,0,0
6.1,1788431527846,0.0,0.0,-0.001170004485175,-0.002973907161504,-0.1368001848459243,0.9905934929847716,0.0,0.0,0.0,0.0,1.1930192389542071e-09,0.0,0.0003242269158363,-0.0034216847270727,0.3231294751167297,0.9463484883308412,-8.305997740954548e-05,-0.0001147213816234,1.4785684651596272e-10,0.0718854665756225,0.1455422043800354,-0.0120115280151367,0,0,0,0
6.2,1788431527946,0.0,0.0,-0.001170004485175,-0.002973907161504,-0.1368001848459243,0.9905934929847716,0.0,0.0,0.0,0.0,1.1924485843195496e-09,0.0,0.0003252672031521,-0.0034253001213073,0.3231294751167297,0.9463484883308412,-7.260501140597844e-05,-1.3546806501424049e-05,1.4821170771073456e-11,0.0279259085655212,0.1599293351173401,-0.0282135009765625,0,0,0,0
6.3,1788431528046,0.0,0.0,-0.001170004485175,-0.002973907161504,-0.1368001848459243,0.9905934929847716,0.0,0.0,0.0,0.0,1.8346431041038611e-09,0.0,0.0003295028582215,-0.0034234412014484,0.3231294751167297,0.9463484883308412,5.846518841644264e-05,1.3931100925000935e-05,1.293866932155302e-11,-0.0151247978210449,0.1050313115119934,0.0164041519165039,0,0,0,0
6.4,1788431528146,0.0,0.0,-0.001170004485175,-0.002973907161504,-0.1368001848459243,0.9905934929847716,0.0,0.0,0.0,0.0,1.2105401125950266e-09,0.0,0.0003337189555168,-0.0034172376617789,0.3231294751167297,0.9463484883308412,0.0001552756730502,0.0001013988543008,2.363001336805718e-10,-0.0358566045761108,-0.1366034150123596,0.0177173614501953,0,0,0,0
6.5,1788431528246,0.0,0.0,-0.001170004485175,-0.002973907161504,-0.1368001848459243,0.9905934929847716,0.0,0.0,0.0,0.0,1.1778971131803926e-09,0.0,0.0003338549286127,-0.0034099984914064,0.3231294751167297,0.9463484883308412,6.373501742833018e-05,0.0001661754187582,1.6832406990571142e-10,0.0347712635993957,-0.0839040875434875,-0.0035762786865234,0,0,0,0
6.6,1788431528346,0.0,0.0,-0.001170004485175,-0.002973907161504,-0.1368001848459243,0.9905934929847716,0.0,0.0,0.0,0.0,1.1932687060678402e-09,0.0,0.000330745242536,-0.0034022135660052,0.3231295049190521,0.9463486075401306,-4.640548406300671e-05,0.0001998815238232,-1.4354813619510696e-10,0.0011859536170959,0.0497714877128601,0.0023221969604492,0,0,0,0
6.7,1788431528446,0.0,0.0,-0.001170004485175,-0.002973907161504,-0.1368001848459243,0.9905934929847716,0.0,0.0,0.0,0.0,1.2284375738857987e-09,0.0,0.0003263121470808,-0.0033894954249262,0.3231295049190521,0.9463486075401306,-1.4617636949531146e-05,0.0002379120202547,-5.223579759859469e-11,-0.0396650433540344,-0.007944107055664,-0.0177640914916992,0,0,0,0
6.8,1788431528546,0.0,0.0,-0.001170004485175,-0.002973907161504,-0.1368001848459243,0.9905934929847716,0.0,0.0,0.0,0.0,9.145901258555965e-10,0.0,0.0003209644928574,-0.0033786986023187,0.3231295049190521,0.9463486075401306,-4.229173922630711e-05,0.0002603114436934,2.097226005249315e-06,-0.01965993642807,-0.0830289125442504,-0.0018320083618164,0,0,0,0
6.9,1788431528646,0.0,0.0,-0.001170004485175,-0.002973907161504,-0.1368001848459243,0.9905934929847716,0.0,0.0,0.0,0.0,1.217208112080925e-09,0.0,0.0003131991252303,-0.0033707786351442,0.3231295347213745,0.9463487267494202,-0.0001177686195338,0.0001724411787411,1.9823837214746065e-06,-0.0810772776603698,-0.0017231702804565,0.0374488830566406,0,0,0,0
7.0,1788431528746,0.0,0.0,-0.001170004485175,-0.002973907161504,-0.1368001848459243,0.9905934929847716,0.0,0.0,0.0,0.0,1.192685061823795e-09,0.0,0.0003018835559487,-0.0033625699579715,0.3231295347213745,0.9463487267494202,-0.0001536405841325,0.0001668707196646,-4.0670904902904076e-10,0.0483600497245788,0.0025489330291748,0.0238780975341796,0,0,0,0
7.1,1788431528846,0.0,0.0,-0.001170004485175,-0.002973907161504,-0.1368001848459243,0.9905934929847716,0.0,0.0,0.0,0.0,1.769942414853176e-09,0.0,0.0002933964133262,-0.0033595254644751,0.3231295347213745,0.9463487267494202,-0.0001315153061629,0.0001111508724454,-2.1952145507341055e-10,-0.0865336060523986,0.0508742928504943,-0.032052993774414,0,0,0,0
7.2,1788431528946,0.0,0.0,-0.001170004485175,-0.002973907161504,-0.1368001848459243,0.9905934929847716,0.0,0.0,0.0,0.0,1.202566379809866e-09,0.0,0.0002916064113378,-0.0033535696566104,0.3231295347213745,0.9463487267494202,5.318289948607909e-05,0.0001216991331607,1.0078863534501506e-10,-0.0110645294189453,-0.0402634143829345,-0.0090818405151367,0,0,0,0
7.3,1788431529046,0.0,0.0,-0.001170004485175,-0.002973907161504,-0.1368001848459243,0.9905934929847716,0.0,0.0,0.0,0.0,1.192732357324644e-09,0.0,0.0002924753352999,-0.0033483710139989,0.3231295347213745,0.9463487267494202,0.0001083523960468,0.0001418483596912,2.2818116722871328e-10,-0.0375594496726989,0.0110291838645935,0.0252361297607421,0,0,0,0
7.4,1788431529146,0.0,0.0,-0.001170004485175,-0.002973907161504,-0.1368001848459243,0.9905934929847716,0.0,0.0,0.0,0.0,1.1940793909204215e-09,0.0,0.0003002109006047,-0.0033355662599205,0.3231295645236969,0.9463488459587096,0.0001555807526053,0.0001168650304433,-1.8841123157492949e-06,-0.0304096937179565,0.0714704990386962,-0.0084800720214843,0,0,0,0
7.5,1788431529246,0.0,0.0,-0.001170004485175,-0.002973907161504,-0.1368001848459243,0.9905934929847716,-0.0008614011945981,0.0008027192339427,-3.305412020037395e-06,0.0,1.2040907160226766e-09,0.0,0.000307448208332,-0.0033261235803365,0.3231295645236969,0.9463488459587096,0.0002104260434613,0.0001739111925116,5.493732361003971e-10,-0.0118943452835083,0.0960895419120788,0.0057134628295898,0,0,0,0
7.6,1788431529346,0.0,0.0,-0.001170004485175,-0.002973907161504,-0.1368001848459243,0.9905934929847716,0.0,0.0,0.0,0.0,1.214655043213497e-09,0.0,0.0003157844766974,-0.0033136727288365,0.3231295645236969,0.9463488459587096,0.0001566763028643,0.0001754397166577,4.1284821980522586e-10,0.0025478601455688,0.2277811169624328,-0.0297212600708007,0,0,0,0
7.7,1788431529446,0.0,0.0,-0.001170004485175,-0.002973907161504,-0.1368001848459243,0.9905934929847716,0.0,0.0,0.0,0.0,1.1933903865113391e-09,0.0,0.0003305943682789,-0.0033029336482286,0.3231295645236969,0.9463488459587096,0.0003516746836114,1.337479535289198e-06,-2.1217108343275443e-06,-0.0275908112525939,-0.0637537837028503,0.05224609375,0,0,0,0
7.8,1788431529546,0.0,0.0,-0.001170004485175,-0.002973907161504,-0.1368001848459243,0.9905934929847716,-0.0008527974853905,0.0007947016424795,-3.2723974340234395e-06,0.0,1.192064114086122e-09,0.0,0.0001566661521792,-0.0032886452972888,0.3218504786491394,0.946784734725952,-0.0135519298458469,0.0125149252487182,-0.1321372957298522,-0.4105792045593261,0.2557913661003113,-0.0461854934692382,1,0,0,0
7.9,1788431529646,0.0,0.0,-0.001411557663232,-0.0030656072776764,-0.1389959007501602,0.990287184715271,-0.0020417986129935,0.005007596868209,-7.051868781971387e-06,-0.0029530460014939,-5.613042594632134e-05,-0.0372809432446956,0.0003279037773609,-0.0031634150072932,0.3228070735931396,0.9464595317840576,0.0107812291766265,0.0047383254151483,0.0947308144035577,0.4634745717048645,0.2699970006942749,-0.0099191665649414,0,0,0,0
8.0,1788431529746,0.0,0.0,-0.001200073515065,-0.0029724002815783,-0.1375504434108734,0.9904896020889282,-0.000890946663025,-0.0006290420794184,4.648460713330062e-06,-0.0016386701026931,0.0010234990622848,-0.0108511932194232,0.0003824438899755,-0.0031602503731846,0.3225769698619842,0.9465378522872924,0.0007358181767784,0.0008207874593952,0.0110867942825457,-0.029059886932373,0.3806267380714416,-0.0313072204589843,0,0,0,0
8.1,1788431529846,0.0,0.0,-0.001200073165819,-0.0029724007472395,-0.1375503689050674,0.9904896020889282,-0.0007970734995146,-0.0008579293158304,3.61856377485886e-06,7.18560855261785e-09,-2.4550830701741688e-08,1.2263438975423924e-06,0.0002678707242012,-0.0031601665541529,0.3224152028560638,0.9465930461883544,-1.6437292824636425e-05,0.0002860053405037,0.0091484138140198,0.1313731074333191,-0.2133238315582275,-0.0093841552734375,0,0,0,0
8.2,1788431529946,0.0,0.0,-0.001200073165819,-0.0029724007472395,-0.1375503689050674,0.9904896020889282,-0.0007769272272145,-0.0008362447485632,3.5271046276832376e-06,0.0,-4.0856606986494626e-09,0.0,0.000334158539772,-0.0031689181923866,0.3224427103996277,0.9465835690498352,-0.001596061578929,0.0006349961649712,-0.0025568506373271,-0.0345720052719116,-0.1533517241477966,0.0446233749389648,0,0,0,0
8.3,1788431530046,-1.8591549396514893,1.887323975563049,-0.001200073165819,-0.0029724007472395,-0.1375503689050674,0.9904896020889282,0.0,0.0,0.0,0.0,-4.386869090211576e-09,0.0,0.0003626439720392,-0.0030885785818099,0.3226071894168854,0.9465277791023254,0.0019939922897494,0.0004277612230977,0.0057468240300733,-0.0721305012702941,0.0054236650466918,0.0163784027099609,186,34,-7447,6992
8.4,1788431530146,-3.91549301147461,3.690140962600708,-0.0009647642727941,-0.0029062237590551,-0.1272869408130645,0.9918612241744996,-0.0078191642368934,0.0063251859416524,-3.605053366101164e-06,0.0064718765206635,0.0017743849894031,0.4143974483013153,0.0003462182357907,-0.0028451615944504,0.3608826398849487,0.932606875896454,0.0053007649290696,0.0022435516779978,1.166599317845524,0.2023214697837829,-0.3410158157348633,0.3262739181518554,67,95,-10821,11099
8.5,1788431530246,-3.239436626434326,3.380281686782837,-0.0010018047178164,-0.0027967146597802,-0.0762078762054443,0.9970874786376952,0.0140739527671985,-0.0118049573352581,-7.3796452784971615e-06,0.0028497504536062,-0.004723613616079,1.1200151443481443,0.0004851818084716,-0.0032788095995783,0.4053308665752411,0.914164125919342,0.0048090252511212,-0.0220238570538363,1.007316661107036,0.1383939385414123,-0.2718232274055481,0.6497735977172852,90,70,-11869,9968
8.6,1788431530346,-3.1549296379089355,3.126760482788086,-0.0010283729061484,-0.0028700872790068,-0.0288264993578195,0.9995798468589784,0.0075404736468762,-0.009222433180097,-6.412936872502944e-06,0.0030356959905475,0.0085790455341339,0.9223607182502748,-4.287064075469971e-05,-0.0028097135946154,0.4434415996074676,0.896298885345459,-0.0074371165564937,0.0147468860114064,0.8700539250620106,-0.1028279662132263,0.0106706619262695,-0.0070381164550781,133,119,-12672,11077
8.7,1788431530446,-3.126760482788086,3.323943614959717,-0.0015495209954679,-0.002593285171315,0.0172515660524368,0.9998466372489928,0.0018834676893352,-0.0072750914928658,-1.1225080544374755e-07,-0.0104682510718703,0.0079728690907359,0.9918335676193236,-0.0005395533517003,-0.0024585537612438,0.4958560168743133,0.8684011697769165,0.0076913515459307,0.0248096810558355,0.963982256816133,-0.1515918970108032,0.0843726396560669,0.2517156600952148,217,92,-12885,10442
8.8,1788431530546,-3.0985915660858154,3.2957746982574463,-0.0018915520049631,-0.0014366437681019,0.0718904808163642,0.9974097013473512,0.0048338083825093,-0.0065841430402623,-1.1314066312644e-05,-0.0094286277890205,0.0241601429879665,0.9458826780319214,-0.0011098366230726,-0.0024213241413235,0.5333555936813354,0.8458868861198425,-0.0038616110570446,-0.0223134864833016,0.8989042983692942,0.2876999974250793,0.0496826171875,-0.2888708114624023,208,88,-13322,10540
8.9,1788431530646,-3.070422649383545,3.211267709732056,-0.0026105437427759,-0.0009389583719894,0.1165536865592002,0.993180513381958,0.0122029508073625,-0.0060468251495172,-1.296665158235153e-07,-0.0166036058217287,0.0226998757570981,0.8792272210121155,-0.0021891640499234,-0.001832322217524,0.5675783753395081,0.8233144283294678,-0.0009477752657494,0.0098048333409569,0.94086772140019,0.1763009428977966,0.1333641409873962,-0.2258491516113281,343,119,-15084,11440
9.0,1788431530746,-3.4647886753082275,3.380281686782837,-0.0027603737544268,-0.0010741254081949,0.1609054505825042,0.9869654178619384,0.0103757779962072,-0.010055572682373,5.632048570121396e-06,-0.0028680206742137,-0.0181302614510059,0.9330334663391112,-0.0017592227086424,-0.0023682527244091,0.6137871146202087,0.7894660234451294,0.0046101792556353,-0.0176388842053008,0.9558093634935272,0.0404740571975708,0.1436883807182312,-0.7539024353027344,284,101,-14143,10661
9.1,1788431530846,-3.4647886753082275,3.2957746982574463,-0.0030659122858196,-0.000896000303328,0.2138213068246841,0.9768676161766052,0.0083518231051109,-0.0087919335896646,-3.036359454534389e-06,-0.0087830573320388,0.0093352543190121,0.9592453837394714,-0.0023166388273239,-0.0023431293666362,0.6469515562057495,0.7625239491462708,-0.0023817152624868,-0.0134658793593671,1.0146159152158434,-0.1169188618659973,-0.251581609249115,-0.1370820999145507,304,99,-14547,10793
9.2,1788431530946,-3.802816867828369,3.4647886753082275,-0.0028508871328085,-0.000924372463487,0.2579219937324524,0.9661611318588256,0.0062740424234633,-0.0094706329406571,-5.159024024400143e-06,0.0106561705470085,0.0026982589624822,0.9542638063430786,-0.0038918135687708,-3.481004387140274e-05,0.6798529028892517,0.7333381772041321,0.0033845304843287,0.1685404888577113,1.0140219492900622,-0.5063509345054626,-1.366827130317688,3.051708221435547,159,94,-12752,10208
9.3,1788431531046,-3.2676055431365967,3.4084506034851074,-0.0029405136592686,-5.541049176827073e-05,0.3035316169261932,0.9528167843818665,0.0082813865168386,-0.0071379021546584,8.677010645363583e-06,0.0145059488713741,-0.059013582766056,0.9862743616104126,-0.0025485903024673,-0.0018174005672335,0.7117951512336731,0.7023801207542419,-0.0242580386531562,0.0039340292799599,0.9918665240687417,0.2067059874534607,-0.3696884512901306,-1.134129524230957,142,78,-13529,10177
9.4,1788431531146,-3.070422649383545,3.239436626434326,-0.0028560878708958,-0.0014260272728279,0.3498149812221527,0.9368132948875428,0.0077158358806916,-0.0094219408807394,7.895243888178108e-06,-0.0107795475050807,-0.0336377210915088,1.0083065032958984,-0.0046800766140222,-0.0042201438918709,0.7525262236595154,0.6585322022438049,-0.1580368441999911,0.0755733170486715,0.9934150350326156,0.005581259727478,-0.4848690629005432,0.1142263412475586,216,70,-14080,10344
9.5,1788431531246,-3.549295663833618,3.323943614959717,-0.0162152610719203,0.0011704503558576,0.4014397263526916,0.9157411456108092,-0.0114252533399321,-0.0005923294071429,9.009234545400136e-05,-0.2871345579624176,0.2048576325178146,1.031039118766785,-0.0264220982789993,-0.0084324274212121,0.7849977612495422,0.6188774704933167,-0.2924434465668852,0.2298462008602748,0.7622843898590651,-0.6873123049736023,-1.724418044090271,0.4996175765991211,45,75,-9891,9591
9.6,1788431531346,-3.380281686782837,2.901408433914185,-0.0300235971808433,0.0046273441985249,0.4376823008060455,0.898616373538971,-0.0035863383214772,-0.0145754168891394,0.0001406887968499,-0.1935760974884033,0.1231531575322151,0.8181800246238708,-0.0215848982334136,-0.0099985199049115,0.8103383779525757,0.5854792594909668,0.2012168476125558,-0.3419481845584641,1.0094495102658927,0.0864708423614502,-0.2455347776412964,-0.7359466552734375,115,186,-11054,11760
9.7,1788431531446,-3.0985915660858154,3.239436626434326,-0.0161701701581478,-0.0026366305537521,0.4842488765716553,0.8747769594192505,0.0180571960330904,-0.0114505651284441,2.9424156544604616e-05,0.2092421799898147,-0.3179538547992706,1.1554136276245115,-0.0049255862832069,-0.0085237976163625,0.8396571278572083,0.5430276393890381,0.2855889506073971,-0.3274601547325615,1.1841196085586996,0.3080324530601501,-0.0807167291641235,0.8113889694213867,69,84,-10912,9992
9.8,1788431531546,-3.070422649383545,3.2676055431365967,-0.0028278920799493,-0.0052937380969524,0.5279668569564819,0.849243700504303,0.0182205502284115,-0.0181695679769,-1.1498959493527046e-05,0.1748031079769134,-0.1047253236174583,1.0316336154937744,-0.0002136565744876,-0.0048060296103358,0.870596706867218,0.4919739365577698,0.0102144079099119,-0.008826646315736,1.0143049572255358,0.381722092628479,0.00176602602005,-1.5981035232543943,122,82,-12300,10179
9.9,1788431531646,-2.816901445388794,3.211267709732056,-0.0022808508947491,-0.0040045091882348,0.5670252442359924,0.8236874938011169,0.0108092778606386,-0.010805866331437,8.445757425797901e-06,0.0152317238971591,0.0038427654653787,1.0112895965576172,-0.0001508882269263,-0.0042200749740004,0.8905572295188904,0.4548515677452087,0.0192881117445125,-0.0101299827947721,0.8732745503279143,-0.0084689259529113,-0.0528004765510559,1.4656925201416016,236,82,-13795,10458
10.0,1788431531746,-2.422535181045532,2.5352113246917725,-0.0020839958451688,-0.0031864624470472,0.6093640923500061,0.792881429195404,0.0042854628146733,-0.0045667960658581,2.2385883505014155e-07,0.0130505729466676,0.0134886009618639,0.9584314227104188,-0.0005079777911305,-0.0034182807430624,0.9088228940963744,0.417167991399765,0.0159747079442097,0.0039571847836139,0.8553579887844381,-0.1464031338691711,-0.4381680488586426,0.0600261688232421,108,46,-9577,7092
10.1,1788431531846,-1.408450722694397,1.154929518699646,-0.0016955622704699,-0.0029666298069059,0.6396334767341614,0.7686724662780762,0.0038777001588691,-0.0024118408911024,-5.900092006846064e-06,0.0057456400245428,-0.0055380398407578,0.719569742679596,-0.0003069173544645,-0.0028937365859746,0.9239922761917114,0.3824002146720886,0.0148535710792462,0.0165808453375203,0.4056973132607495,0.2122175097465515,-0.329947292804718,-0.6526775360107422,6,49,-2218,822
10.2,1788431531946,-0.1690140813589096,0.0,-0.0014517542440444,-0.0025842580944299,0.6538773775100708,0.7565947771072388,0.0082735631021052,-0.0091983625359793,7.587807732900713e-07,0.0059430752880871,-0.0003629491548053,0.1767480075359344,-5.042180418968201e-05,-0.0030027385801076,0.9238179326057434,0.3828203380107879,0.0012957218361916,-0.006806584764439,-0.0226601851409486,0.1634118556976318,0.2700663805007934,0.0241765975952148,0,0,0,0
10.3,1788431532046,0.0,0.0,-0.0014271887484937,-0.002627161797136,0.6533828377723694,0.7570216655731201,0.0,0.0,0.0,0.0,-3.562407258073108e-09,0.0,-3.4013763070106506e-05,-0.0028692595660686,0.9238367080688475,0.3827761113643646,0.0034071048675585,0.000258342638331,0.0027208053413981,0.0779256820678711,0.1042390465736389,-0.0373487472534179,0,0,0,0
10.4,1788431532146,0.0,0.0,-0.0014271887484937,-0.002627161797136,0.6533828377723694,0.7570216655731201,0.0,0.0,0.0,0.0,-2.395931453236244e-09,0.0,-0.0001267753541469,-0.0030585844069719,0.9236940741539,0.3831187188625335,-0.0082788636532527,-0.0016481034477426,-0.015649090100306,0.0673790574073791,-0.0389918684959411,-0.0107622146606445,0,0,0,0
10.5,1788431532246,0.0,0.0,-0.001485944725573,-0.0026600686833262,0.6530653238296509,0.7572954893112183,-0.0014694656310829,0.0016820889942065,2.928241517518043e-06,-0.0026705951895564,0.000589074450545,-0.0168528854846954,-0.0001795534044504,-0.0030433787032961,0.9236714839935304,0.3831731975078583,0.0016427520976021,0.0020464633234934,0.0011342734034,-0.0752338171005249,0.0186666846275329,-0.0358076095581054,0,0,0,0
10.6,1788431532346,0.0,0.0,-0.001485944725573,-0.0026600686833262,0.6530653238296509,0.7572954893112183,0.0,0.0,0.0,0.0,-2.4877195858863384e-09,0.0,-0.0001425109803676,-0.0030135018751025,0.92364901304245,0.383227676153183,0.0012691609101759,0.0011449001773423,-0.0011754803485564,0.0644087791442871,-0.0324668288230896,-0.0269155502319335,0,0,0,0
10.7,1788431532446,0.0,0.0,-0.001485944725573,-0.0026600686833262,0.6530653238296509,0.7572954893112183,0.0,0.0,0.0,0.0,-2.457250625198526e-09,0.0,-8.41757282614708e-05,-0.0030262134969234,0.9235632419586182,0.3834342956542969,-0.0003174036511101,0.0002785469432403,-0.0044266193829811,0.016534686088562,-0.0435519218444824,0.0107603073120117,0,0,0,0
10.8,1788431532546,0.0,0.0,-0.001485944725573,-0.0026600686833262,0.6530653238296509,0.7572954893112183,0.0,0.0,0.0,0.0,-1.8599238815752983e-09,0.0,-7.77021050453186e-05,-0.003029216080904,0.923578441143036,0.3833976984024048,-0.0001389994752033,-0.000266521450731,-0.0002999107087597,0.0271719694137573,-0.0525395274162292,0.0161294937133789,0,0,0,0
10.9,1788431532646,0.0,0.0,-0.0014769484987482,-0.0026668664067983,0.6528273820877075,0.7575005888938904,-0.0002626161808329,0.0004643427669215,3.206782785480286e-06,8.214706758735701e-05,-0.0004065812390763,-0.0126165924593806,-9.80999320745468e-05,-0.0030579194426536,0.923426866531372,0.3837623000144958,-0.0004844414609747,-0.0020175017397065,-0.0082995641269967,0.2398144006729126,0.0746073722839355,-0.0393409729003906,0,0,0,0
11.0,1788431532746,0.0,0.0,-0.0015111898537725,-0.002641478087753,0.6521597504615784,0.758075475692749,-0.0022954802498203,0.002799871561027,1.3147678389490218e-06,-0.0004220312403049,0.0018079997971653,-0.0361110679805278,-0.0002256408333778,-0.0030499305576086,0.922932744026184,0.3849490880966186,-0.0018341230468701,0.0028813933098542,-0.0180472067507009,-0.0066776871681213,0.077703058719635,0.0118885040283203,0,0,0,0
11.1,1788431532846,0.0,0.0,-0.0015404933365061,-0.0026300826575607,0.6517347693443298,0.7584408521652222,0.0,0.0,0.0,0.0,-4.9138564328643505e-09,0.0,-0.0002420051023364,-0.0030928114429116,0.9229016304016112,0.3850232362747192,-0.001196874457119,0.0031154868980814,-0.0042091560885176,0.0152875781059265,-0.0075490474700927,-0.0301084518432617,0,0,0,0
11.2,1788431532946,0.0,0.0,-0.0015852851793169,-0.0026463377289474,0.6514743566513062,0.7586643695831299,0.0,0.0,0.0,0.0,1.1091366047821792e-08,0.0,-0.0002216482535004,-0.0030961353331804,0.9228675961494446,0.3851048052310943,0.0010738900467615,-0.0014589855580424,-0.0008144506437817,-0.0289590954780578,0.0016579031944274,0.0023784637451171,0,0,0,0
11.3,1788431533046,0.0,0.0,-0.0015852851793169,-0.0026463377289474,0.6514743566513062,0.7586643695831299,0.0,0.0,0.0,0.0,-4.686722565594437e-09,0.0,-0.0001363772898912,-0.0031202137470245,0.9228719472885132,0.3850944340229034,0.0014194549574516,-0.0035390487535447,0.0031480312231119,0.0066393613815307,0.0214467048645019,-0.0215377807617187,0,0,0,0
11.4,1788431533146,0.0,0.0,-0.0015852851793169,-0.0026463377289474,0.6514743566513062,0.7586643695831299,0.0,0.0,0.0,0.0,-4.8587667222932396e-09,0.0,-0.0001515503972768,-0.0031117005273699,0.922866702079773,0.3851069808006286,0.0003991802490582,0.0016854959116961,-0.0002975789206048,-0.0081591010093688,0.0129010081291198,-0.0040655136108398,0,0,0,0
11.5,1788431533246,0.0,0.0,-0.0015852851793169,-0.0026463377289474,0.6514743566513062,0.7586643695831299,0.0,0.0,0.0,0.0,-3.6220506594020203e-09,0.0,-8.516386151313782e-05,-0.0031945118680596,0.9228766560554504,0.3850825726985931,-0.0024314076098479,-0.0023773124789298,0.0016110727294321,-0.0063449144363403,0.0185317993164062,-0.0096330642700195,0,0,0,0
11.6,1788431533346,0.0,0.0,-0.0015852851793169,-0.0026463377289474,0.6514743566513062,0.7586643695831299,0.001257373713842,-0.0011764691664283,5.055136273970814e-06,0.0,-7.027873394349626e-09,0.0,-3.015529364347458e-05,-0.0033155558630824,0.9228960275650024,0.3850351572036743,-0.0013744292847453,-0.0023779846597526,0.0054010926554037,0.0502669215202331,-0.0270203351974487,-0.0338935852050781,0,0,0,0
11.7,1788431533446,0.0,0.0,-0.0015852851793169,-0.0026463377289474,0.6514743566513062,0.7586643695831299,0.0,0.0,0.0,0.0,-4.655245966489474e-09,0.0,-0.0001275083050131,-0.0033804140985012,0.9228195548057556,0.3852178156375885,-0.0012636199811357,0.000242416147291,-0.0091047780171937,-0.0065821409225463,-0.0335543751716613,0.000554084777832,0,0,0,0
11.8,1788431533546,0.0,0.0,-0.0015852851793169,-0.0026463377289474,0.6514743566513062,0.7586643695831299,0.0,0.0,0.0,0.0,-4.914927576038508e-09,0.0,-0.0001055961474776,-0.0034843683242797,0.9227889776229858,0.3852899670600891,-0.0013666117721587,-0.0007963061561248,-1.966100272985664e-06,0.1635066866874694,0.0739630460739135,-0.0037689208984375,0,0,0,0
11.9,1788431533646,0.0,0.0,-0.0015852851793169,-0.0026463377289474,0.6514743566513062,0.7586643695831299,0.0,0.0,0.0,0.0,-7.289585379766095e-09,0.0,-9.277742356061935e-05,-0.0035499520599842,0.9227887392044068,0.3852898478507995,-0.0011821145488046,-0.0008079011411338,1.43688990772822e-08,0.0727750658988952,-0.026798665523529,0.003819465637207,0,0,0,0
12.0,1788431533746,0.0,0.0,-0.0015852851793169,-0.0026463377289474,0.6514743566513062,0.7586643695831299,0.0,0.0,0.0,0.0,-4.7764578958719994e-09,0.0,-7.786974310874939e-05,-0.0036096796393394,0.9227886199951172,0.3852897882461548,-0.0011412210364312,-0.0008871363226399,-2.182667640294388e-06,-0.0319894552230834,-0.0718525648117065,-0.0268831253051757,0,0,0,0
12.1,1788431533846,0.0,0.0,-0.0016494544688612,-0.0029727581422775,0.6512631773948669,0.7588443160057068,0.0,0.0,0.0,0.0,0.0,0.0,-6.0179270803928375e-05,-0.0036609321832656,0.922788381576538,0.3852896690368652,-0.0008080376381486,-0.0007713136867585,-1.9117660748369634e-06,0.0140132308006286,0.0280223488807678,-0.0251722335815429,0,0,0,0
12.2,1788431533946,0.0,0.0,-0.0016494544688612,-0.0029727581422775,0.6512631773948669,0.7588443160057068,0.0,0.0,0.0,0.0,0.0,0.0,-3.47355380654335e-05,-0.003717198036611,0.9227882623672484,0.3852896094322204,-0.0006166445699612,-0.0006948356014718,-1.8715604136659556e-06,-0.0240794420242309,0.0041071772575378,0.0032958984375,0,0,0,0
12.3,1788431534046,0.0,0.0,-0.0016494544688612,-0.0029727581422775,0.6512631773948669,0.7588443160057068,0.0,0.0,0.0,0.0,0.0,0.0,-1.6994774341583252e-05,-0.0037543727084994,0.922788143157959,0.3852895498275757,-0.0005793275141993,-0.0006879200799828,-1.976734893191985e-06,0.0348694324493408,-0.0624866485595703,0.0448732376098632,0,0,0,0
12.4,1788431534146,0.0,0.0,-0.0016494544688612,-0.0029727581422775,0.6512631773948669,0.7588443160057068,0.0,0.0,0.0,0.0,0.0,0.0,5.774199962615967e-07,-0.0037886071950197,0.9227880239486694,0.3852894902229309,-0.0004852844646016,-0.0006086302366067,-1.9066688379769644e-06,-0.1104581952095031,-0.0068406462669372,-0.0030517578125,0,0,0,0
12.5,1788431534246,0.0,0.0,-0.0016494544688612,-0.0029727581422775,0.6512631773948669,0.7588443160057068,0.0,0.0,0.0,0.0,0.0,0.0,1.4613382518291472e-05,-0.0038233045488595,0.92278790473938,0.3852894306182861,-0.0004315410689274,-0.0003489043560155,2.254288609869012e-09,0.0688264966011047,0.002077043056488,0.0183773040771484,0,0,0,0
12.6,1788431534346,0.0,0.0,-0.0016494544688612,-0.0029727581422775,0.6512631773948669,0.7588443160057068,0.0,0.0,0.0,0.0,0.0,0.0,2.1141953766345974e-05,-0.0038457186892628,0.9227877855300904,0.3852893710136413,-0.0003920019467678,-0.0002907093181113,-1.968599437590686e-06,-0.0477617979049682,-0.0031806230545043,0.0127811431884765,0,0,0,0
12.7,1788431534446,0.0,0.0,-0.0016494544688612,-0.0029727581422775,0.6512631773948669,0.7588443160057068,0.000598370149707,0.0006234445552147,2.5606948393368755e-06,0.0,0.0,0.0,2.372823655605316e-05,-0.0038626566529273,0.9227877855300904,0.3852893710136413,-0.000262957636437,-0.0001671426329746,7.092036469112991e-10,0.005080223083496,-0.00924813747406,0.0273027420043945,0,0,0,0
12.8,1788431534546,0.0,0.0,-0.0016494544688612,-0.0029727581422775,0.6512631773948669,0.7588443160057068,0.0,0.0,0.0,0.0,0.0,0.0,2.9886141419410706e-05,-0.0038808966055512,0.9227876663208008,0.3852893114089966,-0.0002217404450003,-0.0002009254936357,6.69398182582899e-10,-0.0652008056640625,-0.027238130569458,-0.0357427597045898,0,0,0,0
12.9,1788431534646,0.0,0.0,-0.0016494544688612,-0.0029727581422775,0.6512631773948669,0.7588443160057068,0.0,0.0,0.0,0.0,0.0,0.0,3.079324960708618e-05,-0.0038929050788283,0.9227876663208008,0.3852893114089966,-0.0002767958014048,-0.0001016937710247,4.135972920956812e-10,0.0678297281265258,0.0165765285491943,0.0200738906860351,0,0,0,0
13.0,1788431534746,0.0,0.0,-0.0016494544688612,-0.0029727581422775,0.6512631773948669,0.7588443160057068,0.0,0.0,0.0,0.0,0.0,0.0,3.1859613955020905e-05,-0.0039053540676832,0.9227876663208008,0.3852893114089966,-0.0002728544056184,-0.0001413151166675,5.255841873169983e-10,-0.0668759942054748,0.1404028534889221,-0.0120773315429687,0,0,0,0
13.1,1788431534846,0.0,0.0,-0.0016494544688612,-0.0029727581422775,0.6512631773948669,0.7588443160057068,0.001224766086031,4.137552999018252e-05,4.612660449824999e-06,0.0,0.0,0.0,3.646034747362137e-05,-0.0039109578356146,0.9227875471115112,0.3852892518043518,-5.326115875148756e-05,4.929400506427034e-05,-3.9412549343562974e-11,-0.0381696820259094,-0.1028611063957214,-0.0142831802368164,0,0,0,0
13.2,1788431534946,0.0,0.0,-0.0016494544688612,-0.0029727581422775,0.6512631773948669,0.7588443160057068,0.0,0.0,0.0,0.0,0.0,0.0,2.5433488190174103e-05,-0.0039153294637799,0.9227875471115112,0.3852892518043518,-0.000100058445406,0.0001806549198221,1.8694173100188865e-06,-0.0750412940979003,-0.1694947481155395,0.0576639175415039,0,0,0,0
13.3,1788431535046,0.0,0.0,-0.0016494544688612,-0.0029727581422775,0.6512631773948669,0.7588443160057068,-0.0008047930509411,-0.0008611077606866,-3.588098435343973e-06,0.0,0.0,0.0,8.493661880493164e-06,-0.0039199646562337,0.9227875471115112,0.3852892518043518,-0.000217479579567,0.0003376942473431,1.9728940190679644e-06,0.008887767791748,-0.0176153182983398,-0.0275802612304687,0,0,0,0
13.4,1788431535146,0.0,0.0,-0.0016494544688612,-0.0029727581422775,0.6512631773948669,0.7588443160057068,-0.0008540680181183,0.0007982247881042,-2.664004420212588e-06,0.0,0.0,0.0,-8.089467883110046e-06,-0.003917483612895,0.9227875471115112,0.3852892518043518,2.389540297833867e-05,0.0001892985682208,7.100402971146534e-11,-0.047566533088684,-0.0462660193443298,-0.0013685226440429,0,0,0,0
13.5,1788431535246,0.0,0.0,-0.0016494544688612,-0.0029727581422775,0.6512631773948669,0.7588443160057068,-0.0013115932447436,0.0012258347317244,-4.091114673999909e-06,0.0,0.0,0.0,-1.2977048754692078e-05,-0.0039100553840398,0.9227875471115112,0.3852892518043518,0.0001680469745265,0.0001278453206299,3.2216074813119756e-10,-0.0784851312637329,-0.0994735360145568,0.0242271423339843,0,0,0,0
13.6,1788431535346,0.0,0.0,-0.0016494544688612,-0.0029727581422775,0.6512631773948669,0.7588443160057068,-0.0005993531041516,-0.000641292328224,-2.6721626543745023e-06,0.0,0.0,0.0,-1.598149538040161e-05,-0.0039025824517011,0.9227875471115112,0.3852892518043518,0.0001845878678639,8.021753433988811e-05,2.225750540888644e-10,-0.0303287506103515,-0.1249487996101379,0.00238037109375,0,0,0,0
13.7,1788431535446,0.0,0.0,-0.0016494544688612,-0.0029727581422775,0.6512631773948669,0.7588443160057068,-0.0008386021271943,0.0007837701343252,-2.615763295489463e-06,0.0,0.0,0.0,-1.516193151473999e-05,-0.0038928454741835,0.9227876663208008,0.3852893114089966,0.0002060053278792,2.035491234369165e-05,5.820267591398141e-11,0.0535391569137573,0.0525985360145568,-0.0035772323608398,0,0,0,0
13.8,1788431535546,0.0,0.0,-0.0016494544688612,-0.0029727581422775,0.6512631773948669,0.7588443160057068,0.0,0.0,0.0,0.0,0.0,0.0,-4.841946065425873e-06,-0.0038854889571666,0.9227876663208008,0.3852893114089966,0.0002431289780142,-0.0002301112381741,-8.596421523958153e-10,0.0010923743247985,0.0446957945823669,0.0159053802490234,0,0,0,0
13.9,1788431535646,0.0,0.0,-0.0016494544688612,-0.0029727581422775,0.6512631773948669,0.7588443160057068,0.0,0.0,0.0,0.0,0.0,0.0,1.4266930520534515e-05,-0.003881593234837,0.9227876663208008,0.3852893114089966,0.0001963907863299,-0.0003927130964382,-1.983340439167662e-06,-0.0039083957672119,-0.0086864233016967,-0.0147209167480468,0,0,0,0
14.0,1788431535746,0.0,0.0,-0.0016494544688612,-0.0029727581422775,0.6512631773948669,0.7588443160057068,0.0,0.0,0.0,0.0,0.0,0.0,4.263687878847122e-05,-0.0038825822994112,0.9227876663208008,0.3852893114089966,0.0001731398155245,-0.000488211794463,-1.9985479993253934e-06,-0.0087356567382812,0.025400698184967,-0.0200281143188476,0,0,0,0
14.1,1788431535846,0.0,0.0,-0.0016494544688612,-0.0029727581422775,0.6512631773948669,0.7588443160057068,0.0,0.0,0.0,0.0,0.0,0.0,6.544496864080429e-05,-0.0038836980238556,0.9227876663208008,0.3852893114089966,0.0001768928932316,-0.0004396795623009,-1.916153541007968e-06,-0.0609002709388732,0.0465177297592163,-0.0309391021728515,0,0,0,0
14.2,1788431535946,0.0,0.0,-0.0016494544688612,-0.0029727581422775,0.6512631773948669,0.7588443160057068,0.0,0.0,0.0,0.0,0.0,0.0,8.403696119785309e-05,-0.0038825087249279,0.9227876663208008,0.3852893114089966,0.0001455832523082,-0.0003124025191011,-1.9202214395473444e-06,-0.0474557876586914,-0.0395331978797912,0.0313978195190429,0,0,0,0
14.3,1788431536046,0.0,0.0,-0.0016494544688612,-0.0029727581422775,0.6512631773948669,0.7588443160057068,0.0,0.0,0.0,0.0,0.0,0.0,9.549502283334732e-05,-0.0038849310949444,0.9227876663208008,0.3852893114089966,-9.360607087378572e-05,-9.17692787248934e-05,1.2886256244343672e-10,0.0903286933898925,0.1346713900566101,-0.0122489929199218,0,0,0,0
14.4,1788431536146,0.0,0.0,-0.0016494544688612,-0.0029727581422775,0.6512631773948669,0.7588443160057068,0.0,0.0,0.0,0.0,0.0,0.0,0.0001019537448883,-0.0038871085271239,0.9227876663208008,0.3852893114089966,3.362727504217383e-06,-0.0001589240593626,-8.288535591500064e-12,0.0177860856056213,0.0514611601829528,-0.0215730667114257,0,0,0,0
14.5,1788431536246,0.0,0.0,-0.0016494544688612,-0.0029727581422775,0.6512631773948669,0.7588443160057068,0.0,0.0,0.0,0.0,0.0,0.0,0.0001141801476478,-0.0038894927129149,0.9227876663208008,0.3852893114089966,7.86036874529333e-05,-0.0002884011890988,-1.9852035819777223e-06,0.0254684686660766,0.0003004670143127,0.0162076950073242,0,0,0,0
14.6,1788431536346,0.0,0.0,-0.0016494544688612,-0.0029727581422775,0.6512631773948669,0.7588443160057068,0.0,0.0,0.0,0.0,0.0,0.0,0.0001290701329708,-0.0038924738764762,0.9227876663208008,0.3852893114089966,4.538315556945969e-05,-0.0003103519328284,-1.8753181807154957e-06,0.0214006304740905,0.0112454891204833,0.0231895446777343,0,0,0,0
14.7,1788431536446,0.0,0.0,-0.0016494544688612,-0.0029727581422775,0.6512631773948669,0.7588443160057068,0.0,0.0,0.0,0.0,0.0,0.0,0.0001515885815024,-0.0038944091647863,0.9227876663208008,0.3852893114089966,0.0001558552788805,-0.0003848759916587,-1.9884926596227546e-06,-0.0136088728904724,0.0604923963546752,0.0191268920898437,0,0,0,0
14.8,1788431536546,0.0,0.0,-0.0016494544688612,-0.0029727581422775,0.6512631773948669,0.7588443160057068,0.0,0.0,0.0,0.0,0.0,0.0,0.0001784265041351,-0.0038883266970515,0.9227875471115112,0.3852894008159637,0.0004119230092704,-0.0005828313820875,-5.653028605069404e-06,-0.1559171676635742,-0.0531253218650817,-0.0060377120971679,0,0,0,0
14.9,1788431536646,0.0,0.0,-0.0016494544688612,-0.0029727581422775,0.6512631773948669,0.7588443160057068,0.0,0.0,0.0,0.0,0.0,0.0,0.0002024881541728,-0.0038776071742177,0.9227875471115112,0.3852896094322204,0.0004751641653338,-0.0003514383031617,-7.957120476271974e-06,0.030615746974945,0.0589695572853088,0.0138311386108398,0,0,0,0
15.0,1788431536746,0.0,0.0,-0.0016494544688612,-0.0029727581422775,0.6512631773948669,0.7588443160057068,0.0,0.0,0.0,0.0,0.0,0.0,0.0002299984917044,-0.0038612280040979,0.9227875471115112,0.3852897584438324,0.0003683229831737,-0.000230888385932,-1.976040168104441e-06,-0.0187801718711853,-0.0858223438262939,-0.0006561279296875,0,0,0,0
15.1,1788431536846,0.0,0.0,-0.0016494544688612,-0.0029727581422775,0.6512631773948669,0.7588443160057068,0.0,0.0,0.0,0.0,0.0,0.0,0.0002403538674116,-0.0038518318906426,0.9227875471115112,0.3852897584438324,0.0002297846382222,-7.226920113648688e-05,-2.4610416400764533e-10,0.0129371285438537,0.0086274147033691,-0.0017518997192382,0,0,0,0
15.2,1788431536946,0.0,0.0,-0.0016494544688612,-0.0029727581422775,0.6512631773948669,0.7588443160057068,0.0,0.0,0.0,0.0,0.0,0.0,0.0002453364431858,-0.0038442900404334,0.9227875471115112,0.3852897584438324,0.000175393641555,-3.5846869171421057e-05,-1.921890527576183e-06,-0.021145224571228,-0.0145313739776611,0.0073680877685546,0,0,0,0
15.3,1788431537046,0.0,0.0,-0.0016494544688612,-0.0029727581422775,0.6512631773948669,0.7588443160057068,0.0,0.0,0.0,0.0,0.0,0.0,0.0002491483464837,-0.0038377782329916,0.9227876663208008,0.3852898180484772,0.0001727358562924,-2.612670496584223e-05,-6.782045417834023e-11,0.0434878468513488,-0.0184521079063415,0.0517749786376953,0,0,0,0
15.4,1788431537146,0.0,0.0,-0.0016494544688612,-0.0029727581422775,0.6512631773948669,0.7588443160057068,0.0,0.0,0.0,0.0,0.0,0.0,0.0002557002007961,-0.0038304096087813,0.9227876663208008,0.3852898180484772,0.000142299625205,-4.090279315262616e-05,-8.724408683392837e-11,-0.0086607336997985,-0.0362289547920227,-0.0099096298217773,0,0,0,0
15.5,1788431537246,0.0,0.0,-0.0016494544688612,-0.0029727581422775,0.6512631773948669,0.7588443160057068,0.0,0.0,0.0,0.0,0.0,0.0,0.0002582110464572,-0.0038275839760899,0.9227876663208008,0.3852898180484772,6.032378719024559e-05,-2.0525013517478e-05,-1.858973424987969e-11,0.0434983372688293,0.0361461043357849,-0.0029411315917968,0,0,0,0
15.6,1788431537346,0.0,0.0,-0.0016494544688612,-0.0029727581422775,0.6512631773948669,0.7588443160057068,0.0,0.0,0.0,0.0,0.0,0.0,0.0002622175961732,-0.003825849853456,0.9227876663208008,0.3852898180484772,5.68983996544634e-05,-7.62154876017814e-05,-1.8336541462034904e-06,-0.0073770284652709,0.0397224426269531,-0.0027637481689453,0,0,0,0
15.7,1788431537446,0.0,0.0,-0.0016494544688612,-0.0029727581422775,0.6512631773948669,0.7588443160057068,0.0,0.0,0.0,0.0,0.0,0.0,0.000269191339612,-0.003823154605925,0.9227876663208008,0.3852898180484772,0.0001267151869716,-9.357813463233363e-05,-1.9269528171891325e-06,0.0049494504928588,-0.0311068892478942,0.0045089721679687,0,0,0,0
15.8,1788431537546,0.0,0.0,-0.0016494544688612,-0.0029727581422775,0.6512631773948669,0.7588443160057068,0.0,0.0,0.0,0.0,0.0,0.0,0.0002760803326964,-0.0038191461935639,0.9227876663208008,0.3852898180484772,0.0001588819818042,-0.0001010805845498,-2.4560774159567566e-10,0.0049296617507934,-0.0225140452384948,0.0244665145874023,0,0,0,0
15.9,1788431537646,0.0,0.0,-0.0016494544688612,-0.0029727581422775,0.6512631773948669,0.7588443160057068,0.0,0.0,0.0,0.0,0.0,0.0,0.0002875225618481,-0.0038105491548776,0.9227876663208008,0.3852898180484772,0.0002076107614436,-0.0001149459121404,-1.985728418166164e-06,-0.0078253149986267,-0.0249635577201843,0.020639419555664,0,0,0,0
16.0,1788431537746,0.0,0.0,-0.0016494544688612,-0.0029727581422775,0.6512631773948669,0.7588443160057068,0.0,0.0,0.0,0.0,0.0,0.0,0.000294916331768,-0.0038033481687307,0.9227876663208008,0.3852898180484772,0.0002020296746178,-7.547583125746627e-05,-1.98745672217362e-06,-0.0327568054199218,-0.0248974561691284,0.0204334259033203,0,0,0,0
16.1,1788431537846,0.0,0.0,-0.0016494544688612,-0.0029727581422775,0.6512631773948669,0.7588443160057068,0.0,0.0,0.0,0.0,0.0,0.0,0.0003012018278241,-0.003796087577939,0.9227877855300904,0.3852898776531219,0.0002342333982961,-0.0001062197270675,-3.4806685730965104e-10,-0.0402618050575256,-0.0880640149116516,0.0222463607788085,0,0,0,0
16.2,1788431537946,0.0,0.0,-0.0016494544688612,-0.0029727581422775,0.6512631773948669,0.7588443160057068,0.0,0.0,0.0,0.0,0.0,0.0,0.0003052055835723,-0.0037934007123112,0.9227877855300904,0.3852898776531219,2.9034000351321423e-05,8.365498899302349e-06,3.6461776912896876e-12,-0.0357394814491272,-0.0128728747367858,-0.0184326171875,0,0,0,0
16.3,1788431538046,0.0,0.0,-0.0016494544688612,-0.0029727581422775,0.6512631773948669,0.7588443160057068,0.0,0.0,0.0,0.0,0.0,0.0,0.000299148261547,-0.003794465214014,0.9227877855300904,0.3852898776531219,-9.356560683586932e-05,0.0001475986293652,-2.2341000985014843e-10,0.0283059477806091,0.038266122341156,-0.0072584152221679,0,0,0,0
16.4,1788431538146,0.0,0.0,-0.0016494544688612,-0.0029727581422775,0.6512631773948669,0.7588443160057068,0.0,0.0,0.0,0.0,0.0,0.0,0.0002911109477281,-0.0037959357723593,0.9227877855300904,0.3852898776531219,-8.92477660000024e-05,0.0001644448724478,-2.20154801690224e-10,-0.0468455553054809,-0.0247173905372619,-0.016244888305664,0,0,0,0
16.5,1788431538246,0.0,0.0,-0.0016494544688612,-0.0029727581422775,0.6512631773948669,0.7588443160057068,0.0,0.0,0.0,0.0,0.0,0.0,0.0002807499840855,-0.0037910807877779,0.9227877855300904,0.3852898776531219,5.337564991329446e-05,0.0001385441675536,1.1125552551002123e-10,-0.0111238360404968,0.003047227859497,0.0039958953857421,0,0,0,0
16.6,1788431538346,0.0,0.0,-0.0016494544688612,-0.0029727581422775,0.6512631773948669,0.7588443160057068,0.0,0.0,0.0,0.0,0.0,0.0,0.0002792822197079,-0.0037855552509427,0.9227877855300904,0.3852898776531219,0.0001435839580818,5.51183723734591e-05,1.0591278172152328e-10,0.0169748067855834,0.000550091266632,0.0075893402099609,0,0,0,0
16.7,1788431538446,0.0,0.0,-0.0016494544688612,-0.0029727581422775,0.6512631773948669,0.7588443160057068,0.0,0.0,0.0,0.0,0.0,0.0,0.0002817763015627,-0.0037809340283274,0.9227877855300904,0.3852898776531219,0.0001243497188972,-3.566286169564901e-05,-6.668467353824914e-11,0.0163286924362182,0.0183691978454589,0.0144948959350585,0,0,0,0
16.8,1788431538546,0.0,0.0,-0.0016494544688612,-0.0029727581422775,0.6512631773948669,0.7588443160057068,0.0,0.0,0.0,0.0,0.0,0.0,0.0002892315387725,-0.0037760082632303,0.9227877855300904,0.3852898776531219,0.0001706862230291,-0.0001360614943196,-1.93962878056086e-06,-0.00970059633255,0.0340506434440612,0.0106258392333984,0,0,739,-739
16.9,1788431538646,2.676056385040283,-3.0985915660858154,-0.0014999645063653,-0.0034222528338432,0.6503791809082031,0.7596005201339722,-0.0048758535352555,0.0038408173000128,-2.593644468439672e-06,-0.0073136975988745,-0.0175980050116777,-0.0471360348165035,0.0004145093262195,-0.0040881624445319,0.916334867477417,0.4003919064998626,-0.0105220076529173,-0.0111251929428584,-0.7368588415467091,0.5100991725921631,-0.5102492570877075,0.0511589050292968,130,156,12693,-11907
17.0,1788431538746,2.450704336166382,-3.014084577560425,-0.0017062883125618,-0.0038146208971738,0.6240147948265076,0.7814012765884399,-0.0008277768125535,-0.0003080294392472,1.057083586852201e-06,-0.0103553365916013,0.0083873830735683,-0.9151241779327391,0.0006236992776393,-0.004915433935821,0.8979921340942383,0.4399835765361786,-0.0180984085055861,-0.0651494911974413,-0.8940935185134085,-0.541857898235321,0.2947636246681213,-0.0170450210571289,157,72,11971,-9768
17.1,1788431538846,2.7042253017425537,-2.6478872299194336,-0.0014941501431167,-0.0054092183709144,0.5857911109924316,0.8104426264762878,-0.0139895103768805,0.0107600425612423,-9.682730500374791e-06,-0.0111233554780483,-0.0307524744421243,-0.7851467132568359,0.0007062144577503,-0.0053614983335137,0.8820776343345642,0.4710730910301208,-0.0054310879195231,0.0433425130018843,-0.847964756683453,0.3801067471504211,-0.0150307416915893,0.1854972839355468,225,67,11086,-8474
17.2,1788431538946,2.3943662643432617,-2.4788732528686523,-0.002050417009741,-0.005530702881515,0.5551585555076599,0.8317236304283142,-0.0012267727042106,0.0068037734089302,7.107107945912708e-06,-0.0171536821871995,-0.002642074599862,-0.7833980917930603,0.0004021357744932,-0.0060620130971074,0.8599580526351929,0.5103285312652588,-0.0095892413068939,0.009719335232821,-0.6841386231293038,0.0657387375831604,-0.0925502777099609,-0.6408796310424805,222,124,11738,-9456
17.3,1788431539046,1.97183096408844,-2.309859037399292,-0.0025906183291226,-0.006432004738599,0.5249378681182861,0.8511123061180115,-0.0035568832106572,0.0028392404561163,-4.866260162826098e-06,-0.029703214764595,-0.0202146023511886,-0.7551699280738831,0.0005386285483837,-0.0077316341921687,0.8427226543426514,0.5382921099662781,-0.027275832879569,-0.0028267077898425,-0.5960649517606432,-0.0473471879959106,0.1629936099052429,0.0749807357788086,251,112,10831,-7677
17.4,1788431539146,1.6901408433914185,-2.366197109222412,-0.0032448582351207,-0.0077558876946568,0.4995800256729126,0.8662269115447998,-0.009555683430057,0.0030977892144092,-1.3360533396738632e-07,-0.0252325907349586,-0.0123159261420369,-0.5554649233818054,0.0008982326835393,-0.0088512385264039,0.8284493088722229,0.5599933862686157,-0.0108240724536997,-0.020913788651618,-0.6213613422330869,0.0120885968208312,0.2043771743774414,0.4652080535888672,348,98,13248,-7921
17.5,1788431539246,1.7183098793029783,-2.0,-0.0028017598669975,-0.0085395853966474,0.4740766584873199,0.8804377317428589,-0.005385295064525,0.0080785095107892,-4.521398617644462e-06,0.0054099163971841,-0.00844915676862,-0.6075682640075684,0.0015517016872763,-0.0083905011415481,0.8078930377960205,0.5892674326896667,0.0123229826931714,0.0147957282396696,-0.5447829555296186,-0.0081556439399719,-0.0494076609611511,-0.4102153778076172,306,71,11918,-6496
17.6,1788431539346,1.7464789152145386,-1.8028168678283687,-0.0022501421626657,-0.0077035981230437,0.4461327493190765,0.8949308395385742,-0.0059033036359858,0.0040203962412726,2.808462924933611e-06,0.0117164403200149,0.0180426128208637,-0.533014714717865,0.0018545929342508,-0.0078249210491776,0.7933402061462402,0.6087254285812378,0.0092562668555555,-0.0217513167560235,-0.5989134555887987,-0.3179858326911926,-0.0321584939956665,0.1733417510986328,307,138,12271,-7493
17.7,1788431539446,1.8309859037399288,-1.8309859037399288,-0.0016509715933352,-0.0077064004726707,0.4228935241699219,0.9061450958251952,-0.0025522684189856,0.0072193226224468,-2.5650353531876354e-06,0.0065428321249783,0.0024967787321656,-0.5310354828834534,0.0022687762975692,-0.0075616184622049,0.7782241702079773,0.6279368996620178,0.0087950875487417,-0.0080442937955179,-0.551127927052452,0.1094486117362976,-0.1211101412773132,0.0115890502929687,346,105,12154,-7423
17.8,1788431539546,1.380281686782837,-1.4647886753082275,-0.0007678295951336,-0.0085095623508095,0.398814857006073,0.916991651058197,-0.0038887217642476,0.0053858824126429,1.6189272208282944e-06,0.0050957892090082,-0.0291206967085599,-0.5377007126808167,0.0035420944914221,-0.0080531612038612,0.7591156959533691,0.6508963108062744,0.0014105549664041,0.0157878843799816,-0.3767364834495905,-0.128533124923706,0.1996117234230041,0.2353801727294922,349,117,11197,-6654
17.9,1788431539646,1.5492957830429075,-1.5211267471313477,-0.0007212036289274,-0.0079298531636595,0.3795712292194366,0.9251282811164856,-0.0040276115636349,0.0030601065077402,9.664455676740687e-06,0.0018365392461419,0.0433715097606182,-0.4039492309093475,0.0029314691200852,-0.0071909260004758,0.7462226152420044,0.6656512022018433,0.0019048051032375,-0.0193585591737727,-0.4738530794108297,-0.1581499576568603,0.0510762929916381,-0.1820220947265625,369,127,11573,-6823
18.0,1788431539746,1.3239436149597168,-1.2957746982574463,-0.0001313716638833,-0.0087611367926001,0.3554488122463226,0.9346546530723572,-0.000772327523136,0.0031498226662217,-5.040514170862147e-06,-0.0003849180648103,-0.0362930819392204,-0.4760770499706268,0.0043216506019234,-0.0081974966451525,0.7325875163078308,0.6806098222732544,0.0040767669910094,-0.0292421805353853,-0.4159051137236684,0.502082347869873,0.0412700176239013,0.2659177780151367,290,177,11640,-8421
18.1,1788431539846,1.1267606019973757,-1.2676056623458862,-6.668013520538807e-05,-0.0088699674233794,0.3379380106925964,0.9411265254020692,-0.0057832200514023,0.0072367632961453,-4.767069847664503e-06,-0.0053249555639922,0.0165164228528738,-0.3680026531219482,0.0055076768621802,-0.0092507228255271,0.7175716161727905,0.6964015364646912,0.0064407921741637,-0.0909422474048878,-0.3218458629346026,0.0603201985359191,-0.0153896808624267,0.048919677734375,329,181,10838,-6653
18.2,1788431539946,1.154929518699646,-1.2676056623458862,0.00135865714401,-0.0126030817627906,0.322264552116394,0.946564793586731,-0.0007912327989605,0.0019534799723233,7.294036812032195e-06,-0.0033022505231201,-0.1012819185853004,-0.3341838419437408,0.0099287396296858,-0.0137996366247534,0.7067542672157288,0.7072548270225525,-0.0055812602420374,-0.1723432386681699,-0.3268797031169687,0.0250661373138427,-0.1080575585365295,-0.0808019638061523,380,159,10768,-7374
18.3,1788431540046,0.98591548204422,-1.154929518699646,0.0036858390085399,-0.0203904937952756,0.3067429363727569,0.9515668749809264,0.0016823148578944,0.0011355902304317,9.225805685496975e-06,-0.0121228415518999,-0.1728527098894119,-0.327789843082428,0.014472322538495,-0.0188828464597463,0.6963095664978027,0.717347264289856,-0.0139634238276409,-0.0890323608398619,-0.2842428923151188,0.1496763825416565,-0.0091575980186462,-0.5510082244873047,476,177,11390,-8217
18.4,1788431540146,1.0704225301742554,-1.0704225301742554,0.0044168522581458,-0.0237608551979064,0.2904528379440307,0.956584095954895,-0.0043273475553539,0.0013430290930827,-7.3578533675732594e-06,-0.0116394935175776,-0.0107596525922417,-0.3030073344707489,0.0145658319815993,-0.0193459074944257,0.6826705932617188,0.7303248047828674,-0.0107803791810477,-0.0214586979697818,-0.3364719362264983,0.0204013586044311,-0.1523225903511047,-0.1594486236572265,431,280,11962,-8597
18.5,1788431540246,1.2957746982574463,-0.9014084339141846,0.0042471275664865,-0.0241220258176326,0.2753284871578216,0.9610381722450256,1.5047673091897136e-05,-0.0022113787438612,-2.417154663910304e-06,-0.014307945035398,-0.0143747581169009,-0.3255179226398468,0.0140025550499558,-0.0195253286510705,0.6719657778739929,0.7401922941207886,-0.0256166044082074,0.0216252431098603,-0.3164117956166349,-0.0114377737045288,-0.0376899242401123,-0.0084857940673828,394,180,8692,-7492
18.6,1788431540346,0.8732394576072693,-0.8732394576072693,0.0033526234328746,-0.023135021328926,0.2613570094108581,0.9649591445922852,-0.0025741257106036,0.0026221833636484,6.820614995567613e-07,-0.0159241240471601,0.0303051564842462,-0.2757290303707123,0.0131030902266502,-0.0190936513245105,0.6632927060127258,0.7480016946792603,-0.0149644815935605,-0.0030253490191966,-0.2554067928259276,0.0922027230262756,-0.1252676844596862,-0.0543937683105468,492,211,10064,-7505
18.7,1788431540446,0.7323943376541138,-0.8169013857841492,0.0028670073952525,-0.0228340402245521,0.2489954978227615,0.968231201171875,-0.0024039305946095,0.000209952836242,9.20092034417274e-07,-0.0113798342645168,0.0076542580500245,-0.2223717868328094,0.0128835691139101,-0.0193633157759904,0.6531957387924194,0.7568318843841553,-0.0102868387600659,-0.0215715580181801,-0.2186583476497081,0.0202969908714294,0.0499617457389831,-0.1903848648071289,239,106,6494,-3584
18.8,1788431540546,-0.4507042169570923,0.0,0.0025049501564353,-0.0221211668103933,0.2417900115251541,0.9700731635093688,-0.0050662975572617,0.0047569594134386,2.829088732838359e-06,-0.0049275569617748,0.040461178869009,-0.0884514153003692,0.0092789232730865,-0.0153936157003045,0.6532727479934692,0.7569093108177185,-0.0061719879084399,0.2039382384776185,0.0693965432530275,-0.0939949750900268,-0.2827985882759094,0.3342723846435547,26,0,0,0
18.9,1788431540646,-0.591549277305603,0.0,0.0002988830674439,-0.0133579634130001,0.2451614886522293,0.9693901538848876,-0.0083880630501989,4.280125123188226e-05,2.3182462580017916e-05,0.0031532563734799,0.190741166472435,0.0785577371716499,0.0038299486041069,-0.0090175010263919,0.6559243202209473,0.7547631859779358,-0.0017629834412466,0.1739022670108241,0.0661212770409102,-0.22391939163208,-0.1259682178497314,0.037363052368164,30,0,0,0
19.0,1788431540746,0.0,0.0,-0.0016957980114966,-0.0055431616492569,0.2481966614723205,0.9686923623085022,-0.0036458233940415,0.0008287629656982,2.94889286323168e-07,0.0001287972845602,0.1552112996578216,0.0561627969145774,0.0008042631670832,-0.0054452568292617,0.6571583151817322,0.7537323832511902,0.0032978871550677,-0.0180374018251741,-0.0139075718546597,0.0996068120002746,0.2160344719886779,0.049595832824707,0,0,0,0
19.1,1788431540846,0.0,0.0,-0.0018083852482959,-0.0051572443917393,0.2483178079128265,0.968663215637207,0.0,0.0,0.0,0.0,-6.0314118144333415e-09,0.0,0.0009000869467854,-0.0055650137364864,0.6571758389472961,0.753716230392456,0.000959493705685,-0.0066999002874479,-0.0049396108211504,0.0751139521598815,-0.0114369988441467,-0.1485309600830078,0,0,0,0
19.2,1788431540946,0.0,0.0,-0.0018083852482959,-0.0051572443917393,0.2483178079128265,0.968663215637207,0.0,0.0,0.0,0.0,-6.028468391150454e-09,0.0,0.0008551673963665,-0.0055069187656044,0.6571738719940186,0.7537184357643127,0.0007482434849824,-0.00344549972847,-0.0054635816938405,0.0190412402153015,0.0905764102935791,-0.0387430191040039,0,0,0,0
19.3,1788431541046,0.0,0.0,-0.0018083852482959,-0.0051572443917393,0.2483178079128265,0.968663215637207,0.0,0.0,0.0,0.0,-5.971300787166456e-09,0.0,0.0008088182657957,-0.005467808805406,0.6572079658508301,0.7536889314651489,0.0002024922008077,-0.0010834508819045,-0.0017991903808345,0.0166264176368713,0.0063455700874328,-0.0389671325683593,0,0,0,0
19.4,1788431541146,0.0,0.0,-0.0018083852482959,-0.0051572443917393,0.2483178079128265,0.968663215637207,0.0,0.0,0.0,0.0,-5.851792828082125e-09,0.0,0.0008023893460631,-0.0054657645523548,0.6571561694145203,0.7537341713905334,0.0007297103187589,0.0006219309432237,-0.0061925272597846,1.3655805587768557,-0.7013961672782898,0.0171327590942382,0,0,0,0
19.5,1788431541246,0.0,0.0,-0.0020293286070227,-0.0043168775737285,0.2469707578420639,0.9690111875534058,0.0035668901503584,-0.0006560800980043,-6.391814825968616e-06,-0.0004893883597105,0.0366482101380825,-0.0582841746509075,-0.0012359656393527,-0.002802737057209,0.6541053652763367,0.7563971877098083,0.010468292636466,0.0071309871594622,-0.1227212460336659,0.0191570520401,-0.2931751608848572,0.2490186691284179,0,0,0,0
19.6,1788431541346,0.0,0.0,-0.0023823198862373,-0.0016290558269247,0.2413729876279831,0.9704281687736512,-0.0058453559075745,-0.0007372449788931,7.966959051704708e-07,0.0046182218939065,0.0122870979830622,-0.1102965548634529,-0.0013676034286618,-0.0025387052446603,0.6515637636184692,0.7585883140563965,-0.0010262743489092,-0.0043407559733474,-0.0087106439267832,0.2329812049865722,0.1907484531402588,0.0740480422973632,0,0,0,0
19.7,1788431541446,0.0,0.0,-0.002382320119068,-0.0016290557105094,0.2413729876279831,0.9704281687736512,-0.0017129003269905,0.001604505492398,-7.398805905558999e-06,0.0,-2.3834434426106554e-09,0.0,-0.0014145812019705,-0.0025050621479749,0.6515176892280579,0.7586279511451721,-0.0015270194485422,-0.0018062776330217,-0.0076144557215359,0.0259179472923278,-0.0875673294067382,-0.0254383087158203,0,0,0,0
19.8,1788431541546,0.0,0.0,-0.002382320119068,-0.0016290557105094,0.2413729876279831,0.9704281687736512,-0.0008616133457604,0.0008006131259127,-3.730588100393955e-06,0.0,-2.391427056380735e-09,0.0,-0.0014456240460276,-0.0024210745468735,0.6514954566955566,0.7586472630500793,0.0012855193200295,0.0013342083221725,-0.00064535838322,0.0256571173667907,-0.055007517337799,-0.0024785995483398,0,0,0,0
19.9,1788431541646,0.0,0.0,-0.0023436804767698,-0.0015443081501871,0.2410600334405899,0.9705061316490172,-0.0011666812445049,0.0013322241495556,-2.955972300528411e-07,0.0023809033446013,0.0030484898015856,-0.0133186466991901,-0.0014172419905662,-0.0024265414103865,0.6514506936073303,0.7586857676506042,-0.0004918315322181,-8.548575015339014e-05,-0.0015505341365675,0.0081100463867187,-0.0255149602890014,-0.0062513351440429,0,0,0,0
20.0,1788431541746,0.0,0.0,-0.0023436804767698,-0.0015443081501871,0.2410600334405899,0.9705061316490172,0.0,0.0,0.0,0.0,1.8045929195409367e-09,0.0,-0.0015270225703716,-0.0024213008582592,0.6513193249702454,0.7587983012199402,-0.0029237946975124,0.0020196684371795,-0.0069351487381192,-0.0020011663436889,0.0132355093955993,0.0115318298339843,0,0,0,0
20.1,1788431541846,0.0,0.0,-0.0024405515287071,-0.0014960776316002,0.2408077865839004,0.9705686569213868,-0.000946877356107,0.0010934164259984,-2.5063222016628283e-06,-0.0034875532146543,0.002990229288116,-0.0109571600332856,-0.0016779256984591,-0.0024206861853599,0.6512441635131836,0.7588624954223633,-0.0028146610095358,0.0033509626524351,-0.0020577426529472,0.005323052406311,0.0265024900436401,0.034285545349121,0,0,0,0
20.2,1788431541946,0.0,0.0,-0.0024405515287071,-0.0014960776316002,0.2408077865839004,0.9705686569213868,0.0,0.0,0.0,0.0,2.376170149531731e-09,0.0,-0.0017580073326826,-0.0023727668449282,0.651274561882019,0.7588365077972412,0.0009974708819975,0.0023747249424264,0.006070699277694,0.050490915775299,0.0604061484336853,-0.0153579711914062,0,0,0,0
20.3,1788431542046,0.0,0.0,-0.0024405515287071,-0.0014960776316002,0.2408077865839004,0.9705686569213868,0.0,0.0,0.0,0.0,2.406787213971029e-09,0.0,-0.0019142096862196,-0.0023193936794996,0.651214063167572,0.7588881850242615,-0.0008701567418067,0.0021827867282154,-0.0022438988674205,-0.0044079422950744,-0.0478807091712951,0.0082006454467773,0,0,0,0
20.4,1788431542146,0.0,0.0,-0.0024405515287071,-0.0014960776316002,0.2408077865839004,0.9705686569213868,0.0,0.0,0.0,0.0,2.4928186181938364e-09,0.0,-0.0019165417179465,-0.002315679565072,0.6512578725814819,0.7588505148887634,-0.0007297462416513,0.0009957998630975,-0.0002997739056377,-0.0107187032699584,0.0047260522842407,0.0059185028076171,0,0,0,0
20.5,1788431542246,0.0,0.0,-0.0024405515287071,-0.0014960776316002,0.2408077865839004,0.9705686569213868,0.0,0.0,0.0,0.0,2.425750489365441e-09,0.0,-0.0019530886784195,-0.0022604810073971,0.6512805819511414,0.7588311433792114,0.0009872673505321,-0.000395422336416,0.0019909392220659,-0.0011030435562133,0.0150148272514343,-0.010965347290039,0,0,0,0
20.6,1788431542346,0.0,0.0,-0.0026581338606774,-0.0012449569767341,0.2406625151634216,0.970604419708252,0.0,0.0,0.0,0.0,2.3920803116084244e-09,0.0,-0.0019646268337965,-0.0022393492981791,0.6512849926948547,0.7588273882865906,0.0004272559211844,0.0008103282203814,0.0021900025765316,-0.0093870162963867,0.0067420601844787,-0.0144786834716796,0,0,0,0
20.7,1788431542446,0.0,0.0,-0.0026581338606774,-0.0012449569767341,0.2406625151634216,0.970604419708252,0.0,0.0,0.0,0.0,1.8289892933509575e-09,0.0,-0.0019744150340557,-0.002248384989798,0.6512643694877625,0.7588450312614441,-0.0007337932620503,0.00089860926498,-0.0006503468268303,-0.0082838535308837,-0.0188522338867187,-0.0071067810058593,0,0,0,0
20.8,1788431542546,0.0,0.0,-0.0026581338606774,-0.0012449569767341,0.2406625151634216,0.970604419708252,0.0,0.0,0.0,0.0,1.833447615950945e-09,0.0,-0.0020073885098099,-0.0022500772029161,0.6512802839279175,0.758831262588501,-0.0012243372161552,0.0003012389968898,-0.0003023924202866,0.039967656135559,-0.0151368975639343,-0.005101203918457,0,0,0,0
20.9,1788431542646,0.0,0.0,-0.0026581338606774,-0.0012449569767341,0.2406625151634216,0.970604419708252,0.0,0.0,0.0,0.0,2.378974350847329e-09,0.0,-0.0020617842674255,-0.0021970337256789,0.6512863636016846,0.7588260769844055,1.3875672601597014e-05,0.002308120695052,0.0011433869972267,0.0027552843093872,0.0228360295295715,0.0115232467651367,0,0,0,0
21.0,1788431542746,0.0,0.0,-0.0026581338606774,-0.0012449569767341,0.2406625151634216,0.970604419708252,0.0,0.0,0.0,0.0,2.419572986411822e-09,0.0,-0.0020974073559045,-0.0022065183147788,0.6512541174888611,0.7588536143302917,4.2113047712711774e-05,0.000133659438805,8.441303390915549e-11,0.0040083527565002,0.026499330997467,-0.0049400329589843,0,0,0,0
21.1,1788431542846,0.0,0.0,-0.0026581338606774,-0.0012449569767341,0.2406625151634216,0.970604419708252,0.0,0.0,0.0,0.0,2.421027156529476e-09,0.0,-0.0020968103781342,-0.0022002309560775,0.6512541174888611,0.7588536143302917,0.0001161103394435,6.420355506365691e-05,1.1200205051873044e-10,-0.003692090511322,-0.0010725259780883,-0.0286893844604492,0,0,0,0
21.2,1788431542946,0.0,0.0,-0.0026581338606774,-0.0012449569767341,0.2406625151634216,0.970604419708252,0.0,0.0,0.0,0.0,2.4587736291437064e-09,0.0,-0.0020897975191473,-0.002193983644247,0.6512541174888611,0.7588536143302917,0.0002067555845737,-2.52364800787667e-05,-7.081252770544543e-11,-0.0258610844612121,-0.021635353565216,0.0281810760498046,0,0,0,0
21.3,1788431543046,0.0,0.0,-0.0026581338606774,-0.0012449569767341,0.2406625151634216,0.970604419708252,0.0,0.0,0.0,0.0,2.3856221442741803e-09,0.0,-0.0020856643095612,-0.0021916534751653,0.6512541174888611,0.7588536143302917,0.0001490865797846,-3.32405047930834e-05,-1.9676061912703104e-06,0.0189403295516967,-0.0140905380249023,-0.0150957107543945,0,0,0,0
21.4,1788431543146,0.0,0.0,-0.0026581338606774,-0.0012449569767341,0.2406625151634216,0.970604419708252,0.0,0.0,0.0,0.0,2.3856221442741803e-09,0.0,-0.0020856643095612,-0.0021916534751653,0.6512541174888611,0.7588536143302917,0.0001490865797846,-3.32405047930834e-05,-1.9676061912703104e-06,0.0189403295516967,-0.0140905380249023,-0.0150957107543945,0,0,0,0
21.5,1788431543246,0.0,0.0,-0.0026581338606774,-0.0012449569767341,0.2406625151634216,0.970604419708252,0.0,0.0,0.0,0.0,2.3856221442741803e-09,0.0,-0.0020856643095612,-0.0021916534751653,0.6512541174888611,0.7588536143302917,0.0001490865797846,-3.32405047930834e-05,-1.9676061912703104e-06,0.0189403295516967,-0.0140905380249023,-0.0150957107543945,0,0,0,0
21.6,1788431543346,0.0,0.0,-0.0026581338606774,-0.0012449569767341,0.2406625151634216,0.970604419708252,0.0,0.0,0.0,0.0,2.3856221442741803e-09,0.0,-0.0020856643095612,-0.0021916534751653,0.6512541174888611,0.7588536143302917,0.0001490865797846,-3.32405047930834e-05,-1.9676061912703104e-06,0.0189403295516967,-0.0140905380249023,-0.0150957107543945,0,0,0,0
21.7,1788431543446,0.0,0.0,-0.0026581338606774,-0.0012449569767341,0.2406625151634216,0.970604419708252,0.0,0.0,0.0,0.0,2.412475330615393e-09,0.0,-0.0020659919828176,-0.0022241538390517,0.6512541174888611,0.7588536143302917,-0.0001631776481699,-0.000297755061314,6.694513475441795e-10,0.0325243473052978,0.0294971466064453,0.0062971115112304,0,0,0,0
21.8,1788431543546,0.0,0.0,-0.0026581338606774,-0.0012449569767341,0.2406625151634216,0.970604419708252,0.0,0.0,0.0,0.0,2.4883224369887103e-09,0.0,-0.0020591877400875,-0.0022411495447158,0.6512541174888611,0.7588536143302917,-9.265253821426292e-05,-0.0002885369402343,4.0096528050430966e-10,0.0015451908111572,0.0185955762863159,-0.0623235702514648,0,0,0,0
21.9,1788431543646,0.0,0.0,-0.0026581338606774,-0.0012449569767341,0.2406625151634216,0.970604419708252,0.0,0.0,0.0,0.0,1.8302929172264726e-09,0.0,-0.0020519075915217,-0.0022543771192431,0.6512541174888611,0.7588536143302917,-6.27313694871712e-05,-0.0003240241367327,3.318726564776723e-10,-0.0836838483810424,0.0111194252967834,0.0235719680786132,0,0,0,0
22.0,1788431543746,0.0,0.0,-0.0026581338606774,-0.0012449569767341,0.2406625151634216,0.970604419708252,0.0,0.0,0.0,0.0,1.8403409907108421e-09,0.0,-0.0020421827211976,-0.0022670375183224,0.6512541174888611,0.7588536143302917,6.10683742682016e-06,-0.0003653013743335,-1.983977233626656e-06,0.009299099445343,-0.0199298858642578,-0.0190639495849609,0,0,0,0
22.1,1788431543846,0.0,0.0,-0.0026581338606774,-0.0012449569767341,0.2406625151634216,0.970604419708252,0.0,0.0,0.0,0.0,2.3094748335950044e-09,0.0,-0.0020316950976848,-0.0022789780050516,0.6512541174888611,0.7588536143302917,1.7592306938215818e-06,-0.0003287018726965,-1.9927544114659915e-06,-0.0140014290809631,0.0231285095214843,0.0441226959228515,0,0,0,0
22.2,1788431543946,0.0,0.0,-0.0026581338606774,-0.0012449569767341,0.2406625151634216,0.970604419708252,0.0,0.0,0.0,0.0,2.3866353338064528e-09,0.0,-0.0020197546109557,-0.0022907881066203,0.6512541174888611,0.7588536143302917,3.838754618992772e-05,-0.0002502804321903,-1.3222128590040326e-10,0.008023977279663,0.0156033635139465,0.0219497680664062,0,0,0,0
22.3,1788431544046,0.0,0.0,-0.0026581338606774,-0.0012449569767341,0.2406625151634216,0.970604419708252,0.0,0.0,0.0,0.0,2.411620458886432e-09,0.0,-0.0020115142688155,-0.0022940281778573,0.6512541174888611,0.7588536143302917,9.558180446244924e-05,-0.000151612249636,-2.1723606618862903e-10,0.0138190984725952,-0.0295960307121276,-0.0087318420410156,0,0,0,0
22.4,1788431544146,0.0,0.0,-0.0026581338606774,-0.0012449569767341,0.2406625151634216,0.970604419708252,0.0,0.0,0.0,0.0,2.461231440875622e-09,0.0,-0.0020039780065417,-0.0022941008210182,0.6512541174888611,0.7588536143302917,0.0001647172533338,-8.203233986819923e-05,-2.0489141215107e-10,-0.0018674135208129,-0.0321511030197143,-0.0138320922851562,0,0,0,0
22.5,1788431544246,0.0,0.0,-0.0026581338606774,-0.0012449569767341,0.2406625151634216,0.970604419708252,0.0,0.0,0.0,0.0,2.292547707227754e-09,0.0,-0.0019942531362175,-0.0022876784205436,0.6512541174888611,0.7588536143302917,0.000240725253883,-1.7422798179478946e-05,-6.283004810841827e-11,-0.0033284425735473,0.0063992142677307,0.0224981307983398,0,0,0,0
22.6,1788431544346,0.0,0.0,-0.0026581338606774,-0.0012449569767341,0.2406625151634216,0.970604419708252,0.0,0.0,0.0,0.0,2.38650899042625e-09,0.0,-0.0019849762320518,-0.002283158712089,0.6512541174888611,0.7588536143302917,0.0001906798573654,-8.324900411168033e-05,-2.384293668324229e-10,-0.0164834260940551,0.0121716260910034,0.0015869140625,0,0,0,0
22.7,1788431544446,0.0,0.0,-0.0026581338606774,-0.0012449569767341,0.2406625151634216,0.970604419708252,0.0,0.0,0.0,0.0,2.3852977371063844e-09,0.0,-0.0019751759245991,-0.0022831205278635,0.6512541770935059,0.7588537335395813,0.0001548563878654,-0.0001856896076363,-4.36254442888908e-06,-0.0083028674125671,0.0161070823669433,-0.0050783157348632,0,0,0,0
22.8,1788431544546,0.0,0.0,-0.0026581338606774,-0.0012449569767341,0.2406625151634216,0.970604419708252,0.0,0.0,0.0,0.0,2.40128916750848e-09,0.0,-0.001959666609764,-0.0022875173017382,0.6512541770935059,0.7588537335395813,0.0001906911488482,-0.0002488798884179,-2.0332104936612406e-06,0.0017184615135192,-0.0384904742240905,0.0063819885253906,0,0,0,0
22.9,1788431544646,0.0,0.0,-0.0026581338606774,-0.0012449569767341,0.2406625151634216,0.970604419708252,0.0,0.0,0.0,0.0,2.308388369343106e-09,0.0,-0.0019459361210465,-0.0022898809984326,0.6512541770935059,0.7588537335395813,0.0001885269018302,-0.000213374467847,-1.8649388582799203e-06,0.001668095588684,-0.0117387771606445,-0.0125627517700195,0,0,0,0
23.0,1788431544746,0.0,0.0,-0.0026581338606774,-0.0012449569767341,0.2406625151634216,0.970604419708252,0.0,0.0,0.0,0.0,2.3845798668986613e-09,0.0,-0.0019357465207576,-0.0022926349192857,0.6512541770935059,0.7588537335395813,9.334363270729444e-05,-0.0001797515638692,-2.5064966185655926e-10,0.0162320137023925,-0.0073997378349304,-0.0068702697753906,0,0,0,0
23.1,1788431544846,0.0,0.0,-0.0026581338606774,-0.0012449569767341,0.2406625151634216,0.970604419708252,0.0,0.0,0.0,0.0,2.4240554008514437e-09,0.0,-0.0019306242465972,-0.0023004040122032,0.6512541770935059,0.7588537335395813,-0.0001023312043863,-0.0001260877680181,1.9410911997218217e-10,0.0129007697105407,-0.0005280971527099,0.0076923370361328,0,0,0,0
23.2,1788431544946,0.0,0.0,-0.0026581338606774,-0.0012449569767341,0.2406625151634216,0.970604419708252,0.0,0.0,0.0,0.0,1.8288789371823102e-09,0.0,-0.0019332375377416,-0.0023085512220859,0.6512541770935059,0.7588537335395813,-0.0002308142526316,-9.739210164000256e-05,3.0186112435341667e-10,-0.0030447244644165,0.0004489421844482,0.0127906799316406,0,0,0,0
23.3,1788431545046,0.0,0.0,-0.0026581338606774,-0.0012449569767341,0.2406625151634216,0.970604419708252,0.0,0.0,0.0,0.0,2.427785084080369e-09,0.0,-0.0019410923123359,-0.0023161675781011,0.6512541770935059,0.7588537335395813,-0.0002478676640145,2.144269553021561e-05,-8.044938399079454e-11,-0.0111697912216186,0.0242183804512023,-0.0038604736328125,0,0,0,0
23.4,1788431545146,0.0,0.0,-0.0026581338606774,-0.0012449569767341,0.2406625151634216,0.970604419708252,0.0,0.0,0.0,0.0,2.3849131558506542e-09,0.0,-0.0019565112888813,-0.0023204274475574,0.6512541174888611,0.7588536143302917,-0.0002331883748015,0.0001611632319202,-6.04882806878615e-10,0.009876012802124,-0.0167062282562255,0.0079584121704101,0,0,0,0
23.5,1788431545246,0.0,0.0,-0.0026581338606774,-0.0012449569767341,0.2406625151634216,0.970604419708252,0.0,0.0,0.0,0.0,2.345471150633216e-09,0.0,-0.001970887184143,-0.0023204097524285,0.6512541174888611,0.7588536143302917,-0.0002359466256097,0.0002241694660124,-7.936547029029607e-10,-0.0218791365623474,0.0139561891555786,-0.0420951843261718,0,0,0,0
23.6,1788431545346,1.8309859037399288,1.0140844583511353,-0.0026581338606774,-0.0012449569767341,0.2406625151634216,0.970604419708252,0.0,0.0,0.0,0.0,1.8145662750157494e-09,0.0,-0.0019890964031219,-0.0023427829146385,0.6511688828468323,0.7589267492294312,-0.0007085559740727,-0.0006030076724724,-0.0066893375786063,0.2240699529647827,-0.0304593443870544,-0.003519058227539,34,190,6767,8493
23.7,1788431545446,4.309859275817871,3.4084506034851074,-0.0026581338606774,-0.0012449569767341,0.2406625151634216,0.970604419708252,0.068205176742882,0.0013131767632844,-2.2771187791945318e-07,0.0,2.4336925807944e-09,0.0,-0.0021426687017083,-0.0017390362918376,0.6493503451347351,0.760484516620636,0.0175176438010112,0.0309944605114896,-0.0890787369042949,0.5973110198974609,-0.2077808976173401,1.2048940658569336,209,202,14771,13194
23.8,1788431545546,6.197183132171631,5.014084339141846,-0.0028424619231373,-0.000540793640539,0.2357610762119293,0.9718067646026612,0.1375171184175533,-0.005600140097341,2.6321659715989944e-05,-0.0023029127623885,0.0096232593059539,-0.1241229772567749,-0.0026460597291588,-0.0014398684725165,0.6446216702461243,0.7644959092140198,-0.0116418880893417,0.0021743587260036,-0.1303253786402901,-0.1305068731307983,0.0786985754966735,1.6274919509887695,136,88,15786,13555
23.9,1788431545646,5.098591327667236,4.676056385040283,-0.0027992706745862,-0.0010701027931645,0.2286752313375473,0.9734982252120972,0.1710746088958145,-0.0031640998371216,9.998692203244916e-05,-0.0016773779643699,-0.029732771217823,-0.1241518929600715,-0.0018700277432799,-0.0026995874941349,0.6409184336662292,0.7676019668579102,-0.0128315347931594,-0.0175926486791024,-0.0661825727808088,-0.286715567111969,0.4624599814414978,0.6926870346069336,218,48,20044,11377
24.0,1788431545746,5.77464771270752,4.507042407989502,-0.0025374013930559,-0.0048644496127963,0.2267624884843826,0.9739347100257874,0.1642584186076684,0.0019879593691969,0.000298022103011,-0.0150803755968809,-0.1125687733292579,-0.0365570001304149,-3.7748366594314575e-05,-0.0059059364721179,0.636850118637085,0.770965039730072,-0.0125844422018203,0.0272181165350068,-0.1515430137890675,0.4750826954841614,0.5039372444152832,0.497720718383789,314,59,19037,12841
24.1,1788431545846,5.577464580535889,4.647887229919434,-0.0029869431164115,-0.0043815677054226,0.2196462899446487,0.9755651950836182,0.1562676676917277,0.006102469827488,-0.0001121112870984,-0.006095380987972,0.0430671945214271,-0.1377165615558624,-0.0010703755542635,-0.0043847560882568,0.6332303285598755,0.7739502787590027,0.0118686296947067,0.0257837840885096,-0.0739391442055273,-0.309861958026886,0.1526936888694763,-0.5364608764648438,341,65,20279,12553
24.2,1788431545946,5.408450603485107,4.366197109222412,-0.0030258372426033,-0.0019288549665361,0.2160829603672027,0.9763684272766112,0.1635971145591375,-0.0018627736734654,-0.0001660915724411,0.007686891593039,0.0623044073581695,-0.0783705115318298,-0.0022484855726361,-0.0026173768565058,0.6293092966079712,0.7771473526954651,-0.0050833838887121,0.0333577786577168,-0.165423817101325,0.2104812264442443,0.0580731630325317,0.4421663284301758,198,62,19978,13185
24.3,1788431546046,5.323943614959717,4.450704097747803,-0.0029859358910471,-0.002945486921817,0.2081430256366729,0.9780893921852112,0.1571567949516235,-0.0004078134457582,0.0001611060785185,-0.0027203306090086,-0.0517177134752273,-0.1378091275691986,-0.0027865031734108,-0.0027051419019699,0.6225276589393616,0.7825881242752075,-0.0207242902613711,0.100375736126787,-0.1530100168631618,-0.0469005703926086,-0.0441941618919372,-0.2155065536499023,326,84,20475,13154
24.4,1788431546146,5.85915470123291,4.535211086273193,-0.0033398477826267,-0.0031388076022267,0.2028493732213974,0.9791992902755736,0.163124513013958,0.000630169438359,-1.1891018770627664e-05,-0.0079823900014162,-0.0368775315582752,-0.0971312224864959,-0.0017860066145658,-0.0044188266620039,0.6198204755783081,0.7847291231155396,-0.0142166541948921,0.0292409597542524,-0.0865865980607092,0.0507817864418029,-0.4810059666633606,-0.0673627853393554,271,48,18963,12604
24.5,1788431546246,5.492957592010498,4.676056385040283,-0.0039239842444658,-0.0016559918876737,0.1984890103340149,0.9800938963890076,0.1593679648598826,-0.0056220158688867,-0.0001260012770764,-0.0028782873414456,0.0594123639166355,-0.1004062741994857,-0.0032680872827768,-0.0026136972010135,0.6156109571456909,0.7880390882492065,0.0037610304841205,-0.0072935406507633,-0.1003988023493068,-0.4410258531570434,-0.0301889181137084,0.2729721069335937,206,38,20232,12112
24.6,1788431546346,5.352112770080566,4.619718074798584,-0.0041199070401489,-0.0008208772633224,0.1958571672439575,0.980623424053192,0.1657729752135781,-0.0049140495518504,-0.000159151407612,-0.001210312009789,0.0368318110704422,-0.1136845275759697,-0.0033320309594273,-0.0024751583114266,0.614629864692688,0.788804829120636,0.0022961377962015,0.0101932185423017,-0.0824469351590795,-0.0753259062767028,-0.0751292705535888,0.0197162628173828,249,30,20818,12003
24.7,1788431546446,5.352112770080566,4.619718074798584,-0.0041199070401489,-0.0008208772633224,0.1958571672439575,0.980623424053192,0.1657729752135781,-0.0049140495518504,-0.000159151407612,-0.001210312009789,0.0368318110704422,-0.1136845275759697,-0.0033320309594273,-0.0024751583114266,0.614629864692688,0.788804829120636,0.0022961377962015,0.0101932185423017,-0.0824469351590795,-0.0753259062767028,-0.0751292705535888,0.0197162628173828,249,30,20818,12003
24.8,1788431546546,5.352112770080566,4.619718074798584,-0.0041199070401489,-0.0008208772633224,0.1958571672439575,0.980623424053192,0.1657729752135781,-0.0049140495518504,-0.000159151407612,-0.001210312009789,0.0368318110704422,-0.1136845275759697,-0.0033320309594273,-0.0024751583114266,0.614629864692688,0.788804829120636,0.0022961377962015,0.0101932185423017,-0.0824469351590795,-0.0753259062767028,-0.0751292705535888,0.0197162628173828,249,30,20818,12003
24.9,1788431546646,5.577464580535889,4.619718074798584,-0.0033187333028763,-0.0022594442125409,0.1890029609203338,0.981968343257904,0.1622868630199988,-0.0049202997114556,-5.957356964029119e-05,-0.0015694219619035,0.0273021236062049,0.008334076963365,-0.0023767529055476,-0.0030649993568658,0.6104952096939087,0.7920105457305908,0.0055789464105136,0.0548569134912928,0.0423214449051582,0.0852146744728088,0.1212612986564636,-0.450326919555664,335,51,18529,13831
25.0,1788431546746,5.154929637908936,4.957746505737305,-0.003392081009224,-0.0007829950773157,0.1889276057481765,0.981984794139862,0.1622280092826463,-0.0007442418071691,2.992263847202478e-06,0.0,2.18457003597905e-08,-2.4855553419911303e-06,-0.002721931785345,-0.0016257921233773,0.6102023720741272,0.7922393083572388,0.0062013307277461,0.0292290725200603,0.0001339156842894,0.016238510608673,0.4272285103797912,0.2885475158691406,322,36,19953,12816
25.1,1788431546846,5.690140724182129,4.929577350616455,-0.0032226166222244,-0.000498670968227,0.1889765411615371,0.9819762110710144,0.161622943377833,-0.0012881005586541,-1.6582507760189468e-07,0.0,0.0,0.0,-0.0021760063245892,-0.0021291896700859,0.6101812720298767,0.7922561168670654,-0.0031539295197783,-0.0296175016577492,-0.0248358587157427,-0.5243175029754639,-0.1711577773094177,0.1413679122924804,320,53,18354,12738
25.2,1788431546946,5.267605781555176,4.929577350616455,-0.0031213597394526,-0.0014506860170513,0.1887886375188827,0.9820116758346558,0.1649451517823967,-0.0011344898926742,9.193967051224192e-05,-0.0025296942330896,-0.0299756973981857,-0.0061104465276002,-0.0018091900274157,-0.0027634464204311,0.6103432178497314,0.7921302318572998,0.0284206229578461,0.0072827442122687,0.0294566384496917,-0.2564711570739746,-0.0805806517601013,-0.1241054534912109,349,37,20533,11764
25.3,1788431547046,5.605633735656738,4.619718074798584,-0.0019148476421833,-0.0032543309498578,0.187995508313179,0.9821626543998718,0.1595797665878544,-0.015287696234494,0.0001319557450237,0.0190066266804933,-0.0716650784015655,-0.0569686777889728,0.000757179223001,-0.0051472689956426,0.6080080270767212,0.7939138412475586,-0.0067799100422145,-0.1035665306830355,-0.1067561631534932,-0.0927627682685852,0.0127438902854919,0.2914485931396484,298,22,19767,11321
25.4,1788431547146,5.211267471313477,4.535211086273193,-0.0009813923388719,-0.0084192529320716,0.1832354366779327,0.9830324649810792,0.1560441866298557,-0.0071761889477955,0.0002832060939877,-0.0022213149350136,-0.1189245656132698,-0.0958754867315292,0.0051718968898057,-0.0107824308797717,0.6031550168991089,0.7975342869758606,0.0064430654568017,-0.1276959629471756,-0.1067259470377835,-0.2583732604980469,-0.2407936453819275,-0.0409965515136718,331,24,22073,11484
25.5,1788431547246,5.605633735656738,4.563380241394043,0.0003332013729959,-0.013993470929563,0.1782828718423843,0.9838797450065612,0.1502835801352742,-0.0045049182287143,0.0001368543911904,0.0068212491460144,-0.1124824285507202,-0.106653094291687,0.0083320885896682,-0.0145780369639396,0.5991536378860474,0.8004580140113831,-0.0093351776457786,-0.1054688747487618,-0.1208979684356619,0.3613241314888,0.1889439225196838,0.1839780807495117,349,39,20903,11569
25.6,1788431547346,5.577464580535889,4.760563373565674,0.0004729800857603,-0.0163011867552995,0.172237828373909,0.9849203824996948,0.1582001129989566,-0.0044240720762461,6.159391338065695e-05,-0.0111472867429256,0.0066779037006199,-0.105410598218441,0.0074119912460446,-0.0139156468212604,0.5947719216346741,0.8037398457527161,0.004309551580894,0.0186447389404492,-0.0776464853474269,-0.2678187489509582,0.2594189047813415,-0.1436023712158203,284,37,18977,12841
25.7,1788431547446,5.464788913726807,4.957746505737305,0.0003397935070097,-0.0159222036600112,0.1698391735553741,0.9853430390357972,0.1631850981087557,-0.0034662309553921,6.784824503974951e-07,-0.0025025689974427,-0.0022539808414876,-0.0239362176507711,0.0076295267790555,-0.0141407893970608,0.59430992603302,0.8040756583213806,0.0101101930388315,-0.0109435097553826,0.0184341681712174,0.1931234002113342,0.0003314018249511,-0.3522720336914062,289,34,19057,12498
25.8,1788431547546,5.408450603485107,4.901408672332764,0.0004677237011492,-0.016210151836276,0.1694626659154892,0.9854031801223756,0.155626589371031,-0.005376844396615,9.987910836273946e-07,0.0048888851888477,-0.0125961080193519,0.0061075803823769,0.0077473111450672,-0.0142609011381864,0.5946077704429626,0.8038521409034729,0.0038603047514881,0.0050724713830566,0.0152274367081373,0.0408155918121337,-0.1112424135208129,-0.4009923934936523,311,27,19627,12762
25.9,1788431547646,4.957746505737305,4.929577350616455,0.0005906953010708,-0.0163762904703617,0.1699323058128357,0.9853194952011108,0.1657493605961244,-0.0031910059199417,2.1579233319505422e-06,0.0,-1.12883693503818e-08,0.0,0.0082597788423299,-0.0144713381305336,0.5950430035591125,0.8035211563110352,0.0003551270141874,0.0020678087540257,-0.0107893668066138,-0.0403994917869567,0.0476900339126586,-0.0608558654785156,267,25,21369,12473
26.0,1788431547746,5.098591327667236,4.957746505737305,0.0005906953010708,-0.0163762904703617,0.1699323058128357,0.9853194952011108,0.1643743102188368,-0.0041465699593096,7.2511938291236385e-06,0.0,-8.341319635007949e-09,0.0,0.0068209674209356,-0.0129977706819772,0.5946700572967529,0.8038358092308044,-0.0188220004513169,0.0610778606100232,0.0020047853669481,-0.0112432837486267,-0.1195979714393615,0.0165128707885742,203,44,19037,13639
26.1,1788431547846,5.154929637908936,5.126760482788086,0.0002152898814529,-0.0133687546476721,0.170613095164299,0.9852473735809326,0.1586403919698209,-0.0006488879946962,-0.0001674817410636,0.007563317194581,0.0558184832334518,0.0324256457388401,0.0056766578927636,-0.0108495336025953,0.5958213806152344,0.803023636341095,0.0044475105754711,0.0558709031546619,0.0162473665339981,-0.2424011826515197,0.2240275740623474,-0.0091161727905273,219,31,17990,13328
26.2,1788431547946,5.070422649383545,5.154929637908936,0.0005337664624676,-0.0113319279626011,0.1726723462343216,0.984914004802704,0.1787736768919021,0.0016576024114027,-0.0001205723735458,0.0192754380404949,0.0335305519402027,0.0581436604261398,0.0065106935799121,-0.0100511452183127,0.5985095500946045,0.8010262250900269,0.0009911158923916,-0.0406046384414252,0.0507327264126914,-0.063568890094757,-0.0783208608627319,0.1840753555297851,377,48,19194,12791
26.3,1788431548046,5.042253494262695,4.816901206970215,0.0026067355647683,-0.0133847333490848,0.1758124828338623,0.9843291640281676,0.1757629470112,0.0006272679415469,0.0002508652901102,0.0349859446287155,-0.0676563009619712,0.0573469810187816,0.0081736361607909,-0.0106466906145215,0.5996657013893127,0.8001380562782288,-0.0131596343951805,0.0395884440746785,-0.0070932191861403,0.1157430410385131,-0.4612970948219299,0.7461147308349609,384,34,20806,12728
26.4,1788431548146,5.323943614959717,4.873239517211914,0.0017262431792914,-0.013000302016735,0.1756661385297775,0.9843624234199524,0.1712140251307241,-0.0034435381268391,-8.671305464618974e-05,-0.0247841477394104,0.0164971388876438,-0.0043032253161072,0.0069074872881174,-0.0125937610864639,0.5986424684524536,0.8008876442909241,-0.0537335796287363,-0.0852401381959492,-0.0494023136470902,0.2509018778800964,0.0048165321350097,0.4398078918457031,356,55,19668,13287
26.5,1788431548246,5.295774459838867,4.901408672332764,0.0003816385287791,-0.0166951306164264,0.1738888621330261,0.9846236705780028,0.1751370409675306,-0.002213124921729,0.0002588533413466,-0.0227696672081947,-0.0765479505062103,-0.0303944181650877,0.0075447121635079,-0.0150323789566755,0.5973320603370667,0.8018177151679993,-0.0226799259223959,0.0089008567999595,-0.0434789561200962,0.1309641003608703,-0.0125864148139953,0.0632171630859375,371,53,19003,13367
26.6,1788431548346,5.098591327667236,5.014084339141846,-0.0002255933359265,-0.01642282679677,0.1732980608940124,0.984732449054718,0.1714656379938117,0.002429552790723,-0.0001160993138429,-0.0123754730448126,0.0210440158843994,-0.0030306447297334,0.0062425816431641,-0.0148257249966263,0.5984539985656738,0.8009957075119019,-0.0205097386083781,-0.0071276054500108,0.0432531340884766,-0.0606052875518798,-0.191443920135498,-0.4222850799560547,339,48,18818,13891
26.7,1788431548446,5.211267471313477,4.957746505737305,-0.0010353869292885,-0.0162677951157093,0.1759840995073318,0.984257996082306,0.1804810594718872,0.0018790061168302,-2.7643869027060185e-05,-0.0081749325618147,-0.0063105556182563,0.0824877917766571,0.0071639977395534,-0.0158499665558338,0.6009882688522339,0.7990685701370239,0.006000002632384,-0.050594308138526,0.0408341013392018,0.1068500280380249,0.1059287190437316,0.1366777420043945,393,27,20083,12367
26.8,1788431548546,5.323943614959717,4.732394218444824,-0.0001844598446041,-0.0200631320476531,0.1774656474590301,0.9839224219322203,0.1740907809004941,0.0004779726766104,0.0002769293539443,0.0042751720175147,-0.0918029174208641,-0.0003229893918614,0.0084261717274785,-0.0184184666723012,0.6009118556976318,0.7990586757659912,-0.0243856769770548,0.0494157696393824,0.022010536772794,0.763674259185791,-0.2163389325141906,-0.3754663467407226,394,67,19713,13312
26.9,1788431548646,5.352112770080566,4.957746505737305,-0.0015154192224144,-0.0180844962596893,0.1777777522802353,0.9839032888412476,0.1683844180919328,0.003994188060316,-0.0001856615359576,-0.0391535684466362,0.0897492542862892,0.0138811506330966,0.0082963714376091,-0.0175770074129104,0.6024718284606934,0.7979034781455994,0.0127852126844457,-0.123644626323677,0.0110625889874884,0.32634037733078,-0.539510190486908,-0.3419408798217773,483,34,21724,11348
27.0,1788431548746,4.647887229919434,4.619718074798584,0.0003121998161077,-0.0225609801709651,0.1786860823631286,0.983647346496582,0.1748387127149218,-0.0002286605233795,0.0004076173087175,0.0118659622967243,-0.1513148248195648,-0.0284009333699941,0.0110593605786561,-0.0209690518677234,0.6012990474700928,0.7986723184585571,-0.0045253378710455,0.0165835443050224,-0.0240947822542206,0.5464329719543457,-0.0919182300567627,0.2099542617797851,420,74,22623,14034
27.1,1788431548846,5.690140724182129,4.704225540161133,7.013627327978611e-05,-0.0218739565461874,0.1783294379711151,0.9837276339530944,0.1756553756557907,-0.0012066312691332,-0.0002504748356726,-6.984743231441826e-05,0.0503812097012996,0.0061424421146512,0.0090937810018658,-0.0187458209693431,0.6000359058380127,0.7997017502784729,-0.008016872942389,0.0284119957496195,-0.095062405959057,0.0430366396903991,-0.0360664725303649,-0.428049087524414,425,24,21600,10899
27.2,1788431548946,5.690140724182129,4.394366264343262,-0.0006018916610628,-0.0197537094354629,0.1743437647819519,0.9844865202903748,0.1745754716778729,-0.0021567250263979,-0.0001230105285222,-0.0080284466966986,0.0548389069736003,-0.1121703386306762,0.0070827826857566,-0.0166561212390661,0.59608393907547,0.8027180433273315,-0.021160486507776,0.0601067875050436,-0.1129558198672529,-0.2188576459884643,-0.199302077293396,-0.5725536346435547,255,32,17911,9362
27.3,1788431549046,5.746479034423828,4.11267614364624,-0.0015035653486847,-0.015524641610682,0.1691479533910751,0.985467255115509,0.1566634326501826,-0.0011698694214579,-0.0002386040969748,0.0002131798246409,0.1069471016526222,-0.1093448922038078,0.00433552544564,-0.0130953304469585,0.5917064547538757,0.8060354590415955,-0.0140188816126568,0.0619578974956316,-0.1533679803776544,1.1043272018432615,-0.0010541677474975,-0.0498943328857421,396,87,20295,13243
27.4,1788431549146,5.492957592010498,4.478873252868652,-0.0015237899497151,-0.0172237865626811,0.1627768129110336,0.9865113496780396,0.1766802963779331,0.0012966615299916,0.0003382044619427,-0.0039210985414683,-0.1353698074817657,-0.1328693330287933,0.0078684296458959,-0.0181119125336408,0.5856139063835144,0.8103495836257935,-0.0022896867642011,0.0084967996697047,-0.0900370885617745,0.0603215098381042,0.1350046992301941,-0.0531091690063476,204,45,20349,12260
27.5,1788431549246,6.084506988525391,4.563380241394043,-0.0012348953168839,-0.0198096185922622,0.1579187214374542,0.9872526526451112,0.1772739694734879,0.0004719356046827,2.2797823818805337e-05,-0.0088329892605543,-0.0083129340782761,-0.0857356637716293,0.0061849746853113,-0.0172238890081644,0.5819841623306274,0.8129942417144775,-0.043935414921633,0.0848318046024174,-0.1267249988028992,0.0194019079208374,-0.0621915459632873,0.7534933090209961,301,26,18854,11886
27.6,1788431549346,5.577464580535889,4.422535419464111,-0.0025848064105957,-0.0164689142256975,0.1524819284677505,0.9881656765937804,0.1742774710317709,0.0012001187842711,-0.0003795653075692,-0.0133890081197023,0.0788276046514511,-0.092320829629898,0.0044105211272835,-0.0149588659405708,0.5785646438598633,0.8154874444007874,0.005440656424655,0.0496380326362474,-0.1080305643687085,-0.0716918110847473,0.1820273399353027,-0.1619462966918945,221,35,20199,12067
27.7,1788431549446,5.633802890777588,4.478873252868652,-0.0027742702513933,-0.0154488151893019,0.1470439881086349,0.9890053272247314,0.1736905728269733,-0.0025615673171495,2.260937625009844e-05,-0.0035426472313702,0.0015650073764845,-0.1239503473043441,0.0043823989108204,-0.014581955038011,0.5743446946144104,0.8184719681739807,0.0111611698687763,0.0262644631586489,-0.1022702134301407,0.3168314099311828,0.2117007970809936,-0.4906454086303711,292,35,21107,11340
27.8,1788431549546,5.746479034423828,4.507042407989502,-0.0028217860963195,-0.0143847037106752,0.1415405422449112,0.989823877811432,0.1719975630089759,-0.0014429326715727,-7.556882210017613e-05,-0.0032127869781106,0.0194383896887302,-0.1144695505499839,0.0043034218251705,-0.0145850321277976,0.5686743259429932,0.8224222660064697,0.003283275219625,-0.0370349563603365,-0.1138296150540781,0.135374367237091,0.0726016759872436,0.2740707397460937,358,39,19628,12117
27.9,1788431549646,5.7183098793029785,4.619718074798584,-0.0024476307444274,-0.01616813801229,0.1364555358886718,0.9905112385749816,0.1742703285812037,-0.0019161453254175,0.0001350132745705,0.0029914821498095,-0.0603321604430675,-0.1051205843687057,0.0067082215100526,-0.0182568430900573,0.5645251870155334,0.8251866102218628,-0.0120018863361284,-0.1242747334347171,-0.1146935147994626,-0.1824886202812194,-0.1332666873931884,-0.5749912261962891,258,25,19845,11763
28.0,1788431549746,5.352112770080566,4.591549396514893,-0.0024105650372803,-0.0205305516719818,0.1307289600372314,0.9912025928497314,0.1716296835384388,-0.00145416107405,0.0003101371776561,-0.0138191543519496,-0.0520345196127891,-0.0956214517354965,0.0070807849988341,-0.0195824019610881,0.5613442063331604,0.8273205161094666,-0.0004952508187995,-0.0040614846125113,-0.0665823995835927,0.1936518549919128,0.076634407043457,0.2044401168823242,307,29,21966,11791
28.1,1788431549846,5.323943614959717,4.563380241394043,-0.0026421630755066,-0.020153297111392,0.1270988285541534,0.9916817545890808,0.170702460893971,-0.000169882016696,-4.521123905436438e-05,-0.0054468503221869,0.0210885889828205,-0.0999011844396591,0.0057676481083035,-0.0171603374183177,0.5573875308036804,0.8300551176071167,0.0167587129220136,0.0833923245249913,-0.0853056582405726,0.0240189433097839,0.2712413072586059,0.7362489700317383,391,41,22354,11725
28.2,1788431549946,5.7183098793029785,4.535211086273193,-0.0023448022548109,-0.0172054711729288,0.1230992376804351,0.992242395877838,0.1720798574589973,-0.0018200514369994,-0.0001239217593706,0.0154225891456007,0.0445272214710712,-0.0850885882973671,0.0059236474335193,-0.0155444806441664,0.5537859201431274,0.8324929475784302,0.0295605697484878,0.0211249417671446,-0.1104015915225748,0.2297729253768921,-0.248920202255249,0.45025634765625,303,22,20419,11163
28.3,1788431550046,5.521126747131348,4.478873252868652,-0.0009250922594219,-0.016173793002963,0.1183125004172325,0.99284428358078,0.1778853285499716,-0.0032874587218401,-3.622154756764591e-05,0.0338875576853752,0.0159673392772674,-0.1003972962498664,0.0064237304031848,-0.0161811709403991,0.54940265417099,0.8353764414787292,-0.0440569168337393,-0.0886874186485167,-0.1577522377128661,0.1562660932540893,-0.4069903492927551,-0.0184211730957031,332,43,21015,11737
28.4,1788431550146,4.873239517211914,3.9718310832977295,-0.0018665749812498,-0.0169340688735246,0.1105954572558403,0.9937194585800172,0.1693923169036083,-0.0043184407657436,3.0551343551816043e-06,-0.0117317996919155,0.0211435370147228,-0.141822800040245,0.0043633356690406,-0.0133842146024107,0.5428173542022705,0.8397328853607178,0.0005275575390584,0.1453371014835836,-0.112990659115576,-0.9921479225158693,-0.3253492712974548,-0.4517183303833008,191,89,13625,6026
28.5,1788431550246,2.4788732528686523,1.7183098793029783,-0.003108623670414,-0.0071957614272832,0.1044789105653762,0.99449622631073,0.1100637079170101,-0.0073563263918028,-0.0004044903049715,-0.0120557742193341,0.2878375053405761,-0.1276493072509765,-0.0019608102738857,-0.0049561830237507,0.537105917930603,0.8434979915618896,-0.0195969001136689,0.0206492020887971,-0.1555331822676194,-1.4011595249176023,-0.4725049138069153,0.0616283416748046,35,81,4296,1136
28.6,1788431550346,4.676056385040283,4.169013977050781,-0.0034930759575217,-0.0038461696822196,0.0979460552334785,0.9951781034469604,0.0492773977513099,0.0020505294911229,-6.905933821179897e-06,0.0127614075317978,0.0022180443629622,-0.1112217828631401,-0.0008100941777229,-0.0073551209643483,0.5332750082015991,0.8459096550941467,-0.0524519506457052,-0.1405315333318612,-0.1113167896857301,1.0949722528457642,-1.0604180097579956,1.1301136016845703,341,177,18777,14205
28.7,1788431550446,4.394366264343262,5.323943614959717,-0.0018109263619408,-0.0197062939405441,0.0964216738939285,0.9951438903808594,0.1433629605091998,-0.0077733385587708,0.00145953340777,0.0292280931025743,-0.391959011554718,0.013827409595251,0.008758689276874,-0.0192415155470371,0.5351858139038086,0.8444697260856628,0.0705513626961786,0.0520217027565616,0.0930224293741967,0.497090220451355,0.1477836370468139,-1.1958580017089844,448,189,20519,18412
28.8,1788431550546,4.957746505737305,6.14084529876709,-0.0011528397444635,-0.0173468850553035,0.1033335626125335,0.9944947957992554,0.1861775609592968,0.0097901264572444,-0.0004682777039279,0.0204596351832151,0.1400014162063598,0.206931933760643,0.0062586683779954,-0.0151293938979506,0.54547518491745,0.8379669785499573,0.0064957148112399,0.0266641694263583,0.3455010913798774,-0.8703107833862305,-0.014489471912384,-0.1297674179077148,239,24,17152,13727
28.9,1788431550646,4.394366264343262,5.492957592010498,-0.0013560507213696,-0.0150851076468825,0.116263747215271,0.9931028485298156,0.1786098758290525,-0.0022709395897585,-0.0001664473300057,0.0035748903173953,0.0471771210432052,0.2277538478374481,0.0053840307518839,-0.0137703837826848,0.5532093048095703,0.8329111337661743,0.0051188835074227,0.0151147531506479,0.162320195115827,0.278988778591156,-0.4958924055099487,0.1485729217529297,336,55,18449,15018
29.0,1788431550746,4.873239517211914,5.380281925201416,-0.0017320405459031,-0.0125030493363738,0.1226162537932396,0.9923738837242126,0.1699356147406003,-0.0006962493666546,-0.0001537764913326,-0.0035741790197789,0.0834477245807647,0.1045287251472473,0.0009725242853164,-0.0075100976973772,0.5594853162765503,0.828805685043335,-0.0037703543123627,0.1681418571268312,0.1576942920027368,0.0273147225379943,-0.0442547798156738,-0.27386474609375,215,70,15932,16064
29.1,1788431550846,4.929577350616455,5.577464580535889,-0.0028974493034183,-0.0045222057960927,0.1308435350656509,0.9913884401321412,0.1812171199334937,0.0014696134891289,-0.0005501463859325,-0.0033116459380835,0.1727814376354217,0.2141644060611724,-0.0011388566344976,-0.004995466209948,0.5671641826629639,0.8235889077186584,-0.0066889029014743,-0.04181483456304,0.1352137741194125,-0.3589169383049011,-0.3663686513900757,0.0352697372436523,341,28,18071,12403
29.2,1788431550946,4.619718074798584,5.183098793029785,-0.0027747715357691,-0.0066608912311494,0.1379420012235641,0.990414023399353,0.1744385144780538,-0.0013415639516619,0.0002590039196697,0.0019217458320781,-0.0964998751878738,0.0612381733953952,0.0014656782150268,-0.0086981356143951,0.5692909359931946,0.822088897228241,-0.0050487717103583,-0.0984904567067622,0.0581446247278894,0.0481467247009277,0.4870489835739136,0.4481163024902344,267,86,19086,14303
29.3,1788431551046,4.704225540161133,4.901408672332764,-0.0023547704331576,-0.0110814124345779,0.1414186507463455,0.9898850321769714,0.1716964837615183,0.0057487372292427,0.0002285894189816,0.0002117372496286,-0.0865766108036041,0.0884305015206337,0.005267777480185,-0.0144217126071453,0.5728328824043274,0.8195284008979797,-0.0031249071440364,-0.1646388413639714,0.0412078297444013,-0.2601621150970459,0.4871571063995361,-0.1900577545166015,369,43,20378,13973
29.4,1788431551146,4.901408672332764,4.929577350616455,-0.0012654203455895,-0.0189492590725421,0.1436452567577362,0.9894469380378724,0.1680626360696083,0.001386510768844,0.0005286759019814,-0.0019017260055989,-0.1973366886377334,0.0299761332571506,0.0083685293793678,-0.0191756002604961,0.5743629336357117,0.8183334469795227,-0.011095835669448,-0.0107264109788849,0.0811389160517358,0.6849398612976074,0.3170923590660095,-0.1143665313720703,417,45,21582,13241
29.5,1788431551246,4.929577350616455,4.760563373565674,-0.0011482054833322,-0.020511133596301,0.1464644521474838,0.9890025854110718,0.1727132434386302,0.0046454315312123,-5.396832360647867e-05,0.003166215494275,0.0113138007000088,0.0505046546459198,0.007984172552824,-0.0183880608528852,0.5757957696914673,0.8173478245735168,0.0041240917655997,0.0452278418812585,-0.0195283689784512,0.2440021634101867,0.0508419275283813,-0.0386533737182617,437,70,21995,13618
29.6,1788431551346,5.211267471313477,4.873239517211914,-0.0012482972815632,-0.0194343626499176,0.1467758566141128,0.988978147506714,0.1768191769854246,0.0005263908853934,-0.0001560993229112,0.0002053986099781,0.0185567084699869,9.029543434735388e-05,0.0078153191134333,-0.0179034043103456,0.5763036608695984,0.8170021176338196,0.0099621037247824,-0.0185647182310186,0.0215450742499786,-0.258260428905487,-0.4158109426498413,0.2469863891601562,428,22,22980,10913
29.7,1788431551446,5.746479034423828,4.394366264343262,-0.0013258168473839,-0.019495079293847,0.1464542299509048,0.9890245199203492,0.1708413584252492,-0.0054249297778056,2.1514369354356e-06,-0.0069794212467968,-0.0048384089022874,-0.032298419624567,0.0073379315435886,-0.0180615596473217,0.5736624598503113,0.818859875202179,-0.0095565389155705,0.0129402653332093,-0.1074786169355099,0.5399168729782104,-0.153123140335083,0.4777507781982422,385,24,21183,12053
29.8,1788431551546,5.070422649383545,5.549295902252197,-0.0017283707857131,-0.018655452877283,0.1415760070085525,0.9897500872612,0.1715534736200926,-0.0011342096640204,-0.0001113896705278,-0.0020032285246998,0.0267209578305482,-0.0979127213358879,0.0062266532331705,-0.0165073405951261,0.570080041885376,0.8213997483253479,-0.0065379262480131,0.0828927458734175,-0.0115329464472043,-0.3567883372306824,0.3431538939476013,-0.178201675415039,191,124,15944,15150
29.9,1788431551646,4.647887229919434,5.549295902252197,-0.0022119975183159,-0.0150901302695274,0.1414268165826797,0.989831268787384,0.1670382359846843,0.0009829352022067,-0.0003157177761541,-0.0012339855311438,0.135975107550621,0.0612930431962013,0.0022817971184849,-0.0100348135456442,0.575714111328125,0.817586362361908,0.0420242145134077,0.1761606012509641,0.2177798569800572,0.6794211864471436,-0.2252528071403503,-0.6952600479125977,298,70,16567,15763
30.0,1788431551746,4.760563373565674,5.521126747131348,-0.003203967353329,-0.0023318817839026,0.1524968445301056,0.9882959723472596,0.1843633793270939,-0.0015528443698225,-0.0009520362198494,0.0217415522783994,0.2679230272769928,0.2202233523130417,-0.0041364859789609,-0.0016215816140174,0.5823096036911011,0.8129550218582153,-0.0471358112722782,0.1075347302194066,0.0971070096971156,-1.1143441200256348,0.0253130197525024,1.9953861236572263,95,66,15689,15388
30.1,1788431551846,4.11267614364624,5.521126747131348,-0.0041566318832337,-0.0012108400696888,0.1582774370908737,0.9873852133750916,0.1655389784747809,-0.0002978607792669,0.0001968985943236,-0.0022930677514523,-0.0224070604890584,0.1324987709522247,-0.003637321293354,-0.0023475773632526,0.5889972448348999,0.8081235289573669,0.00706572726145,-0.0645703874292568,0.1936400341707768,0.0388446450233459,0.6133787035942078,0.4058876037597656,260,81,17443,15710
30.2,1788431551946,4.14084529876709,5.605633735656738,-0.0043576853349804,-0.0008770470740273,0.1662671566009521,0.9860706925392152,0.1739580563794878,0.0055603537730403,7.943945416444846e-05,-0.0039115967229008,-0.0257111564278602,0.1962334364652633,-0.0033076461404561,-0.0027308035641908,0.596392035484314,0.8026818633079529,0.0125224631909161,-0.0064636888069716,0.276988928438564,-0.1945672631263733,0.5226761698722839,-0.2446041107177734,259,66,18332,15508
