time_s,timestamp_ms,wheel_vels__velocity_left,wheel_vels__velocity_right,odom__orient_x,odom__orient_y,odom__orient_z,odom__orient_w,odom__lin_x,odom__lin_y,odom__lin_z,odom__ang_x,odom__ang_y,odom__ang_z,imu__orient_x,imu__orient_y,imu__orient_z,imu__orient_w,imu__angvel_x,imu__angvel_y,imu__angvel_z,imu__acc_x,imu__acc_y,imu__acc_z,wheel_status__current_ma_left,wheel_status__current_ma_right,wheel_status__pwm_left,wheel_status__pwm_right
0.0,1788177713721,0.0,0.0,-0.00869314186275,-0.0072250515222549,0.9515588879585266,0.3072588145732879,0.0,0.0,0.0,0.0,0.0,0.0,-0.0092902882024645,-0.0068085538223385,0.9305024147033693,0.3661046326160431,0.0001657647522502,-1.1172235265017816e-05,-1.9915076303268173e-11,0.007027268409729,0.0140537023544311,0.0003471374511718,0,0,0,0
0.1,1788177713821,0.0,0.0,-0.00869314186275,-0.0072250515222549,0.9515588879585266,0.3072588145732879,0.0,0.0,0.0,0.0,0.0,0.0,-0.0092902882024645,-0.0068085538223385,0.9305024147033693,0.3661046326160431,0.0001657647522502,-1.1172235265017816e-05,-1.9915076303268173e-11,0.007027268409729,0.0140537023544311,0.0003471374511718,0,0,0,0
0.2,1788177713921,0.0,0.0,-0.00869314186275,-0.0072250515222549,0.9515588879585266,0.3072588145732879,0.0,0.0,0.0,0.0,0.0,0.0,-0.0092902882024645,-0.0068085538223385,0.9305024147033693,0.3661046326160431,0.0001657647522502,-1.1172235265017816e-05,-1.9915076303268173e-11,0.007027268409729,0.0140537023544311,0.0003471374511718,0,0,0,0
0.3,1788177714021,0.0,0.0,-0.00869314186275,-0.0072250515222549,0.9515588879585266,0.3072588145732879,0.0,0.0,0.0,0.0,0.0,0.0,-0.0092902882024645,-0.0068085538223385,0.9305024147033693,0.3661046326160431,0.0001657647522502,-1.1172235265017816e-05,-1.9915076303268173e-11,0.007027268409729,0.0140537023544311,0.0003471374511718,0,0,0,0
0.4,1788177714121,0.0,0.0,-0.00869314186275,-0.0072250515222549,0.9515588879585266,0.3072588145732879,0.0,0.0,0.0,0.0,0.0,0.0,-0.0092902882024645,-0.0068085538223385,0.9305024147033693,0.3661046326160431,0.0001657647522502,-1.1172235265017816e-05,-1.9915076303268173e-11,0.007027268409729,0.0140537023544311,0.0003471374511718,0,0,0,0
0.5,1788177714221,0.0,0.0,-0.00869314186275,-0.0072250515222549,0.9515588879585266,0.3072588145732879,0.0,0.0,0.0,0.0,0.0,0.0,-0.009286131709814,-0.0067930333316326,0.9305025339126588,0.3661046624183655,0.000223952731883,4.5381216745256107e-05,1.536915762803463e-06,0.0020528435707092,0.0025546550750732,0.0198564529418945,0,0,0,0
0.6,1788177714321,0.0,0.0,-0.00869314186275,-0.0072250515222549,0.9515588879585266,0.3072588145732879,0.0,0.0,0.0,0.0,0.0,0.0,-0.0092848595231771,-0.0067771105095744,0.9305026531219482,0.3661046922206878,0.0002664972378355,0.0001025758085942,3.998490768452978e-06,-0.0008841156959533,-0.0213337540626525,-2.86102294921875e-06,0,0,0,0
0.7,1788177714421,0.0,0.0,-0.00869314186275,-0.0072250515222549,0.9515588879585266,0.3072588145732879,0.0,0.0,0.0,0.0,0.0,0.0,-0.0092848595231771,-0.0067771105095744,0.9305026531219482,0.3661046922206878,0.0002664972378355,0.0001025758085942,3.998490768452978e-06,-0.0008841156959533,-0.0213337540626525,-2.86102294921875e-06,0,0,0,0
0.8,1788177714521,0.0,0.0,-0.0088463854044675,-0.0073326919227838,0.9515050649642944,0.3074183762073517,0.0,0.0,0.0,0.0,0.0,0.0,-0.0092905508354306,-0.0067509934306144,0.9305027723312378,0.3661047220230102,0.0001962656840886,0.0001783489235132,3.741734803747553e-06,0.0037000775337219,0.0217671394348144,0.0006818771362304,0,0,0,0
0.9,1788177714621,0.0,0.0,-0.0088463854044675,-0.0073326919227838,0.9515050649642944,0.3074183762073517,0.0,0.0,0.0,0.0,0.0,0.0,-0.0092905508354306,-0.0067509934306144,0.9305027723312378,0.3661047220230102,0.0001962656840886,0.0001783489235132,3.741734803747553e-06,0.0037000775337219,0.0217671394348144,0.0006818771362304,0,0,0,0
1.0,1788177714721,0.0,0.0,-0.0088463854044675,-0.0073326919227838,0.9515050649642944,0.3074183762073517,0.0,0.0,0.0,0.0,0.0,0.0,-0.0093040578067302,-0.0067206993699073,0.9305028915405272,0.3661047518253326,0.0002219214503151,0.0002162040676691,1.9893738549757766e-06,-0.0120186209678649,-0.0147742629051208,0.022343635559082,0,0,0,0
1.1,1788177714821,0.0,0.0,-0.0088463854044675,-0.0073326919227838,0.9515050649642944,0.3074183762073517,0.0,0.0,0.0,0.0,0.0,0.0,-0.0093086808919906,-0.0067115873098373,0.9305028915405272,0.3661047518253326,0.0001567079755932,0.0001861881296611,2.9788497256958173e-06,0.006002128124237,0.0090070962905883,-0.0079154968261718,0,0,0,0
1.2,1788177714921,0.0,0.0,-0.0088463854044675,-0.0073326919227838,0.9515050649642944,0.3074183762073517,0.0,0.0,0.0,0.0,0.0,0.0,-0.0093140825629234,-0.0067015960812568,0.9305028915405272,0.3661047518253326,7.113359652844715e-05,0.0001046027377725,1.4918098021143245e-06,0.0091028809547424,-0.0137341618537902,-0.0030269622802734,0,0,0,0
1.3,1788177715021,0.0,0.0,-0.0088463854044675,-0.0073326919227838,0.9515050649642944,0.3074183762073517,0.0,0.0,0.0,0.0,0.0,0.0,-0.009315937757492,-0.0066997064277529,0.9305028915405272,0.3661047518253326,2.5960557275491112e-05,6.788787239994095e-05,1.864759490301824e-06,-0.0180243849754333,-0.0045124888420104,0.0039224624633789,0,0,0,0
1.4,1788177715121,0.0,0.0,-0.0088463854044675,-0.0073326919227838,0.9515050649642944,0.3074183762073517,0.0,0.0,0.0,0.0,0.0,0.0,-0.0093223191797733,-0.0067003360018134,0.9305028915405272,0.3661047518253326,-9.045115991780206e-05,8.391996685130852e-05,-1.1473379050260114e-10,-0.0088616609573364,-0.0214922428131103,0.0059385299682617,0,0,0,0
1.5,1788177715221,0.0,0.0,-0.0088463854044675,-0.0073326919227838,0.9515050649642944,0.3074183762073517,0.0,0.0,0.0,0.0,0.0,0.0,-0.0093271220102906,-0.0067059909924864,0.9305027723312378,0.3661047220230102,-0.0001547818063085,3.513938542194838e-05,-1.0220361936161739e-10,-0.0200613141059875,0.000476062297821,0.0116071701049804,0,0,0,0
1.6,1788177715321,0.0,0.0,-0.0088463854044675,-0.0073326919227838,0.9515050649642944,0.3074183762073517,0.0,0.0,0.0,0.0,0.0,0.0,-0.0093305753543972,-0.006714042276144,0.9305026531219482,0.3661046922206878,-0.0001549283167259,-1.876253498374406e-05,-3.911360849110768e-06,0.0066050291061401,-0.0098918080329895,-0.0207977294921875,0,0,0,0
1.7,1788177715421,0.0,0.0,-0.0088463854044675,-0.0073326919227838,0.9515050649642944,0.3074183762073517,0.0,0.0,0.0,0.0,0.0,0.0,-0.009330348111689,-0.0067209480330348,0.9305026531219482,0.3661046922206878,-0.0001649357218408,-8.68082746530716e-05,1.5207227749976108e-10,-0.0174373388290405,-0.0204819440841674,0.0101528167724609,0,0,0,0
1.8,1788177715521,0.0,0.0,-0.0088463854044675,-0.0073326919227838,0.9515050649642944,0.3074183762073517,0.0,0.0,0.0,0.0,0.0,0.0,-0.0093279602006077,-0.0067331427708268,0.9305025339126588,0.3661047518253326,-0.0002091497085313,-0.0001662235978379,-9.853407954635495e-06,0.0068886876106262,-0.0308684110641479,0.0209980010986328,0,0,0,0
1.9,1788177715621,0.0,0.0,-0.0088463854044675,-0.0073326919227838,0.9515050649642944,0.3074183762073517,0.0,0.0,0.0,0.0,0.0,0.0,-0.0093206139281392,-0.0067459270358085,0.9305024147033693,0.3661050796508789,-8.942002744165382e-05,-0.0001965876063558,-7.94266927433156e-06,0.0064360499382019,-0.0120465159416198,0.0330810546875,0,0,0,0
2.0,1788177715721,0.0,0.0,-0.0088463854044675,-0.0073326919227838,0.9515050649642944,0.3074183762073517,0.0,0.0,0.0,0.0,0.0,0.0,-0.0093133812770247,-0.0067518474534153,0.9305024147033693,0.3661052584648132,-6.833295275299624e-05,-0.0001974408214818,-5.947181746524521e-06,0.0100809335708618,0.0331294536590576,-0.0224742889404296,0,0,0,0
2.1,1788177715821,0.0,0.0,-0.0088463854044675,-0.0073326919227838,0.9515050649642944,0.3074183762073517,0.0,0.0,0.0,0.0,0.0,0.0,-0.0093054408207535,-0.006758022122085,0.9305022954940796,0.3661054968833923,-6.897303717689393e-05,-0.0002149291947319,-9.973290192844771e-06,0.0024865269660949,0.0025791525840759,0.004399299621582,0,0,0,0
2.2,1788177715921,0.0,0.0,-0.0088463854044675,-0.0073326919227838,0.9515050649642944,0.3074183762073517,0.0,0.0,0.0,0.0,0.0,0.0,-0.0092999283224344,-0.0067663136869668,0.9305022954940796,0.3661056160926819,-0.0001419593179783,-0.0001309342852429,-1.987338121874002e-06,-0.0130769610404968,-0.0092320442199707,-0.008397102355957,0,0,0,0
2.3,1788177716021,0.0,0.0,-0.0088463854044675,-0.0073326919227838,0.9515050649642944,0.3074183762073517,0.0,0.0,0.0,0.0,0.0,0.0,-0.0093004582449793,-0.006774584762752,0.93050217628479,0.3661055862903595,-0.0002070061287862,-9.225906100902672e-06,-2.170773708041773e-06,0.0021756291389465,0.0037499070167541,0.0007448196411132,0,0,0,0
2.4,1788177716121,0.0,0.0,-0.0088463854044675,-0.0073326919227838,0.9515050649642944,0.3074183762073517,0.0,0.0,0.0,0.0,0.0,0.0,-0.0093080596998333,-0.0067830579355359,0.9305020570755004,0.3661055564880371,-0.0001781037558648,0.0001120597105385,-2.979061918853354e-10,0.0049279332160949,-0.0123117566108703,0.007451057434082,0,0,0,0
2.5,1788177716221,0.0,0.0,-0.0088463854044675,-0.0073326919227838,0.9515050649642944,0.3074183762073517,0.0,0.0,0.0,0.0,0.0,0.0,-0.0093211168423295,-0.0067910971119999,0.9305019378662108,0.3661055266857147,-0.0002497511455943,0.0001912323676903,-6.696520766911924e-10,0.0127769112586975,-0.0025952458381652,-0.0050954818725585,0,0,0,0
2.6,1788177716321,0.0,0.0,-0.0088463854044675,-0.0073326919227838,0.9515050649642944,0.3074183762073517,0.0,0.0,0.0,0.0,0.0,0.0,-0.0093307513743639,-0.0067988568916916,0.9305018186569214,0.3661054968833923,-0.0002546650288139,0.0001122643432621,-4.2762698348383487e-10,0.0070804357528686,-0.0164251327514648,-0.0302600860595703,0,0,0,0
2.7,1788177716421,0.0,0.0,-0.0088463854044675,-0.0073326919227838,0.9515050649642944,0.3074183762073517,0.0,0.0,0.0,0.0,0.0,0.0,-0.0093388576060533,-0.0068093324080109,0.9305015802383424,0.3661054372787475,-0.0002538647682953,6.556406094385929e-05,-1.8585930523211327e-06,0.0012386441230773,0.0105284452438354,0.0201120376586914,0,0,0,0
2.8,1788177716521,0.0,0.0,-0.0088463854044675,-0.0073326919227838,0.9515050649642944,0.3074183762073517,0.0,0.0,0.0,0.0,0.0,0.0,-0.0093466555699706,-0.0068191392347216,0.9305014610290528,0.3661054074764251,-0.0001810782408808,6.739643414880912e-05,-1.955476699061977e-06,0.0157886743545532,-0.0041568279266357,-0.008768081665039,0,0,0,0
2.9,1788177716621,0.0,0.0,-0.0088463854044675,-0.0073326919227838,0.9515050649642944,0.3074183762073517,0.0,0.0,0.0,0.0,0.0,0.0,-0.0093496860936284,-0.0068254806101322,0.9305014610290528,0.3661054074764251,-0.0001551653129638,-2.430562161293681e-05,5.6647502924131737e-11,0.0113736391067504,-0.0131448507308959,0.0018787384033203,0,0,0,0
3.0,1788177716721,0.0,0.0,-0.0088463854044675,-0.0073326919227838,0.9515050649642944,0.3074183762073517,0.0,0.0,0.0,0.0,0.0,0.0,-0.0093497447669506,-0.0068342285230755,0.9305013418197632,0.3661053776741028,-0.0001741882971197,-8.165271523795298e-05,-1.989799646099936e-06,0.0036500692367553,-0.0094580650329589,0.0272397994995117,0,0,0,0
3.1,1788177716821,0.0,0.0,-0.0088463854044675,-0.0073326919227838,0.9515050649642944,0.3074183762073517,0.0,0.0,0.0,0.0,0.0,0.0,-0.0093459896743297,-0.0068435342982411,0.9305013418197632,0.3661053776741028,-9.902556243664426e-05,-0.0001310632795541,-1.9827950303213595e-06,0.0265209674835205,-0.0080113410949707,0.0153455734252929,0,0,0,0
3.2,1788177716921,0.0,0.0,-0.0088463854044675,-0.0073326919227838,0.9515050649642944,0.3074183762073517,0.0,0.0,0.0,0.0,0.0,0.0,-0.0093412492424249,-0.0068505816161632,0.9305013418197632,0.3661053776741028,-0.0001156108620068,-0.0001574566426943,-3.970263676813858e-06,-0.0058150887489318,0.0068420767784118,-0.0474491119384765,0,0,0,0
3.3,1788177717021,0.0,0.0,-0.0088463854044675,-0.0073326919227838,0.9515050649642944,0.3074183762073517,0.0,0.0,0.0,0.0,0.0,0.0,-0.0093385251238942,-0.006855166517198,0.9305013418197632,0.3661053776741028,-9.638546080952546e-05,-0.0001270719477668,-1.8456041095834923e-06,0.0047745108604431,0.010133683681488,0.0084466934204101,0,0,0,0
3.4,1788177717121,0.0,0.0,-0.0088463854044675,-0.0073326919227838,0.9515050649642944,0.3074183762073517,0.0,0.0,0.0,0.0,0.0,0.0,-0.0093358401209115,-0.0068600885570049,0.9305013418197632,0.3661053776741028,-0.000109079893189,-0.0001094844919344,-1.9915796226592285e-06,-0.0108274221420288,0.0196428894996643,-0.0758552551269531,0,0,0,0
3.5,1788177717221,0.0,0.0,-0.0088463854044675,-0.0073326919227838,0.9515050649642944,0.3074183762073517,0.0,0.0,0.0,0.0,0.0,0.0,-0.0093352887779474,-0.0068696057423949,0.9305012226104736,0.3661053478717804,-8.378806456134117e-05,-3.1677994532124645e-05,-1.5151882841895094e-06,0.0037679076194763,0.019250750541687,-0.0245275497436523,0,0,0,0
3.6,1788177717321,0.0,0.0,-0.0088463854044675,-0.0073326919227838,0.9515050649642944,0.3074183762073517,0.0,0.0,0.0,0.0,0.0,0.0,-0.0093327620998024,-0.006869058124721,0.9305012226104736,0.3661053478717804,8.723180553383838e-05,-4.0384495798778936e-05,-5.101932390925152e-11,-2.181529998779297e-05,0.0231602191925048,0.0008373260498046,0,0,0,0
3.7,1788177717421,0.0,0.0,-0.0088463854044675,-0.0073326919227838,0.9515050649642944,0.3074183762073517,0.0,0.0,0.0,0.0,0.0,0.0,-0.0093251885846257,-0.0068582883104681,0.9305013418197632,0.3661053776741028,0.0002723291815928,-8.847038511869393e-05,-3.3732300920298847e-10,0.0067957639694213,0.002149224281311,-0.0350141525268554,0,0,0,0
3.8,1788177717521,0.0,0.0,-0.0088615575805306,-0.007375088520348,0.9515045285224916,0.3074187338352203,0.0,0.0,0.0,0.0,0.0,0.0,-0.0093168104067444,-0.0068504828959703,0.9305014610290528,0.3661054074764251,0.0002856547749022,-0.0001448147815251,2.1193055260344265e-06,0.0096738338470458,0.0356256365776062,0.0242929458618164,0,0,0,0
3.9,1788177717621,0.0,0.0,-0.0088684130460023,-0.0074142385274171,0.9515039920806884,0.3074191212654114,-1.7538053140393951e-06,2.430351491705693e-06,2.5735136461583017e-08,-0.001319431583397,-0.0001845452643465,-2.7973703254247084e-05,-0.0093024801462888,-0.0068390425294637,0.9305016994476318,0.3661054670810699,0.0002359890882852,-0.0001508288779478,-5.391251608391358e-10,0.0060063600540161,0.0035114288330078,-0.0176258087158203,0,0,0,0
4.0,1788177717721,0.0,0.0,-0.0088593857362866,-0.0074062282219529,0.951504111289978,0.3074191808700561,0.0,0.0,0.0,0.0,0.0,0.0,-0.0092922560870647,-0.006832867860794,0.9305018186569214,0.3661054968833923,0.0001819158968743,-0.000155159148061,-4.3965113552335636e-10,-0.0194232463836669,0.0197460651397705,0.0086355209350585,0,0,0,0
4.1,1788177717821,0.0,0.0,-0.0088505763560533,-0.0073998477309942,0.9515042901039124,0.307419091463089,6.985716178251482e-07,-9.680481474567864e-07,-1.0323060423600616e-08,0.0003517130098771,-0.0002572700032033,3.5814850889437366e-06,-0.0092863263562321,-0.0068294126540422,0.9305019378662108,0.3661055266857147,0.0001752912220002,-0.0001396461765008,-3.6519622766833724e-10,0.0093204379081726,0.0214717984199523,0.0207777023315429,0,0,0,0
4.2,1788177717921,0.0,0.0,-0.008842778392136,-0.0073947291821241,0.951504409313202,0.3074192404747009,0.0,0.0,0.0,0.0002858467923942,-0.0002298565668752,-3.5154102988599334e-06,-0.0092767383903265,-0.0068248305469751,0.9305020570755004,0.3661055564880371,0.000113258995033,-0.0001164942707436,-7.534645403548497e-07,0.0255249738693237,-0.0175675153732299,0.0093212127685546,0,0,0,0
4.3,1788177718021,0.0,0.0,-0.008842778392136,-0.0073947291821241,0.951504409313202,0.3074192404747009,0.0,0.0,0.0,0.0002858467923942,-0.0002298565668752,-3.5154102988599334e-06,-0.0092767383903265,-0.0068248305469751,0.9305020570755004,0.3661055564880371,0.000113258995033,-0.0001164942707436,-7.534645403548497e-07,0.0255249738693237,-0.0175675153732299,0.0093212127685546,0,0,0,0
4.4,1788177718121,0.0,0.0,-0.008842778392136,-0.0073947291821241,0.951504409313202,0.3074192404747009,0.0,0.0,0.0,0.0002858467923942,-0.0002298565668752,-3.5154102988599334e-06,-0.0092767383903265,-0.0068248305469751,0.9305020570755004,0.3661055564880371,0.000113258995033,-0.0001164942707436,-7.534645403548497e-07,0.0255249738693237,-0.0175675153732299,0.0093212127685546,0,0,0,0
4.5,1788177718221,0.0,0.0,-0.008815768174827,-0.0073835961520671,0.9515047073364258,0.3074192106723785,6.976844108619014e-07,-9.668202231406068e-07,-1.0289913828484871e-08,4.8027868615463376e-05,-8.599559077993035e-05,2.384626441198634e-06,-0.0092582767829298,-0.0068199802190065,0.9305022954940796,0.3661056160926819,3.5591225144740726e-05,-7.507711337385775e-05,1.917331224464144e-06,0.0148205757141113,-0.0046417117118835,0.0053386688232421,0,0,0,0
4.6,1788177718321,0.0,0.0,-0.0088137984275817,-0.0073848571628332,0.9515047073364258,0.3074192106723785,0.0,0.0,0.0,-2.343391315662302e-05,-8.918109961086884e-05,-1.175368652184261e-06,-0.0092578120529651,-0.0068233497440814,0.9305022954940796,0.3661056160926819,-9.543855344543993e-05,1.8193559722160656e-05,-2.604303188537212e-11,0.0084661245346069,-0.0016673803329467,-0.0155353546142578,0,0,0,0
4.7,1788177718421,0.0,0.0,-0.0088137984275817,-0.0073848571628332,0.9515047073364258,0.3074192106723785,0.0,0.0,0.0,0.0,0.0,0.0,-0.0092630926519632,-0.006830564700067,0.93050217628479,0.3661055862903595,-0.0001726242880275,4.076368697261773e-05,-1.988578205026946e-06,0.026508629322052,-0.0081215500831604,-0.0089035034179687,0,0,0,0
4.8,1788177718521,0.0,0.0,-0.0088190771639347,-0.0073936246335506,0.951504647731781,0.3074192404747009,0.0,0.0,0.0,0.0,0.0,0.0,-0.0092651601880788,-0.0068390853703022,0.9305020570755004,0.3661055564880371,-0.0002335508818946,-5.119935394202829e-05,-2.1471197974931967e-06,-0.0172371864318847,-0.0022139549255371,-0.0115776062011718,0,0,0,0
4.9,1788177718621,0.0,0.0,-0.0088208150118589,-0.0074008116498589,0.9515045881271362,0.3074191510677337,0.0,0.0,0.0,0.0,0.0,0.0,-0.0092680063098669,-0.0068485122174024,0.9305020570755004,0.3661055564880371,-0.0001973045390819,-4.216445397881884e-06,-1.9841939319802137e-06,-0.0043849945068359,0.0012099742889404,-0.0002603530883789,0,0,0,0
5.0,1788177718721,0.0,0.0,-0.0088248010724782,-0.0074164648540318,0.9515043497085572,0.3074191212654114,-6.846406374055115e-07,9.487444593856822e-07,1.0132901839407092e-08,-0.0006329087773337,-3.9926999306771904e-05,-7.02013176123728e-06,-0.0092700915411114,-0.0068528400734066,0.9305019378662108,0.3661055266857147,-0.0001494010367759,1.7134712715630636e-05,-3.8402794068833e-11,-0.0025455951690673,0.01519775390625,0.032114028930664,0,0,0,0
5.1,1788177718821,0.0,0.0,-0.0088248010724782,-0.0074164648540318,0.9515043497085572,0.3074191212654114,0.0,0.0,0.0,0.0,0.0,0.0,-0.0092724757269024,-0.0068557923659682,0.9305019378662108,0.3661055266857147,-7.502500580588666e-05,2.983822602386884e-05,-5.5828106514600996e-11,-0.0023028254508972,0.0022670030593872,-0.0130205154418945,0,0,0,0
5.2,1788177718921,0.0,0.0,-0.0088248010724782,-0.0074164648540318,0.9515043497085572,0.3074191212654114,0.0,0.0,0.0,0.0,0.0,0.0,-0.0092753544449806,-0.0068572163581848,0.9305019378662108,0.3661055266857147,-8.481732689422755e-06,3.920861215344617e-05,-4.9844124320345874e-12,0.0105267763137817,-0.0051929950714111,-0.0369338989257812,0,0,0,0
5.3,1788177719021,0.0,0.0,-0.0088324453681707,-0.0074229286983609,0.9515042901039124,0.3074192404747009,-6.837821535305073e-07,9.475533957886652e-07,1.0159842056728813e-08,-6.788569589843974e-05,6.061874591978267e-05,-2.3371082988887792e-06,-0.0092775244265794,-0.0068580247461795,0.9305018186569214,0.3661054968833923,-5.403373643639832e-05,3.865781036062924e-05,-3.346468762513705e-11,0.0067139267921447,0.0417001843452453,0.0238170623779296,0,0,0,0
5.4,1788177719121,0.0,0.0,-0.0088339000940322,-0.0074237519875168,0.9515042304992676,0.3074192106723785,0.0,0.0,0.0,-4.826989970752038e-05,4.434625952853821e-05,1.1679672979880706e-06,-0.0092794829979538,-0.0068586422130465,0.9305018186569214,0.3661054968833923,1.1996950339494148e-05,1.230615009051204e-05,2.2234331048646344e-12,0.0066049098968505,0.0035164356231689,-0.001861572265625,0,0,0,0
5.5,1788177719221,0.0,0.0,-0.0088329492136836,-0.0074230283498764,0.9515042901039124,0.3074192404747009,0.0,0.0,0.0,3.241586091462523e-05,-2.254347782582045e-05,-9.841627388595953e-07,-0.0092771658673882,-0.006858067587018,0.9305018186569214,0.3661054968833923,2.9181782526887487e-05,-3.74349013845451e-05,-1.6333769353720713e-11,0.0063379406929016,0.0070358514785766,-0.0201587677001953,0,0,0,0
5.6,1788177719321,0.0,0.0,-0.0088329492136836,-0.0074230283498764,0.9515042901039124,0.3074192404747009,0.0,0.0,0.0,0.0,0.0,0.0,-0.0092751746997237,-0.0068543152883648,0.9305018186569214,0.3661054968833923,0.0001219204745542,1.2074986812774577e-05,1.971449900472737e-06,0.0050379633903503,0.0027312636375427,-0.032240867614746,0,0,0,0
5.7,1788177719421,0.0,0.0,-0.0088304141536355,-0.0074142040684819,0.9515042901039124,0.3074191808700561,0.0,0.0,0.0,0.0001957557251444,7.264144369401038e-05,0.0,-0.0092755565419793,-0.0068462435156106,0.9305019378662108,0.3661055266857147,0.0001180317582024,6.307467869160837e-05,1.1146459990863396e-10,-0.0055523514747619,-0.0190566778182983,0.0074357986450195,0,0,0,0
5.8,1788177719521,0.0,0.0,-0.0088316351175308,-0.0074092540889978,0.9515043497085572,0.3074191808700561,0.0,0.0,0.0,0.0001698143605608,0.0001051101498887,3.50245545632788e-06,-0.0092776669189333,-0.0068417368456721,0.9305019378662108,0.3661055266857147,7.354059440104658e-05,8.131023950975665e-05,9.246152121705269e-11,0.0071719884872436,-0.0117999911308288,0.030527114868164,0,0,0,0
5.9,1788177719621,0.0,0.0,-0.0088316351175308,-0.0074092540889978,0.9515043497085572,0.3074191808700561,0.0,0.0,0.0,0.0,0.0,0.0,-0.0092799412086606,-0.00683637522161,0.9305019378662108,0.3661055266857147,9.4366939035231e-05,9.227506107632194e-05,1.3956306426594668e-10,0.000338077545166,0.0042709112167358,-0.0026960372924804,0,0,0,0
6.0,1788177719721,0.0,0.0,-0.0088316351175308,-0.0074092540889978,0.9515043497085572,0.3074191808700561,0.0,0.0,0.0,0.0,0.0,0.0,-0.0092839822173118,-0.0068260673433542,0.9305019378662108,0.3661055266857147,0.0001459513436492,0.000153835392677,2.0514652049328185e-06,-0.015108048915863,0.0219043493270874,-0.0337705612182617,0,0,0,0
6.1,1788177719821,0.0,0.0,-0.0088391695171594,-0.0073939505964517,0.951504409313202,0.3074191808700561,0.0,0.0,0.0,0.0,-3.736355225214538e-08,0.0,-0.0092900237068533,-0.0068171098828315,0.9305019378662108,0.3661055266857147,0.0001318839410587,0.0002135915436534,1.9925320407097363e-06,-0.0056756138801574,0.001965582370758,-0.0013856887817382,0,0,0,0
6.2,1788177719921,0.0,0.0,-0.0088505391031503,-0.0073788342997431,0.951504409313202,0.3074192106723785,-6.699087337894042e-07,9.283294289721524e-07,9.886990893589031e-09,0.0004182799602858,0.0005941031849943,6.869071967230411e-06,-0.0092974007129669,-0.0068083079531788,0.9305019378662108,0.3661055266857147,0.0001124275195256,0.0002325056461369,3.981226798695473e-06,0.0196461677551269,0.0018801689147949,0.0374584197998046,0,0,0,0
6.3,1788177720021,0.0,0.0,-0.0088532902300357,-0.0073761320672929,0.951504409313202,0.3074191808700561,0.0,0.0,0.0,7.132752216421068e-05,0.0001426165399607,2.4648820726724807e-06,-0.0092998361214995,-0.0068055894225835,0.9305019378662108,0.3661055266857147,0.000109110131238,0.0002172897575411,3.970252288685846e-06,0.0287107229232788,0.0343335270881652,0.00140380859375,0,0,0,0
6.4,1788177720121,0.0,0.0,-0.0088633755221962,-0.0073661557398736,0.951504409313202,0.3074192106723785,-6.779562624533604e-07,9.394824751011732e-07,9.943683116726548e-09,0.0001412404235452,0.0002757464826572,0.0,-0.0093109281733632,-0.0067962044849991,0.9305019378662108,0.3661055266857147,-6.93833174174998e-06,0.0001320141512649,-1.3770149035071216e-11,0.0120229125022888,-0.0115675330162048,0.0301294326782226,0,0,0,0
6.5,1788177720221,0.0,0.0,-0.0088654495775699,-0.007364697754383,0.9515043497085572,0.3074191808700561,0.0,0.0,0.0,3.114666469627991e-05,0.00010076178296,1.2396682222970412e-06,-0.0093132825568318,-0.0067964950576424,0.9305019378662108,0.3661055266857147,-5.66429531712213e-05,0.0001042491298708,1.4904861028850246e-06,0.0029211640357971,0.0249109864234924,0.0015764236450195,0,0,0,0
6.6,1788177720321,0.0,0.0,-0.0088721057400107,-0.0073673478327691,0.9515042901039124,0.3074192106723785,0.0,0.0,0.0,-5.699155735783279e-05,-7.022760109975934e-05,-2.333627435291419e-06,-0.0093134194612503,-0.0068007782101631,0.9305019378662108,0.3661055266857147,-6.0713872196681415e-05,-0.0001071348516957,-1.988483984768361e-06,0.0118858218193054,-0.0147222280502319,0.0320539474487304,0,0,0,0
6.7,1788177720421,-2.3943662643432617,1.8028168678283687,-0.0088229421526193,-0.0074004186317324,0.9521517157554626,0.3054089844226837,-0.0003594604646523,-0.0019120711268002,1.380391735837055e-07,-0.0009827949106693,-0.0025891026016324,0.0705283805727958,-0.0090638836845755,-0.0068495627492666,0.9363408088684082,0.3509086966514587,-0.0047395699088411,-0.0075622778259868,0.6731500661504161,-0.1972566843032837,0.368064820766449,-0.0079431533813476,229,585,-12646,18239
6.8,1788177720521,-3.4084506034851074,3.2957746982574463,-0.0090799713507294,-0.0071626007556915,0.9628000855445862,0.26996710896492,-0.013299386926503,0.0033235795524615,3.270690620120292e-07,-0.0021306632552295,0.0121856294572353,0.9340370297431946,-0.0093816332519054,-0.0065998947247862,0.9507861733436584,0.3096354305744171,-0.0088299274492536,-0.019711907969415,1.124599366534584,0.1126308441162109,0.4315817952156067,0.042189598083496,69,563,-11338,20733
6.9,1788177720621,-3.2676055431365967,2.9577465057373047,-0.0091388635337352,-0.0070247272960841,0.9756712317466736,0.2189354449510574,0.0073100065508424,-0.0091550023832352,2.0459798904704528e-06,-0.0041576521471142,0.0019293102668598,1.0570732355117798,-0.0095625696703791,-0.0065416833385825,0.964041829109192,0.265498012304306,-0.0137280040046662,-0.0098349803974072,0.9559429501111578,0.0059980750083923,0.2382703423500061,0.0319595336914062,70,663,-10764,21906
7.0,1788177720721,-3.2957746982574463,3.211267709732056,-0.0086006959900259,-0.0071824640035629,0.9845329523086548,0.174841046333313,0.0091175297355871,-0.0037653689488528,9.40947638013128e-06,-0.0050228028558194,-0.0264804735779762,1.0256446599960327,-0.0089371493086218,-0.0066929077729582,0.9751319885253906,0.2213435471057891,-0.0121286263082409,-0.0148065376053271,0.9588149125771794,-0.4462392926216125,0.2421632409095764,-0.3473262786865234,85,635,-10690,21354
7.1,1788177720821,-3.3521127700805664,2.9577465057373047,-0.0088471285998821,-0.0069851754233241,0.9927095770835876,0.1200026646256446,0.0124868577629859,-0.0064709298282575,2.820683481161969e-07,-0.0006078654550947,0.0028876215219497,1.034219741821289,-0.0090228244662284,-0.0064674848690629,0.9868075847625732,0.1615163087844848,-0.0127006251675859,-0.0293431473695273,0.9958324299601968,0.0299423933029174,-0.1025720238685607,-0.0575389862060546,87,607,-10590,21010
7.2,1788177720921,-3.239436626434326,3.380281686782837,-0.0084682516753673,-0.0068020527251064,0.9974283576011658,0.0708421170711517,0.0035412985459794,-0.0056517818408769,2.426719788867704e-06,0.0016887980746105,-0.012200117111206,0.989940345287323,-0.008821970783174,-0.0064482688903808,0.9930967092514038,0.1167881563305854,-0.0207887927758217,-0.012697798381648,1.0402453472057305,-0.3874728083610534,0.0134449005126953,0.3631553649902344,68,474,-10794,19090
7.3,1788177721021,-3.183098554611206,3.380281686782837,-0.008355600759387,-0.0070400228723883,0.9989131689071656,0.0453094951808452,0.0060521015237573,-0.0051382142871391,-9.802898828957938e-07,-0.0174535568803548,-0.0126431342214345,1.0247567892074585,-0.0086248451843857,-0.0064595127478241,0.9969901442527772,0.0767769366502761,-0.0068447315391832,-0.0135401099255565,1.0347494220858833,-0.5937910676002502,0.407628059387207,0.3261384963989258,63,456,-10983,18377
7.4,1788177721121,-3.380281686782837,3.549295663833618,-0.008355600759387,-0.0070400228723883,0.9989131689071656,0.0453094951808452,0.0060521015237573,-0.0051382142871391,-9.802898828957938e-07,-0.0174535568803548,-0.0126431342214345,1.0247567892074585,-0.0087487818673253,-0.0066482899710536,0.9992502331733704,0.0371253229677677,-0.0132766683744497,-0.0036376118600435,0.9924258149134436,-0.2339350581169128,0.0800308585166931,0.2958755493164062,63,456,-10983,18377
7.5,1788177721221,-3.2676055431365967,3.521126747131348,-0.008355600759387,-0.0070400228723883,0.9989131689071656,0.0453094951808452,0.0060521015237573,-0.0051382142871391,-9.802898828957938e-07,-0.0174535568803548,-0.0126431342214345,1.0247567892074585,0.0084445057436823,0.0066611384972929,-0.9999096989631652,0.008058332838118,0.0023287561814959,-0.0245191086517004,0.9824314817002826,0.0434576272964477,0.0373930931091308,-0.2868976593017578,76,379,-10673,16696
7.6,1788177721321,-3.2676055431365967,3.521126747131348,-0.008355600759387,-0.0070400228723883,0.9989131689071656,0.0453094951808452,0.0060521015237573,-0.0051382142871391,-9.802898828957938e-07,-0.0174535568803548,-0.0126431342214345,1.0247567892074585,0.0074381064623594,0.0075748469680547,-0.996540367603302,0.0824298933148384,-0.0361440220861579,-0.0236049267294178,1.0154783812177868,-0.2349199652671814,-0.0727145075798034,-1.1238222122192385,76,379,-10673,16696
7.7,1788177721421,-3.2676055431365967,3.521126747131348,0.0068568680435419,0.0080156465992331,-0.9880416393280028,0.1538261622190475,-0.0006588009916267,-0.0015896869158315,-6.315647152772233e-07,-0.025434523820877,-0.028865186497569,0.9973472952842712,0.0073112873360514,0.0075442213565111,-0.995180070400238,0.0975004658102989,-0.0069812626610605,-0.0152601553786185,0.997941949608792,0.3356673121452331,-0.3575302958488464,-1.1063861846923828,76,379,-10673,16696
7.8,1788177721521,-3.2676055431365967,3.521126747131348,0.006349507253617,0.0082053616642951,-0.9800966382026672,0.1982496976852417,0.0045945916619895,-0.0019159166809047,3.679804952659152e-06,-0.0176094211637973,-0.0137675143778324,0.9651027917861938,0.0065604178234934,0.007717297412455,-0.9883265495300292,0.152013823390007,-0.0029606439171209,-0.0258830692702988,0.936729729261429,0.0672850608825683,-0.1136357188224792,0.3536005020141601,76,379,-10673,16696
7.9,1788177721621,-3.4084506034851074,3.6619718074798575,0.0057595325633883,0.0081173935905098,-0.974724054336548,0.2231904417276382,0.0081990533883824,-0.0082505116825882,7.249215630944561e-06,-0.0093348752707242,-0.030672088265419,1.0209999084472656,0.0057913530617952,0.0082519361749291,-0.977108120918274,0.2125046998262405,-0.0206229688161803,-0.0131718859110693,1.1351196345388892,-0.4347657561302185,0.1959934830665588,0.7047271728515625,76,379,-10673,16696
8.0,1788177721721,-3.239436626434326,3.521126747131348,0.0051349122077226,0.0086454693228006,-0.9604995250701904,0.2780996561050415,0.0147918460728821,-0.0045245806006406,5.076735577259396e-06,-0.0182011015713214,-0.0190336778759956,1.060966968536377,0.0052215540781617,0.0086952233687043,-0.9659578204154968,0.2585008144378662,-0.0179282162877128,-0.006569853861756,1.0344747324388075,-0.2154834866523742,0.3462035655975342,-0.6928443908691406,76,379,-10673,16696
8.1,1788177721821,-3.183098554611206,3.6619718074798575,0.0046630958095192,0.0092494767159223,-0.9448288083076476,0.3274007141590118,0.0067611480819305,-0.0038660663040802,8.808406800241258e-07,-0.024030402302742,-0.0017638698918744,1.0159659385681152,0.0048948898911476,0.0092791505157947,-0.9452924728393556,0.3260555565357208,-0.0233361829858369,0.0012721979669742,0.9915620652113952,0.1358199119567871,-0.5767534375190735,0.267643928527832,76,379,-10673,16696
8.2,1788177721921,-3.380281686782837,3.239436626434326,0.0042290417477488,0.0095920301973819,-0.9191811680793762,0.3936953842639923,0.0039286301503019,-0.0105572254112348,4.505630223661045e-06,-0.018848592415452,-0.0097666485235095,1.0051612854003906,0.0048948898911476,0.0092791505157947,-0.9452924728393556,0.3260555565357208,-0.0233361829858369,0.0012721979669742,0.9915620652113952,0.1358199119567871,-0.5767534375190735,0.267643928527832,76,379,-10673,16696
8.3,1788177722021,-3.239436626434326,3.492957830429077,0.0035993664059787,0.0095941582694649,-0.9087661504745485,0.4171798527240753,0.0100763403828212,-0.0094514959165532,5.379241056809026e-06,-0.0174195375293493,-0.0294479373842477,0.9961540699005128,0.0034485450014472,0.0096383923664689,-0.912222683429718,0.4095670282840729,-0.0203567837055361,-0.0354689759339843,0.9522336850245432,-0.1121350526809692,-0.4503748416900635,1.0680866241455078,64,119,-10977,11382
8.4,1788177722121,-3.239436626434326,3.492957830429077,0.0019689134787768,0.0097309863194823,-0.862148106098175,0.5065591335296631,-0.0001082891337922,-0.0023320870243973,-1.341141689173722e-06,-0.0123984357342123,-0.0264923032373189,0.8665274977684021,0.0028664330020546,0.00964798592031,-0.8952385783195496,0.4454734027385711,-0.0112284479140363,-0.0183430202593716,0.9380383755556234,-0.4171216487884521,-0.5179588794708252,-0.039987564086914,64,119,-10977,11382
8.5,1788177722221,-3.239436626434326,3.492957830429077,0.0018213407602161,0.0095776440575718,-0.8533276319503784,0.521283745765686,0.0011545961676653,-0.0069992009476021,4.834239092875676e-07,-0.0023065304849296,-0.0132996728643774,0.689929723739624,0.0024099573493003,0.0094394432380795,-0.8839877247810364,0.467408537864685,0.0020811858851227,-0.016317548831089,0.6994709111376711,0.2332614660263061,0.2293491959571838,0.120370864868164,64,119,-10977,11382
8.6,1788177722321,-3.239436626434326,3.492957830429077,0.0014359042979776,0.0094363503158092,-0.8384453654289246,0.5449020266532898,-0.0012399218481194,-0.0051880910252537,1.9236608526878058e-07,-0.0065308846533298,-0.0047154240310192,0.5194116830825806,0.0019793203100562,0.0093185910955071,-0.8699217438697815,0.4930978715419769,0.0044877565124203,0.0053205351055276,-0.1063900825436035,-0.1636439561843872,0.2697722911834717,-0.0770301818847656,64,119,-10977,11382
8.7,1788177722421,0.0,0.0,0.0013936199247837,0.0094268098473548,-0.837481677532196,0.5463823676109314,0.0096364328190961,-0.0038268341634353,-1.13926312688997e-06,0.0015729202423244,0.0052364347502589,-0.1036978513002395,0.0019914302974939,0.0093369968235492,-0.8702194094657898,0.4925719797611236,-0.0001266690417604,-0.0011104170806601,0.0084360263064519,0.0301994085311889,-0.0680354237556457,0.0211944580078125,0,0,0,0
8.8,1788177722521,0.0,0.0,0.0013775848783552,0.0094126584008336,-0.8377735614776611,0.5459350347518921,-0.0009024549789903,-9.969092414655622e-06,1.001577277806697e-07,-6.03923290327657e-05,-0.0022110054269433,0.0056327180936932,0.0019724080339074,0.0092917755246162,-0.8701517581939697,0.4926922917366028,-0.0003647416139569,-0.0006050127138643,0.0015286731945913,0.0006183385848999,0.0066977143287658,0.0447158813476562,0,0,0,0
8.9,1788177722621,0.0,0.0,0.0013888289686292,0.0093860980123281,-0.8377712368965149,0.5459389090538025,1.611100137097164e-05,-1.885013734582515e-05,-6.61840738290269e-08,0.0011301916092634,-0.0002037742378888,0.0001852602727012,0.0019724080339074,0.0092917755246162,-0.8701517581939697,0.4926922917366028,-0.0003647416139569,-0.0006050127138643,0.0015286731945913,0.0006183385848999,0.0066977143287658,0.0447158813476562,0,0,0,0
9.0,1788177722721,0.0,0.0,0.001407966716215,0.0094059640541672,-0.8377627730369568,0.5459515452384949,5.171092185437693e-05,-5.912246799063983e-05,-1.898950837554386e-07,-0.0002473160275258,0.0010523011442273,0.0006032812525518,0.0020029386505484,0.0093101290985941,-0.8701593279838562,0.492678552865982,-8.226153959156464e-05,0.00134824261951,-3.517376685622688e-05,0.008569061756134,-0.0183596014976501,0.0284862518310546,0,0,0,0
9.1,1788177722821,0.0,0.0,0.0014262278564274,0.0094221290200948,-0.8377719521522522,0.5459371209144592,0.0,0.0,0.0,0.0,-4.7534887137601345e-09,0.0,0.0020534452050924,0.0093311788514256,-0.8701825737953186,0.4926367998123169,0.0005872384663056,-6.076068532644656e-05,-0.0002227184411141,0.0151488184928894,0.0085866451263427,-0.0018978118896484,0,0,0,0
9.2,1788177722921,0.0,0.0,0.0014706344809383,0.0094374036416411,-0.8377990126609802,0.5458952188491821,-3.180994416819574e-05,3.779523472749955e-05,1.3137786403670774e-07,1.6579904695390724e-05,0.0002600567240733,-0.0003586446109693,0.0020478684455156,0.0093275904655456,-0.8702051043510437,0.4925970435142517,-0.0009711509608694,-0.0003232536983545,-0.0007684796200675,0.0244936347007751,-0.0031343698501586,0.016982078552246,0,0,0,0
9.3,1788177723021,0.0,0.0,0.0014785749372094,0.0094358269125223,-0.8378320932388306,0.5458444952964783,-0.0001132483321337,0.0001324623634516,4.338401267341031e-07,-0.0001893181179184,0.0003171665302943,-0.0012936675921082,0.0020601712167263,0.0093212984502315,-0.8702093362808228,0.4925897419452667,-0.0004405840622725,-0.0010334081835947,-0.0004089444152364,0.0315263867378234,0.0096420645713806,-0.0017423629760742,0,0,0,0
9.4,1788177723121,0.0,0.0,0.0014900970272719,0.009418380446732,-0.8378211259841919,0.5458617210388184,6.014582031310107e-06,-7.735060729152374e-06,-3.27025705163031e-08,0.0004952292074449,-0.0004151587490923,6.772873166482896e-05,0.0020674569532275,0.0093060340732336,-0.8702036738395691,0.4925999343395233,0.0007664689804131,-5.760475514010622e-05,0.0005384867837245,0.0239187479019165,-0.0122579932212829,-0.0037097930908203,0,0,0,0
9.5,1788177723221,0.0,0.0,0.0014900970272719,0.009418380446732,-0.8378211259841919,0.5458617210388184,6.014582031310107e-06,-7.735060729152374e-06,-3.27025705163031e-08,0.0004952292074449,-0.0004151587490923,6.772873166482896e-05,0.0020465180277824,0.0093074217438697,-0.8702048063278198,0.4925980567932129,-8.32663030620467e-05,0.0014484348933977,-0.0011090716425308,0.0222028493881225,-0.0213983654975891,0.0088129043579101,0,0,0,0
9.6,1788177723321,0.0,0.0,0.0014900970272719,0.009418380446732,-0.8378211259841919,0.5458617210388184,6.014582031310107e-06,-7.735060729152374e-06,-3.27025705163031e-08,0.0004952292074449,-0.0004151587490923,6.772873166482896e-05,0.0020465180277824,0.0093074217438697,-0.8702048063278198,0.4925980567932129,-8.32663030620467e-05,0.0014484348933977,-0.0011090716425308,0.0222028493881225,-0.0213983654975891,0.0088129043579101,0,0,0,0
9.7,1788177723421,0.0,0.0,0.0014768745750188,0.0094113936647772,-0.8378328680992126,0.5458437204360962,-0.0001049703296462,0.0001217158909956,3.8724017259959097e-07,2.316013706149533e-05,0.0004262150323484,-0.001190363545902,0.0020552286878228,0.0093098636716604,-0.8702177405357361,0.4925750195980072,-0.0006255142414203,-0.0006863604982953,0.0004885978850058,-0.0086001753807067,0.0040095448493957,-0.0065069198608398,0,0,0,0
9.8,1788177723521,0.0,0.0,0.0014711355324834,0.009419834241271,-0.8378342986106873,0.5458413362503052,-1.0144471327472788e-05,1.1161175913562809e-05,2.8693514148854423e-08,-0.0004075701290275,-7.233456926769577e-06,-0.0001132760298787,0.0020353645086288,0.0092838676646351,-0.8702257871627808,0.4925614595413208,0.00091655253064,-0.0005561794846801,-8.11595346546142e-05,0.0062862634658813,-0.0078974962234497,0.0302600860595703,0,0,0,0
9.9,1788177723621,0.0,0.0,0.0014609103091061,0.0093920296058058,-0.8378422260284424,0.545829713344574,0.0,0.0,0.0,0.0009574787691235,-0.0002162681194022,-8.189515938283876e-06,0.0019943593069911,0.0093173403292894,-0.8702100515365601,0.4925886988639831,-0.0030624689308156,-0.0020632422825864,0.0004388011826397,0.0041449069976806,0.0122488141059875,0.007399559020996,0,0,0,0
10.0,1788177723721,0.0,0.0,0.0013586557470262,0.0094436481595039,-0.8378391265869141,0.5458340048789978,-7.270948723618641e-05,8.562622213734463e-05,3.0054523063326045e-07,-0.0014957991661503,-0.0010632913326844,-0.0008416888886131,0.001883428543806,0.0093690901994705,-0.8702220320701599,0.4925670027732849,-0.0009022389448535,-0.0005988907023251,-0.0002480136536609,0.017746090888977,-0.015031099319458,0.0034761428833007,0,0,0,0
10.1,1788177723821,0.0,0.0,0.0013109459541738,0.0094617931172251,-0.8378371000289917,0.5458367466926575,1.208546942465044e-05,-1.5540447988055442e-05,-7.07756194538458e-08,-0.0016528817359358,-0.0012053055688738,0.0001169812021544,0.0018242951482534,0.0093930605798959,-0.8702294230461121,0.4925538003444671,-0.000746063087912,-0.0008566040367175,-2.243317565566399e-05,-1.9669532775878903e-05,0.0014706850051879,-0.0019264221191406,0,0,0,0
10.2,1788177723921,0.0,0.0,0.0013109459541738,0.0094617931172251,-0.8378371000289917,0.5458367466926575,1.208546942465044e-05,-1.5540447988055442e-05,-7.07756194538458e-08,-0.0016528817359358,-0.0012053055688738,0.0001169812021544,0.001808394677937,0.0093959188088774,-0.8702294826507568,0.4925536513328552,-0.0006280681221543,-0.0007564784672739,-1.994706876795972e-05,0.03770512342453,0.0210316777229309,-0.0177774429321289,0,0,0,0
10.3,1788177724021,0.0,0.0,0.0012142159976065,0.0094908187165856,-0.8378470540046692,0.5458211302757263,0.0,0.0,0.0,-0.0006884583854116,-0.0008306148811243,-1.551035347802099e-05,0.001750954426825,0.0094025852158665,-0.8702298402786255,0.4925531148910522,-0.0005743139341394,-0.0008119079186215,-2.2953847160394026e-05,-0.0055763125419616,-0.0065037608146667,-0.003173828125,0,0,0,0
10.4,1788177724121,0.0,0.0,0.0011405050754547,0.0094946101307868,-0.8378474116325378,0.5458207130432129,0.0,0.0,0.0,-0.0004086230474058,-0.0005561040597967,-1.3586397471954116e-05,0.0016928380355238,0.0094127329066395,-0.8702300786972046,0.4925526082515716,-0.0004919558175863,-0.0005337660871014,-1.1893521243138512e-05,0.0078874230384826,-0.022211730480194,-0.0183420181274414,0,0,0,0
10.5,1788177724221,0.0,0.0,0.0010997494682669,0.0095004942268133,-0.8378474712371826,0.5458205938339233,0.0,0.0,0.0,-0.000478630856378,-0.0005121428985148,-3.583572379284305e-06,0.0016928380355238,0.0094127329066395,-0.8702300786972046,0.4925526082515716,-0.0004919558175863,-0.0005337660871014,-1.1893521243138512e-05,0.0078874230384826,-0.022211730480194,-0.0183420181274414,0,0,0,0
10.6,1788177724321,0.0,0.0,0.0010843737982213,0.0095035228878259,-0.8378475308418274,0.5458205342292786,0.0,0.0,0.0,-0.0004247083852533,-0.0004363530315458,-9.265048902307171e-06,0.0016460129991173,0.0094258645549416,-0.8702303171157837,0.4925522208213806,-0.0003747333054558,-0.0003771611260603,-1.2745761826591898e-05,0.0065857768058776,-0.0135173201560974,-0.0132045745849609,0,0,0,0
10.7,1788177724421,0.0,0.0,0.0010485709644854,0.0095117501914501,-0.8378475904464722,0.5458203554153442,0.0,0.0,0.0,-0.000419290154241,-0.0004117350035812,-1.0882801689149346e-05,0.0016460129991173,0.0094258645549416,-0.8702303171157837,0.4925522208213806,-0.0003747333054558,-0.0003771611260603,-1.2745761826591898e-05,0.0065857768058776,-0.0135173201560974,-0.0132045745849609,0,0,0,0
10.8,1788177724521,0.0,0.0,0.0010485709644854,0.0095117501914501,-0.8378475904464722,0.5458203554153442,0.0,0.0,0.0,-0.000419290154241,-0.0004117350035812,-1.0882801689149346e-05,0.0016164146363735,0.0094383647665381,-0.8702303171157837,0.4925521314144134,-0.0002931190290253,-0.0001615824615949,-2.4578399097603982e-06,0.0131964087486267,-0.006259262561798,-0.0057964324951171,0,0,0,0
10.9,1788177724621,0.0,0.0,0.0010225614532828,0.0095226233825087,-0.8378475904464722,0.5458201766014099,0.0,0.0,0.0,-0.0003458014689385,-0.000166704528965,2.37282029047492e-06,0.0016050459817051,0.0094481287524104,-0.8702301979064941,0.4925520718097687,-0.0002623506971204,-8.82566454965025e-05,-1.911119434994444e-06,-0.0098939538002014,-0.0169076919555664,-0.0074577331542968,0,0,0,0
11.0,1788177724721,0.0,0.0,0.0010080859065055,0.009534410201013,-0.8378475904464722,0.5458200573921204,0.0,0.0,0.0,-0.0001961049274541,-4.841967165702954e-05,-5.972265171294566e-06,0.0015912856906652,0.0094588156789541,-0.8702301979064941,0.4925520718097687,-0.0001267377558125,-0.0001108955669549,-1.4590898509537114e-06,-0.0102953314781188,-0.0178285837173461,-0.000284194946289,0,0,0,0
11.1,1788177724821,0.0,0.0,0.0009988006204366,0.0095395892858505,-0.8378474712371826,0.5458201766014099,0.0,0.0,0.0,-0.0001685141905909,-0.0001304995384998,-1.206365595862735e-06,0.001584431156516,0.0094589684158563,-0.8702301979064941,0.4925520718097687,-7.731353896091664e-05,-0.0001571095497279,-1.1920017196091206e-06,-0.0072680711746215,0.0087044835090637,0.008650779724121,0,0,0,0
11.2,1788177724921,0.0,0.0,0.0009988006204366,0.0095395892858505,-0.8378474712371826,0.5458201766014099,0.0,0.0,0.0,-0.0001685141905909,-0.0001304995384998,-1.206365595862735e-06,0.0015796683728694,0.0094574708491563,-0.8702301979064941,0.4925520718097687,-4.15695182197966e-05,-0.0001945788522983,-2.375198902253686e-06,0.0067627429962158,-0.0004700422286987,0.0050182342529296,0,0,0,0
11.3,1788177725021,0.0,0.0,0.000980463810265,0.0095329554751515,-0.8378474116325378,0.5458203554153442,0.0,0.0,0.0,1.90929804375628e-05,-0.0002040376130025,-5.954925654805265e-06,0.0015710536390542,0.0094518326222896,-0.8702301979064941,0.4925520718097687,4.9378778427432966e-05,-0.0002053819213851,-1.4908826908058713e-06,-0.0131564140319824,-0.0262733697891235,-0.0113039016723632,0,0,0,0
11.4,1788177725121,0.0,0.0,0.0009767557494342,0.00952884927392,-0.8378474712371826,0.545820415019989,0.0,0.0,0.0,5.646733188768849e-05,-0.0002130672510247,0.0,0.0015620272606611,0.0094436686486005,-0.8702303171157837,0.4925521314144134,4.98801845838946e-05,-0.0002412050275208,-1.8802445271773544e-06,0.0238044261932373,0.0059518218040466,0.0085353851318359,0,0,0,0
11.5,1788177725221,0.0,0.0,0.0009578578174114,0.0095102023333311,-0.8378474712371826,0.5458206534385681,0.0,0.0,0.0,3.91687972296495e-05,-0.0002069975162157,-2.991411747643724e-06,0.0015447251498699,0.0094282524660229,-0.8702304363250732,0.4925521910190582,6.516786685743958e-05,-0.000245790940408,-1.4008591006181876e-06,-0.0051490664482116,-0.0102544426918029,-0.0348892211914062,0,0,0,0
11.6,1788177725321,0.0,0.0,0.0009578578174114,0.0095102023333311,-0.8378474712371826,0.5458206534385681,0.0,0.0,0.0,3.91687972296495e-05,-0.0002069975162157,-2.991411747643724e-06,0.0015367260202765,0.0094222296029329,-0.8702305555343628,0.492552250623703,9.081777166750748e-07,-0.0002114690991619,-1.8163459062537623e-06,0.0090761184692382,0.0152602195739746,0.0241527557373046,0,0,0,0
11.7,1788177725421,0.0,0.0,0.0009380700066685,0.0094946436583995,-0.8378476500511169,0.5458207726478577,0.0,0.0,0.0,-7.834761163394433e-06,-0.000222940929234,0.0,0.001528893597424,0.009418268688023,-0.8702305555343628,0.492552250623703,-7.24247661439448e-06,-0.0002070706491465,-1.3961091868964714e-06,0.0125963687896728,-0.0079635977745056,-0.0001373291015625,0,0,0,0
11.8,1788177725521,0.0,0.0,0.0009351256303489,0.0094928406178951,-0.8378477096557617,0.5458207726478577,0.0,0.0,0.0,-4.84178053739015e-06,-0.0001725349866319,-2.9795571663271403e-06,0.0015161670744419,0.0094087375327944,-0.8702306747436523,0.4925523102283478,7.241432174131168e-05,-0.0002491644725615,-1.952472692604872e-06,-0.0183913707733154,0.0075263381004333,-0.0118379592895507,0,0,0,0
11.9,1788177725621,0.0,0.0,0.0009254487231373,0.0094828754663467,-0.8378476500511169,0.5458210110664368,0.0,0.0,0.0,9.098120062844828e-05,-0.00029708610964,8.318281288666185e-06,0.0015096804127097,0.009397542104125,-0.8702307939529419,0.4925523698329925,0.0001231366895221,-0.0001546490910321,-1.8103155952933957e-06,0.0071014165878295,-0.0092861056327819,0.0087833404541015,0,0,0,0
12.0,1788177725721,0.0,0.0,0.0009254487231373,0.0094828754663467,-0.8378476500511169,0.5458210110664368,0.0,0.0,0.0,9.098120062844828e-05,-0.00029708610964,8.318281288666185e-06,0.0015059811994433,0.0093886544927954,-0.8702307939529419,0.4925523698329925,0.0001092038792681,-0.0001545682839675,-4.1544830883876055e-10,0.0160967707633972,-0.0053637027740478,-0.0216913223266601,0,0,0,0
12.1,1788177725821,0.0,0.0,0.0009145643562078,0.0094585930928587,-0.837847888469696,0.5458210110664368,0.0,0.0,0.0,7.648979953955859e-05,-0.0001739203580655,-4.762011030834401e-06,0.0015008281916379,0.0093817925080657,-0.8702309131622314,0.4925524294376373,6.439798417494292e-05,-0.0001835412496108,-2.3606276671642e-10,-0.0023554563522338,-0.0034446120262145,0.0041112899780273,0,0,0,0
12.2,1788177725921,0.0,0.0,0.0009126574732363,0.0094563737511634,-0.8378478288650513,0.5458211302757263,0.0,0.0,0.0,4.08604828407988e-05,-0.0001404201029799,7.446101790264947e-06,0.0014979131519794,0.0093792248517274,-0.8702309131622314,0.4925524294376373,3.9903139112487454e-05,-0.00019005790661,-1.5169347802639246e-10,-0.0041864514350891,0.0093300342559814,-0.0082311630249023,0,0,0,0
12.3,1788177726021,0.0,0.0,0.0009046816267073,0.0094494158402085,-0.8378479480743408,0.5458211898803711,0.0,0.0,0.0,2.425162347208243e-05,-0.0002278055908391,-4.739248652185779e-06,0.0014871666207909,0.009372784756124,-0.870231032371521,0.4925524890422821,-2.55155925883256e-05,-0.0001497608706817,5.899819265014068e-11,0.0102040171623229,0.0043642520904541,0.0044183731079101,0,0,0,0
12.4,1788177726121,0.0,0.0,0.0008974787779152,0.0094462409615516,-0.8378478288650513,0.5458213090896606,0.0,0.0,0.0,-3.20901490340475e-05,-0.0001468294358346,-1.2095226793462643e-06,0.0014785816892981,0.0093712909147143,-0.870231032371521,0.4925524890422821,-7.142363181154243e-05,-0.0001444135820028,-1.382449388273083e-06,-0.0080200433731079,0.0012462735176086,0.0097322463989257,0,0,0,0
12.5,1788177726221,0.0,0.0,0.0008881264366209,0.0094448532909154,-0.837847888469696,0.5458213090896606,0.0,0.0,0.0,-8.24460294097662e-05,-0.0001582487020641,-3.50058326148428e-06,0.0014785816892981,0.0093712909147143,-0.870231032371521,0.4925524890422821,-7.142363181154243e-05,-0.0001444135820028,-1.382449388273083e-06,-0.0080200433731079,0.0012462735176086,0.0097322463989257,0,0,0,0
12.6,1788177726321,0.0,0.0,0.0008854898624122,0.0094445254653692,-0.8378477692604065,0.5458215475082397,0.0,0.0,0.0,-4.767872815136798e-05,-9.780380059964956e-05,1.0976397788908798e-05,0.0014632418751716,0.009368734434247,-0.870231032371521,0.4925524890422821,-2.4493401881739225e-05,-0.000162221935094,-9.996124421586865e-07,-0.0081437230110168,0.029555857181549,-0.0241956710815429,0,0,0,0
12.7,1788177726421,0.0,0.0,0.0008737151511013,0.0094390725716948,-0.837847888469696,0.5458216071128845,0.0,0.0,0.0,2.5861712856567465e-05,-0.0001875138405011,1.2011245189569308e-06,0.001458472572267,0.0093646300956606,-0.8702311515808105,0.4925525486469269,3.723452909695655e-05,-0.0001525129793842,-1.485780648953022e-06,0.0007534623146057,0.0363881587982177,-0.0222206115722656,0,0,0,0
12.8,1788177726521,0.0,0.0,0.0008690380491316,0.0094322431832551,-0.8378478288650513,0.5458216071128845,0.0,0.0,0.0,8.013103797566146e-05,-0.0001544723781989,-1.2015900665574009e-06,0.0014521358534693,0.0093552796170115,-0.8702311515808105,0.4925525486469269,3.408713455936827e-05,-7.289306340923711e-05,-3.726994605110212e-11,-0.0025141835212707,0.0021111369132995,0.0180034637451171,0,0,0,0
12.9,1788177726621,0.0,0.0,0.0008652848191559,0.0094265472143888,-0.837847888469696,0.5458217263221741,0.0,0.0,0.0,1.608636466698954e-06,-3.977634332841262e-05,5.985623829474207e-06,0.001451407559216,0.0093543780967593,-0.8702311515808105,0.4925525486469269,1.705890043924084e-05,-4.3094198898592106e-05,-1.8381653198742336e-11,0.0012688636779785,-0.0299774408340454,0.0070657730102539,0,0,0,0
13.0,1788177726721,0.0,0.0,0.0008652848191559,0.0094265472143888,-0.837847888469696,0.5458217263221741,0.0,0.0,0.0,1.608636466698954e-06,-3.977634332841262e-05,5.985623829474207e-06,0.0014479644596576,0.0093562100082635,-0.8702311515808105,0.4925525486469269,-4.7055727606362e-05,-2.8971210044401e-05,2.8222698150337056e-11,0.0067894458770751,0.0010870099067687,-0.0127296447753906,0,0,0,0
13.1,1788177726821,0.0,0.0,0.0008631749078631,0.0094277635216712,-0.8378478288650513,0.5458217859268188,0.0,0.0,0.0,-5.991916259517893e-05,-2.5031165932887237e-05,0.0,0.0014445800334215,0.009358437731862,-0.8702311515808105,0.4925525486469269,-8.150974524312835e-05,-4.629334925645843e-05,7.566515778295532e-11,0.0190441608428955,0.004963994026184,-0.0067319869995117,0,0,0,0
13.2,1788177726921,0.0,0.0,0.0008599264547228,0.0094296475872397,-0.8378478288650513,0.5458217859268188,0.0,0.0,0.0,-6.117429438745603e-05,-2.54797068919288e-05,-9.812417829380138e-07,0.0014404486864805,0.0093587301671504,-0.8702311515808105,0.4925525486469269,-6.445526603519196e-05,-0.0001100975042066,-1.4890773400543414e-06,-0.006679892539978,-0.0238473415374755,0.0148820877075195,0,0,0,0
13.3,1788177727021,0.0,0.0,0.0008537569083273,0.0094303358346223,-0.8378478288650513,0.5458217859268188,0.0,0.0,0.0,-8.265158248832449e-05,-0.0001338205911451,0.0,0.0014301743358373,0.0093618659302592,-0.8702311515808105,0.4925525486469269,-0.0001559906377021,-0.0001060187334576,-1.4822040701343057e-06,0.0184270739555358,0.0004341602325439,0.0080251693725585,0,0,0,0
13.4,1788177727121,0.0,0.0,0.0008431035093963,0.0094332545995712,-0.8378477692604065,0.5458217263221741,0.0,0.0,0.0,-0.0001264758320758,-7.697547698626295e-05,-1.463205649088195e-06,0.0014265216886997,0.0093639874830842,-0.8702311515808105,0.4925525486469269,-0.0001827801251871,-0.0001069875490045,-1.4939800009939505e-06,-0.0139447450637817,0.0347390174865722,0.0042371749877929,0,0,0,0
13.5,1788177727221,0.0,0.0,0.0008337614126503,0.0094388145953416,-0.8378477692604065,0.5458217263221741,0.0,0.0,0.0,-0.0002077800891129,-8.628748037153855e-05,-3.552429006958846e-06,0.0014185542240738,0.0093705188482999,-0.8702311515808105,0.4925525486469269,-0.0001770892579226,-4.507805986490529e-05,-1.2203211900616636e-06,-0.0259095430374145,-0.0064070224761962,-0.0037870407104492,0,0,0,0
13.6,1788177727321,0.0,0.0,0.0008337614126503,0.0094388145953416,-0.8378477692604065,0.5458217263221741,0.0,0.0,0.0,-0.0002077800891129,-8.628748037153855e-05,-3.552429006958846e-06,0.0014159316197037,0.009374919347465,-0.8702311515808105,0.4925525486469269,-0.0001378466666397,-2.3882379454395e-07,-1.52844475391595e-06,0.015557050704956,-0.0013959407806396,2.6702880859375e-05,0,0,0,0
13.7,1788177727421,0.0,0.0,0.0008268007077276,0.0094485450536012,-0.8378475904464722,0.5458217263221741,0.0,0.0,0.0,-6.266457785386592e-05,-1.5325576896429991e-06,1.1943219533350202e-06,0.0014135539531707,0.0093788607046008,-0.870231032371521,0.4925524890422821,-4.493810292788619e-05,-1.7079512961700186e-05,1.5302090254002357e-11,0.0081355571746826,-0.0001593828201293,0.0055065155029296,0,0,0,0
13.8,1788177727521,0.0,0.0,0.0008247829973697,0.0094484221190214,-0.8378475904464722,0.5458217263221741,0.0,0.0,0.0,-1.4455858945439104e-05,-4.28692001150921e-05,-1.4922177342668874e-06,0.0014093462377786,0.0093781203031539,-0.870231032371521,0.4925524890422821,-1.9002327701834464e-05,-7.673749085561387e-05,2.937308880586677e-11,0.0041467547416687,0.0087616443634033,-0.0167293548583984,0,0,0,0
13.9,1788177727621,0.0,0.0,0.0008207857608795,0.0094470884650945,-0.8378474116325378,0.545822024345398,0.0,0.0,0.0,-1.612081177881919e-05,-9.491268428973854e-05,7.164805538195651e-06,0.0014058277010917,0.0093782423064112,-0.870231032371521,0.4925524890422821,-3.883858489167572e-05,-1.6645106591106303e-05,-1.491985543978528e-06,0.0081592798233032,0.0160428881645202,0.0026121139526367,0,0,0,0
14.0,1788177727721,0.0,0.0,0.0008207857608795,0.0094470884650945,-0.8378474116325378,0.545822024345398,0.0,0.0,0.0,-1.612081177881919e-05,-9.491268428973854e-05,7.164805538195651e-06,0.0014044633135199,0.009376972913742,-0.870231032371521,0.4925524890422821,2.257342870485413e-05,-5.029087609611162e-05,-2.8055389042094768e-11,0.0148389935493469,-0.0078811645507812,0.0181856155395507,0,0,0,0
14.1,1788177727821,0.0,0.0,0.0008207857608795,0.0094470884650945,-0.8378474116325378,0.545822024345398,0.0,0.0,0.0,-1.612081177881919e-05,-9.491268428973854e-05,7.164805538195651e-06,0.0014035478234291,0.0093745626509189,-0.870231032371521,0.4925524890422821,6.584460835149003e-05,-7.932169652401682e-05,-1.3060943481719812e-10,0.0145236253738403,-0.0101642608642578,0.0291023254394531,0,0,0,0
14.2,1788177727921,0.0,0.0,0.0008163130842149,0.0094424216076731,-0.8378475308418274,0.5458219647407532,0.0,0.0,0.0,8.446296124020591e-05,-9.196081373374908e-05,0.0,0.0014014085754752,0.0093659749254584,-0.8702311515808105,0.4925525486469269,7.462524193451798e-05,-4.979834008115406e-05,-3.8911409050308405e-11,-0.0229713916778564,-0.0173766613006591,0.0284156799316406,0,0,0,0
14.3,1788177728021,0.0,0.0,0.0008160299621522,0.009435910731554,-0.8378473520278931,0.5458223223686218,0.0,0.0,0.0,-2.445703103148844e-05,5.8034187532030046e-05,4.772103693539975e-06,0.0014046784490346,0.0093705002218484,-0.8702311515808105,0.4925525486469269,-9.5111709460477e-05,0.0001678420605729,1.5541244592903182e-06,0.0112770795822143,-0.0105417370796203,0.0098085403442382,0,0,0,0
14.4,1788177728121,0.0,0.0,0.0008180420845746,0.0094398213550448,-0.8378473520278931,0.5458223819732666,0.0,0.0,0.0,-7.321502198465168e-05,0.0001283884485019,3.004977315868018e-06,0.0014068707823753,0.0093743884935975,-0.8702311515808105,0.4925525486469269,-0.0001123742489953,0.000186452039505,-4.2960253672367376e-10,-0.0189411640167236,-0.0047982335090637,-0.0062084197998046,0,0,0,0
14.5,1788177728221,0.0,0.0,0.0008281292393803,0.0094571998342871,-0.837847113609314,0.5458223819732666,0.0,0.0,0.0,-8.599524880992249e-05,0.0002427609142614,-2.3918712486192817e-06,0.0014184182509779,0.0093899965286254,-0.8702309131622314,0.4925524294376373,-8.272468794707865e-05,0.0002619086654651,1.6236455154894606e-06,-0.0200651288032531,0.021853744983673,-0.0019874572753906,0,0,0,0
14.6,1788177728321,0.0,0.0,0.0008281292393803,0.0094571998342871,-0.837847113609314,0.5458223819732666,0.0,0.0,0.0,0.0,5.8159415061709305e-09,0.0,0.0014240238815546,0.0093955742195248,-0.8702309131622314,0.4925524294376373,-6.317226527578162e-05,0.0002529919083755,1.987481786690901e-06,0.0178548097610473,0.0146101117134094,-0.0073432922363281,0,0,0,0
14.7,1788177728421,-1.3239436149597168,-0.9577465057373048,0.0008387225680053,0.0094727957621216,-0.8378450870513916,0.5458253622055054,1.0061487983778276e-05,-1.2936876711579488e-05,-7.526638826311477e-08,-0.0001085964977391,2.192619831475895e-05,0.0001152731492766,0.0014669531956315,0.0094388658180832,-0.8701926469802856,0.4926189482212066,-0.0019653371389877,0.0050132978384884,0.0075060264242749,-0.8018849492073059,0.1671317815780639,-0.0425186157226562,218,240,-11198,-11629
14.8,1788177728521,-2.450704336166382,-2.3943662643432617,0.0008302289061248,0.0094265090301632,-0.8363444209098816,0.548122763633728,-0.0726144571920272,0.0002216722930773,-1.742960655125897e-05,0.0003711115277837,-0.0103315087035298,0.0760356187820434,0.0010557873174548,0.0091704009100794,-0.8686238527297974,0.4953862130641937,-0.0013170414887925,-0.0271744565346028,0.0336909767076841,0.1938798427581787,-0.0933277606964111,0.1654281616210937,48,189,-8286,-10182
14.9,1788177728621,-2.281690120697021,-2.253521203994751,0.0002635368146002,0.0094676204025745,-0.8347746729850769,0.5505101084709167,-0.0759801982585206,0.0081327131711072,-2.210024501978985e-05,-0.0127156777307391,-0.0032150484621524,0.0810899883508682,0.0006049275398254,0.0094791324809193,-0.866852879524231,0.4984736144542694,-0.0038128880140646,-0.0002612930124343,0.0296927156501558,-0.1898186802864074,-0.1367904543876648,-0.1093664169311523,55,291,-7814,-11831
15.0,1788177728721,-2.2253520488739014,-2.08450698852539,-0.0003176047466695,0.0092944512143731,-0.8342214226722717,0.5513511896133423,-0.0849693995278192,-0.0026376291688731,-9.721960282030858e-06,-0.0015476963017135,-0.0119523117318749,-0.0005807824782095,0.0005092406645417,0.0094904052093625,-0.8668256402015686,0.4985208511352539,0.0022866100695257,0.0073742387008309,0.0202347978438816,0.2748515009880066,-0.3268299102783203,0.0750799179077148,39,231,-7628,-11224
15.1,1788177728821,-2.169013977050781,-2.4788732528686523,4.9566850066185e-05,0.0094709452241659,-0.8345353603363037,0.5508729815483093,-0.0670255836814948,-0.0035316658517507,2.223266707272397e-05,0.0042286496609449,0.0040043373592197,-0.0335165746510028,0.00043560937047,0.0093279499560594,-0.86834716796875,0.4958689510822296,0.0002369648839342,-0.0157346296057819,-0.1090158857173046,-0.4233894348144531,0.1206045150756836,0.0397348403930664,79,148,-7978,-9527
15.2,1788177728921,-2.253521203994751,-2.281690120697021,8.638016879558563e-07,0.009466428309679,-0.8360466957092285,0.5485767722129822,-0.0749988657162168,0.004193323745097,-1.1573046059915791e-06,-0.0010488828411325,0.0099881365895271,-0.0020593309309333,0.0007327599450945,0.0093921236693859,-0.8685557842254639,0.4955017864704132,0.0090454477943372,0.0098876309937329,0.0153658250862324,-0.2990435361862182,-0.0480039715766906,-0.0035209655761718,96,172,-7949,-9566
15.3,1788177729021,-2.08450698852539,-2.169013977050781,-0.0002781474031507,0.0091946935281157,-0.836448073387146,0.5479689240455627,-0.0820094242593748,0.0034702686739044,-1.4170524540878472e-05,-0.0074510215781629,-0.0194487161934375,-0.0198226310312747,0.0001249331980943,0.0091588133946061,-0.8688192367553711,0.4950446486473083,-0.0101700522881635,-0.0291536375977348,0.0296462420272662,0.6205997467041016,0.1552127003669738,-0.4495201110839844,5,13,-5101,-5848
15.4,1788177729121,0.0,0.0,-0.0003479183651506,0.0092542776837944,-0.8344041705131531,0.5510753393173218,0.0037327522207344,-0.0019615017706191,-4.357634301603763e-07,-0.0013794297119602,0.0021885209716856,0.0648133605718612,0.0003858329728245,0.0093580968677997,-0.867763340473175,0.4968893229961395,-0.0021826994902333,0.0003991865364672,-0.0879286533355459,-0.0282555818557739,0.0481941699981689,-0.043248176574707,0,0,0,0
15.5,1788177729221,0.0,0.0,-0.0001733498647809,0.0093644689768552,-0.8355486989021301,0.5493365526199341,0.002565516260978,0.0005004023462498,-1.9231353094536498e-07,0.0006907159695401,0.0010983394458889,-0.0319494307041168,0.0003455523401498,0.0093344133347272,-0.8681678771972656,0.4961828291416168,-0.0012412703811627,-0.0042604349996946,-0.0010683047989009,0.2003636956214904,-0.0902653336524963,0.0110483169555664,0,0,0,0
15.6,1788177729321,0.0,0.0,-0.0002517597749829,0.0093351928517222,-0.8355937004089355,0.5492684245109558,6.174383470289103e-05,-3.0385296766594542e-05,1.28019589519747e-07,-1.171730787064007e-06,-0.0010095001198351,-0.0016652712365612,0.0003378819674253,0.0093177603557705,-0.8681901097297668,0.4961442053318023,0.0008278947131719,-5.408664673348127e-05,0.0007136509619644,-0.0496290922164917,0.0262419581413269,0.0194196701049804,0,0,0,0
15.7,1788177729421,0.0,0.0,-0.000259808730334,0.0093038138002157,-0.8356163501739502,0.5492345690727234,-0.0001859973699836,0.0002156978550741,4.054879799284085e-07,0.0002338831109227,1.128395706473384e-05,-0.0021526634227484,0.0003403881564736,0.0093057882040739,-0.8682112097740173,0.4961074292659759,0.0004282759286231,0.0012658143771385,0.0008461725018689,-0.0279914736747741,0.0369521379470825,-0.0181617736816406,0,0,0,0
15.8,1788177729521,0.0,0.0,-0.0002684113569557,0.0093377847224473,-0.8355931639671326,0.5492693781852722,0.0001006087234208,-0.0001173407530345,3.224388011504508e-07,-0.0015892981318756,-0.0003189163398928,0.001157084130682,0.0003112163394689,0.009308036416769,-0.868203341960907,0.4961212575435638,0.0009218105315789,-0.0001233653754209,-0.0019000011694982,-0.0323072075843811,0.0118865966796875,0.0391902923583984,0,0,0,0
15.9,1788177729621,0.0,0.0,-0.0002573928795754,0.009284489788115,-0.8355929851531982,0.5492704510688782,4.414864418869273e-05,-5.1830846736641865e-05,-3.896814627161352e-07,0.0007196075166575,0.0002909796603489,0.0005000176606699,0.0003194492310285,0.0092681320384144,-0.868206799030304,0.4961159825325012,0.0008320034811601,-4.4812415475888086e-05,0.0002666253206462,0.0034675598144531,0.002245008945465,0.0159463882446289,0,0,0,0
16.0,1788177729721,0.0,0.0,-0.0002254410646855,0.0092863673344254,-0.8356101512908936,0.5492444634437561,-5.431339284615953e-05,6.219848176960852e-05,4.516758655606261e-07,0.0002131504443241,0.0014759101904928,-0.0006033182726241,0.0003465991467237,0.0092841563746333,-0.8682094812393188,0.4961109757423401,-0.0002744582062525,-0.0006761425511812,-0.0002342302673621,0.0172403454780578,0.0033481121063232,-0.0142326354980468,0,0,0,0
16.1,1788177729821,0.0,0.0,-0.0002272306010127,0.0092941019684076,-0.8356176614761353,0.5492329001426697,-6.575483800408855e-05,7.551378707712179e-05,5.461921987326463e-07,-9.182468056678772e-05,0.0003262193931732,-0.0007524853572249,0.0003693168982863,0.0092959851026535,-0.8682197332382202,0.496092677116394,0.0002507260383155,0.0010647222269713,-0.00038179012305,0.0090975761413574,-0.0085416436195373,-0.0085077285766601,0,0,0,0
16.2,1788177729921,0.0,0.0,-0.000222876202315,0.0092983786016702,-0.8356078267097473,0.549247682094574,6.467263430217813e-05,-7.599517446229996e-05,-5.617982291888922e-07,-9.918067371472716e-05,-0.0003206320106983,0.0007406683289445,0.0003590798005461,0.0093012517318129,-0.868220865726471,0.4960907697677612,-0.0009873619358634,0.0014682214102285,-0.0004060125896851,-0.0056652426719665,-0.0172829031944274,0.0152854919433593,0,0,0,0
16.3,1788177730021,0.0,0.0,-0.0002190205268561,0.009284964762628,-0.8356162309646606,0.5492351055145264,3.04495226926358e-05,-3.5028577968755874e-05,7.516621926050267e-07,0.0005457130610011,-8.879085362423211e-05,0.000352784176357,0.0003599943593144,0.0092805670574307,-0.8682177066802979,0.4960965812206268,0.0009642146452773,0.0003874901412347,0.0013867519964969,-0.0136071443557739,-0.0014520287513732,-0.0021018981933593,188,246,-10164,-11254
16.4,1788177730121,-2.5352113246917725,-2.6478872299194336,-0.0002745590172708,0.0092200133949518,-0.835767388343811,0.5490060448646545,-0.0865064805943459,0.0003326712012662,-5.724535270368167e-06,0.0003542792983353,-0.0133227379992604,-0.0099653461948037,0.0002373522147536,0.0092724869027733,-0.8683902621269226,0.4957945942878723,-0.0074245094786756,-0.0101111949640479,-0.0085377305419225,-0.0859801173210144,0.2311532497406005,-0.3876075744628906,56,102,-8351,-8843
16.5,1788177730221,-2.2253520488739014,-2.4788732528686523,2.2339634597301483e-05,0.0092103499919176,-0.8349760174751282,0.550209105014801,-0.0712019456239356,7.96401349399233e-05,8.828683769868685e-06,0.0164485592395067,0.0120923686772584,0.0376260392367839,0.0006350530311465,0.0091403825208544,-0.8677217364311218,0.4969657957553863,0.015918370860071,0.0130391164566232,-0.0063798968578109,-0.1739798784255981,0.0144882798194885,-0.322484016418457,54,73,-7721,-7850
16.6,1788177730321,-2.11267614364624,-2.169013977050781,-0.0001812214031815,0.0089231999590992,-0.8360481858253479,0.548583447933197,-0.0773992980892312,0.006376170459894,-3.883800911742546e-06,7.416767766699195e-05,-0.0048690577968955,-0.0234201364219188,0.0007066819816827,0.0089683616533875,-0.8680947422981262,0.4963169395923614,0.0077784430436185,0.01110108225516,0.0225176656303394,-0.3031517267227173,-0.1409673690795898,-0.0758781433105468,91,160,-8408,-9040
16.7,1788177730421,-2.281690120697021,-2.169013977050781,-8.934596553444862e-05,0.0089099425822496,-0.835740327835083,0.5490524172782898,-0.0825119171429326,0.0011662408668841,-1.7368703970379207e-05,-0.0018484527245163,-0.0079122707247734,-0.0156680922955274,0.0002863062545657,0.0088649839162826,-0.8680832386016846,0.4963394999504089,-0.0023660554606062,-0.0110495511432133,0.0333697404547154,0.4077009558677673,0.156532883644104,0.2068586349487304,32,91,-7564,-8259
16.8,1788177730521,-1.6056338548660278,-1.436619758605957,0.0001179217360913,0.0088550765067338,-0.8351900577545166,0.5498901009559631,-0.0674006821259976,0.0002360252790185,2.523124715695009e-07,0.0072096912190318,0.0076170885004103,0.007319192867726,-5.641952157020569e-06,0.0087197767570614,-0.8678866028785706,0.4966858029365539,-0.0107622455167023,-0.0244389083419079,0.0067717932669787,2.06134033203125,0.2021886110305786,0.5357666015625,38,63,0,0
16.9,1788177730621,0.0,0.0,-0.0008527606260031,0.0085508674383163,-0.833500325679779,0.5524521470069885,0.0075559092632091,0.0019725555544252,1.9953659380429557e-05,-0.0021707687992602,-0.0144797274842858,0.1271694302558899,0.0003884555771946,0.0089925359934568,-0.8660014867782593,0.4999605715274811,0.0010876843057403,0.1388083765711542,0.1493566987451406,0.1485899090766906,-0.4678781628608703,1.9561500549316408,0,0,0,0
17.0,1788177730721,0.0,0.0,-0.0003355343360453,0.0088956905528903,-0.8334061503410339,0.5525893568992615,-0.0047513947070319,0.0010465732237777,1.043246385520595e-06,0.000908552436158,-5.229279850027524e-06,-0.041671372950077,0.0001960843801498,0.0088330199941992,-0.865843653678894,0.5002367496490479,0.0006108860633761,0.0021708049523873,0.0464365136426059,0.0885961651802063,0.1312302947044372,-0.2005748748779297,0,0,0,0
17.1,1788177730821,0.0,0.0,-0.0003759872633963,0.0088334865868091,-0.8330355286598206,0.5531489849090576,0.0020110656366669,-0.0001159192261653,5.014203964737454e-07,-0.0005843588733114,0.0051078130491077,-0.0122118834406137,0.0001773387193679,0.0088349552825093,-0.8657581210136414,0.5003845691680908,-0.0013766108295184,-0.0037043023411115,0.0104068232820095,0.1502103805541992,-0.1389141678810119,0.0212841033935546,0,0,0,0
17.2,1788177730921,0.0,0.0,-0.0003351566847413,0.0088285021483898,-0.8329223990440369,0.5533192157745361,0.0002873342065822,-0.0002515546763478,2.7924979687704167e-08,0.0004286246548872,0.002102103549987,-0.0014588006306439,0.0001949947327375,0.0088286604732275,-0.8657875061035156,0.5003339648246765,-0.0004897042162736,-0.0011285173524897,-0.0022369093463161,-0.001990795135498,-0.0509526133537292,-0.0328998565673828,0,0,0,0
17.3,1788177731021,0.0,0.0,-0.0003524261992424,0.0087972711771726,-0.8329140543937683,0.5533323287963867,8.237213437778867e-05,-9.451353004119872e-05,-6.686644279726583e-07,0.0008554682717658,-0.000954337476287,0.0009477009298279,0.0001811403781175,0.0088022546842694,-0.8657791018486023,0.5003488659858704,-0.0008163708508341,-0.0006765703690691,0.001376392796582,0.0117919445037841,0.0133017301559448,-0.0110206604003906,0,0,0,0
17.4,1788177731121,0.0,0.0,-0.000365104759112,0.0087839448824524,-0.8329131603240967,0.5533339381217957,6.355676913892769e-05,-7.444320954623601e-05,-5.398620236887023e-07,0.0003177835315,-0.0005195529083721,0.0007227817550301,0.0002022385597229,0.0087839802727103,-0.8657786846160889,0.5003499388694763,0.0009722285412512,0.0009285464863292,-0.0004002431392352,-0.0070289969444274,-0.0111257433891296,0.002899169921875,0,0,0,0
17.5,1788177731221,0.0,0.0,-0.0003796217497438,0.0087838573381304,-0.832924485206604,0.5533168315887451,-9.537909636748895e-06,1.1748943327205564e-05,8.969577976355032e-08,0.0001182290725409,-0.0011851459275931,-0.0001234879018738,0.000182706862688,0.0087855188176035,-0.8657546043395996,0.5003916025161743,0.0007350459775621,2.5304248438103464e-05,0.0030036973466208,0.0065112709999084,-0.0105855464935302,-0.0009794235229492,0,0,0,0
17.6,1788177731321,0.0,0.0,-0.0003542320337146,0.0087623754516243,-0.832912266254425,0.5533356070518494,-0.0001153046171892,0.0001327081888852,-2.4895253716918653e-07,0.0007420033216476,5.082667848910205e-05,-0.0013468533288687,0.0001849243417382,0.0087923733517527,-0.8657682538032532,0.5003678202629089,-0.0016936918525973,0.0003889814901354,0.0008370906971852,0.0041514635086059,-0.0596346855163574,0.0198230743408203,0,0,0,0
17.7,1788177731421,0.0,0.0,-0.0004022743087261,0.0087681636214256,-0.8328649401664734,0.5534067153930664,0.0001498426899832,-0.0001758477400643,-8.157052126596393e-08,-0.0005313124274834,-0.0013929272536188,0.0017063022824004,0.0001505762338638,0.0087909139692783,-0.8657355308532715,0.5004245042800903,0.0001648124349948,0.0014615998026653,-0.0009656281864865,0.0005089044570922,-0.008688747882843,-0.0216255187988281,0,0,0,0
17.8,1788177731521,0.0,0.0,-0.0003707811702042,0.0087745795026421,-0.8328816890716553,0.5533813834190369,-9.247529539866364e-05,0.000108317069858,7.964222329464479e-07,0.00095373991644,0.0009460623841732,-0.001051596016623,0.0001783464103937,0.0087781585752964,-0.8657354712486267,0.5004248023033142,0.0007830147103183,0.0002106825302516,0.0010159347240254,-0.0110288858413696,0.0209457278251647,-0.0124788284301757,0,0,0,0
17.9,1788177731621,0.0,0.0,-0.0003800296690315,0.0087523814290761,-0.8328695893287659,0.5533999800682068,-9.923779759189516e-06,1.1322648794741934e-05,7.985405838097732e-08,0.000116891140351,-0.0004216589732095,-0.0001214105577673,0.0001943754032254,0.0087647270411252,-0.8657220005989075,0.50044846534729,0.000612380343105,0.0018229037627522,0.001949636253226,-0.2127572298049926,-0.0394743084907531,-0.0319929122924804,169,235,-7377,-7329
18.0,1788177731721,-2.5915493965148926,-2.422535181045532,-0.0003912087995558,0.0088447919115424,-0.8337209224700928,0.5521151423454285,-0.0767349486111462,0.0031552801550341,-1.943088367209071e-06,-0.0050489311106503,-0.0064184344373643,-0.0184616707265377,5.992874503135681e-05,0.0087711662054061,-0.86597740650177,0.5000061988830566,-0.0007436686388133,-0.0104701961469829,0.0563239345666291,-0.0645310878753662,-0.1138504147529602,-0.3621358871459961,46,157,-7630,-9512
18.1,1788177731821,-2.309859037399292,-2.05633807182312,-0.0005251590628176,0.0088922791182994,-0.8329151272773743,0.5533290505409241,-0.0921897832420177,-0.000510534410849,-1.443126427036874e-06,-0.0034419258590787,0.0005963872536085,0.0104748113080859,0.0002873297780752,0.0090425992384552,-0.865463137626648,0.500890851020813,0.000625470701455,0.0190956674920617,0.0420020379958697,0.276821494102478,-0.1378560662269592,-0.0894699096679687,58,220,-7380,-9504
18.2,1788177731921,-2.281690120697021,-2.676056385040283,-0.0002970695495605,0.0091404421254992,-0.8321900367736816,0.5544151067733765,-0.0672206782266172,-0.0013808092034558,1.028582411265634e-05,-0.0037506488151848,0.0012481447774916,0.026642732322216,-0.0003147833049297,0.0089321797713637,-0.8655701279640198,0.5007079839706421,-0.0048636719640186,-0.031862683090872,-0.055295260810771,-0.0201830267906188,-0.0836747884750366,-0.4785118103027344,51,52,-7371,-7437
18.3,1788177732021,0.0,0.0,-0.0010725818574428,0.0086796265095472,-0.832007884979248,0.5546948313713074,-0.0525886242983144,0.0048394835267095,3.6466749238698926e-06,0.0011718482710421,-0.0032592816278338,0.0611526817083358,-0.0004828171804547,0.0087718879804015,-0.8641931414604187,0.5030836462974548,-0.0010376225399491,0.0028487626563277,0.0957108628488882,1.338735818862915,-0.2970558404922485,0.4155893325805664,0,0,-24500,-25295
18.4,1788177732121,0.0,0.0,-0.0008425451815128,0.0089138196781277,-0.8329588174819946,0.5532625913619995,0.0085161050220418,-0.0008484055674443,1.2650146207344458e-06,-0.0020305269863456,-0.0007268205517902,-0.1161541491746902,-0.0002530543133616,0.008896836079657,-0.8655573129653931,0.5007307529449463,0.0034315374195292,-0.0017380787385309,0.0425851246714664,0.0903061628341674,0.0070056915283203,-0.1184339523315429,0,0,-30357,-31081
18.5,1788177732221,0.0,0.0,-0.0008885667193681,0.0088698724284768,-0.8328091502189636,0.5534884333610535,0.0007486753903773,0.0010454180119677,-8.63339711320074e-09,-0.0019738115370273,-0.0025119257625192,-0.0100122727453708,-0.0002967864274978,0.0089148059487342,-0.8656664490699768,0.5005418062210083,-0.0009791965613056,0.0021777720652275,-0.001834151430746,-0.2017204761505127,-0.1237945556640625,-0.0142831802368164,0,0,0,0
18.6,1788177732321,0.0,0.0,-0.0008635639678686,0.0088623883202672,-0.8327842950820923,0.5535259246826172,0.0001831905985512,0.0002541118343668,8.472508017321847e-07,-0.0002921127306763,0.0009504262707196,-0.0024075049441307,-0.0002904888242483,0.0088667226955294,-0.865611732006073,0.5006371736526489,0.0011227599000192,-0.0013919741557566,0.0040420813006479,0.0474441647529602,0.03682541847229,0.0197992324829101,0,0,0,0
18.7,1788177732421,0.0,0.0,-0.0008676669094711,0.0088085085153579,-0.8327603936195374,0.5535628199577332,-0.0001285783332167,0.000149969302721,9.353168208774785e-08,0.0002263625210616,-0.0013558017089962,-0.0014949070755392,-0.0003042491152882,0.008829953148961,-0.8656251430511475,0.5006147623062134,0.0013148357868365,0.0002084274689212,0.0017456638769924,-0.0321183800697326,-0.0174818038940429,0.0048446655273437,0,0,0,0
18.8,1788177732521,0.0,0.0,-0.0008703651838004,0.0087428074330091,-0.8327526450157166,0.553575336933136,1.616444975643731e-05,-1.9626733951871702e-05,-1.711165433767822e-07,0.0009678463684394,-0.0019100776407867,0.0001619578106328,-0.0003313589841127,0.0087963817641139,-0.865633487701416,0.5006009936332703,-0.0008735827601857,0.0002374288524175,-0.0002456062708748,-0.0072977542877197,0.003088355064392,-0.0028944015502929,0,0,0,0
18.9,1788177732621,0.0,0.0,-0.0008795384783297,0.0087616574019193,-0.8327544927597046,0.5535724759101868,-4.674660378733102e-05,5.280987808025032e-05,4.356333979877359e-07,-9.371748456032948e-05,-0.0005266087828204,-0.0005593604873865,-0.0003260755911469,0.0088013606145977,-0.8656265735626221,0.5006127953529358,7.76667738521814e-05,0.0003898848460628,0.0008449612283405,0.0203927159309387,0.0269988179206848,-0.0131740570068359,0,0,0,0
19.0,1788177732721,0.0,0.0,-0.0008419502992182,0.0088072512298822,-0.8327519297599792,0.5535758137702942,-3.0330114587629884e-05,3.377770773760436e-05,2.756025776604084e-07,-0.0007332829409278,0.0020252836402505,-0.000328790716594,-0.0002701953053474,0.0088741611689329,-0.8656196594238281,0.5006235241889954,-8.956837857409995e-05,0.0005596101307293,-0.0009172548500233,0.0024082064628601,-0.041844367980957,0.0009794235229492,0,0,0,0
19.1,1788177732821,0.0,0.0,-0.0008268270175904,0.0088396202772855,-0.832743763923645,0.5535874962806702,-3.3339940990128645e-05,3.8074184237471614e-05,3.1424338339024457e-07,-0.0002730377018451,-0.0004960861988365,-0.0004121040692552,-0.0002862568944692,0.0088447220623493,-0.8656216859817505,0.5006205439567566,0.0006482756279097,-0.0010276742751752,-0.0002093831329013,-0.0177661180496215,0.0043053030967712,0.0139808654785156,0,0,0,0
19.2,1788177732921,0.0,0.0,-0.0008509051986038,0.0088299829512834,-0.8327431082725525,0.5535884499549866,1.3497681524807376e-05,-1.5126248471290052e-05,-1.2319990092656884e-07,-0.0008657246944494,-6.168702384456992e-05,0.0001485843386035,-0.0002733524888753,0.0088915126398205,-0.8656336665153503,0.5005987882614136,-0.0006095911414572,0.0023108266425152,-0.001445147403221,0.0018531680107116,-0.0175580978393554,0.005044937133789,0,0,0,0
19.3,1788177733021,0.0,0.0,-0.000834290869534,0.0088340118527412,-0.8327478766441345,0.553581178188324,8.45400111200882e-05,-9.943038257218165e-05,3.525154766179279e-07,0.0005390325095504,-0.0010683092987164,0.0009485118207521,-0.0002984460443258,0.0088524119928479,-0.8656320571899414,0.5006022453308105,0.0004004449250252,-0.0010278115269533,0.0002827455020168,0.0012773275375366,-0.0061335563659667,0.0234966278076171,0,0,0,0
19.4,1788177733121,0.0,0.0,-0.0008351099677383,0.0088316984474658,-0.8327411413192749,0.5535914897918701,8.014228231971485e-05,-9.294280893394654e-05,3.841270904940162e-07,-9.807275637285784e-05,0.0006240832153707,0.0009336788789369,-0.0003104740753769,0.0088504496961832,-0.8656050562858582,0.5006491541862488,0.0004340425301041,-0.0013848676785023,0.0004830239479505,0.0110260844230651,-0.0027686953544616,0.0194692611694335,0,0,-10083,-10083
19.5,1788177733221,0.0,0.0,-0.000876041362062,0.0088236043229699,-0.8327240943908691,0.5536171793937683,1.6968443078606717e-05,-1.8806055921492245e-05,-1.5301893413947798e-07,-0.0006308010197244,2.1573350750259124e-06,0.0002091961214318,-0.0003226548433303,0.0088612483814358,-0.8656026721000671,0.500653088092804,0.0002484844299646,0.000552443403715,0.0008267877523531,-0.0178817510604858,-0.0061256885528564,0.0354976654052734,0,0,-31869,-31869
19.6,1788177733321,0.0,0.0,-0.0008609453216195,0.0088272187858819,-0.832716166973114,0.5536290407180786,1.29200365425777e-05,-1.5331137140135846e-05,-1.327024310756973e-07,-1.0091775948239956e-05,0.0006862665177322,0.0001578802330186,-0.0002879779785871,0.0088695231825113,-0.8656066656112671,0.5006458759307861,8.298642813110558e-05,0.0007491596650086,-0.0002229618267912,-0.0261310338973999,0.0081040859222412,0.021153450012207,0,0,-32767,-32767
19.7,1788177733421,0.0,0.0,-0.0008101330604404,0.0088643906638026,-0.8327281475067139,0.5536105632781982,-2.0391050499921056e-05,2.2431891970470737e-05,1.8001249261231037e-07,-0.0003351543273311,0.0016650672769173,-0.000220273504965,-0.0002536121755838,0.0088859600946307,-0.8656078577041626,0.5006437301635742,0.0004095136039257,-0.000470948996803,0.0009629114386382,0.0069343447685241,0.018814206123352,0.0231399536132812,0,0,-32767,-32767
19.8,1788177733521,0.0,0.0,-0.0008176364935934,0.0088384710252285,-0.8327229619026184,0.5536187291145325,5.43748558144084e-05,-6.321996776060232e-05,-5.276315169379848e-07,0.0001110609737224,-0.0009367442689836,0.0006137157906778,-0.000270121730864,0.0088752536103129,-0.865615725517273,0.5006301999092102,-0.0007986103404787,0.0003925295470587,-0.0007654498813923,-0.0131313800811767,0.0027068853378295,0.0050220489501953,0,0,-32767,-32767
19.9,1788177733621,0.0,0.0,-0.0007930947467684,0.0088706891983747,-0.8327474594116211,0.5535812973976135,-6.285302504219097e-05,7.201726951768776e-05,5.958612132967305e-07,-0.0003406659816391,0.0011500192340463,-0.0007169903838075,-0.0002423366531729,0.0089209014549851,-0.8656232357025146,0.5006163716316223,-0.0011633223431705,0.0003913688051743,0.0004851313807657,-0.0013516545295715,0.0122729539871215,-0.0146331787109375,0,0,-32767,-32767
20.0,1788177733721,0.0,0.0,-0.0007822795305401,0.0089002065360546,-0.8327184319496155,0.5536246299743652,9.85611427117092e-05,-0.0001128557899078,-9.281125184864296e-07,-1.4366630239237566e-05,4.246536627761088e-05,0.0011597510892897,-0.0002561118453741,0.0089441603049635,-0.8656123280525208,0.5006347298622131,-0.001427585459532,-0.001094368285205,-0.0012060963671917,-0.0068364143371582,0.0091184973716735,0.0068893432617187,0,0,-32767,-32767
20.1,1788177733821,0.0,0.0,-0.0007863258942961,0.0088968696072697,-0.8327246308326721,0.553615391254425,0.0002717373663161,0.0001192501225382,6.082897499552569e-07,0.0011790660209953,0.0006385939195752,0.0008620205335319,-0.0002252245321869,0.0089209228754043,-0.8656015992164612,0.5006537437438965,0.0006070774393897,3.533914541484076e-05,0.0006621426702712,0.0078708529472351,0.0030685663223266,-0.002058982849121,0,0,-32767,-32767
20.2,1788177733921,0.0,0.0,-0.0007363175973296,0.0089187584817409,-0.8327399492263794,0.5535919070243835,-0.0001307243383676,0.0001529853166753,1.1190482413448202e-07,1.6506091924384236e-05,0.0020957509987056,-0.0014688961673527,-0.0002042138949036,0.0089411595836281,-0.8656039237976074,0.5006493926048279,-0.0006120335561799,-0.0014994134890688,0.0023366761165234,-0.0169084668159484,-0.0059545040130615,0.0409049987792968,0,0,-32767,-32767
20.3,1788177734021,0.0,0.0,-0.0007462762296199,0.0089121367782354,-0.8327245116233826,0.5536152720451355,1.5149217940285522e-05,-1.944311634128441e-05,-1.7443968753660566e-07,7.574306891910965e-06,0.00044461878133,0.0001744723849697,-0.0001686494797468,0.0089530451223254,-0.865628182888031,0.5006073117256165,0.000616564764341,0.0012823203358621,-0.0011100167067396,0.0119626522064208,0.0150454640388488,0.0232782363891601,0,0,-32767,-32767
20.4,1788177734121,0.0,0.0,-0.0007334414403885,0.0089238006621599,-0.8327298164367676,0.5536072254180908,0.0001194489531243,-0.0001399379313378,6.025535615042908e-08,-0.0001228850596817,-0.000284929992631,0.0013679758412763,-0.0001672953367233,0.0089649623259902,-0.8656184077262878,0.500623881816864,-0.0004503115606159,0.0009362592266933,-0.0009432566559234,-0.0045419335365295,-0.0402547717094421,0.010049819946289,0,0,-32767,-32767
20.5,1788177734221,0.0,0.0,-0.000749286962673,0.0089286230504512,-0.832738995552063,0.5535932779312134,-2.693825039817744e-05,3.0190749097097483e-05,2.400542147925932e-07,-9.457828127779068e-05,-0.0008496607770211,-0.0003384041483514,-0.0001992797479033,0.0089673679322004,-0.8656228184700012,0.5006163716316223,-0.0008099550417178,-0.0001383171743885,-0.00041246919715,0.0109891295433044,0.0287403464317321,-0.000462532043457,0,0,-32767,-32767
20.6,1788177734321,0.0,0.0,-0.000757694710046,0.0089563960209488,-0.8327765464782715,0.5535362362861633,-0.0002075833804504,0.0002412421052117,-2.925508926937113e-07,-0.0005939960246905,0.0004220224509481,-0.0023842987138777,-0.0001702848821878,0.009010624140501,-0.8656545877456665,0.5005607008934021,8.043359080855023e-05,0.0017474001800639,-0.0003841227164302,0.0010636448860168,0.0058180689811706,0.0173301696777343,0,0,-32767,-32767
20.7,1788177734421,0.0,0.0,-0.0007366121280938,0.0089799650013446,-0.8327656984329224,0.5535522699356079,7.359060285441311e-06,-9.8317710653493e-06,-9.080989546439049e-08,-0.0001692852820269,-8.647132199257612e-05,7.347279461100698e-05,-0.0001502828672528,0.0090073607861995,-0.8656440377235413,0.5005789399147034,0.0002574958883852,0.0011018125560627,0.0003181777901453,-0.0091082453727722,0.0038455724716186,-0.0113410949707031,0,0,-32767,-32767
20.8,1788177734521,0.0,0.0,-0.0006940846797078,0.0089677469804883,-0.8327654600143433,0.5535529255867004,3.522414497233859e-06,-3.73351128550034e-06,-2.7939958265963062e-08,0.0008122565923258,0.0002939020923804,4.926294786855578e-05,-0.0001057479530572,0.0090016648173332,-0.8656708002090454,0.500532865524292,0.0004849175311205,0.0019122079398502,-0.0035917921259695,0.0055455565452575,-0.0269750952720642,0.0119504928588867,0,0,-32767,-32767
20.9,1788177734621,0.0,0.0,-0.0006360050756484,0.008975051343441,-0.8327954411506653,0.5535076260566711,5.325273674669695e-05,-6.0530337079483126e-05,7.159997864646836e-07,0.0006100061582401,0.0005577551783062,0.0006364243454299,-7.608998566865921e-05,0.0090198526158928,-0.8656627535820007,0.500546395778656,-0.0008393043883172,0.0007768331470054,0.0006695220782828,-0.0031914710998535,-0.0138343572616577,0.0047016143798828,0,0,-32767,-32767
21.0,1788177734721,0.0,0.0,-0.0006326751317828,0.0090004438534379,-0.8327988982200623,0.5535021424293518,-5.493881275949299e-05,6.302733969936164e-05,-6.685345323178643e-07,-0.0003706012794282,0.0001994740450754,-0.0006454882095567,-7.337983697652817e-05,0.0090291369706392,-0.8656812906265259,0.5005142092704773,-0.0006844771744323,2.591838229592257e-05,-0.0002276232512143,-0.0033192634582519,-0.0205824375152587,-0.0132627487182617,0,0,-32767,-32767
21.1,1788177734821,0.0,0.0,-0.0006297512445598,0.0090236589312553,-0.8328173756599426,0.553473949432373,-6.534125981334229e-05,7.5723948898604e-05,6.071508747141673e-07,-0.0004135217750445,0.0005786294932477,-0.0007502769003622,-5.226954817771912e-05,0.0090351486578583,-0.865684986114502,0.5005077123641968,0.0013887006446364,-1.5861541824400545e-05,0.0010200590957014,-0.001526653766632,-0.016965627670288,0.0173244476318359,0,0,-32767,-32767
21.2,1788177734921,0.0,0.0,-0.0006507290527224,0.0090113673359155,-0.8328077793121338,0.5534884333610535,4.713511994160324e-06,-3.3262491172219648e-06,-9.968502013199076e-09,-0.0011366853723302,-0.0011327845277264,4.769790029968135e-05,-0.0001099687069654,0.0090468516573309,-0.8656805157661438,0.5005152225494385,-0.0023601264502916,-0.0009355965100936,0.0010037480772489,-0.0025474429130554,-0.0157787799835205,-0.0078287124633789,0,0,-32767,-32767
21.3,1788177735021,0.0,0.0,-0.0006862746085971,0.009033503010869,-0.8328123092651367,0.5534812808036804,1.6366745950898492e-05,-1.8966228328475502e-05,-1.5494163530794728e-07,-0.0006135249277576,0.0008144081803038,0.0002048991882475,-0.0001378515735268,0.0090703815221786,-0.8656938076019287,0.500491738319397,-0.0007654165061044,-0.0002419460204468,-0.0010658275099321,0.016663908958435,0.0086374878883361,-0.0059175491333007,0,0,-32767,-32767
21.4,1788177735121,0.0,0.0,-0.0006850725039839,0.0090651679784059,-0.8328319787979126,0.5534512400627136,-9.575239714850256e-05,0.0001104670444022,-2.9406352796003335e-07,-0.0004319207801017,0.0012306921416893,-0.0010874179424718,-9.92780551314354e-05,0.0091114360839128,-0.8656920194625854,0.500494122505188,-0.0004929623930599,0.0004165874871634,0.0008462933470908,0.0174543857574462,0.0073373317718505,0.0029735565185546,0,0,-32767,-32767
21.5,1788177735221,0.0,0.0,-0.0006748654413968,0.009087448939681,-0.8328372836112976,0.5534429550170898,6.682597168211278e-05,0.0003636133610101,3.298375468096168e-07,-0.0001402762718498,-0.0004151908797211,-0.0015369597822427,-0.0001079635694622,0.0091044846922159,-0.865696132183075,0.5004870891571045,0.0007225801030613,0.0003739462470483,0.0017437664819374,-0.015307605266571,-0.0014321208000183,-0.0189390182495117,0,0,-32767,-32767
21.6,1788177735321,0.0,0.0,-0.0007006505038589,0.0090741775929927,-0.8328219652175903,0.5534660816192627,1.4351220693383256e-05,-1.52047936613287e-05,-1.1340819769284097e-07,-8.408181747654453e-05,-0.0010750638321042,0.0001443805958842,-0.0001312503591179,0.0090938480570912,-0.8657059669494629,0.5004703998565674,0.0009124279254454,-0.0005256447061588,-0.0016461208914701,0.0036555528640747,-0.0266082882881164,0.0025291442871093,0,0,-32767,-32767
21.7,1788177735421,0.0,0.0,-0.0006839805282652,0.0090499240905046,-0.8328417539596558,0.5534367561340332,-4.8081941671604296e-05,5.744726252605886e-05,4.854108250312067e-07,0.0009093734552152,6.203726661624387e-05,-0.0005440803943201,-0.0001282580196857,0.0090607749298214,-0.8657139539718628,0.5004569292068481,-0.0001461414482948,-0.0006883012432059,-0.0005624129179649,0.0141305923461914,0.0106030702590942,-0.0152969360351562,0,0,-32767,-32767
21.8,1788177735521,0.0,0.0,-0.0006874317768961,0.0090615293011069,-0.8328555822372437,0.5534157156944275,-8.361105229215e-05,9.65317779964896e-05,7.871238861640029e-07,-0.0008765952661633,0.0008849091827869,-0.0009547604131512,-0.0001100962981581,0.0090854875743389,-0.8657150268554688,0.5004547834396362,0.0012629442182425,0.0003208923763707,0.0010268243655447,-0.0142311453819274,-0.0036237239837646,0.0042200088500976,0,0,-32767,-32767
21.9,1788177735621,0.0,0.0,-0.0007067420519888,0.0090334024280309,-0.8328448534011841,0.5534324049949646,-9.35910001085545e-06,1.153512150192391e-05,9.967249853944885e-08,0.0002701139310374,-0.0011244278866797,-0.0001200258775497,-0.0001198928803205,0.0090570813044905,-0.8657257556915283,0.5004368424415588,0.0009182199196881,0.0012150562734618,-0.0012941960928903,0.0178043246269226,-0.0164542198181152,-0.0316648483276367,0,0,-32767,-32767
22.0,1788177735721,0.0,0.0,-0.0007186841685324,0.0090226735919713,-0.8328399062156677,0.5534400343894958,0.0001098124853046,-0.0001279541821135,1.619039919580715e-07,-0.0004084617539774,-0.0005868028383702,0.0012523627374321,-0.000166431069374,0.0090661207213997,-0.8657261729240417,0.5004357099533081,-0.0008378126766428,-0.0001189541559446,-0.001347587743499,0.0132403373718261,-0.008911907672882,0.0275917053222656,0,0,-32767,-32767
22.1,1788177735821,0.0,0.0,-0.0007080587092787,0.0090579390525817,-0.832868218421936,0.5533968806266785,-7.774339972412093e-05,9.130759188032616e-05,-4.2508353991695707e-07,-0.0001457789039704,0.001211748807691,-0.0008619129075668,-0.0001546880230307,0.0090960888192057,-0.8657324314117432,0.500424325466156,-0.0009836478457795,-0.0008695778804943,0.0002860447675495,-0.0112428665161132,0.0077835321426391,-0.0083608627319335,0,0,-32767,-32767
22.2,1788177735921,0.0,0.0,-0.0007138780783861,0.0090676425024867,-0.8328715562820435,0.5533915758132935,-5.600270986833548e-05,6.418250733335403e-05,5.238411033728348e-07,-3.946872675442137e-05,-0.0002759210474323,-0.0006552849081344,-0.0001215599477291,0.0091105503961443,-0.865726888179779,0.5004338026046753,0.0002062852832937,0.0006763509542192,0.0010251559023977,-0.0033973455429077,-0.0121472477912902,0.0077896118164062,0,0,-32767,-32767
22.3,1788177736021,0.0,0.0,-0.0007261761929839,0.009033934213221,-0.8328592777252197,0.5534106492996216,-2.9999858574138616e-05,3.519211886551292e-05,2.920143771024388e-07,0.0005948038888163,-0.0019268176984041,-0.0003675643529277,-0.0001703994348645,0.0090431841090321,-0.865742027759552,0.5004086494445801,0.0005751285941582,-1.3353125093719148e-05,-0.0018308685942842,-0.0012758374214172,0.008692979812622,0.0133304595947265,0,0,-32767,-32767
22.4,1788177736121,0.0,0.0,-0.0007396859582513,0.0090024648234248,-0.8328707218170166,0.5533937215805054,-4.118448131005027e-06,3.5345092888072906e-06,1.9950765224878392e-08,0.0004763430042658,-0.0003472951357252,-5.703753049601801e-05,-0.0001729540526866,0.0090459650382399,-0.8657485246658325,0.5003974437713623,-0.0003251274572607,0.0009148966020521,-0.0011691100931954,-0.015528917312622,0.0214070081710815,-0.0063953399658203,0,0,-32767,-32767
22.5,1788177736221,0.0,0.0,-0.0007456124294549,0.0090261092409491,-0.8328814506530762,0.5533773303031921,0.0,0.0,0.0,-0.0004603280103765,-0.000471787265269,-1.6701918866601773e-05,-0.0001905607059597,0.0090277213603258,-0.865748405456543,0.5003980398178101,0.0012481063296548,-0.0016400311959241,0.0004619017725633,0.0019985437393188,-0.0057001709938049,-0.0028018951416015,0,0,-32767,-32767
22.6,1788177736321,0.0,0.0,-0.0007510303985327,0.0089940670877695,-0.8328630328178406,0.5534057021141052,0.0001089307560876,-0.0001265115036906,-1.0536225074421029e-06,0.0001710704818833,-4.38694296462927e-05,0.0012462193844839,-0.0001877015456557,0.009028036147356,-0.8657370805740356,0.5004176497459412,-0.0003183278232332,0.001412961101702,0.0006695203774502,-0.0212504267692565,-0.0236756205558776,-0.0047407150268554,0,0,-32767,-32767
22.7,1788177736421,0.0,0.0,-0.0007345522753894,0.0090206414461135,-0.8328770995140076,0.553384006023407,-7.83168490613438e-05,9.103680321356752e-05,-2.298732087907285e-07,6.382620631484315e-05,-0.000196742315893,-0.0009012931259348,-0.0001797713339328,0.0090501420199871,-0.8657596111297607,0.5003783106803894,-0.0004902502576332,1.8480205940693517e-05,-0.0020287057580617,0.0078931450843811,-0.007226288318634,0.0026874542236328,0,0,-32767,-32767
22.8,1788177736521,0.0,0.0,-0.0007392417173832,0.0090269315987825,-0.832909107208252,0.5533356666564941,-6.36799885848605e-05,7.410466967279017e-05,6.173789302540699e-07,-0.0001727808703435,0.0002390339359408,-0.0007243910222314,-0.0001873094588518,0.0090434225276112,-0.8657798171043396,0.5003432631492615,0.0001237963987865,-0.0004756138588904,-0.0002294734106796,0.0041057467460632,0.0088808536529541,0.0135202407836914,0,0,-32767,-32767
22.9,1788177736621,0.0,0.0,-0.0007565517444163,0.0090177794918417,-0.8329035639762878,0.553344190120697,0.0002709756279551,0.0001191253692962,6.794119755366767e-07,-0.0002568122581578,-0.0001270733046112,0.0008407944696955,-0.0001872535794973,0.0090392986312508,-0.8657658696174622,0.5003675222396851,0.0014366507428739,-0.0005215456923396,0.0020868962611375,-0.0047630071640014,-0.0162005424499511,-0.0171527862548828,0,0,-32767,-32767
23.0,1788177736721,0.0,0.0,-0.0007473316509276,0.0089893750846385,-0.8328981399536133,0.5533528327941895,6.491374612245082e-05,-7.606971372688694e-05,5.529822809819913e-07,0.0001701339060673,8.791864820523188e-05,0.0007538515492342,-0.0001714574173092,0.0090093668550252,-0.8657514452934265,0.5003930926322937,0.0014457196635511,0.0003704163091783,0.0015655395358362,0.0005400776863098,-0.0295175313949584,0.004373550415039,0,0,-32767,-32767
23.1,1788177736821,0.0,0.0,-0.0007396643050014,0.0089689884334802,-0.8328874707221985,0.5533691644668579,-3.8324475330644224e-05,4.630886373749312e-05,3.952863150039163e-07,-3.926151475752704e-05,-0.0006522543844766,-0.0004387699009384,-0.0001922696828842,0.009032174013555,-0.8657633066177368,0.500372052192688,-0.0013921441054504,-0.000150302163683,0.0001309525913684,0.0022281408309936,-0.0055623054504394,0.0027236938476562,0,0,-32767,-32767
23.2,1788177736921,0.0,0.0,-0.0007319177966564,0.0089871520176529,-0.8328866362571716,0.5533701181411743,9.113120985105823e-05,-0.0001057501033519,3.508542144341368e-07,0.0007988647557795,0.0002479173417668,0.0010586720891296,-0.0001623732969164,0.009020266123116,-0.8657497763633728,0.5003957748413086,3.031532194824789e-05,2.8154155295495296e-05,0.0001363702893046,-0.0134792923927307,-0.0114169716835021,-0.008122444152832,0,0,-32767,-32767
23.3,1788177737021,0.0,0.0,-0.0007281932048499,0.0089951669797301,-0.832892894744873,0.553360641002655,0.0001586355483825,0.0002533954619075,6.021726600473221e-07,-0.0003563741920515,0.0001010588966892,-0.0004445900558494,-0.0001608859747648,0.0090040573850274,-0.8657656908035278,0.5003684759140015,0.0012751704178456,-0.0003215152169489,-0.000755734030333,-0.0027034282684326,-0.0044207572937011,-0.0349588394165039,0,0,-32767,-32767
23.4,1788177737121,0.0,0.0,-0.0007356193382292,0.0089779812842607,-0.8329009413719177,0.5533487796783447,-9.755596821016733e-06,1.1127900358631272e-05,9.011221756012646e-08,-0.0003490874660201,-0.0004221666895318,-0.0001216760647366,-0.0001568626612424,0.0089793615043163,-0.8657822012901306,0.500340461730957,0.0020061999895173,-0.0003576242020741,0.0003442356722117,0.0095751881599426,0.0003564357757568,-0.000706672668457,0,0,-32767,-32767
23.5,1788177737221,0.0,0.0,-0.0007371034007519,0.0089480904862284,-0.8329198956489563,0.5533207058906555,-2.32526334693474e-05,2.8012005945952076e-05,2.389317900349339e-07,0.0008718825411051,-0.0008661623578518,-0.0002650056558195,-0.0001738257706165,0.0089884027838706,-0.8657880425453186,0.5003302097320557,-0.0004884763067166,0.0007375543998676,-4.7339919080486896e-05,0.0165777206420898,-0.0280672311782836,-0.0007572174072265,0,0,-32767,-32767
23.6,1788177737321,0.0,0.0,-0.000720674637705,0.0089713037014007,-0.8329293727874756,0.5533061027526855,6.296925174294221e-06,-7.46038230935401e-06,-6.271995957419959e-08,4.773864930029959e-05,0.0006239353097043,7.571207970613614e-05,-0.0001649213954806,0.0090095121413469,-0.8657852411270142,0.500334620475769,-0.0017231104204612,0.0003910711735164,-5.317190931087877e-05,-0.0009459257125854,0.0063855648040771,-0.0132093429565429,0,0,-32767,-32767
23.7,1788177737421,0.0,0.0,-0.0007086656987667,0.0089943874627351,-0.8329048156738281,0.553342878818512,0.0002972466315036,8.884151223032237e-05,4.232107911811376e-07,-4.167862061876804e-05,0.0008505764999426,0.0011681922478601,-0.0001384718343615,0.0090143689885735,-0.865761935710907,0.500374972820282,0.0008950324146266,0.0009015437227837,0.002064113058667,-0.0059052109718322,0.0169048905372619,0.0048027038574218,0,0,-32767,-32767
23.8,1788177737521,0.0,0.0,-0.0007296821568161,0.0089457966387271,-0.832892119884491,0.5533625483512878,-2.631822447754567e-05,3.030883852909625e-05,2.453211136336981e-07,7.106681732693687e-05,-0.0018021193100139,-0.0003337309753987,-0.00016166921705,0.0089955376461148,-0.8657647371292114,0.5003703236579895,-0.0003207168812738,0.0003920779051922,0.0003122557262668,0.0061268806457519,0.0042810440063476,-0.0041332244873046,0,0,-32767,-32767
23.9,1788177737621,0.0,0.0,-0.0007011070847511,0.0089678047224879,-0.8328794836997986,0.5533812046051025,0.0001319762601697,-0.000154137217454,-3.4730640944945555e-08,0.0004190378240309,0.0005764213274233,0.0015285174595192,-0.0001670029014348,0.0089992582798004,-0.8657393455505371,0.500414252281189,-0.0001438064389339,0.0003914816946094,0.000668325401577,-0.0046586394309997,-0.0027607679367065,-0.0131416320800781,0,0,-32767,-32767
24.0,1788177737721,0.0,0.0,-0.0007272157818078,0.0089797005057334,-0.8328666090965271,0.553400456905365,2.516828086588931e-05,-2.9831566705258136e-05,-2.508979657003135e-07,-0.0001889643026515,0.0004382691986393,0.0002875575155485,-0.0001966003328561,0.0089874053373932,-0.865730345249176,0.5004301071166992,3.176030514989663e-05,-0.0010134391971682,0.0004734132671814,-0.0106490850448608,-0.0062605142593383,-0.016754150390625,0,0,-32767,-32767
24.1,1788177737821,0.0,0.0,-0.0007737677078694,0.0089311618357896,-0.8328673839569092,0.5534000992774963,-4.581170509936454e-05,5.341886668891525e-05,4.453643581231333e-07,0.0005016435752622,-0.0011681719915941,-0.0005371801671572,-0.0001919725909829,0.008951336145401,-0.8657114505767822,0.5004633069038391,0.0008713390600274,0.0010449921348284,0.0032212529843166,-0.0110157132148742,-0.0141996145248413,0.0047769546508789,0,0,-32767,-32767
24.2,1788177737921,0.0,0.0,-0.0007452114950865,0.0089377108961343,-0.8328456878662109,0.5534325242042542,1.5767401715320452e-05,-1.826733131777691e-05,-1.5126533051191654e-07,-0.0001359601155854,0.0009235152974724,0.0001973689650185,-0.0001817625015974,0.0089868176728487,-0.8657369613647461,0.500418484210968,-0.0012037045850593,0.0011090302706779,-0.0007623810280067,-0.0068548321723937,-0.015438437461853,-0.007756233215332,0,0,-32767,-32767
24.3,1788177738021,0.0,0.0,-0.0007247989997267,0.0089573133736848,-0.8328509330749512,0.5534244179725647,6.412613855141557e-05,-7.555322285068688e-05,-6.322653931729956e-07,-0.0003473816032055,0.0012466661864891,0.0007522715604864,-0.0001573013141751,0.0090090194717049,-0.8657184839248657,0.5004501938819885,-0.0006985040826811,0.0006375657058897,0.0004550434283039,0.0152645707130432,-0.0207786560058593,0.0102958679199218,0,0,-32767,-32767
24.4,1788177738121,0.0,0.0,-0.0007058135233819,0.008982996456325,-0.8328456282615662,0.553432047367096,6.336561001997522e-06,-7.5119493561107825e-06,-6.295663437200473e-08,0.0002325502573512,0.0004417639574967,7.621594704687595e-05,-0.0001693703234195,0.0089538339525461,-0.8657105565071106,0.500464916229248,0.0011024712440404,-0.0013785284084767,0.0003054254759103,-0.0016095042228698,0.003570556640625,0.0031290054321289,0,0,-32767,-32767
24.5,1788177738221,0.0,0.0,-0.0007300428114831,0.0089583499357104,-0.8328553438186646,0.5534176230430603,0.0001433409776434,0.000277002701478,-5.095911857344626e-07,-0.0012226798571646,0.0007689269841648,-0.0006676604971289,-0.0001687929034233,0.0090042725205421,-0.8657153248786926,0.5004557967185974,-0.0013326676015001,0.0007164965336811,0.0014951249367508,-0.0174048542976379,-0.0100958347320556,0.035344123840332,0,0,-32767,-32767
24.6,1788177738321,0.0,0.0,-0.0007617636583745,0.0089981267228722,-0.8328362703323364,0.5534457564353943,-9.881179045629813e-06,1.1276440743176922e-05,9.171797589954285e-08,-0.0011934131616726,-0.0005215996643528,-0.0001220898266183,-0.0002083927392959,0.0090460544452071,-0.8657109141349792,0.5004624724388123,-0.0004865691036977,0.0002249657004729,-0.0007644728741815,0.0112259984016418,0.0018872022628784,0.0031862258911132,0,0,-32767,-32767
24.7,1788177738421,0.0,0.0,-0.0007923396769911,0.0089893657714128,-0.8328135013580322,0.5534800887107849,0.0001248082551625,-0.0001466302522451,-7.857331155516974e-10,0.000119737262139,-0.0011897267540916,0.0014036772772669,-0.0002308413386344,0.0090185953304171,-0.8656876683235168,0.5005031824111938,0.0002415418209142,-0.001321173420034,0.0011424580776684,0.0247538089752197,0.0082741975784301,0.0250015258789062,0,0,-32692,-32692
24.8,1788177738521,0.0,0.0,-0.0008138220291584,0.0089892903342843,-0.8328095078468323,0.5534859895706177,-1.052379327481847e-05,1.11510700153394e-05,8.56884988161763e-08,-0.0005910414620302,-0.0010435713920742,-0.0001471574942115,-0.0002272790297865,0.0090248016640543,-0.8656696081161499,0.5005344748497009,0.0002578485416653,0.0003931293454288,0.0004933474395477,-0.0073621273040771,0.0102210044860839,0.0051116943359375,0,0,0,0
24.9,1788177738621,0.0,0.0,-0.0007930223364382,0.008988257497549,-0.8327983021736145,0.5535029768943787,-3.687840711946045e-05,4.15254699741141e-05,3.396188560216172e-07,0.0002255400468129,-0.0004219425318296,-0.000440850330051,-0.0002070600166916,0.0090241627767682,-0.8656691312789917,0.5005351901054382,-0.0003157990730141,-0.0002763317477207,0.0009558374812576,-0.0177780985832214,-0.000741958618164,-0.0003671646118164,0,0,0,0
25.0,1788177738721,0.0,0.0,-0.0007658910471946,0.0090013146400451,-0.8328076004981995,0.5534888505935669,-9.291988920748374e-05,0.0001080663231367,-2.658307236947439e-07,-0.0002981020952574,0.0001106854688259,-0.0010591391474008,-0.0001929197460412,0.0090686064213514,-0.8656986355781555,0.5004834532737732,-0.0007798234914377,0.0008975992802296,-0.0002214583959388,-0.0046332478523254,-0.0056003332138061,0.0212316513061523,0,0,0,0
25.1,1788177738821,0.0,0.0,-0.0007279254496097,0.0090616438537836,-0.8328156471252441,0.5534758567810059,0.0002554904727356,0.0001682973604358,-2.096707412042091e-07,-0.0006231545121408,0.0021910634823143,0.0005401005037128,-0.0001663211733102,0.009095124900341,-0.8656995892524719,0.5004811882972717,-0.0002846400776568,-0.0001415613707592,-0.0015848379883735,0.0050739049911499,0.0071762800216674,0.0177431106567382,0,0,0,0
25.2,1788177738921,0.0,0.0,-0.0007287876214832,0.0090976171195507,-0.8328263759613037,0.5534592270851135,1.5676238742527254e-05,-1.902319432618718e-05,-1.645635033989168e-07,-0.0007952855085022,0.0006541912443935,0.0001865270460257,-0.0001327004283666,0.0091212131083011,-0.8657049536705017,0.5004714131355286,0.0006106049262292,-0.0006708956471051,0.0003112137700339,0.0167928338050842,0.0163831710815429,-0.009103775024414,0,0,0,0
25.3,1788177739021,0.0,0.0,-0.000693375011906,0.0091222655028104,-0.8328476548194885,0.5534266829490662,-0.000104275888308,0.0001218961886322,-1.803053482935074e-07,-0.0007302099838852,0.0008601756999269,-0.0011910713510587,-0.0001120371744036,0.0091473720967769,-0.8657059669494629,0.5004693269729614,6.699101806990271e-05,0.0005323877468371,0.0023319042426272,-0.0149532556533813,-0.0013582110404968,-0.0039253234863281,0,0,0,0
25.4,1788177739121,0.0,0.0,-0.0006720039527863,0.0091251041740179,-0.8328336477279663,0.5534477829933167,1.8216936360233423e-05,-2.3361024307825388e-05,-2.095989503739467e-07,0.0001158498707809,0.0006402808940038,0.0001989721058635,-0.0001017414033412,0.0091577535495162,-0.865684986114502,0.5005053281784058,-0.0005654618246893,-4.897145522786134e-05,0.000992843225375,0.0265372991561889,-0.0139579176902771,0.0195569992065429,0,0,0,0
25.5,1788177739221,0.0,0.0,-0.0006713799666613,0.0091207977384328,-0.8328123688697815,0.5534797310829163,-1.0848847875920576e-05,1.2891275579786708e-05,-8.969168029863121e-07,0.000181546274689,-0.0002659455058164,-0.0001306178601225,-0.0001178905367851,0.0091234697028994,-0.8656933903694153,0.5004914402961731,0.000496739744183,-0.0014345224894089,-0.000384667097385,0.0242247581481933,0.0105190873146057,0.0176973342895507,0,0,0,0
25.6,1788177739321,0.0,0.0,-0.0007001522462815,0.0091048218309879,-0.8328114748001099,0.5534812808036804,4.399896960833701e-05,-5.217078267556744e-05,-4.374952541671466e-07,-0.0005115396343171,-0.0003164837835356,0.0004885654198005,-0.0001305928453803,0.0091248331591486,-0.8656811118125916,0.5005127191543579,0.0006932611067768,-0.0005045257921306,-0.0002191335135565,0.0064389705657958,0.0001764297485351,-0.0148200988769531,0,0,0,0
25.7,1788177739421,0.0,0.0,-0.0006781292613595,0.0090779932215809,-0.8328496217727661,0.5534244179725647,-0.0002019215654736,0.0002347300950468,-3.945587727520805e-07,0.0008770883432589,0.0008687338558956,-0.0023170316126197,-0.0001118006184697,0.0091061936691403,-0.865716278553009,0.5004521012306213,0.0004088404459541,4.710255961714299e-05,0.000854449297274,-0.0183393359184265,0.0132005810737609,0.0014619827270507,0,0,0,0
25.8,1788177739521,0.0,0.0,-0.0006778549868613,0.0090820537880063,-0.8328279256820679,0.5534569621086121,0.0001366071221744,-0.0001606750571339,-1.664780175144638e-07,0.0001258532283827,0.0002708784886635,0.0015662709483876,-0.0001144390553236,0.0091105764731764,-0.8657468557357788,0.500399112701416,-0.0007014454412534,0.0007039169470106,-0.003082160940398,0.0093865394592285,-0.0222659111022949,0.0178642272949218,0,0,0,0
25.9,1788177739621,0.0,0.0,-0.0006652548909187,0.0090884175151586,-0.8328822255134583,0.5533751249313354,7.139719646479622e-06,0.0004474622412507,-3.31105961463604e-07,-0.0001455223391531,0.001093532773666,-0.0022771435324102,-8.811522275209427e-05,0.0091152982786297,-0.8657587170600891,0.5003786087036133,0.0001628455792423,0.0011966567961273,-0.0006186230867204,-0.0129128694534301,0.0099847316741943,0.0075693130493164,0,0,0,0
26.0,1788177739721,0.0,0.0,-0.0006564427167177,0.0090919788926839,-0.8329111933708191,0.5533316135406494,-0.000112701848335,0.0001305580717771,-1.0931315078642641e-07,0.0001076410480891,5.204481203691103e-05,-0.0013016512384638,-8.085276931524277e-05,0.009131820872426,-0.8657650351524353,0.5003672242164612,-0.0001480647502586,0.0005883162383416,0.0016588493861973,-0.0068246722221374,0.0046239495277404,0.0043191909790039,0,0,0,0
26.1,1788177739821,0.0,0.0,-0.0006649862043559,0.0091063734143972,-0.8328791856765747,0.553379476070404,6.505904490963221e-05,-7.621919168479619e-05,-6.258695039334556e-07,-3.4890810638898984e-05,-0.0008606361225247,0.0007316067931242,-9.885989129543304e-05,0.0091573670506477,-0.8657544255256653,0.5003853440284729,-0.001361929062924,0.0007733374617254,-0.000545661537359,-0.0013317465782165,0.0165501832962036,-0.018559455871582,0,0,0,0
26.2,1788177739921,0.0,0.0,-0.0006882834713906,0.0091094132512807,-0.8328826427459717,0.5533742904663086,1.871311062272084e-05,-2.305664883286795e-05,-1.991845930941002e-07,4.942463056067936e-05,-0.0012057553976774,0.0002007423317991,-0.0001452304422855,0.009127952158451,-0.8657408952713013,0.5004091858863831,9.590235826475946e-05,-0.0004650167709539,-0.0010913692098959,0.0022109746932983,-0.0246759057044982,0.0127782821655273,0,0,0,0
26.3,1788177740021,0.0,0.0,-0.0007238457910716,0.0091083375737071,-0.8328818082809448,0.5533754825592041,5.054278061159306e-05,0.0004144117591361,5.907304329892668e-07,-0.0002991489309351,-0.0001980286615435,-0.0018885355675593,-0.000157855451107,0.0091374656185507,-0.865750789642334,0.5003920197486877,-9.81390154390321e-05,-5.119594051717804e-05,7.681234483860757e-11,-0.0125790834426879,0.0051733255386352,0.0091371536254882,0,0,0,0
26.4,1788177740121,0.0,0.0,-0.0007277932018041,0.0091104563325643,-0.8328817486763,0.5533754229545593,0.0,0.0,0.0,-5.4753301810706034e-05,-2.1339714294299483e-05,0.0,-0.0001608720049262,0.0091414330527186,-0.8657506704330444,0.500391960144043,-0.0001298766894854,1.6998247474738496e-06,-3.314980325484873e-12,-0.0139563679695129,0.0092030763626098,-0.0022716522216796,0,0,0,0
26.5,1788177740221,0.0,0.0,-0.0007321678567677,0.009117828682065,-0.8328817486763,0.5533754229545593,0.0,0.0,0.0,-0.0001532842434244,2.710349144763313e-05,-2.3866175524744904e-06,-0.0001627709716558,0.0091465320438146,-0.8657506704330444,0.500391960144043,-0.0001513629685583,2.9360269973103287e-05,-7.062924948685405e-11,0.0095562934875488,-0.0354053974151611,0.0100975036621093,0,0,0,0
26.6,1788177740321,0.0,0.0,-0.0007352649699896,0.0091244960203766,-0.832881510257721,0.5533755421638489,0.0,0.0,0.0,-0.0001804103376343,2.572554694779683e-05,1.1625313618424116e-06,-0.0001631854102015,0.0091577507555484,-0.8657474517822266,0.5003972053527832,-6.819177086707785e-05,0.0002312150130306,0.0004113947614894,0.0039536952972412,0.0082390904426574,0.012369155883789,0,64,-2679,2705
26.7,1788177740421,0.0,2.366197109222412,-0.0007550653535872,0.0091343559324741,-0.832796573638916,0.5535033345222473,0.0007782377970559,-0.0004471190823394,-2.54858105760671e-07,-0.0007373041589744,-0.0005540483980439,0.0065009794197976,-0.0004349872469902,0.009083773009479,-0.862743079662323,0.5055607557296753,-0.0022266438061795,-0.0058988982630456,0.3153788014207349,0.4273562431335449,0.5860067009925842,-0.0588016510009765,0,269,-28501,12906
26.8,1788177740521,0.0,3.3521127700805664,-0.0007614102214574,0.00960891880095,-0.8203282952308655,0.5718117356300354,0.0637698685114747,-0.0021470106515798,-9.733285856093904e-06,-0.0120815280824899,0.017635054886341,0.5241269469261169,-0.0001694411039352,0.009589672088623,-0.8509095311164856,0.5252247452735901,0.000666019323004,-0.0088630418078391,0.4980331683531934,-0.0451620221138,-0.0432209372520446,0.1233968734741211,0,129,-32767,11688
26.9,1788177740621,0.0,3.380281686782837,-0.0008214092813432,0.0097199250012636,-0.8056735396385193,0.5922795534133911,0.0628075414169285,-0.0016570633120923,6.099697245472201e-06,-0.010125171393156,-0.0018296866910532,0.526948869228363,-0.0002819625660777,0.0097089074552059,-0.8341001868247986,0.5515275001525879,-0.0001748720282495,-0.0108192253088452,0.5272856650047753,-0.0008457899093627,0.341570496559143,0.0444059371948242,0,109,-32767,10934
27.0,1788177740721,0.0,3.4084506034851074,-0.0010279971174895,0.0097750099375844,-0.7914823889732361,0.6111129522323608,0.0613559598246071,-0.0009608650827434,5.696726608359848e-06,-0.0089560309424996,-0.0068739126436412,0.5119657516479492,-0.0010096812620759,0.0096065551042556,-0.8215446472167969,0.570062518119812,-0.0064182691162922,-0.0453371236506857,0.4936897855887027,0.0846523642539978,0.4153257012367248,-0.267435073852539,0,105,-32767,10512
27.1,1788177740821,0.0,3.239436626434326,-0.0016847893130034,0.009600575082004,-0.7763429880142212,0.6302353143692017,0.0635103596432067,0.0031764402183334,-1.603747574133442e-06,-0.007735647726804,-0.0065879970788955,0.5208147168159485,-0.0013771783560514,0.0095339613035321,-0.8083349466323853,0.5886439681053162,-0.0035927923731315,-0.0084193633936414,0.5418274928851627,0.1224692463874816,0.0188701748847961,0.2770910263061523,0,111,-32767,10775
27.2,1788177740921,-4.2253522872924805,3.211267709732056,-0.0020910836756229,0.0099149458110332,-0.7563947439193726,0.6540369391441345,0.0353305628546498,0.0012065011643041,-3.472215236102142e-07,-0.0176224876195192,0.0037826050538569,0.6194156408309937,-0.001819098368287,0.0098585477098822,-0.7910177111625671,0.6117112040519714,-0.0185997096888409,-0.0211701111073107,0.8895956126707754,-1.738927125930786,0.5612685680389404,0.838902473449707,188,116,-16093,11045
27.3,1788177741021,-1.0140844583511353,0.7323943376541138,-0.0036669939290732,0.0089846923947334,-0.721304178237915,0.6925504803657532,-0.0071278888397275,-0.0058288042220874,5.618848675905653e-07,-0.0158987771719694,-0.0458350107073783,1.0652214288711548,-0.0032681254670023,0.0091194780543446,-0.7574223279953003,0.6528534889221191,-0.0027270206007458,-0.0006335493228397,0.3213928883054098,0.4358635544776916,-0.6253635883331299,0.0189790725708007,16,38,-512,0
27.4,1788177741121,0.0,0.0,-0.0038340454921126,0.0088775465264916,-0.7159124612808228,0.6981232166290283,0.0025528344740277,-0.0030616570413732,-6.451575254650865e-07,0.0004824631323572,-0.0010290249483659,-0.0322024635970592,-0.003287780098617,0.0091024758294224,-0.7586400508880615,0.6514380574226379,-0.0002500937686528,-0.0013722811006379,-0.0458404550351415,-0.110432744026184,0.0308654904365539,-0.1063880920410156,0,0,0,0
27.5,1788177741221,0.0,0.0,-0.0038346936926245,0.0088788764551281,-0.7165715098381042,0.6974465250968933,-0.0012903008721965,0.0018076994340453,-2.934004994651824e-07,0.0003746454895008,0.0003420996945351,-0.0127668660134077,-0.0032656509429216,0.0091201541945338,-0.7586414813995361,0.6514362692832947,-0.0006255939319728,0.0012847451091177,-0.000762111309639,-0.0998327732086181,-0.0111641883850097,0.0605220794677734,0,0,0,0
27.6,1788177741321,0.0,0.0,-0.0038333914708346,0.0088632274419069,-0.7165685892105103,0.6974498629570007,-1.7817946965623344e-06,-4.807159651692283e-08,-1.318494521929262e-08,0.0003671933664008,-0.0008256466244347,-2.970820059999824e-05,-0.003277932293713,0.0090646268799901,-0.7586261630058289,0.6514549255371094,7.626877152790665e-05,-0.0003344716107101,0.0017910015626872,-0.0179278850555419,0.0026981830596923,0.0214118957519531,0,0,0,0
27.7,1788177741421,0.0,0.0,-0.0038624512962996,0.0088065657764673,-0.7165470719337463,0.6974723935127258,4.685304148429669e-05,-5.599732170720092e-05,-6.900371567955824e-07,0.0003276114584878,-0.0013835993595421,0.0005223893676884,-0.0032802512869238,0.0090332757681608,-0.7586207389831543,0.651461660861969,0.0009716805680786,0.0014601558911335,-0.0009332981976248,0.0138581991195678,0.0147276520729064,0.0467405319213867,0,0,0,0
27.8,1788177741521,0.0,0.0,-0.003823070321232,0.0088279694318771,-0.7165554165840149,0.697463870048523,6.674745471208468e-06,-9.166550280517244e-06,-1.1949300615985165e-07,-9.455841791350394e-05,0.0008363245869986,0.0001027896141749,-0.0032610641792416,0.0090535525232553,-0.758618175983429,0.6514644622802734,0.0006033418643784,0.0010846931053555,0.0001291005850925,0.0163170099258422,0.0005281567573547,0.0197505950927734,0,0,0,0
27.9,1788177741621,0.0,0.0,-0.0038224959280341,0.0088061951100826,-0.7165586352348328,0.6974608302116394,0.0002026879162266,0.0002393447475684,-8.021055973936559e-07,0.0004126822168473,-0.0010147953871637,-0.000159708695719,-0.0032651228830218,0.0089865215122699,-0.7586371898651123,0.6514431834220886,0.0009521787940398,-0.0008313406327751,-0.0003998238790502,0.0279368162155151,0.0049431920051574,0.0269908905029296,0,0,0,0
28.0,1788177741721,0.0,0.0,-0.0038179003167897,0.0087640043348073,-0.7165839076042175,0.6974353790283203,-5.842678556019484e-05,6.985472868436134e-05,-3.341313400738871e-07,0.0003703472902998,-8.051553595578298e-05,-0.000673500704579,-0.0032322453334927,0.0089929560199379,-0.7586726546287537,0.6514019966125488,0.0009657438645162,0.0016260180199674,-0.0012787688555219,0.0011715292930603,0.0031757354736328,0.0092954635620117,0,0,0,0
28.1,1788177741821,0.0,0.0,-0.003774689277634,0.0087812822312116,-0.716620147228241,0.6973981857299805,-3.8741884310510426e-05,4.656127942601264e-05,-6.221009949356804e-07,0.0001186349618365,0.0005352605949155,-0.0004246548051014,-0.0032029589638113,0.0090062301605939,-0.7586879730224609,0.6513840556144714,0.0005818732008508,0.0008750885898896,-0.000879810694403,0.012229561805725,0.0003818869590759,-0.0208692550659179,0,0,0,0
28.2,1788177741921,0.0,0.0,-0.0037599068600684,0.0087898839265108,-0.7166206240653992,0.6973975896835327,3.56402462607269e-05,-4.185239942605467e-05,-5.023286738416896e-07,-9.758815576788038e-05,0.0003193076408933,0.0004245419404469,-0.0032090060412883,0.0089751910418272,-0.7586771249771118,0.6513970494270325,0.0018439283275299,-0.0020854029716454,0.000844928326528,0.0037165880203247,-0.0031863451004028,-0.009749412536621,0,0,0,0
28.3,1788177742021,0.0,0.0,-0.0037614917382597,0.0087437545880675,-0.7166087627410889,0.6974104046821594,5.995484983823954e-05,-6.925091873819543e-05,1.60321952767812e-07,0.0009244191460311,-0.000948526256252,0.0006789353792555,-0.0032015051692724,0.0089542660862207,-0.7586180567741394,0.6514663100242615,0.0009413084756894,-0.0006649273991422,0.0016996884049412,-0.0127833485603332,0.0045478343963623,0.0048704147338867,0,0,0,0
28.4,1788177742121,0.0,0.0,-0.0037806606851518,0.0087305521592497,-0.7165552377700806,0.6974654793739319,1.7387774498074494e-05,-2.3460350887392807e-05,-2.982004695360718e-07,-0.0004855632723774,-0.0011524161091074,0.0001842146157287,-0.0032211253419518,0.0089647183194756,-0.7586514353752136,0.6514272093772888,-9.750252573513196e-05,0.0009143424511835,0.0004876064875365,0.0031954050064086,0.0130696296691894,0.019719123840332,0,21,-1674,1690
28.5,1788177742221,0.0,2.422535181045532,-0.0039074569940567,0.0087205115705728,-0.7161834836006165,0.6978465914726257,0.0028260378327372,-0.0015455373674907,5.691387355616842e-08,-0.0030798756051808,-0.0047914995811879,0.0232828501611948,-0.0033594714477658,0.0089469905942678,-0.7539998292922974,0.6568050980567932,-0.0029753602163795,0.004324069858021,0.3508355799069061,0.264592170715332,0.5423474907875061,-0.023604393005371,0,261,-26894,12344
28.6,1788177742321,0.0,3.3521127700805664,-0.0041296328417956,0.0087787406519055,-0.7019931674003601,0.712117612361908,0.061408501103137,7.919197969296169e-05,8.763350443202476e-06,-0.0087238810956478,-0.0074890791438519,0.5135443210601807,-0.003761600703001,0.0089441612362861,-0.7361155152320862,0.6767863631248474,-0.0062436496078463,-0.006035065860587,0.5668761686049745,-0.0606096386909484,0.2648441195487976,-0.2650279998779297,0,102,-32767,11219
28.7,1788177742421,0.0,3.323943614959717,-0.0046777673996984,0.008422652259469,-0.68328857421875,0.7300847768783569,0.0580849318458068,-9.496246780042968e-05,2.052738011712249e-05,-0.0047613331116735,-0.0210692454129457,0.5103234648704529,-0.0042074099183082,0.0085445316508412,-0.7202346920967102,0.693665087223053,0.0024688273302655,-0.0115809237029544,0.5824998477776938,-0.0029462575912475,0.3236451745033264,0.0084505081176757,0,142,-32767,11284
28.8,1788177742521,0.0,3.2957746982574463,-0.0048533515073359,0.0081650083884596,-0.6620754599571228,0.7493770718574524,0.0565544009422099,-0.0029444277904065,9.515683788852952e-06,-0.0013679276453331,-0.0085527123883366,0.4946904480457306,-0.0043111089617013,0.008274151943624,-0.698881983757019,0.7151762247085571,0.0032950457191609,-0.0104500625611287,0.5110121587295996,-0.1111943125724792,-0.047413945198059,0.1518516540527343,0,137,-32767,11718
