time_s,timestamp_ms,wheel_vels__velocity_left,wheel_vels__velocity_right,odom__orient_x,odom__orient_y,odom__orient_z,odom__orient_w,odom__lin_x,odom__lin_y,odom__lin_z,odom__ang_x,odom__ang_y,odom__ang_z,imu__orient_x,imu__orient_y,imu__orient_z,imu__orient_w,imu__angvel_x,imu__angvel_y,imu__angvel_z,imu__acc_x,imu__acc_y,imu__acc_z,wheel_status__current_ma_left,wheel_status__current_ma_right,wheel_status__pwm_left,wheel_status__pwm_right
0.0,1788261527319,0.0,0.0,-0.006255405023694,7.031974382698536e-05,0.2586963474750519,0.9659384489059448,0.0,0.0,0.0,0.0,0.0,0.0,-0.0039396304637193,-0.0048480657860636,0.9174237847328186,0.3978623747825622,7.832872269984e-05,-0.0001476730883798,-2.2032517530212202e-10,-0.0014141798019409,-0.0123916268348693,-0.0127897262573242,0,0,0,0
0.1,1788261527419,0.0,0.0,-0.006255405023694,7.031974382698536e-05,0.2586963474750519,0.9659384489059448,0.0,0.0,0.0,0.0,0.0,0.0,-0.0039396304637193,-0.0048480657860636,0.9174237847328186,0.3978623747825622,7.832872269984e-05,-0.0001476730883798,-2.2032517530212202e-10,-0.0014141798019409,-0.0123916268348693,-0.0127897262573242,0,0,0,0
0.2,1788261527519,0.0,0.0,-0.006255405023694,7.031974382698536e-05,0.2586963474750519,0.9659384489059448,0.0,0.0,0.0,0.0,0.0,0.0,-0.0039396304637193,-0.0048480657860636,0.9174237847328186,0.3978623747825622,7.832872269984e-05,-0.0001476730883798,-2.2032517530212202e-10,-0.0014141798019409,-0.0123916268348693,-0.0127897262573242,0,0,0,0
0.3,1788261527619,0.0,0.0,-0.006255405023694,7.031974382698536e-05,0.2586963474750519,0.9659384489059448,0.0,0.0,0.0,0.0,0.0,0.0,-0.0039396304637193,-0.0048480657860636,0.9174237847328186,0.3978623747825622,7.832872269984e-05,-0.0001476730883798,-2.2032517530212202e-10,-0.0014141798019409,-0.0123916268348693,-0.0127897262573242,0,0,0,0
0.4,1788261527719,0.0,0.0,-0.006255405023694,7.031974382698536e-05,0.2586963474750519,0.9659384489059448,0.0,0.0,0.0,0.0,0.0,0.0,-0.0039396304637193,-0.0048480657860636,0.9174237847328186,0.3978623747825622,7.832872269984e-05,-0.0001476730883798,-2.2032517530212202e-10,-0.0014141798019409,-0.0123916268348693,-0.0127897262573242,0,0,0,0
0.5,1788261527819,0.0,0.0,-0.006255405023694,7.031974382698536e-05,0.2586963474750519,0.9659384489059448,0.0,0.0,0.0,0.0,0.0,0.0,-0.0039396304637193,-0.0048480657860636,0.9174237847328186,0.3978623747825622,7.832872269984e-05,-0.0001476730883798,-2.2032517530212202e-10,-0.0014141798019409,-0.0123916268348693,-0.0127897262573242,0,0,0,0
0.6,1788261527919,0.0,0.0,-0.006255405023694,7.031974382698536e-05,0.2586963474750519,0.9659384489059448,0.0,0.0,0.0,0.0,0.0,0.0,-0.0039396304637193,-0.0048480657860636,0.9174237847328186,0.3978623747825622,7.832872269984e-05,-0.0001476730883798,-2.2032517530212202e-10,-0.0014141798019409,-0.0123916268348693,-0.0127897262573242,0,0,0,0
0.7,1788261528019,0.0,0.0,-0.006255405023694,7.031974382698536e-05,0.2586963474750519,0.9659384489059448,0.0,0.0,0.0,0.0,0.0,0.0,-0.0039396304637193,-0.0048480657860636,0.9174237847328186,0.3978623747825622,7.832872269984e-05,-0.0001476730883798,-2.2032517530212202e-10,-0.0014141798019409,-0.0123916268348693,-0.0127897262573242,0,0,0,0
0.8,1788261528119,0.0,0.0,-0.006255405023694,7.031974382698536e-05,0.2586963474750519,0.9659384489059448,0.0,0.0,0.0,0.0,0.0,0.0,-0.0039396304637193,-0.0048480657860636,0.9174237847328186,0.3978623747825622,7.832872269984e-05,-0.0001476730883798,-2.2032517530212202e-10,-0.0014141798019409,-0.0123916268348693,-0.0127897262573242,0,0,0,0
0.9,1788261528219,0.0,0.0,-0.006255405023694,7.031974382698536e-05,0.2586963474750519,0.9659384489059448,0.0,0.0,0.0,0.0,0.0,0.0,-0.0039396304637193,-0.0048480657860636,0.9174237847328186,0.3978623747825622,7.832872269984e-05,-0.0001476730883798,-2.2032517530212202e-10,-0.0014141798019409,-0.0123916268348693,-0.0127897262573242,0,0,0,0
1.0,1788261528319,0.0,0.0,-0.006255405023694,7.031974382698536e-05,0.2586963474750519,0.9659384489059448,0.0,0.0,0.0,0.0,0.0,0.0,-0.0039396304637193,-0.0048480657860636,0.9174237847328186,0.3978623747825622,7.832872269984e-05,-0.0001476730883798,-2.2032517530212202e-10,-0.0014141798019409,-0.0123916268348693,-0.0127897262573242,0,0,0,0
1.1,1788261528419,0.0,0.0,-0.006255405023694,7.031974382698536e-05,0.2586963474750519,0.9659384489059448,0.0,0.0,0.0,0.0,0.0,0.0,-0.0039396304637193,-0.0048480657860636,0.9174237847328186,0.3978623747825622,7.832872269984e-05,-0.0001476730883798,-2.2032517530212202e-10,-0.0014141798019409,-0.0123916268348693,-0.0127897262573242,0,0,0,0
1.2,1788261528519,0.0,0.0,-0.006255405023694,7.031974382698536e-05,0.2586963474750519,0.9659384489059448,0.0,0.0,0.0,0.0,0.0,0.0,-0.0039343126118183,-0.004848307929933,0.9174237847328186,0.3978623747825622,5.2116288570585966e-05,-0.0001682442724683,-1.314626898459981e-10,-0.0142892599105834,0.0074410438537597,0.0056171417236328,0,0,0,0
1.3,1788261528619,0.0,0.0,-0.006255405023694,7.031974382698536e-05,0.2586963474750519,0.9659384489059448,0.0,0.0,0.0,0.0,0.0,0.0,-0.003926346078515,-0.0048495149239897,0.9174239039421082,0.397862434387207,4.5361801629282345e-05,-0.0002003057266218,-1.2508122697325918e-10,-0.0129064321517944,-0.0088607668876647,0.0255985260009765,0,0,0,0
1.4,1788261528719,0.0,0.0,-0.006255405023694,7.031974382698536e-05,0.2586963474750519,0.9659384489059448,0.0,0.0,0.0,0.0,0.0,0.0,-0.00391754694283,-0.0048514297232031,0.9174239039421082,0.397862434387207,5.9223175153881645e-05,-0.0001909597655552,-1.693974890925817e-10,0.0195264816284179,-0.024911344051361,-0.0212249755859375,0,0,0,0
1.5,1788261528819,0.0,0.0,-0.006255405023694,7.031974382698536e-05,0.2586963474750519,0.9659384489059448,0.0,0.0,0.0,0.0,0.0,0.0,-0.0039072446525096,-0.0048552481457591,0.9174239039421082,0.397862434387207,-4.3751711612499424e-05,-0.0001533442177755,-1.8193246887959008e-06,0.0032564401626586,-0.0043587684631347,-0.0088453292846679,0,0,0,0
1.6,1788261528919,0.0,0.0,-0.006255405023694,7.031974382698536e-05,0.2586963474750519,0.9659384489059448,0.0,0.0,0.0,0.0,0.0,0.0,-0.0039000483229756,-0.0048610800877213,0.9174239039421082,0.397862434387207,-5.313192012728453e-05,-0.0002225152668585,-1.9942182928333934e-06,0.0078988671302795,0.0422939658164978,0.0077171325683593,0,0,0,0
1.7,1788261529019,0.0,0.0,-0.006255405023694,7.031974382698536e-05,0.2586963474750519,0.9659384489059448,0.0,0.0,0.0,0.0,0.0,0.0,-0.0038893800228834,-0.0048665525391697,0.9174239039421082,0.397862434387207,9.2139201572766e-06,-0.0002958723980781,-1.992237952371353e-06,0.0015680789947509,0.0219751000404357,0.0163297653198242,0,0,0,0
1.8,1788261529119,0.0,0.0,-0.006255405023694,7.031974382698536e-05,0.2586963474750519,0.9659384489059448,0.0,0.0,0.0,0.0,0.0,0.0,-0.0038707880303263,-0.0048733493313193,0.9174239039421082,0.3978626132011413,2.147080581162225e-05,-0.0003283941285465,-3.9830919479819735e-06,-0.0115267634391784,0.0325918793678283,0.0226669311523437,0,0,0,0
1.9,1788261529219,0.0,0.0,-0.006255405023694,7.031974382698536e-05,0.2586963474750519,0.9659384489059448,0.0,0.0,0.0,0.0,0.0,0.0,-0.003859419375658,-0.0048768557608127,0.9174239039421082,0.3978626132011413,1.4128641802404692e-05,-0.0002187924503258,-1.9830129099872656e-06,-0.0197721123695373,0.0220037102699279,0.0145349502563476,0,0,0,0
2.0,1788261529319,0.0,0.0,-0.006255405023694,7.031974382698536e-05,0.2586963474750519,0.9659384489059448,0.0,0.0,0.0,0.0,0.0,0.0,-0.0038532055914402,-0.0048791468143463,0.9174239039421082,0.3978626132011413,1.734043271560377e-06,-0.0001156812449529,-3.178228993913043e-12,-0.028142511844635,-0.028146207332611,0.0063161849975585,1,0,0,0
2.1,1788261529419,0.0,0.0,-0.006255405023694,7.031974382698536e-05,0.2586963474750519,0.9659384489059448,0.0,0.0,0.0,0.0,0.0,0.0,-0.0038519334048032,-0.0048793181777,0.9174239039421082,0.3978626132011413,3.3016231598083624e-05,4.313210328104749e-05,2.137039126834033e-11,-0.0035437941551208,0.0110164284706115,0.0078229904174804,0,0,0,0
2.2,1788261529519,0.0,0.0,-0.006255405023694,7.031974382698536e-05,0.2586963474750519,0.9659384489059448,0.0,0.0,0.0,0.0,0.0,0.0,-0.0038548512384295,-0.0048754028975963,0.9174239039421082,0.3978626132011413,6.663819543900085e-05,0.0001137558030955,1.9074728932150013e-06,-0.002804696559906,0.0322595238685607,-0.0047025680541992,0,0,0,0
2.3,1788261529619,0.0,0.0,-0.006255405023694,7.031974382698536e-05,0.2586963474750519,0.9659384489059448,0.0,0.0,0.0,0.0,0.0,0.0,-0.0038581620901823,-0.0048674484714865,0.9174239039421082,0.3978626132011413,0.0001577266154623,0.0001371447705294,1.9886054395275675e-06,-0.0348929762840271,-0.0169006586074829,-0.0066728591918945,0,0,0,0
2.4,1788261529719,0.0,0.0,-0.006255405023694,7.031974382698536e-05,0.2586963474750519,0.9659384489059448,0.0,0.0,0.0,0.0,0.0,0.0,-0.0038617560639977,-0.0048530306667089,0.9174240231513976,0.3978626728057861,0.0002572767279353,0.0001413394077975,5.252798376542539e-10,0.0028220415115356,-0.0503401756286621,0.0116825103759765,0,0,0,0
2.5,1788261529819,0.0,0.0,-0.0061973128467798,1.273537054657936e-05,0.2586961686611175,0.9659388661384584,0.0,0.0,0.0,0.0001372358237858,8.605903713032603e-05,-1.1921598570552303e-06,-0.0038634361699223,-0.004840912297368,0.9174240231513976,0.3978626728057861,0.0002609907452281,0.0001567455896817,2.1995285582824265e-06,0.0028930902481079,-0.0074585080146789,0.0320453643798828,0,0,0,0
2.6,1788261529919,0.0,0.0,-0.0061926175840198,1.7666839994490147e-05,0.2586962282657623,0.9659388661384584,0.0,0.0,0.0,0.0002278035099152,0.0001391045370837,3.504766027617734e-06,-0.0038655661046504,-0.0048292251303792,0.9174241423606871,0.3978627324104309,0.0002052888301456,0.0001606271385396,1.985460203145891e-06,-0.0036432147026062,0.0342938899993896,-0.0233640670776367,1,0,0,0
2.7,1788261530019,0.0,0.0,-0.0061808740720152,3.422505687922239e-05,0.2586961984634399,0.9659389853477478,0.0,0.0,0.0,0.000279775209492,0.0002844332775566,-1.2051260682710565e-06,-0.0038718059659004,-0.0048170778900384,0.9174241423606871,0.3978627324104309,8.677116649735785e-05,0.0001888480784199,2.3057668545151714e-10,-0.0050874352455139,-0.0096650719642639,-0.0253067016601562,0,0,0,0
2.8,1788261530119,0.0,0.0,-0.00618034042418,4.180567339062691e-05,0.2586962580680847,0.965938925743103,0.0,0.0,0.0,0.0,0.0,0.0,-0.0038788896054029,-0.004813402891159,0.9174241423606871,0.3978627324104309,-1.658877227223269e-05,0.0001706718092033,1.9881257206178857e-06,-0.007066011428833,-0.0039042234420776,0.0150661468505859,0,0,0,0
2.9,1788261530219,0.0,0.0,-0.00618034042418,4.180567339062691e-05,0.2586962580680847,0.965938925743103,0.0,0.0,0.0,0.0,0.0,0.0,-0.0038873953744769,-0.004811736755073,0.9174241423606871,0.3978627324104309,-3.5279350185322335e-05,0.0002071849200806,1.9822245270977417e-06,0.017041802406311,0.0108270645141601,-0.0254287719726562,1,0,0,0
3.0,1788261530319,0.0,0.0,-0.00618034042418,4.180567339062691e-05,0.2586962580680847,0.965938925743103,0.0,0.0,0.0,0.0,0.0,0.0,-0.0038981111720204,-0.0048092845827341,0.9174241423606871,0.3978627324104309,-6.684767115335553e-05,0.0001640129072362,-1.643577825942933e-10,0.0059061050415039,-0.0051809549331665,0.0033988952636718,0,0,0,0
3.1,1788261530419,0.0,0.0,-0.00618034042418,4.180567339062691e-05,0.2586962580680847,0.965938925743103,0.0,0.0,0.0,0.0,0.0,0.0,-0.0039046499878168,-0.004809807986021,0.9174240231513976,0.3978626728057861,-6.71709292223906e-05,0.0001054279395119,-1.062387885078088e-10,0.0124448537826538,-0.0162058472633361,0.0462331771850585,0,0,0,0
3.2,1788261530519,0.0,0.0,-0.00618034042418,4.180567339062691e-05,0.2586962580680847,0.965938925743103,0.0,0.0,0.0,0.0,0.0,0.0,-0.003907797858119,-0.0048112832009792,0.9174240231513976,0.3978626728057861,-4.337754850102813e-05,3.224510527435376e-05,-1.921958366167592e-11,0.0015268325805664,0.0073752403259277,-0.016728401184082,0,0,0,0
3.3,1788261530619,0.0,0.0,-0.00618034042418,4.180567339062691e-05,0.2586962580680847,0.965938925743103,0.0,0.0,0.0,0.0,0.0,0.0,-0.0039094947278499,-0.0048128953203558,0.9174240231513976,0.3978626728057861,-5.206156392010448e-05,3.981451670375201e-05,-3.1091719227134306e-11,-0.0055885910987854,0.0109521746635437,0.0057058334350585,0,0,0,0
3.4,1788261530719,0.0,0.0,-0.00618034042418,4.180567339062691e-05,0.2586962580680847,0.965938925743103,0.0,0.0,0.0,0.0,0.0,0.0,-0.0039135003462433,-0.0048126811161637,0.9174240231513976,0.3978626728057861,-2.2255153705780213e-05,9.373188728099773e-05,-3.247359960203166e-11,-0.0212419629096984,-0.0161493420600891,0.0077142715454101,0,0,0,0
3.5,1788261530819,0.0,0.0,-0.00618034042418,4.180567339062691e-05,0.2586962580680847,0.965938925743103,0.0,0.0,0.0,0.0,0.0,0.0,-0.0039192708209156,-0.0048113754019141,0.9174240231513976,0.3978626728057861,-5.695701965519586e-06,0.0001401984085082,1.991928988403398e-06,0.0061970353126525,-0.0072052478790283,-0.0098896026611328,0,0,0,0
3.6,1788261530919,0.0,0.0,-0.00618034042418,4.180567339062691e-05,0.2586962580680847,0.965938925743103,0.0,0.0,0.0,0.0,0.0,0.0,-0.0039280829951167,-0.0048068473115563,0.9174240231513976,0.3978626728057861,3.043403727991205e-05,0.0001667014713622,1.867557695392197e-06,0.019095242023468,-0.0022992491722106,0.0082387924194335,0,0,0,0
3.7,1788261531019,0.0,0.0,-0.00618034042418,4.180567339062691e-05,0.2586962580680847,0.965938925743103,0.0,0.0,0.0,0.0,0.0,0.0,-0.0039327684789896,-0.0048035075888037,0.9174240231513976,0.3978626728057861,3.336225858584024e-06,0.0001039530788283,5.179538802487206e-12,-0.0029705762863159,0.0069377422332763,0.0224475860595703,0,0,0,0
3.8,1788261531119,0.0,0.0,-0.00618034042418,4.180567339062691e-05,0.2586962580680847,0.965938925743103,0.0,0.0,0.0,0.0,0.0,0.0,-0.003936419263482,-0.0048028994351625,0.9174240231513976,0.3978626728057861,-1.4806164920099734e-05,5.349275169914686e-05,-1.1807100304280872e-11,-0.0195232033729553,-0.0073750019073486,0.0177631378173828,0,0,0,0
3.9,1788261531219,0.0,0.0,-0.00618034042418,4.180567339062691e-05,0.2586962580680847,0.965938925743103,0.0,0.0,0.0,0.0,0.0,0.0,-0.0039371214807033,-0.0048046894371509,0.9174240231513976,0.3978626728057861,-6.298244490359442e-05,-3.983934421848612e-05,3.3801077024040476e-11,0.0211349129676818,0.0003063082695007,0.010563850402832,0,0,0,0
4.0,1788261531319,0.0,0.0,-0.00618034042418,4.180567339062691e-05,0.2586962580680847,0.965938925743103,0.0,0.0,0.0,0.0,0.0,0.0,-0.0039342017844319,-0.0048101833090186,0.9174240231513976,0.3978626728057861,-0.0001118959050327,-0.0001366612672574,2.3635093655666617e-10,-0.0136259198188781,0.004793643951416,-0.0344057083129882,0,0,0,0
4.1,1788261531419,0.0,0.0,-0.00618034042418,4.180567339062691e-05,0.2586962580680847,0.965938925743103,0.0,0.0,0.0,0.0,0.0,0.0,-0.0039278510957956,-0.0048199398443102,0.9174239039421082,0.3978626132011413,-0.0001409396958666,-0.0002287915215166,-1.8261529335053443e-06,-0.0058252811431884,-0.002247929573059,0.0008172988891601,0,0,0,0
4.2,1788261531519,0.0,0.0,-0.00618034042418,4.180567339062691e-05,0.2586962580680847,0.965938925743103,0.0,0.0,0.0,0.0,0.0,0.0,-0.0039173234254121,-0.0048343641683459,0.9174239039421082,0.3978626132011413,-0.0001070277971759,-0.0002752719183101,-1.9832757939452272e-06,0.0169883966445922,0.0118381977081298,-0.0033426284790039,0,0,0,0
4.3,1788261531619,0.0,0.0,-0.00618034042418,4.180567339062691e-05,0.2586962580680847,0.965938925743103,0.0,0.0,0.0,0.0,0.0,0.0,-0.0039056483656167,-0.0048420438542962,0.9174239039421082,0.3978626132011413,-1.593878633444149e-05,-0.0003129347981688,-1.98839096759308e-06,0.0217838883399963,-0.0212889313697814,0.0127277374267578,0,0,0,0
4.4,1788261531719,0.0,0.0,-0.00618034042418,4.180567339062691e-05,0.2586962580680847,0.965938925743103,0.0,0.0,0.0,0.0,0.0,0.0,-0.0038888519629836,-0.0048508588224649,0.9174239039421082,0.3978626132011413,-6.161966560270901e-05,-0.000299331037733,-1.9894609590748783e-06,-0.0105599761009216,0.0386945605278015,-0.0143585205078125,0,0,0,0
4.5,1788261531819,0.0,0.0,-0.00618034042418,4.180567339062691e-05,0.2586962580680847,0.965938925743103,0.0,0.0,0.0,0.0,0.0,0.0,-0.0038787201046943,-0.0048572681844234,0.9174239039421082,0.3978626132011413,-4.164019968066149e-05,-0.0002421133781862,-1.990120399478803e-06,-0.0231198668479919,-0.0407121777534484,0.0225200653076171,0,0,0,0
4.6,1788261531919,0.0,0.0,-0.00618034042418,4.180567339062691e-05,0.2586962580680847,0.965938925743103,0.0,0.0,0.0,0.0,0.0,0.0,-0.0038733333349227,-0.0048629436641931,0.9174239039421082,0.3978626132011413,-7.310160858469549e-05,-0.0001435767956292,1.451490878486083e-10,0.0206065773963928,-0.0386862754821777,0.0205001831054687,0,0,0,0
4.7,1788261532019,0.0,0.0,-0.00618034042418,4.180567339062691e-05,0.2586962580680847,0.965938925743103,0.0,0.0,0.0,0.0,0.0,0.0,-0.0038701016455888,-0.0048737088218331,0.9174239039421082,0.3978626132011413,-0.0001762793087213,-0.0001068401917914,-1.989466665676836e-06,0.0064955949783325,0.0146109461784362,-0.0084552764892578,0,0,0,0
4.8,1788261532119,0.0,0.0,-0.0062289214693009,-4.609581083059311e-06,0.2586960196495056,0.9659386277198792,0.0,0.0,0.0,-0.0024262396618723,-0.0013282718136906,-1.7789845514926128e-05,-0.0038685863837599,-0.0048829093575477,0.9174239039421082,0.3978626132011413,-0.0001724071595617,-0.0001058007038186,-1.887166451566764e-06,-0.0007494688034057,-0.017414391040802,-0.0195493698120117,0,0,0,0
4.9,1788261532219,0.0,0.0,-0.0062359687872231,-1.223292201757431e-05,0.258696049451828,0.9659385681152344,0.0,0.0,0.0,-0.0001721756270853,-0.0001184777283924,-5.956694622000214e-07,-0.0038671260699629,-0.0048921164125204,0.9174239039421082,0.3978626132011413,-0.0001709088378396,-0.0001270378354273,-1.991692074547872e-06,-0.0012471675872802,-0.0194136500358581,0.0110750198364257,0,0,0,0
5.0,1788261532319,0.2535211145877838,1.8028168678283687,-0.0062119592912495,-6.839144043624401e-05,0.2593710124492645,0.9657577872276306,0.0041557579370276,-0.0017426170516562,-5.525874022113345e-07,0.0002895370998885,-0.0025604688562452,0.0276501663029193,-0.0037920987233519,-0.0049174763262271,0.9176506996154784,0.3973396420478821,-0.0001074610701171,-0.0053388900740197,0.0366069512321889,0.9844682812690736,0.0328493118286132,0.0145549774169921,187,343,9608,11934
5.1,1788261532419,2.169013977050781,4.704225540161133,-0.0063193691894412,0.0002182262251153,0.2704327702522278,0.96271812915802,0.1068284318752446,-0.0031313025803091,1.084143448157104e-05,-0.0023483172990381,-0.0072609595954418,0.3204367756843567,-0.0045401770621538,-0.0048753041774034,0.9234844446182252,0.3835780024528503,-0.0166726848225387,0.027454433803445,0.3317910395452726,0.5136585831642151,0.3731474876403808,0.2656240463256836,84,216,9436,16382
5.2,1788261532519,3.802816867828369,6.957746505737305,-0.0065701785497367,0.0005306227831169,0.2932006418704986,0.9560282230377196,0.1669637964258806,0.000730152568507,-8.8408555436188e-05,-0.0015420309500768,0.0071351467631757,0.484845906496048,-0.004500089213252,-0.0048164296895265,0.9311125874519348,0.3646723628044128,0.0087357101252298,-0.0175222503700007,0.4809948087204,0.7111772894859314,0.1637714505195617,0.3371458053588867,89,159,11756,19099
5.3,1788261532619,3.690140962600708,6.563380241394043,-0.006953484378755,0.0008541233837604,0.3148544132709503,0.949114203453064,0.1664492453680187,0.0020977982007983,-6.215745084175043e-05,-0.0089711276814341,0.0042856489308178,0.4426066875457763,-0.0051597747951745,-0.0048330640420317,0.940761923789978,0.3389941453933716,-0.0033137655532725,-0.0003774239589554,0.5262871531037491,0.1127210855484008,0.1522178053855896,-0.3508110046386719,84,134,10420,18265
5.4,1788261532719,2.676056385040283,4.732394218444824,-0.0069202631711959,0.0010915114544332,0.3238933682441711,0.9460676312446594,0.166255729155276,0.0046218950411528,-3.611046478077497e-05,0.0038681032601743,0.0077292425557971,0.476954847574234,-0.0049029411748051,-0.0044666267931461,0.9474234580993652,0.3199137151241302,0.0099761712355248,-0.0149705955290051,0.4098037547174771,-0.7782570719718933,0.1635776162147522,-0.0291624069213867,17,21,6573,10818
5.5,1788261532819,0.9014084339141846,1.380281686782837,-0.0066181616857647,0.0012668210547417,0.3463945090770721,0.9380647540092468,0.0634398608770338,-0.0033860281533022,-8.955619066277131e-06,0.0026203757151961,0.0132412239909172,0.147604152560234,-0.0049813017249107,-0.0044169528409838,0.9502979516983032,0.3112708628177643,0.0027467481249311,-0.0021613952640652,0.125237927924395,-0.9001140594482422,0.1706729531288147,0.0923004150390625,24,21,1538,2090
5.6,1788261532919,0.0,0.0,-0.0064578619785606,0.0008776653558015,0.349385917186737,0.9369561672210692,-0.0006787815219562,-0.0013109879076537,-1.186391667670355e-06,-0.0003072957333642,-0.0106682954356074,0.0206879470497369,-0.0047069750726222,-0.0045259101316332,0.9511170983314514,0.3087615072727203,-0.0014804427221699,-0.0022313186683607,0.001836701069418,0.1490686535835266,-0.1250770092010498,0.0335645675659179,1,0,0,0
5.7,1788261533019,0.0,0.0,-0.0064742639660835,0.0008942245040088,0.3497479259967804,0.9368209838867188,-2.808338209264165e-05,-4.785417815243644e-05,4.678024084411042e-07,-0.0005144821479916,-0.0006057996070012,0.0043752659112215,-0.0047155050560832,-0.0045269662514328,0.951204478740692,0.3084920048713684,-0.0016147706340358,-0.00236746603511,-0.0079253707561113,0.0326054096221923,-0.0045686364173889,0.0175609588623046,4,0,0,0
5.8,1788261533119,0.0,0.0,-0.00651381816715,0.0009474570397287,0.3497422635555267,0.9368228912353516,0.0004674695404333,-0.0005436356873804,1.797476773674009e-07,0.0004363420302979,0.0028951021376997,0.0054647861979901,-0.0047705397009849,-0.0045067202299833,0.9512253403663636,0.3084270656108856,0.001207221830538,-0.0012544074472481,0.0036115256482422,0.0392136573791503,0.0241951942443847,0.0070276260375976,0,0,0,0
5.9,1788261533219,0.0,0.0,-0.0064896065741777,0.0009177974425256,0.3497512638568878,0.9368196725845336,3.3365244276279505e-05,-3.867087466923958e-05,-2.351015110804592e-07,0.0004843132046516,-0.0014321005437523,0.000371444155462,-0.0047732619568705,-0.0045142844319343,0.951212763786316,0.308465838432312,0.0002879309703017,0.0014769569590567,0.0006422654476991,0.0012411475181579,-0.028033435344696,0.0495405197143554,0,0,0,0
6.0,1788261533319,0.0,0.0,-0.006485866382718,0.0009387691970914,0.3497728705406189,0.936811625957489,3.23898343159786e-05,-3.757993391500256e-05,-2.2507017535547333e-07,-0.0003520562604535,-0.0014243886107578,0.0003635236935224,-0.0047857044264674,-0.0045059090480208,0.9512194991111756,0.3084450960159302,-0.0006289598649712,0.0012318486572907,-0.0021860048747898,0.0052994489669799,0.0062249898910522,0.0192718505859375,0,0,0,0
6.1,1788261533419,0.0,0.0,-0.0064740553498268,0.0009334050118923,0.3497754335403442,0.9368107318878174,6.726489243325399e-05,-7.832393078723051e-05,-4.730286846201512e-07,0.0004649793554563,-0.001646184711717,0.0007669235346838,-0.0047558080404996,-0.0044907610863447,0.9512316584587096,0.3084080219268799,0.0004723127368817,-0.0020819602813742,9.01948553268154e-05,0.0154972076416015,-0.015933334827423,0.0389328002929687,0,0,0,0
6.2,1788261533519,0.0,0.0,-0.0065229241736233,0.0009434767998754,0.3497325479984283,0.936826467514038,-7.22235626731233e-05,8.407591133938162e-05,5.139126929669883e-07,-0.0010203277925029,0.0009248880087397,-0.0008280812762677,-0.0047969985753297,-0.0045221829786896,0.9512196183204652,0.3084442317485809,-0.0004093180111674,0.000576524471242,0.000443121078398,-0.0289371013641357,0.0063312053680419,0.0567903518676757,1,0,0,0
6.3,1788261533619,0.0,0.0,-0.0065470347180962,0.0009070185478776,0.3497257828712463,0.9368287324905396,-9.454543202450552e-05,0.0001097420392476,-3.302537244311125e-07,-0.0014189580688253,-0.0002641080354806,-0.0010975267505273,-0.0047972919419407,-0.0045623695477843,0.9512179493904114,0.3084488213062286,-0.0002439997632208,0.0016621727918041,0.0004650625228604,-0.0147748589515686,0.0141384601593017,0.0005750656127929,4,0,0,0
6.4,1788261533719,1.4647886753082275,1.380281686782837,-0.0064524235203862,0.0006929722148925,0.3508340418338775,0.936415195465088,0.0092748337864273,-0.0012618025181631,4.566740956166923e-07,0.0006738281808793,-0.0098000736907124,0.0447684340178966,-0.0046221828088164,-0.0046275835484266,0.9514896869659424,0.3076110482215881,-0.0004099334997299,-0.010660403224092,0.0561627988531091,1.8661365509033203,0.3255296349525451,-0.0033473968505859,102,269,6256,11106
6.5,1788261533819,2.7323944568634038,4.478873252868652,-0.0064867753535509,0.0010808135848492,0.3601279854774475,0.9328797459602356,0.1153823165396529,0.0016100802970377,2.54151523707271e-05,0.0033990149386227,-0.0034049476962536,0.2327219247817993,-0.0045433593913912,-0.0044414112344384,0.9554383158683776,0.2951226532459259,0.0030559564294137,-0.019108146345258,0.2766006571456212,0.736591100692749,0.0324016213417053,0.1423254013061523,115,215,11393,15674
6.6,1788261533919,4.197183132171631,6.591549396514893,-0.0061243288218975,0.0007845014333724,0.366242378950119,0.9304989576339722,0.1469476834991429,0.0023883410883782,6.896903999575674e-05,0.0099700866267085,-0.0211462695151567,0.3123973309993744,-0.0043829316273331,-0.0039940616115927,0.9602208137512208,0.2791790664196014,0.0077370532575676,0.008214561402507,0.3962673143706585,-0.1641863584518432,-0.0828532576560974,0.5061416625976562,110,140,12224,17980
6.7,1788261534019,3.88732385635376,6.253520965576172,-0.0056224493309855,0.0009550615213811,0.3917717039585113,0.9200447797775269,0.1700992203808906,0.0031113811331839,1.528705492851263e-05,-0.0008757362375035,0.0027820512186735,0.3575592935085296,-0.0041303476318717,-0.0038551120087504,0.964670479297638,0.2633988559246063,-0.0045937322920107,-0.0009341502593259,0.3280916521356408,0.0108186602592468,0.160313069820404,-0.0353517532348632,98,109,12866,16413
6.8,1788261534119,4.394366264343262,5.97183084487915,-0.0052669332362711,0.0007797891739755,0.4070591032505035,0.913386344909668,0.1688183777089683,0.001647619731405,-2.5817203948332613e-06,-0.0035955710336565,-0.0008487240411341,0.2301297634840011,-0.003730546683073,-0.0036833258345723,0.96896630525589,0.2471374124288559,0.0011374369788423,-0.0220957772912419,0.2033949986746319,-0.1467686891555786,0.0265755653381347,0.2214021682739257,77,105,12376,15885
6.9,1788261534219,4.11267614364624,6.02816915512085,-0.0047621321864426,0.0009151265257969,0.4182690978050232,0.9083102345466614,0.1643003774516588,0.0050129092356532,2.5825521376039578e-06,0.0236536748707294,0.0005529344198293,0.2664008140563965,-0.003733498044312,-0.002939268015325,0.971835434436798,0.2356127500534057,0.0345336566888184,0.0102587688595141,0.2758061150175916,0.156880497932434,-0.0517329573631286,0.0591802597045898,131,87,13334,15965
7.0,1788261534319,4.2253522872924805,5.88732385635376,-0.0047655263915658,0.0012400330742821,0.4280438721179962,0.9037445187568665,0.1658222442683952,0.0066560285427327,-0.000121212334636,-0.0084237968549132,0.0203914046287536,0.2133284956216812,-0.0038169315084815,-0.0029847091063857,0.9742210507392884,0.2255435436964035,0.0071130503016,-0.0237900752767183,0.2452287063894599,0.3034639954566955,-0.1259849667549133,0.2355489730834961,117,107,12992,16632
7.1,1788261534419,4.0,5.88732385635376,-0.0049260128289461,0.0011452207108959,0.4388040006160736,0.8985686302185059,0.1773386730602683,0.0010639623874047,-7.404799070448194e-05,-0.008762577548623,0.0192268919199705,0.264272928237915,-0.0040032258257269,-0.0033142222091555,0.97743159532547,0.2111880481243133,-0.0123700327746731,-0.0004905822286586,0.2532834083168954,0.2429415583610534,0.102835476398468,-0.5121850967407227,76,138,13356,16526
7.2,1788261534519,3.690140962600708,6.197183132171631,-0.0050226007588207,0.001206308719702,0.4517958760261535,0.8921063542366028,0.1724686495649252,0.0036268031658742,3.2702911558789687e-06,-0.0040134354494512,-0.0003473258111625,0.2586754858493805,-0.0040144175291061,-0.0031763147562742,0.9798433184623718,0.1997018158435821,0.0077227390437171,-0.0146741847011691,0.3175615513081438,0.069090187549591,0.2082312703132629,0.6191110610961914,58,141,12151,17769
7.3,1788261534619,3.6619718074798575,6.2253522872924805,-0.0053581055253744,0.0014806088292971,0.4679277241230011,0.88374924659729,0.166953994046455,0.0045358953820774,0.0001123511942741,-0.0028108512051403,-9.839044651016592e-05,0.384514570236206,-0.0044906698167324,-0.003276489675045,0.9831209778785706,0.1828722655773162,-0.0031504720467482,0.0568667525847837,0.3913750056093244,-0.1264992356300354,-0.1374390721321106,-0.4334421157836914,123,111,12259,17393
7.4,1788261534719,4.14084529876709,6.0,-0.0051007233560085,0.0012375480728223,0.4826468229293823,0.8757993578910828,0.1675772919831525,0.0017831093986972,3.861847879674101e-06,0.0078044976107776,0.001293763751164,0.3617873787879944,-0.0040940903127193,-0.0032141832634806,0.9859633445739746,0.1668808311223983,0.0109495351644724,-0.0088216524711324,0.3479961331187325,0.1687315106391906,0.0394899845123291,-0.0730133056640625,134,43,13395,15840
7.5,1788261534819,4.2816901206970215,5.85915470123291,-0.0048833447508513,0.0009810898918658,0.4939944744110107,0.8694507479667664,0.1713523449168221,-0.0021312672214012,-1.123974761427704e-05,-0.0008702577324584,-0.0122109064832329,0.243938460946083,-0.0039412258192896,-0.0032649496570229,0.9884194135665894,0.1516603082418441,-0.0088309463460838,-0.0021333356405483,0.2390090959435847,-0.1237006187438964,-0.181715726852417,0.1446123123168945,90,132,13326,15790
7.6,1788261534919,4.478873252868652,5.746479034423828,-0.0048419088125228,0.0010084509849548,0.5041031241416931,0.8636293411254883,0.1693854495145229,0.0052440470831859,3.5839958270864115e-05,0.0029998226091265,-0.0054659289307892,0.171889990568161,-0.0036668675020337,-0.003181142732501,0.9897892475128174,0.1424560099840164,0.0083588406136987,-0.0177613154091986,0.1449687449663889,0.0087515115737915,-0.1552420258522033,-0.2154474258422851,52,173,11608,17035
7.7,1788261535019,4.422535419464111,6.056337833404541,-0.0042591425590217,0.0007619682000949,0.5156883001327515,0.8567653298377991,0.175369071847848,0.0042527781716671,-1.6984409390410222e-05,0.0099790534004569,-0.0126516483724117,0.2929291725158691,-0.0032733231782913,-0.002833804115653,0.9920406937599182,0.1258431673049926,0.0064074776384584,-0.0174659230317317,0.2888978737763403,0.1357743740081787,0.0655251145362854,-0.1646347045898437,79,107,12102,15922
7.8,1788261535119,4.535211086273193,5.690140724182129,-0.0041571361944079,0.0008492214838042,0.5261504054069519,0.8503810167312622,0.168752165626875,0.0033593146583654,2.2075015625371143e-05,0.0027207082603126,-0.0071309730410575,0.2542582750320434,-0.0030710659921169,-0.0027433075010776,0.9934056997299194,0.1145784854888916,0.0034294641293443,-0.0195790044367813,0.2404278176609422,0.2644571661949157,-0.0375618338584899,0.0383682250976562,144,65,14026,14571
7.9,1788261535219,4.535211086273193,5.464788913726807,-0.0040304213762283,0.0006068329093977,0.5324865579605103,0.8464286923408508,0.168408373186775,0.0003377910099473,1.2002682032093431e-05,0.0058437651023268,-0.0069712093099951,0.1340636014938354,-0.0029498944059014,-0.0027672043070197,0.9940620064735411,0.1087404116988182,0.006844796662493,-0.0122315173507828,0.162263427946229,0.1876248717308044,0.122968316078186,-0.0723133087158203,108,135,13875,15685
8.0,1788261535319,4.619718074798584,5.605633735656738,-0.0037239629309624,7.56214139983058e-05,0.5386686325073242,0.8425095081329346,0.1707309836081491,-0.0001574139891858,2.635605843531123e-05,0.0027348853182047,-0.0167261566966772,0.1238824650645256,-0.002470139414072,-0.0030647711828351,0.9948900938034058,0.100887507200241,-0.0195433114354406,-0.0112523014656516,0.1214715161112177,0.2589457631111145,0.236930251121521,-0.0656871795654296,74,83,13415,15144
8.1,1788261535419,4.14084529876709,6.02816915512085,-0.0047849784605205,0.0002749790437519,0.5439491271972656,0.8391045331954956,0.1726101836142591,0.0036160327990927,-3.700725010615553e-05,-0.0089719938114285,0.0163484066724777,0.1626349985599517,-0.0029743984341621,-0.0035024192184209,0.9955069422721864,0.0945773646235466,0.0023168766307295,-0.0044013342303015,0.1635735800314546,-0.129435122013092,-0.0156799554824829,0.3828449249267578,80,134,12655,16498
8.2,1788261535519,3.94366192817688,6.422535419464111,-0.0052725323475897,0.0003573521971702,0.5561885237693787,0.8310393691062927,0.1661838928615124,0.004053773803374,5.824628871592919e-05,-0.0130264787003397,0.0063804290257394,0.3582856059074402,-0.0037879040464758,-0.0039468398317694,0.9967970848083496,0.0797852277755737,-0.0214343940109872,0.0461346681418064,0.3931244066301758,-0.2614240050315857,0.1180360913276672,0.5518589019775391,72,105,11084,17247
8.3,1788261535619,4.366197109222412,5.915493011474609,-0.0056298081763088,0.0006928446236997,0.566804051399231,0.8238331079483032,0.1731093486668059,-0.0002437564607507,3.6401713305112745e-06,-0.0046384925954043,0.0129340887069702,0.3913118243217468,-0.0039572017267346,-0.0044547319412231,0.9981417059898376,0.0606444664299488,-0.0133529533802427,0.0123986054915691,0.2178085381440708,-0.5023870468139648,-0.2217061519622802,-0.1937704086303711,71,124,12466,16279
8.4,1788261535719,4.169013977050781,5.85915470123291,-0.0063110254704952,0.0006926555652171,0.5817341804504395,0.8133541345596313,0.1686932186473507,0.0016548019364343,-2.179556455729784e-05,0.0010771400993689,0.0210614707320928,0.257671445608139,-0.0045854765921831,-0.0044806478545069,0.9987710118293762,0.0491477847099304,0.0089357028595867,0.0382313235278386,0.2747744922959841,0.1101837754249572,-0.1467840671539306,-0.0818080902099609,125,122,13110,16679
8.5,1788261535819,4.2253522872924805,5.915493011474609,-0.0061214854940772,0.000457496382296,0.5919871926307678,0.8059239983558655,0.1688592363976905,0.0024379829349186,-4.547972245851865e-06,0.0055977781303226,-0.0067339362576603,0.2685245275497436,-0.0041638389229774,-0.0045104678720235,0.9992846846580504,0.0373161807656288,0.0078330137830523,-0.016515203284409,0.2762190432493778,0.127413809299469,0.2722341418266296,-0.260171890258789,105,111,12817,16508
8.6,1788261535919,4.169013977050781,5.88732385635376,-0.0060967984609305,-0.0003486298955976,0.6015895009040833,0.7987821102142334,0.1663540848990013,0.0030559678943894,-8.519197946907752e-06,-0.0041075907647609,-0.0137590561062097,0.259694755077362,-0.0037769014015793,-0.005092347972095,0.9997355937957764,0.0221040621399879,-0.007805465701071,0.0146097126205054,0.275515936316048,-0.1834123730659485,0.0417116284370422,0.4835748672485351,121,115,13027,16664
8.7,1788261536019,3.94366192817688,5.830986022949219,-0.0061460360884666,-0.0001709458883851,0.6116794943809509,0.7910817861557007,0.1671013903449357,0.0041972058374437,3.74300058784706e-05,0.0002902711858041,-0.0054829320870339,0.2310461103916168,-0.003703024238348,-0.0047626132145524,0.9999244809150696,0.0107070347294211,0.0145380671052277,0.0125136467900659,0.2418080519086365,-0.1063086986541748,-0.266864001750946,0.1621103286743164,112,120,13796,16705
8.8,1788261536119,4.11267614364624,5.915493011474609,-0.0056611732579767,-0.0005692422855645,0.6229236721992493,0.782261848449707,0.1699388400954656,0.0025671802543663,4.978464930251096e-05,0.0043775741942226,-0.0075562889687716,0.2658804059028625,0.0030911536887288,0.0047493511810898,-0.9999833703041076,0.001064027659595,0.0096670105177382,-0.0026202384949351,0.2747736318341094,-0.0434747338294982,0.0446503162384033,0.1503067016601562,56,114,13016,16456
8.9,1788261536219,4.366197109222412,5.605633735656738,-0.004947364795953,-0.0009194276062771,0.6314132213592529,0.7754302024841309,0.17198312069293,-0.0013473099574008,7.290659144431663e-05,0.0035901281516999,-0.0279759056866168,0.1568640619516372,0.0025463635101914,0.004346240311861,-0.9999001622200012,0.013205012306571,0.0094825596670725,0.0068477448735701,0.0932407078064622,-0.049619436264038,-0.2078647017478943,-0.1407146453857422,91,62,14840,14779
9.0,1788261536319,4.394366264343262,5.605633735656738,-0.0046952394768595,-0.0006415974348783,0.6356474757194519,0.7719649076461792,0.1684598352979103,0.0018866482129249,7.015513142525491e-05,0.0085410084575414,-0.0044448743574321,0.1375135630369186,0.0024280864745378,0.0039862841367721,-0.9998047947883606,0.0192026514559984,0.0098610828670345,0.0184101562518957,0.1590721728667379,-0.2821331620216369,0.0893553495407104,-0.0268402099609375,71,82,14207,15179
9.1,1788261536419,4.901408672332764,5.098591327667236,-0.0033225412480533,-0.0008941720006987,0.6421144008636475,0.766601026058197,0.1712936633473374,-0.0011125230739887,5.426323941182776e-05,0.0236480515450239,-0.0215431693941354,0.1702261716127395,0.0013202149420976,0.0031527075916528,-0.9996359944343568,0.0267629660665988,0.0056565651407877,-0.0281830791787951,0.1535364337565504,0.3137982487678528,0.2954956889152527,0.0374708175659179,121,102,15093,14501
9.2,1788261536519,5.070422649383545,5.070422649383545,-0.002955931937322,-0.0007577736396342,0.6428502798080444,0.7659857273101807,0.171743661981598,-0.0020375596477169,-5.127529991881296e-07,0.0170622058212757,-0.0140579948201775,0.0216450598090887,0.0012475326657295,0.0026579424738883,-0.9996181726455688,0.0274770110845565,0.012233376414103,-0.0314080310415314,0.0084155980214144,0.0248354077339172,0.1062926054000854,0.0254554748535156,109,83,15275,13875
9.3,1788261536619,4.816901206970215,5.211267471313477,-0.0030833906494081,-0.0006971585098654,0.6435564160346985,0.7653921246528625,0.1677986667373453,-0.001257358658105,8.204788254815245e-07,-0.0023957160301506,0.0050338963046669,0.0369159281253814,0.0014024227857589,0.0028641149401664,-0.9995885491371156,0.0285066459327936,-0.0003748616278254,0.0246327965962012,0.058783910670884,-0.1704444885253906,-0.036345362663269,0.1777420043945312,110,123,14754,14828
9.4,1788261536719,4.816901206970215,5.211267471313477,-0.0027937754057347,-0.0008349326672032,0.6453192234039307,0.7639074325561523,0.1737949816043286,0.0005487822211231,1.3267306341266e-05,0.005239640828222,-0.0125771909952163,0.0370691679418087,0.0011408003047108,0.0026469957083463,-0.999517261981964,0.0309336017817258,0.0111409442839872,-0.022074158770205,0.047658436837285,-0.0752223134040832,-0.00128173828125,0.2180957794189453,79,118,14970,14652
9.5,1788261536819,4.901408672332764,5.126760482788086,-0.0025787004269659,-0.0009565901127643,0.6470330357551575,0.762457013130188,0.1671999296522978,0.0038757926896758,2.8928629096698543e-06,0.0005217217840254,-0.000877694285009,0.0277399998158216,0.0008838661015033,0.0027111331000924,-0.9994152188301086,0.0340751521289348,-0.0047557054749484,0.0043495139855125,0.0446223133692848,-0.1303156018257141,-0.1719706654548645,-0.0905685424804687,97,132,14469,14881
9.6,1788261536919,4.788732528686523,5.323943614959717,-0.0023085898719727,-0.0012148702517151,0.6519066691398621,0.7582947611808777,0.1752570801125112,0.0026616541990033,1.23931963512843e-05,0.0033599112648516,-0.0089157950133085,0.1535359174013137,0.0004531191661953,0.002558909356594,-0.9992148280143738,0.0395337752997875,0.0022401216109381,-0.0139350036838667,0.1642124883705733,0.0697020292282104,0.0385823249816894,0.2246837615966797,85,84,14876,14306
9.7,1788261537019,5.070422649383545,5.098591327667236,-0.002017633523792,-0.001501333899796,0.6535453200340271,0.7568832039833069,0.1678696922257976,0.000163925640582,2.605949439734576e-05,-0.0007082434021867,-0.0072807543911039,0.025606770068407,-3.674812614917755e-05,0.002539942972362,-0.9991306662559508,0.0416126251220703,-0.004339021820532,-0.0123933768849,0.0329555429919546,-0.0940144658088684,0.1936976909637451,-0.1200065612792968,96,111,15195,13717
9.8,1788261537119,4.788732528686523,5.239436626434326,-0.0019556391052901,-0.0017234093975275,0.6535487771034241,0.756879985332489,0.1651507667762125,-0.0041782945875961,4.922373744678344e-07,0.0,-4.6519774699049785e-09,0.0,-0.0005024159327149,0.0024503068998456,-0.9991288781166076,0.0416565872728824,-0.0056119930081791,-0.0375120395392008,0.0061796324928966,-0.2075251340866089,0.0287089347839355,-0.0966396331787109,96,113,14981,14674
9.9,1788261537219,4.450704097747803,5.633802890777588,-0.0013594168704003,-0.0023159515112638,0.6568816900253296,0.7539889812469482,0.1682550112030748,0.0044014717783739,8.275382414613675e-05,-0.0115212248638272,-0.0242318660020828,0.1302139312028885,-0.0009093042463064,0.002537596039474,-0.9988889694213868,0.0470482967793941,-0.006896085804813,0.0039664034547506,0.1716943136603804,-0.1154544949531555,-0.2270585298538208,0.0512294769287109,88,123,13624,15557
10.0,1788261537319,4.478873252868652,5.605633735656738,-0.0013295628596097,-0.0028525376692414,0.6641235947608948,0.7476162314414978,0.1686246884735129,0.003361462660478,-1.74294052650946e-05,-0.0033754860050976,-0.0002489461330696,0.1706715226173401,-0.0012228852137923,0.0027444716542959,-0.9984792470932008,0.0550477914512157,-0.0015318692860359,0.0129932899920346,0.1710406504326554,0.0178599953651428,0.1573841571807861,-0.3367900848388672,100,108,13913,15425
10.1,1788261537419,4.309859275817871,5.943662166595459,-0.0011708436068147,-0.003595967311412,0.6698288917541504,0.7425058484077454,0.1705244975026385,0.0024610375554283,9.11301092820822e-05,-0.0136460550129413,-0.0226207077503204,0.154063269495964,-0.0021683657541871,0.0031631682068109,-0.9979058504104614,0.0645698308944702,-0.0085417631538982,-0.0068075072275399,0.2011975815275972,-0.2201767563819885,0.0520595908164978,-0.0891323089599609,40,183,11928,16873
10.2,1788261537519,4.169013977050781,5.915493011474609,-0.0009487840579822,-0.0037714373320341,0.6795254945755005,0.7336416244506836,0.1665343443763477,0.0033986593868832,1.5440658424420655e-05,0.0008674121927469,-0.0008715144940651,0.2895188927650451,-0.0025758687406778,0.0030670072883367,-0.996979296207428,0.0775648951530456,0.0089185071993452,-0.0105741221951811,0.2647864331230786,0.0342447757720947,-0.2723007798194885,-0.3017911911010742,94,121,12932,16558
10.3,1788261537619,4.2816901206970215,5.77464771270752,-0.0006118400488048,-0.0042007891461253,0.6879125237464905,0.7257811427116394,0.1611752222148676,0.0033035232816435,6.712761577380811e-06,-0.0106238992884755,0.0065401410683989,0.2412090301513672,-0.0028755767270922,0.0031805038452148,-0.9960704445838928,0.0884611904621124,-0.0251242188414311,0.0257851169780538,0.2349619868879763,0.0516598224639892,0.1320741772651672,-0.1335268020629882,87,154,12723,17013
10.4,1788261537719,4.535211086273193,5.464788913726807,-0.0005585618782788,-0.0045669660903513,0.6957446336746216,0.7182745337486267,0.1706864175135622,0.0013287839788759,5.633357599879962e-05,-0.00991190969944,-0.0076073473319411,0.1322368830442428,-0.0035433992743492,0.0032492252066731,-0.9950377345085144,0.0993825495243072,-0.0018607304955019,-0.010541544829179,0.0986342850965992,-0.0197917819023132,-0.3324308395385742,0.4736013412475586,84,109,14038,15393
10.5,1788261537819,4.563380241394043,5.521126747131348,-0.0007974851178005,-0.0044311038218438,0.7005174160003662,0.7136211395263672,0.1704766607140943,0.0011883806239206,7.617404125258718e-05,0.0011826314730569,0.0027517217677086,0.1440560668706894,-0.0029073087498545,0.0033924961462616,-0.994430124759674,0.1053034141659736,-0.0025460570760577,0.0314777944369959,0.1546998304843139,-0.1697428226470947,0.1803009510040283,0.1097688674926757,129,119,13826,15635
10.6,1788261537919,4.563380241394043,5.549295902252197,-0.0004733311943709,-0.0045964242890477,0.7029836177825928,0.7111910581588745,0.1626530749569945,0.0013881961404285,2.4349610671126497e-05,0.0059263142757117,-0.0170304961502552,0.1647282540798187,-0.0032961042597889,0.0031418371945619,-0.99360990524292,0.1127767786383628,0.0106161469516878,-0.0125123236537487,0.1682534016131737,0.0009625554084777,0.0072802901268005,-0.5764913558959961,96,102,13842,15534
10.7,1788261538019,4.676056385040283,5.464788913726807,-0.0005585243925452,-0.0046344250440597,0.7112134695053101,0.7029606103897095,0.1703045912896459,0.0016590118364799,-6.320934742844075e-05,-0.001610346022062,0.0042178933508694,0.1545844972133636,-0.0030513610690832,0.0033711260184645,-0.9925332069396972,0.1218905746936798,-0.0035689758150604,0.0134590068947429,0.1703991453025783,-0.2022227048873901,0.213361382484436,-0.1416358947753906,94,132,13490,15940
10.8,1788261538119,4.507042407989502,5.492957592010498,-0.0007520127110183,-0.0041597848758101,0.7177780270576477,0.6962591409683228,0.1716426760484241,0.0002619842554855,-6.134919271627128e-05,0.0071447724476456,0.0073028267361223,0.1720238775014877,-0.0028031356632709,0.0031681945547461,-0.9915501475334167,0.1296547204256057,0.0064778129707044,-0.01382196128637,0.1773395640100275,0.1252296566963195,0.103799283504486,0.2833757400512695,87,111,13900,15696
10.9,1788261538219,4.929577350616455,5.267605781555176,-0.0012632430298253,-0.0038274815306067,0.7209525108337402,0.6929727792739868,0.1720035209617705,-0.0015729004559494,-6.765077745728821e-05,0.0013101771473884,0.0142503129318356,0.0428261570632457,-0.0022550756111741,0.0033078379929065,-0.9909507632255554,0.1341658234596252,0.0062251403359945,0.012309684290705,0.047293412700929,-0.0484925508499145,0.0082387924194335,0.2905349731445312,89,105,14808,14278
11.0,1788261538319,4.985915660858154,5.211267471313477,-0.0011932516936212,-0.0035895002074539,0.7218891978263855,0.6919983625411987,0.175711205809469,0.0026481278913456,2.465627040855978e-05,0.0052010654471814,-0.0046354350633919,0.0247097555547952,-0.001749319024384,0.0031582945957779,-0.9907065629959106,0.1359685063362121,0.0044042174261521,-0.0008317139768873,0.0258859479331507,0.0828847289085388,0.0004366636276245,0.0397100448608398,121,106,14357,14600
11.1,1788261538419,4.760563373565674,5.211267471313477,-0.0018902763258665,-0.0030039292760193,0.7231771945953369,0.6906534433364868,0.1739563822658065,-0.0009084365823481,2.157121027801212e-07,0.0001995448837988,0.0073397266678512,0.0325363762676715,-0.0010035168379545,0.0033921543508768,-0.9905021786689758,0.1374518275260925,0.0003747536902184,0.0155604873328157,0.0471822206551301,0.097868800163269,0.0314756631851196,0.0776176452636718,100,109,15071,14624
11.2,1788261538519,4.873239517211914,5.183098793029785,-0.0026414927560836,-0.001614355132915,0.7249372005462646,0.6888080835342407,0.17270811760258,0.000151438982085,-2.1002934549021327e-05,0.0094113433733582,0.016991090029478,0.0442993268370628,0.0008270014077425,0.0030693933367729,-0.9901196360588074,0.1401892453432083,0.0085621970118233,0.0368513979768541,0.0480493282449273,0.0645878911018371,-0.0421314239501953,-0.2501754760742187,82,90,14730,14671
11.3,1788261538619,5.098591327667236,5.267605781555176,-0.0034226439893245,-0.0011723019415512,0.7264754176139832,0.6871829032897949,0.170081163208842,0.0033230891104571,-5.529632865671046e-05,-0.006678741890937,0.0163938701152801,0.0641772449016571,0.001288547180593,0.0034290142357349,-0.9898162484169006,0.1423043310642242,-0.0050939681832927,-0.001307587387589,0.0697927938756733,0.246407151222229,0.3129138350486755,-0.1316671371459961,97,106,13696,14559
11.4,1788261538719,4.957746505737305,5.267605781555176,-0.0040292022749781,-0.0004689880879595,0.7275810837745667,0.6860096454620361,0.1658183990478688,0.003964977748222,-6.264956038505725e-05,0.0044588851742446,0.0448206514120101,0.0787939429283142,0.0023546107113361,0.0032389843836426,-0.9893794059753418,0.1453014016151428,0.0137519182707955,0.014616324920631,0.0532576019071423,-0.2403983473777771,-0.2801640629768371,-0.0310010910034179,98,93,14334,14346
11.5,1788261538819,4.873239517211914,5.267605781555176,-0.0054307947866618,-8.097314275801182e-05,0.7299835085868835,0.6834431886672974,0.1686026803175072,0.0003321129557366,1.2894506065966876e-06,-0.0128412256017327,0.0250575821846723,0.0433352291584014,0.0037149274721741,0.0043121241033077,-0.9890203475952148,0.147669643163681,0.0018196722037713,0.0305047106276127,0.054806973270997,-0.0901380181312561,-0.0371043682098388,0.2213048934936523,112,104,14669,14556
11.6,1788261538919,5.126760482788086,5.295774459838867,-0.0066324416548013,0.0009396157693117,0.7317931056022644,0.6814939975738525,0.1754082148261215,0.0002535614851753,-6.241889434873098e-05,-0.0068327873013913,0.0301032569259405,0.0423593074083328,0.0051702503114938,0.0048051113262772,-0.9886794090270996,0.1498772799968719,-0.0125254938751952,0.0435129302242233,0.0471635174128262,-0.1752211451530456,0.0686309337615966,0.2126960754394531,90,105,13667,14382
11.7,1788261539019,5.211267471313477,5.042253494262695,-0.0071503808721899,0.001065906137228,0.7321382164955139,0.681117832660675,0.1674604902846553,-0.0011587433680009,8.698905253092972e-07,0.0,0.0,0.0,0.0056381896138191,0.0052878241986036,-0.988610565662384,0.1502978652715683,-0.0074011439186587,2.672536681324676e-05,-0.0209032748498817,-0.1309894919395446,0.1034609675407409,0.5264167785644531,93,105,14400,14074
11.8,1788261539119,5.014084339141846,5.070422649383545,-0.0075151557102799,0.0011981655843555,0.7321895360946655,0.6810583472251892,0.1732768591692473,-0.0024823256894978,9.520094716532233e-08,-0.0076032821089029,0.0178379882127046,0.0039508272893726,0.0060158530250191,0.0052300812676548,-0.9886279106140136,0.150171473622322,0.0080092792211417,0.0018126584436258,0.0008588301348852,0.0235902070999145,-0.2525317668914795,-0.0641040802001953,120,97,15235,13933
11.9,1788261539219,5.183098793029785,5.070422649383545,-0.0079012289643287,0.0014394789468497,0.7318731546401978,0.681393563747406,0.16760754688472,0.0018387148428694,-2.736829611321073e-07,0.0,0.0,0.0,0.0056703584268689,0.0053590843454003,-0.9886666536331176,0.1499245464801788,-0.0080455082971296,-0.043063917141535,0.0184198364037093,0.1524729132652282,-0.1425527930259704,0.2148504257202148,91,121,14368,14032
12.0,1788261539319,5.042253494262695,4.985915660858154,-0.0073497463017702,0.0010953184682875,0.7325382232666016,0.6806854009628296,0.1713989035161028,0.0004624315820802,4.854531519978679e-07,0.0061547504737973,-0.0109434649348258,0.0162440445274114,0.0054123103618621,0.0050643570721149,-0.9885579347610474,0.1506590396165847,0.0090044694637851,-0.0044367222512726,0.0054756740114875,-0.2116629481315612,0.1466023921966552,-0.0374116897583007,80,116,15069,14362
12.1,1788261539419,4.732394218444824,5.380281925201416,-0.0072072045877575,0.0009526507928967,0.7325795292854309,0.6806425452232361,0.1725685457799561,0.0023153657231841,7.921327094390765e-07,0.0,0.0,0.0,0.0046504950150847,0.0049393707886338,-0.9882827401161194,0.1524835973978042,0.0023966065539991,-0.0211622841490241,0.1255707908847005,-0.2175867557525634,0.3573698401451111,0.3114347457885742,30,170,12505,16403
12.2,1788261539519,5.211267471313477,5.126760482788086,-0.0067667784169316,0.0006053112447261,0.73506098985672,0.6779670715332031,0.1704793408780125,0.0025475237747399,9.968031638335367e-05,0.0011826794361695,-0.0286970883607864,0.1821996718645095,0.0044608572497963,0.0047291815280914,-0.9876502156257628,0.1565404236316681,0.0012435789920571,0.0120294064407397,-0.0120497729550054,-0.1799448132514953,-0.1056174635887146,-0.0472822189331054,132,52,14598,13427
12.3,1788261539619,5.070422649383545,5.042253494262695,-0.0060324729420244,0.0002673182170838,0.7362254858016968,0.6767093539237976,0.1708200443391868,0.0006756656429844,7.517042913041053e-07,0.0,0.0,0.0,0.0039122775197029,0.0044799903407692,-0.9878339171409608,0.1553991287946701,0.0083288051227261,-0.0065467538634692,-0.0154295312739172,-0.1557813882827758,-0.0676900744438171,0.0015811920166015,83,89,14903,14024
12.4,1788261539719,4.929577350616455,5.183098793029785,-0.0054925866425037,-0.0002392805181443,0.7357842922210693,0.6771937012672424,0.1651581906584585,0.0001592399348536,-5.322161138846792e-07,0.0,0.0,0.0,0.0030384780839085,0.0039559481665492,-0.9878674149513244,0.1552198529243469,0.033388835733739,0.0118242731901503,0.0208011149487806,0.0122357606887817,0.1317735314369201,-0.5600500106811523,98,88,15349,13678
12.5,1788261539819,5.211267471313477,4.985915660858154,-0.0046154023148119,-0.0002070614136755,0.7354235053062439,0.6775919795036316,0.1662362849747274,-0.001700172506092,2.8220553935936445e-05,0.0155509607866406,-0.0085667120292782,-0.0194086153060197,0.0022217519581317,0.0036990353837609,-0.9880092144012452,0.1543344259262085,-0.0032283688354507,-0.0316194392716673,-0.0311629985371522,0.2342361807823181,0.0349714756011962,0.0836038589477539,100,69,15700,13082
12.6,1788261539919,5.211267471313477,4.8450703620910645,-0.0039538042619824,-0.000777191366069,0.733695924282074,0.6794660687446594,0.1637872330531387,-0.0014428344850401,1.2569240767669227e-05,0.0018570513930171,-0.0100576737895607,-0.041205771267414,0.0021143220365047,0.0033194301649928,-0.9883807897567748,0.1519470512866974,0.0288864091372402,0.0076945893390806,-0.0420580262635256,-0.0275365710258483,-0.18862384557724,-0.2607946395874023,130,113,15545,13716
12.7,1788261540019,5.014084339141846,4.816901206970215,-0.0030726678669452,-0.0007208483293652,0.7326534390449524,0.6805945634841919,0.1678803913981925,-0.0037267323815383,-3.439830525216576e-05,0.0070765516720712,0.006578174419701,-0.0083356713876128,0.0011765230447053,0.0034380415454506,-0.9885908365249634,0.1505825519561767,-0.0040077577728552,-0.0145188987095623,0.0063578480036472,0.133560836315155,-0.3638238310813904,-0.1586732864379882,84,135,14899,15097
12.8,1788261540119,5.014084339141846,5.042253494262695,-0.0034795505926012,-0.0011020058300346,0.7330454587936401,0.6801698207855225,0.1699437276703647,-0.0010510028435476,1.0007370012536824e-05,0.0032377447932958,-0.0031800859142094,0.0111411856487393,0.0013286815956234,0.0036254888400435,-0.9884076714515686,0.1517743468284607,-0.0171630627743684,0.0139176933598983,0.0196750268716758,0.0989456176757812,0.1344532370567321,-0.0745353698730468,107,122,15219,14317
12.9,1788261540219,4.985915660858154,5.267605781555176,-0.0037283669225871,-0.001703025191091,0.7339274883270264,0.6792154312133789,0.1696856618938566,0.0014225266637971,-4.369356427210607e-05,-0.015775104984641,-0.0074172439053654,0.0349925011396408,0.0009838072583079,0.0039790878072381,-0.9882737994194032,0.1526376903057098,-0.0027545915508302,-0.0411515781253059,0.033833096346685,0.1011574864387512,-0.0656790733337402,0.1270418167114257,94,103,14215,14736
13.0,1788261540319,4.873239517211914,5.239436626434326,-0.0040410184301435,-0.0016746101900935,0.7347010374069214,0.6783769130706787,0.162628498882008,0.0015695677497855,-4.39284184427083e-05,-0.0094250114634633,0.0119183231145143,0.055652305483818,0.0012916214764118,0.0043265027925372,-0.9878655672073364,0.1552455872297287,-0.0043073928457997,0.0353334196179696,0.0664817503959892,-0.0905472040176391,0.0608637928962707,-0.2448940277099609,115,120,14510,14628
13.1,1788261540419,4.985915660858154,5.211267471313477,-0.0039820056408643,-0.0017773329745978,0.7373655438423157,0.6754800081253052,0.1616777823650635,0.0011651874097819,4.458743621229721e-05,-0.0039841108955442,-0.0019697027746587,0.0361636094748973,0.0008639125153422,0.0042450325563549,-0.9874207973480223,0.1580553948879242,-0.0061335611098172,-0.007262859103985,0.0368827701548276,0.1479071974754333,-0.1014491915702819,-0.1008443832397461,120,101,14364,14738
13.2,1788261540519,4.816901206970215,5.211267471313477,-0.0036556096747517,-0.0022283024154603,0.7389891743659973,0.6737037301063538,0.1729377278297192,-0.0001501437238922,6.095479977120408e-05,-0.0012861463474109,-0.0145161170512437,0.0579990223050117,0.0005271313712,0.0042486395686864,-0.98710298538208,0.1600293070077896,0.0033271831853602,-0.0042405466715904,0.0558748107065411,-0.0238256454467773,-0.0521883368492126,-0.3614892959594726,94,95,14862,14536
13.3,1788261540619,4.8450703620910645,5.098591327667236,-0.0034520130138844,-0.0019680019468069,0.7404478788375854,0.6721020936965942,0.1716959540735847,-0.0006662369828025,-4.566680648279655e-05,0.0041840383782982,0.0020952301565557,0.0385440625250339,0.0006109727546572,0.0039364695549011,-0.9866893291473388,0.1625681221485138,0.0004443842073878,-0.0154363856907599,0.0416086498518455,0.1681349873542785,-0.1138277649879455,0.1189804077148437,80,118,14730,14868
13.4,1788261540719,4.957746505737305,5.295774459838867,-0.0036025452427566,-0.001805022242479,0.7423222064971924,0.6700310707092285,0.1691427352638534,0.0020861539065216,2.3353434391566823e-05,0.0007377569563686,-0.0033487069886177,0.0698708891868591,0.0006246520206332,0.0037746634334325,-0.9861740469932556,0.1656688898801803,0.0137888849307579,-0.0162455291428682,0.0807894388841342,-0.1243197321891784,0.0634045600891113,-0.2998723983764648,102,83,14285,14420
13.5,1788261540819,4.732394218444824,5.211267471313477,-0.0028693771455436,-0.0020032590255141,0.7440695762634277,0.6680929660797119,0.1726234224181869,0.0005463909059096,3.064984815016816e-05,0.0058082230389118,-0.0144382389262318,0.0446262247860431,0.0004351418465375,0.0035511720925569,-0.9858339428901672,0.1676860451698303,-0.002934626907632,0.0161346684619279,0.0374609567245696,-0.2974193096160888,-0.2161805629730224,0.2586574554443359,85,122,15125,14606
13.6,1788261540919,4.929577350616455,5.098591327667236,-0.0025999003555625,-0.0021135960705578,0.7457757592201233,0.666188657283783,0.174232499143243,-0.0026944980683306,-1.7056339921806937e-05,-0.0061479536816477,-0.0083818389102816,0.0451897755265235,2.5818124413490292e-05,0.0034032920375466,-0.9853434562683104,0.1705480217933654,-0.0063187601953377,0.0014308339376876,0.0489190471656556,-0.065330684185028,-0.374200165271759,-0.0343704223632812,83,120,14431,14975
13.7,1788261541019,4.535211086273193,5.211267471313477,-0.0025679096579551,-0.001495343632996,0.7477933764457703,0.6639248728752136,0.1704682983324572,-0.0002979666839782,-9.129182090386758e-05,0.013758816756308,0.0268088467419147,0.0616116300225257,0.000275082886219,0.0030015660449862,-0.9848967790603638,0.1731162816286087,-0.0055338034957683,0.0006874203106972,0.0456586595055696,0.3487047553062439,0.1939478516578674,0.3633098602294922,120,119,16028,14598
13.8,1788261541119,5.014084339141846,5.295774459838867,-0.0025706135202199,-0.0015287797432392,0.7478400468826294,0.6638723015785217,0.1722258767606731,0.0010192912943597,1.889128240212004e-06,-0.0013430974213406,-0.0010187209118157,0.0035104912240058,0.0006830692291259,0.0029855743050575,-0.9847465753555298,0.1739679127931594,-0.0053558597700276,0.0076909963294529,0.0177095491779506,-0.3389633893966675,-0.2281885147094726,0.2716226577758789,66,108,14125,14273
13.9,1788261541219,2.619718313217163,4.0,-0.0024700020439922,-0.0011591778602451,0.7491801381111145,0.6623606085777283,0.1667547197433754,-0.0002251460986236,-3.853386093524389e-05,0.0121425623074173,0.0011345467064529,0.0489224344491958,0.0012171072885394,0.0023255553096532,-0.9841691851615906,0.1772119700908661,0.013702960068564,0.0336404589342603,0.1084008276825963,-0.8098252415657043,0.3490523099899292,-0.0136919021606445,4,32,3701,9688
14.0,1788261541319,0.0,2.676056385040283,-0.0030985991470515,-0.0005473755300045,0.758945643901825,0.651146411895752,0.0581214035162115,-0.0034583142859059,6.183994530202568e-06,0.0004881598579231,-0.0015651526628062,0.3427448570728302,0.00151555147022,0.0027785636484622,-0.9815811514854432,0.1910193115472793,-0.0045147749741193,0.0076330155113934,0.4295105419058349,-0.9162072539329528,0.1984779238700866,0.1929302215576172,78,65,-2982,7791
14.1,1788261541419,-2.08450698852539,1.6619718074798584,-0.0027760625816881,-0.0007126965792849,0.7744053602218628,0.632683277130127,0.005709525907633,-0.0062618411016127,4.095355580835938e-07,0.0004482815566007,-0.0020998041145503,0.5285015106201172,0.0011675087735056,0.0026175146922469,-0.976988673210144,0.2132721990346908,-0.0005379191323715,-0.0089129935946393,0.5379801058439149,-0.5094083547592163,0.1707376837730407,0.2005548477172851,111,119,-8022,6721
14.2,1788261541519,-1.5211267471313477,1.6056338548660278,-0.002749569248408,-0.0008527549216523,0.7903739809989929,0.6126177906990051,-0.0005331861227726,-0.0053411353572194,-1.129697702645153e-07,-0.0044554201886057,-0.0057333530858159,0.5734859108924866,0.0010222578421235,0.0026723630726337,-0.9712606072425842,0.2380015403032302,-0.0062315469709077,-0.0135906357740331,0.5661127740503692,-0.0236008167266845,0.0661461949348449,0.12725830078125,26,46,-6032,5446
14.3,1788261541619,-1.380281686782837,1.436619758605957,-0.0028378996066749,-0.0012127402005717,0.8041329979896545,0.5944414138793945,0.0026494428480123,-0.0037004719321682,1.5109213820919989e-06,-0.0060251546092331,-0.0003446247137617,0.4009370803833008,0.000907976180315,0.003064683638513,-0.9644750356674194,0.2641548216342926,-0.006238805825167,0.0075797210302754,0.3914261313944303,-0.0305387377738952,0.0761893391609191,-0.0307912826538085,138,178,-6720,6527
14.4,1788261541719,-1.7464789152145386,1.6901408433914185,-0.0029362444765865,-0.0012870114296674,0.8186939358711243,0.5742211937904358,0.0017463980668137,-0.007256471890465,1.0646270963326357e-07,-0.0011411214945837,-0.0065601826645433,0.4819115996360779,0.0008294209837913,0.0030963299795985,-0.9588732719421388,0.2838163673877716,-0.0011203513429401,-0.0105227684825058,0.4938437048187436,-0.045552372932434,0.0149615406990051,0.0405349731445312,83,97,-6100,5725
14.5,1788261541819,-1.3521126508712769,1.4929577112197876,-0.0030139142181724,-0.0013294875388965,0.8316132426261902,0.5553454160690308,0.0025169664103881,-0.0055419396745485,5.522477197301999e-07,-0.0024818847887218,0.001636994886212,0.4398539662361145,0.000872285105288,0.0032158307731151,-0.9507163166999816,0.3100444078445434,-0.0026735604640717,0.0048142933275723,0.4157872859389895,-0.0874271988868713,0.0232433080673217,0.0331497192382812,110,138,-7291,6132
14.6,1788261541919,-1.211267590522766,1.0985915660858154,-0.0030485019087791,-0.0013953638263046,0.8412381410598755,0.5406543612480164,0.0023081037694105,-0.0040699456152978,3.030557947254441e-07,-0.0030354110058397,-0.0042082532308995,0.3619527816772461,0.0007510343566536,0.0032545728608965,-0.9454556703567504,0.3257336318492889,-0.0022620443732203,-0.0051478665393261,0.3374621914133975,-0.0344435572624206,-0.1246970295906066,-0.0017070770263671,75,105,-5265,5303
14.7,1788261542019,-1.0985915660858154,1.183098554611206,-0.0028319675475358,-0.0016897534951567,0.8507844805717468,0.5255044102668762,0.0004937385635129,-0.0023369106165476,-4.728765838478028e-07,-0.0047453762963414,-0.0061647500842809,0.3727653324604034,0.0004104515537619,0.0032819844782352,-0.939907729625702,0.3414126634597778,-0.0047946909589109,-0.0045153620783987,0.3433926520174615,0.0175169706344604,-0.1426631808280944,0.0559616088867187,105,131,-5725,5218
14.8,1788261542119,-1.042253494262695,1.2394366264343262,-0.0029364293441176,-0.001867834245786,0.8606654405593872,0.5091589093208313,0.0007997666246782,-0.0036354353020932,6.308638575150161e-07,-0.0040676575154066,0.0016539311036467,0.3295794427394867,0.000359003432095,0.0034972000867128,-0.9327345490455629,0.3605467975139618,-0.0037079044997849,0.0025882904811032,0.3485609390730294,0.0382218360900878,0.156751811504364,-0.1088495254516601,91,90,-6288,5340
14.9,1788261542219,-1.408450722694397,1.211267590522766,-0.0029788385145366,-0.0020835483446717,0.8699630498886108,0.4931033849716186,0.0004738177786117,-0.0017407093489672,2.1939057196044413e-08,-0.0053150495514273,-0.005724377464503,0.3971190452575683,0.0001440867781639,0.0036334265023469,-0.9263142943382264,0.3767341375350952,-0.0056260200381548,-0.0029230000653972,0.3789136369313896,0.0538819432258605,-0.1761621236801147,-0.0320777893066406,86,117,-4817,5094
15.0,1788261542319,-1.0704225301742554,0.7323943376541138,-0.0028712307102978,-0.0022913357242941,0.8739537596702576,0.485995203256607,0.0025027808594696,-0.0048031050675155,1.848704743205504e-06,-0.0066928784362971,-0.0106071745976805,0.3880971074104309,-0.0002431133762001,0.0037442939355969,-0.919981062412262,0.3919449746608734,-0.0056084240204518,-0.006187602449492,0.3574032345305219,0.0698158144950866,-0.1867124438285827,0.0613574981689453,16,73,-3013,4232
15.1,1788261542419,0.0,1.0140844583511353,-0.0027427535969763,-0.0026272295508533,0.8810263276100159,0.4730520248413086,0.0036199086576826,-0.0046468444281996,1.3613637253783783e-06,-0.0039956578984856,-0.0052470583468675,0.2302026450634002,-0.0002751993015408,0.0038940133526921,-0.915981650352478,0.4012013077735901,-0.0038825249104266,0.0100176210748345,0.1097317770129449,-0.2235552072525024,-0.4571478366851806,0.0774574279785156,2,7,0,0
15.2,1788261542519,1.0140844583511353,1.6338027715682983,-0.0026048389263451,-0.0028039026074111,0.8845162987709045,0.466493546962738,0.0191586631105665,0.0018113302062226,7.405593427025501e-06,-0.000410429900512,-0.007917957380414,0.0538191199302673,-0.0005819639191031,0.0037729209288954,-0.9149980545043944,0.4034403264522552,0.0020747268501888,-0.003324012955163,0.1830509961720836,1.6199203729629517,0.3168449401855469,0.1244268417358398,181,297,8189,11128
15.3,1788261542619,3.070422649383545,4.591549396514893,-0.0034545625094324,-0.0023755452129989,0.8884747624397278,0.4589063227176666,0.1252464481185558,0.0002796432012593,-1.7599254964312154e-05,0.0045690634287893,0.0201680269092321,0.1655548214912414,0.0002867989242076,0.0041826982051134,-0.9117816686630248,0.4106538593769073,0.0052043363192672,0.027243114203847,0.1636294639012091,0.8705164194107056,0.0996291041374206,0.1327571868896484,166,242,13270,15467
15.4,1788261542719,4.535211086273193,6.253520965576172,-0.0034737216774374,-0.0024021873250603,0.8903481364250183,0.4552606344223022,0.1606799792246505,0.0020110749946924,2.2878424339747863e-06,-0.001888343016617,-0.0004806419601663,0.190603420138359,0.0006288029253482,0.0041379705071449,-0.9075130224227904,0.420003205537796,0.0111831809920701,0.0105779728948523,0.2665136545123588,-0.0261297225952148,0.2400569915771484,-0.2272205352783203,91,104,13095,16766
15.5,1788261542819,4.11267614364624,6.02816915512085,-0.0035378905013203,-0.0021623838692903,0.8992084860801697,0.4375007450580597,0.1688824955491538,0.0033809143023715,5.58878939764364e-05,0.0002198118163505,-0.0077997460030019,0.2713946104049682,0.0006496412679553,0.004019247367978,-0.9007188677787781,0.4343835413455963,0.0166751032785281,0.0241124245043802,0.2754671466929979,-0.0793161392211914,-0.1254385113716125,-0.2732305526733398,74,78,13122,15996
15.6,1788261542919,4.507042407989502,6.0,-0.0027787091676145,-0.0018298251088708,0.9054163694381714,0.4245118200778961,0.1700687087979313,0.0028049552495269,3.84961841470828e-05,0.0112346811220049,-0.0140514271333813,0.2561932802200317,0.0004853522405028,0.0033984761685132,-0.8955528736114502,0.4449418485164642,0.0136540768288811,0.0140639554124677,0.2472825244513757,-0.0680408477783203,-0.0388986468315124,-0.7179765701293945,80,113,11787,15984
15.7,1788261543019,4.647887229919434,5.464788913726807,-0.0016796856652945,-0.0017760040936991,0.9098601937294006,0.4149078726768493,0.1756882426279089,-0.0005549352586073,9.94157002939107e-05,0.0168441701680421,-0.0184940975159406,0.1899588406085968,-0.0003509102389216,0.0022286660969257,-0.8900331854820251,0.4558902382850647,0.0146439088509692,0.0095617835200998,0.1356495215169809,-0.2313604354858398,0.1168471574783325,-0.0010662078857421,98,96,13558,15187
15.8,1788261543119,4.535211086273193,5.521126747131348,-0.0006689743604511,-0.0016270737396553,0.9124881625175476,0.4090992212295532,0.1751500435994915,0.0014141516182423,7.361795453488688e-05,0.0097855674102902,-0.0242014955729246,0.1411099731922149,-0.0005503604188561,0.0016914559528231,-0.8871721625328064,0.4614351689815521,0.0009334861228159,0.0251644552671039,0.1313920351986366,-0.2856540083885193,-0.1470504999160766,-0.0822219848632812,88,117,13704,15307
15.9,1788261543219,4.591549396514893,5.633802890777588,-0.0002522500290069,-0.0018661830108612,0.91562157869339,0.4020368456840515,0.1691286840080504,-0.0015842811530841,-4.7619570579415685e-06,0.0024230633862316,-0.0100006777793169,0.1651183068752288,-0.0013753557577729,0.0013203527778387,-0.8838567733764648,0.4677536785602569,0.0023709952642667,-0.0351431776476793,0.202711449410129,0.2495883703231811,0.3523837924003601,0.3107671737670898,88,83,13349,15074
16.0,1788261543319,4.507042407989502,5.492957592010498,0.0001144660636782,-0.0019093186128884,0.9188202023506165,0.3946716785430908,0.1676308442927348,-0.0008404446832973,4.447836142489164e-05,-1.3972708984510971e-05,0.0046935346908867,0.1336559653282165,-0.0014353469014167,0.0013439767062664,-0.8799336552619934,0.4750925302505493,-0.0257339192134778,0.0412622077641624,0.0954300825996844,-0.0015219449996948,-0.0923905372619628,-0.1411151885986328,89,92,13782,15386
16.1,1788261543419,4.788732528686523,5.633802890777588,8.802692173048854e-05,-0.0023958550300449,0.9212668538093568,0.3889235854148865,0.1734178685794778,0.0026121745716554,-1.854009089126388e-05,-0.0070091700181365,-0.0122117968276143,0.1442265957593917,-0.0018700128421187,0.001539179123938,-0.8769813776016235,0.4805183410644531,-0.0063886740186608,-0.0210227250619983,0.1392977230289399,0.150478720664978,0.2272148728370666,-0.3319206237792969,84,118,12742,15233
16.2,1788261543519,4.676056385040283,5.295774459838867,-0.0011564785381779,-0.0030233857687562,0.9238046407699584,0.3828505277633667,0.1661055481737855,0.0023885266954756,-4.200532950755851e-05,-0.0237268730998039,0.0205163471400737,0.134845033288002,-0.0016116006299853,0.0027838507667183,-0.8739643692970276,0.4859794378280639,-0.0116943821217583,0.0394796264381166,0.1358608051125072,-0.2648974061012268,-0.0508490800857543,-0.490966796875,117,81,15388,14271
16.3,1788261543619,4.957746505737305,5.267605781555176,-0.0014764721272513,-0.0033159172162413,0.9246332049369812,0.3808415532112121,0.1721252874405367,-0.0018303542948095,5.226264808202841e-05,-0.0029187474865466,-0.0013388377847149,0.0281504597514867,-0.0015413025394082,0.0033092014491558,-0.8728856444358826,0.4879113137722015,-0.004407941635365,0.0293828431445425,0.0304789986161658,-0.2987432479858398,0.0521736145019531,-0.6754817962646484,55,128,14411,14510
16.4,1788261543719,5.042253494262695,5.183098793029785,-0.0016274593072012,-0.0035939156077802,0.9256963729858398,0.3782469630241394,0.1684270346031728,0.0022592618995841,-4.222997546943132e-05,-0.009396662004292,0.0116581972688436,0.0508833900094032,-0.0017970465123653,0.003568192012608,-0.8716135621070862,0.4901773035526275,-0.0112493555437753,0.0044360902170713,0.0595302716332408,0.0984584689140319,-0.0941261649131774,-0.0975770950317382,108,139,13864,14897
16.5,1788261543819,4.929577350616455,5.295774459838867,-0.0018294835463166,-0.0038521757815033,0.9268993139266968,0.3752857446670532,0.1672775709115884,-0.0002821675743814,2.867664941632006e-06,-0.0070454045198857,0.0005181562155485,0.0650877878069877,-0.0018800739198923,0.003827741369605,-0.8701689839363098,0.4927350282669067,-0.0081550344637097,0.0009051454921566,0.06391784632045,-0.1885049939155578,-0.072718858718872,0.6606483459472656,112,93,14525,14383
16.6,1788261543919,5.183098793029785,4.957746505737305,-0.001767304027453,-0.0039326599799096,0.9271312355995178,0.3747119009494781,0.172031127055434,0.0015059359566288,7.432342880510837e-06,-0.0022864106576889,-0.0040227775461971,0.0275028515607118,-0.0020790910348296,0.0044081872329115,-0.8693574070930481,0.4941599369049072,-0.0125874346188231,0.0008457064983571,-0.0028099237543982,0.1601529121398925,-0.2937874794006347,-0.1884231567382812,118,71,15831,13269
16.7,1788261544019,5.042253494262695,5.183098793029785,-0.0026922603137791,-0.0042737810872495,0.9268494248390198,0.3753993511199951,0.1668437835126324,-0.0031750904829227,-4.500398503326058e-05,-0.0052753663621842,0.0146731752902269,-0.0411426499485969,-0.0017865002155303,0.0047578131780028,-0.870363712310791,0.4923831224441528,-0.0162702499996466,-0.0182541721774965,-0.040659327381987,-0.2622337341308594,0.0239394307136535,0.0304222106933593,74,166,14102,15176
16.8,1788261544119,5.070422649383545,4.901408672332764,-0.0027103559114038,-0.004204633180052,0.9271683692932128,0.3746115267276764,0.1710550177001975,-0.0017904219352687,1.6378790389531793e-07,0.0,-7.866735707295902e-09,0.0,-0.0019157044589519,0.0048614041879773,-0.869846761226654,0.4932942688465118,-0.0005949150310254,0.0172136555856544,-0.0212599261765863,-0.0354428887367248,-0.0351453423500061,-0.8415718078613281,83,130,14957,14613
16.9,1788261544219,5.042253494262695,5.098591327667236,-0.0025768836494535,-0.0047198780812323,0.9275391101837158,0.3736876547336578,0.1669896466574859,-0.0020650101316298,-4.737380786586249e-05,0.0018504639156162,0.0031291060149669,0.0451895073056221,-0.0018105320632457,0.0051519637927412,-0.8690605163574219,0.4946756362915039,-0.0005421195132232,0.0262723727114209,0.021514222668075,0.1288031339645385,-0.1089202165603637,-0.7782611846923828,92,79,14965,14002
17.0,1788261544319,4.760563373565674,5.239436626434326,-0.0026402384974062,-0.0048699690960347,0.9282664060592652,0.3718747198581695,0.1703358536551694,0.0004564236448995,5.989009702248689e-05,-0.0057753189466893,-0.008766321465373,0.0655117034912109,-0.0022144699469208,0.0051575070247054,-0.8680969476699829,0.4963630437850952,-0.0054032407064112,0.0074802172308503,0.0716089390638691,-0.0878035426139831,0.0612438917160034,0.1054153442382812,106,101,15364,13810
17.1,1788261544419,4.957746505737305,5.183098793029785,-0.0027193655259907,-0.0047240206040441,0.9287630915641784,0.3706338107585907,0.1673301260750518,-0.0028988524780102,1.2168951911335805e-06,0.0,0.0,0.0,-0.0018524108454585,0.0052919890731573,-0.8675712943077087,0.4972811639308929,-0.0037261682315181,0.0170119043893602,-0.0109928665443839,-0.2370148301124572,0.046436071395874,0.4977493286132812,71,105,14207,14863
17.2,1788261544519,5.014084339141846,5.070422649383545,-0.0025949606206268,-0.0044021918438375,0.9298800826072692,0.3678272664546966,0.1728592005915188,-0.0005350214996212,1.3105275534912238e-05,0.0154612716287374,-0.0039472789503633,0.0592727623879909,-0.0019244635477662,0.0051739774644374,-0.866079568862915,0.4998758435249328,-0.0288388356252114,0.0107284335214441,-0.0016163956095051,-0.1506440639495849,0.202177345752716,0.1257619857788086,107,86,15338,13681
17.3,1788261544619,4.309859275817871,5.633802890777588,-0.0029633753001689,-0.0045856400392949,0.931310534477234,0.3641852140426636,0.1615638467260384,0.0022540842560367,-6.418989244921731e-05,0.0036098272539675,0.0049115135334432,0.1593142598867416,-0.0017619142308831,0.0051415618509054,-0.8640790581703186,0.503326952457428,0.013875898722943,-0.0185995309186474,0.206542008462384,0.0550625324249267,-0.0408535003662109,0.1432037353515625,107,120,14171,15439
17.4,1788261544719,4.591549396514893,5.605633735656738,-0.0035238778218626,-0.0046708201989531,0.93390554189682,0.3574720919132232,0.1681076857231062,0.0017718145111402,2.315713304894214e-05,-0.009231056086719,0.0060666678473353,0.1541663557291031,-0.0014096219092607,0.0057243332266807,-0.8603878021240234,0.509605884552002,-0.0114046447512466,0.0302026866943868,0.1487977896820286,-0.0881672501564025,0.1296954154968261,-0.244424819946289,76,104,13644,15414
17.5,1788261544819,4.647887229919434,5.408450603485107,-0.0033924276940524,-0.004766508936882,0.9359421133995056,0.3521051704883575,0.1704319324326774,0.002195690959137,2.3730473475597997e-05,0.0019221049733459,-0.0025155907496809,0.0741768628358841,-0.001518115401268,0.0058263856917619,-0.8569890856742859,0.5152994394302368,-0.0080268780634031,0.0293254118030527,0.0829113113624524,0.0037927031517028,0.1187560558319091,-0.617548942565918,87,148,13337,15989
17.6,1788261544919,4.535211086273193,5.492957592010498,-0.0036019363906234,-0.0047429986298084,0.9387819766998292,0.3444602489471435,0.1654944549380096,0.0043468811441103,5.403175664746727e-05,-0.0048913331702351,-0.0031936983577907,0.1556994169950485,-0.0013617947697639,0.0058638416230678,-0.852806568145752,0.5221922993659973,-0.0032189979384078,0.0282433152357298,0.1549821251376608,-0.3547862768173218,0.237199604511261,0.2361230850219726,96,125,13803,15689
17.7,1788261545019,4.929577350616455,5.323943614959717,-0.003516093827784,-0.0049042417667806,0.9414689540863036,0.3370457887649536,0.1672680633811033,0.0028665451187933,-2.979862501461567e-05,0.0008688700618222,0.004582988563925,0.1503498703241348,-0.0016546957194805,0.0058010527864098,-0.8491603136062622,0.5281007289886475,0.0025422252253724,-0.005691459057545,0.1631661220568106,0.1613114476203918,-0.3160873651504516,0.2370862960815429,102,78,14733,14010
17.8,1788261545119,4.535211086273193,5.605633735656738,-0.0036070593632757,-0.0050121811218559,0.9427926540374756,0.3333223760128021,0.1687833789769091,0.0023730622445306,-3.77698205700124e-05,-0.0080809304490685,0.0054384763352572,0.1252643018960952,-0.0017189122736454,0.0059344498440623,-0.8470215797424316,0.5315226912498474,-0.0076452199535682,-0.0062464934710901,0.1420166632111796,-0.1114141941070556,0.2090659737586975,0.0218572616577148,66,106,13513,15442
17.9,1788261545219,4.450704097747803,5.605633735656738,-0.0034111691638827,-0.0052887690253555,0.9458611607551576,0.3245105445384979,0.1685858995653352,0.0017071235796473,7.49140667398589e-06,-0.0013745271135121,-0.0114660998806357,0.166194200515747,-0.0021246578544378,0.0059586632996797,-0.8416586518287659,0.5399728417396545,-0.0003413770849872,-0.0294514785376977,0.1486911217630144,0.0704538226127624,0.0001026391983032,-0.0377779006958007,93,94,14020,15198
18.0,1788261545319,4.478873252868652,5.577464580535889,-0.0037285229191184,-0.0047078491188585,0.9482396841049194,0.3174986243247986,0.1689225778127729,0.0017421395302471,-4.171436309674333e-05,0.0181413162499666,0.0137973427772521,0.159983679652214,-0.0013416353613138,0.0057818302884697,-0.8377950191497803,0.5459527373313904,0.0178482813647498,0.0096382226691396,0.1728441326466507,0.0360118746757507,0.0020517706871032,-0.4134511947631836,77,88,14030,15317
18.1,1788261545419,4.647887229919434,5.549295902252197,-0.0032146640587598,-0.0046171904541552,0.950745165348053,0.3099227547645569,0.1700859426718493,0.002114332066809,3.79656651718016e-06,-0.0014007182326167,-0.0077142044901847,0.1462101638317108,-0.001591564156115,0.0054146777838468,-0.8340657353401184,0.5516361594200134,-0.0103223031090561,-0.0157756773328429,0.1442611926848922,0.1096552014350891,0.1850777864456176,-0.1315135955810547,87,109,13415,15459
18.2,1788261545519,4.704225540161133,5.239436626434326,-0.0028600278310477,-0.0045328447595238,0.9517424702644348,0.306851178407669,0.1682356018110391,-0.0022754036703111,4.555829327447627e-05,0.0090158227831125,-0.0160196721553802,0.1574561595916748,-0.001582846045494,0.004835139028728,-0.8293318152427673,0.558733344078064,0.0179495661253838,0.0134030466741249,0.1064690610475373,-0.0245051980018615,-0.2145990133285522,0.392918586730957,137,75,15662,14206
18.3,1788261545619,5.380281925201416,4.816901206970215,-0.0025532126892358,-0.004623141605407,0.9528932571411132,0.3032598197460174,0.1721543693228738,-0.0044380430843536,-1.887801473466704e-05,-0.0064835078082978,-0.0019360586302354,-0.046467151492834,-0.0023109698668122,0.0047156289219856,-0.8304492831230164,0.5570694804191589,-0.0064799717984432,-0.0409218827254226,-0.1016969720064048,0.0184782147407531,0.123056411743164,-0.0174856185913085,59,87,15171,13444
18.4,1788261545719,5.77464771270752,4.422535419464111,-0.0026292521506547,-0.0044668987393379,0.9503454566001892,0.311153769493103,0.165239631425051,-0.0078757791104556,-3.0717949647574415e-05,-0.0058160619810223,0.0181416925042867,-0.20746910572052,-0.0021875044330954,0.0046350639313459,-0.8366745710372925,0.5476763844490051,-0.0019209309318789,-0.0393774421772167,-0.3026977562067025,0.4462223052978515,-0.1273332834243774,0.2401237487792968,94,87,16077,12815
18.5,1788261545819,5.690140724182129,4.563380241394043,-0.0027750427834689,-0.0043315361253917,0.9473374485969543,0.320195734500885,0.1637318768148106,-0.0006095352563596,0.000102586944296,0.0063330945558846,-0.0060892151668667,-0.1335930973291397,-0.0017355708405375,0.0049295146018266,-0.8401026725769043,0.5424022674560547,-0.0001660904809793,0.0251641056171107,-0.1092568309758409,-0.193956196308136,0.1706787943840026,0.5329666137695312,103,107,15695,12875
18.6,1788261545919,5.211267471313477,4.732394218444824,-0.0026137917302548,-0.0044788317754864,0.9464606642723083,0.3227773308753967,0.1622053338072778,-0.0026746454072006,2.7146347493997506e-05,-0.004143004771322,-0.0091301845386624,-0.1336627453565597,-0.0013857223093509,0.0052252225577831,-0.8436145186424255,0.5369220972061157,-0.002541028008961,0.0328819096281986,-0.1383742740466513,-0.2881280779838562,0.003854751586914,-0.0669174194335937,75,145,15262,14547
18.7,1788261546019,5.126760482788086,4.8450703620910645,-0.0028562443330883,-0.0041491668671369,0.944624662399292,0.3281141221523285,0.1666613400684137,-0.0004012282292554,-2.18342240325645e-05,0.0085330912843346,-0.0112618207931518,-0.0386499762535095,-0.0015130331739783,0.0047671841457486,-0.8442623019218445,0.5359068512916565,0.0103373086022904,-0.0308138876645397,-0.0192108992485844,0.1933602690696716,-0.0077572464942932,-0.0641384124755859,102,106,15794,13879
18.8,1788261546119,5.239436626434326,5.042253494262695,-0.0030374207999557,-0.0038590102922171,0.9440889954566956,0.3296542167663574,0.1747139741191203,-0.0042000518624547,-2.338597495376285e-05,0.010263716802001,0.0040795588865876,-0.036404937505722,-0.0010649161413311,0.0047265328466892,-0.8454344868659973,0.534057080745697,0.0030008937746705,0.001032831678786,-0.0361989184397611,-0.1249018311500549,0.0947475433349609,-0.0707235336303711,89,136,14348,14371
18.9,1788261546219,5.323943614959717,4.873239517211914,-0.0031079705804586,-0.0037515377625823,0.9439367055892944,0.3300906121730804,0.1663340697111743,-0.0001226013953492,5.994021671714918e-07,0.0,0.0,0.0,-0.0009988853707909,0.0046312231570482,-0.8453173637390137,0.5342435240745544,0.0025488487669414,-0.0017721501333882,0.0082567234454088,0.158831238746643,0.0222218632698059,-0.0426158905029296,138,102,15402,13730
19.0,1788261546319,5.014084339141846,5.098591327667236,-0.0028953659348189,-0.0037201000377535,0.943997859954834,0.3299179375171661,0.1772577297582453,0.0008423507766606,9.336561728214784e-07,0.0020414318423718,-0.000255173043115,0.0253787208348512,-0.0011059325188398,0.0045655751600861,-0.8451505899429321,0.5345077514648438,0.0034408229191898,0.005247491329013,0.0665321386974102,-0.0487686395645141,0.0936006903648376,0.0267133712768554,131,80,15218,13988
19.1,1788261546419,4.957746505737305,5.239436626434326,-0.0028953659348189,-0.0037201000377535,0.943997859954834,0.3299179375171661,0.1707940857718629,-0.0025026086684687,1.12790155891154e-06,0.0,-9.331441397364417e-09,0.0,-0.0013767993077635,0.0045364182442426,-0.8448976874351501,0.5349068641662598,-0.0007073558314311,-0.0033478801989216,0.0393332465371289,-0.1322194337844848,0.1031737327575683,0.274179458618164,89,110,14211,14695
19.2,1788261546519,5.267605781555176,4.8450703620910645,-0.0027170097455382,-0.0039703655056655,0.9444045424461364,0.3287504911422729,0.1754523451361047,-0.0056842513570073,-6.553178827750262e-06,-0.0007723082671873,0.002266154391691,-0.0101895872503519,-0.0013137478381395,0.0045321453362703,-0.8449578285217285,0.5348122715950012,0.00954387803216,0.0161864272723076,-0.0719058521915796,-0.1463673114776611,-0.0073381066322326,-0.2026777267456054,100,97,15408,13482
19.3,1788261546619,5.211267471313477,4.8450703620910645,-0.0024889917112886,-0.003672256367281,0.9431532621383668,0.3323284089565277,0.1682997939128397,-0.0002258254796079,1.1246841678310816e-05,0.0053782095201313,-0.0087012648582458,-0.0662422105669975,-0.0011915164068341,0.0041945353150367,-0.8465343117713928,0.5323163866996765,0.0166446876049226,-0.0034189703546976,-0.0592717285852376,0.2915676236152649,0.0507833361625671,-0.7475042343139648,112,122,15523,13842
19.4,1788261546719,5.126760482788086,5.070422649383545,-0.0024531765375286,-0.0038759706076234,0.9428442716598512,0.3332020938396454,0.1670550720119019,-0.0026291309825558,8.412522060720673e-06,-0.0089569073170423,-0.004873635713011,-0.0463541150093078,-0.001295443624258,0.0041825538501143,-0.8477570414543152,0.5303667187690735,0.0231909215007368,0.0272190320472677,-0.004534587421752,-0.0657405257225036,0.2120018005371093,-0.8077468872070312,87,112,14526,14190
19.5,1788261546819,4.873239517211914,5.239436626434326,-0.0020948385354131,-0.0040745576843619,0.94245845079422,0.3342919051647186,0.1679922873034814,-0.0005781277192026,1.5908710092612679e-07,-0.0009192879078909,-0.0093734459951519,-0.0015592923155054,-0.0020805466920137,0.0040762294083833,-0.8478545546531677,0.5302091240882874,-0.0097408002041627,-0.0414480284156336,-0.0016654335573748,0.0175135135650634,0.1711760759353637,0.0277490615844726,61,128,15010,14020
19.6,1788261546919,5.154929637908936,5.183098793029785,-0.0021198124159127,-0.0039675547741353,0.9429184198379515,0.3329935371875763,0.1745798153935402,0.0004802739402274,8.348276211154953e-06,0.0041268095374107,-0.0019762127194553,0.0099708512425422,-0.0019557205960154,0.0036044837906956,-0.846693217754364,0.5320656895637512,0.0147597087148791,-0.0238819952739791,0.0170692906312401,-0.0089395642280578,0.1342037916183471,0.4063196182250976,101,102,14762,13572
19.7,1788261547019,5.211267471313477,4.957746505737305,-0.0021326737478375,-0.0041231838986277,0.9427046179771424,0.3335962891578674,0.1624061715539356,0.0027573628823321,-8.869943328538117e-05,-0.0197982899844646,0.0150454407557845,-0.047708872705698,-0.0016230791807174,0.0044065322726964,-0.847474217414856,0.5308157801628113,-0.0008981854132523,0.0164030565202692,-0.0372776812443296,0.1034398674964904,-0.2383281588554382,0.1276931762695312,133,102,15681,13461
19.8,1788261547119,5.014084339141846,5.154929637908936,-0.0026615229435265,-0.0039407135918736,0.9422699809074402,0.3348203599452972,0.1686282026845171,0.0005168926848556,4.894796428431392e-05,0.0023855003528296,0.0075569408945739,-0.0087562026455998,-0.0013368828222155,0.0045299464836716,-0.8479870557785034,0.529995858669281,0.0021478802412442,0.0261321854638936,0.0148825307646333,-0.2191059589385986,0.1848645806312561,0.0982160568237304,105,106,15011,13885
19.9,1788261547219,5.098591327667236,5.070422649383545,-0.0025700954720377,-0.003934430424124,0.9425244927406312,0.3341040909290313,0.1698623767414846,0.0016156185049932,4.590887197062472e-06,-0.0005936485831625,-0.0027543099131435,0.0197497922927141,-0.0014927666634321,0.0044558448716998,-0.8475890755653381,0.5306323170661926,0.0061689187692627,-0.0302349268217297,0.0226123981658982,0.2041506171226501,-0.2357975840568542,-0.0513191223144531,136,113,14762,14136
20.0,1788261547319,5.211267471313477,4.929577350616455,-0.0028632404282689,-0.0038853527512401,0.9426121711730956,0.3338546752929687,0.1729821505642743,-0.0011218592989736,9.78957442544691e-07,0.0,0.0,0.0,-0.0012766579166054,0.0046375235542654,-0.8474879264831543,0.5307929515838623,0.0070445725743,-0.0010202076703919,-0.009548613731657,0.0889830589294433,-0.2255913019180297,-0.1610918045043945,116,113,14543,14501
20.1,1788261547419,4.929577350616455,5.042253494262695,-0.0032016541808843,-0.0038377451710402,0.9425138235092164,0.3341299295425415,0.1691368391333421,0.0018004321396741,-4.1313427152754935e-05,-0.0027102909516543,0.0134610012173652,-0.0116447610780596,-0.0010157600045204,0.0048935785889625,-0.8476381301879883,0.5305511951446533,-0.0062864896596016,0.003947872926795,0.0025738918113549,0.0028743147850036,0.0779728889465332,0.181828498840332,99,105,15319,14170
20.2,1788261547519,5.154929637908936,5.070422649383545,-0.0032016541808843,-0.0038377451710402,0.9425138235092164,0.3341299295425415,0.1693028718320731,0.0018115842006682,1.5471354145402257e-06,0.0,0.0,0.0,-0.0007947403937578,0.0050232745707035,-0.8472499847412109,0.5311699509620667,0.0016213792462729,0.0189236580933593,0.0158497231767805,-0.2196301221847534,-0.1182419061660766,-0.0775260925292968,103,102,14461,14019
20.3,1788261547619,5.126760482788086,4.957746505737305,-0.0038663188461214,-0.0038181280251592,0.942476451396942,0.3342282474040985,0.1712180452969122,-0.0012080772800949,-9.586394147456685e-05,-0.0087307086214423,0.015186377801001,-0.0425677597522735,-0.0006546983495354,0.0053775515407323,-0.8479152917861938,0.5301040410995483,-0.0036398293217559,-0.0087943126244403,-0.0552912644071056,0.070221722126007,0.0536869764328002,0.045821189880371,82,125,14681,14541
20.4,1788261547719,5.183098793029785,4.957746505737305,-0.0040273466147482,-0.003929141908884,0.9424067735671996,0.3344214856624603,0.181775964371411,0.0021807063555362,6.544293997620017e-06,-0.004997806623578,-0.0012398000108078,0.0071756793186068,-0.0006558997556567,0.0055789668112993,-0.8477261662483215,0.5304043889045715,-0.001831259803878,-0.0051524096053429,0.0089785740463448,-0.0587348341941833,-0.2516184449195862,0.0106849670410156,126,74,15588,13291
20.5,1788261547819,5.380281925201416,4.422535419464111,-0.0038490863516926,-0.0035187508910894,0.9405033588409424,0.3397445678710937,0.1662165215128191,-0.0046978507363182,-1.773195642456286e-05,0.0058498601429164,-0.002648742403835,-0.1733652651309967,7.057748734951019e-05,0.005359967239201,-0.8518038988113403,0.5238333940505981,0.0077967346855399,0.0355819009402757,-0.2192546431036092,-0.1668258905410766,-0.1392637491226196,-0.0978116989135742,74,113,17262,12821
20.6,1788261547919,5.492957592010498,4.563380241394043,-0.0040048900991678,-0.0034047306980937,0.9392574429512024,0.3431732654571533,0.1629357929724754,-0.0054928210276373,-7.89847026558541e-05,0.0031569537241011,0.0101102460175752,-0.1824154108762741,-0.0005138460546731,0.0051118386909365,-0.8555358648300171,0.5177180767059326,-0.0041280495535038,-0.0232512893396243,-0.1501427537930509,0.0265313982963562,0.0565909743309021,-0.0557470321655273,110,87,16490,12731
20.7,1788261548019,5.549295902252197,4.8450703620910645,-0.0039693838916718,-0.0031802598387002,0.9352737069129944,0.3538886904716491,0.16662799316427,-0.001339310114679,7.272798986154352e-05,0.0042719910852611,-0.0084760356694459,-0.1474804431200027,5.054287612438202e-06,0.0051900297403335,-0.8589631915092468,0.5120111107826233,0.0032649988702259,0.0289333152947738,-0.1355424402973894,-0.1404160261154174,0.2823103070259094,-0.9891653060913086,81,135,13963,14004
20.8,1788261548119,3.183098554611206,4.394366264343262,-0.0039433781057596,-0.0033989492803812,0.9350784420967102,0.354402631521225,0.1471191372962227,0.0022471729334045,-1.6421679892724258e-07,-4.114936018595472e-06,0.0084695219993591,0.0290910825133323,-8.230563253164291e-05,0.0052403165027499,-0.858272135257721,0.5131680965423584,0.0023999322911067,0.0226983380219143,0.1028976466594608,-0.8191306591033936,0.0992041230201721,-0.2616462707519531,8,78,7100,11893
20.9,1788261548219,1.0140844583511353,3.690140962600708,-0.0038064576219767,-0.00341866328381,0.939760446548462,0.3417952954769134,0.0800729306132347,0.0034227067165991,2.5257075126314328e-05,0.0014835235197097,-0.0148419169709086,0.3679028451442718,-0.0002865539863705,0.0050862003117799,-0.8505601286888123,0.5258532762527466,0.0038406786787268,8.608490568336524e-05,0.4447317320634423,-0.9592604041099548,0.2108370661735534,0.0328836441040039,32,92,0,11051
21.0,1788261548319,-2.11267614364624,2.901408433914185,-0.0034447854850441,-0.0033963751047849,0.9477608799934388,0.3189449906349182,0.0479780599897685,-0.0040582753861845,1.7268820825342056e-06,-0.0061222524382174,0.0054500205442309,0.5439437031745911,-0.0004800111055374,0.0049240384250879,-0.837451159954071,0.5464898347854614,-0.0168500397142395,0.0153293082496797,0.6270807734164751,-1.3825432062149048,0.4045761823654175,0.0694637298583984,259,103,-9995,9757
21.1,1788261548419,-2.7323944568634038,2.619718313217163,-0.0034683695994317,-0.0037243340630084,0.9615830183029176,0.2744670212268829,-0.0047117810241972,-0.0031701915700321,4.483803351870221e-08,-0.0085624661296606,-0.0089597944170236,0.9392270445823668,-0.0008060233667492,0.0049167498946189,-0.815352201461792,0.5789439678192139,-0.0071609146891882,-0.0230926769051781,0.9839081785594004,0.1592981219291687,0.0787597298622131,-0.0889368057250976,41,74,-8504,7948
21.2,1788261548519,-2.169013977050781,2.563380241394043,-0.0034019518643617,-0.003811442060396,0.971297800540924,0.237811729311943,0.0082606483006999,-0.0035698902839634,1.7404422820790133e-06,-0.0036469635087996,-0.0015679183416068,0.7354690432548523,-0.000830553472042,0.0051020318642258,-0.7878490686416626,0.6158466935157776,-0.0074968095233338,0.0107918397005018,0.7109473097596913,-0.375722587108612,-0.2167801856994629,-0.0510978698730468,120,94,-10126,8505
21.3,1788261548619,-2.450704336166382,2.309859037399292,-0.0034713777713477,-0.0037295478396117,0.9792982935905457,0.2023584246635437,0.0027015634399181,-0.0040101223536492,1.0471639971197322e-06,0.000278296531178,-0.0060888943262398,0.7267183661460876,-0.0007645646110177,0.0050381449982523,-0.7670460343360901,0.6415718793869019,-0.0016406243972557,-0.0068900812372412,0.7559127340347506,-0.0468010902404785,-0.039764404296875,-0.1718387603759765,55,50,-7222,6958
21.4,1788261548719,-2.05633807182312,2.2253520488739014,-0.0034121852368116,-0.0039041680283844,0.9819757342338562,0.1889360845088958,0.0012910496019974,-0.0045330392518636,9.59210989805789e-07,-0.0095929205417633,-0.0074854753911495,0.6710614562034607,-0.0009692497551441,0.0051956055685877,-0.7482312917709351,0.6634169816970825,-0.0013005046499125,-0.0005879971609887,0.6440340296645628,0.0489265918731689,0.1259809732437133,-0.0102348327636718,99,123,-8795,7900
21.5,1788261548819,-1.94366192817688,1.9154930114746092,-0.0030055043753236,-0.0042912545613944,0.990118682384491,0.140133798122406,-0.0030982423414805,-0.0050240359105051,-1.5655659997102025e-06,-0.0116452109068632,-0.0128213008865714,0.6933624148368835,-0.0015045600011944,0.0051369629800319,-0.7210293412208557,0.6928839683532715,-0.0099586553101519,-9.943660879325088e-05,0.6192407534159776,0.3740777969360351,-0.43612802028656,0.0685567855834961,57,71,-6706,6196
21.6,1788261548919,-1.6619718074798584,1.8591549396514893,-0.0029082142282277,-0.0042195711284875,0.9939174652099608,0.1100078895688057,0.0036323990273697,-0.0030758358018512,3.5074261333932455e-07,0.0018687500851228,-0.0086631476879119,0.5395967364311218,-0.0014817109331488,0.0048843529075384,-0.7046994566917419,0.7094875574111938,0.0012971126736485,-0.0123910482958244,0.5536459425125976,-0.2101202607154846,0.0714812874794006,-0.0265216827392578,103,101,-8261,6700
21.7,1788261549019,-1.8028168678283687,1.8309859037399288,-0.0028003333136439,-0.0042626857757568,0.996527373790741,0.0831094831228256,0.0023015658185575,-0.0050795462670436,7.31756418508425e-07,-0.0013744907919317,-0.0004368992813397,0.5392776131629944,-0.0015680836513638,0.0048222104087471,-0.6806275844573975,0.7326120734214783,0.0017906708767234,0.0012366388542041,0.5591752580712288,-0.1342010498046875,0.1344566941261291,0.0390310287475585,112,124,-7771,6905
21.8,1788261549119,-1.6056338548660278,1.5492957830429075,-0.0024243302177637,-0.0042672185227274,0.9983881115913392,0.0565425679087638,-0.0014207052387109,-0.0028806480233454,2.579837435233501e-07,-0.0038554633501917,-0.0136465476825833,0.5921229720115662,-0.0018888870254158,0.0044941706582903,-0.6613317728042603,0.7500777244567871,-0.0023701352380485,-0.0123651996380654,0.579989164540504,0.1503002047538757,-0.2539935708045959,-0.0087203979492187,8,41,-5985,4852
21.9,1788261549219,-1.6338027715682983,1.436619758605957,-0.0022040577605366,-0.0043491413816809,0.9993733167648317,0.0350600220263004,-0.0006720279599212,-0.004125246574659,-1.8038749474478694e-07,-0.0014347454998642,-0.0046530808322131,0.4012426733970642,-0.0020400127395987,0.0044263517484068,-0.6471678018569946,0.7623320817947388,-0.001001839631533,-0.0050509781569896,0.3746846747171692,0.0228447914123535,0.1879597306251526,0.0619068145751953,124,104,-6363,6304
22.0,1788261549319,-1.7464789152145386,1.4929577112197876,-0.0020306229125708,-0.0046047437936067,0.999946355819702,0.0090540060773491,-0.0011718623089216,-0.0014746448107175,8.98737457136416e-07,-0.0078336875885725,-0.0071953944861888,0.4786106050014496,-0.0024414844810962,0.0044595217332243,-0.6252657771110535,0.7803952693939209,-0.0099868363271537,-0.0095619484151438,0.4931908869272984,-0.0345578789710998,0.062512457370758,0.019383430480957,90,99,-5839,6103
22.1,1788261549419,-1.2676056623458862,1.183098554611206,0.0019026530208066,0.0049242656677961,-0.9998956322669984,0.0134486621245741,0.0026322600219879,-0.0052941445873483,7.691197392427567e-07,-0.0043966192752122,-0.0026145745068788,0.4410119950771332,-0.0026792315766215,0.004574361257255,-0.6096742153167725,0.7926343083381653,-0.0021451493620073,-0.0002031319670857,0.3794407348539652,0.267544686794281,-0.2479894757270813,0.0854463577270507,61,121,-4556,4794
22.2,1788261549519,-1.2957746982574463,1.0985915660858154,0.0018801767146214,0.0049399109557271,-0.9996041655540466,0.0276314634829759,0.0014271658777514,-0.0001018418744256,-1.2054154773115271e-06,0.0002478166425134,-0.0032947428990155,0.3151139318943023,-0.0027127629145979,0.0045226793736219,-0.5986501574516296,0.8009933233261108,3.843853160114197e-05,-0.0058916874430582,0.3385657996013098,0.0492629408836364,0.1617398262023925,-0.0332975387573242,94,98,-5359,5515
22.3,1788261549619,-1.2957746982574463,1.1267606019973757,0.0018475337419658,0.0048373453319072,-0.9989475607872008,0.0455744676291942,0.0005590503006668,-0.0022146235968762,8.394671384914496e-07,0.0027625786606222,-0.0030552498064935,0.3630196750164032,-0.0026065586134791,0.0045298831537365,-0.580838143825531,0.8140023350715637,-0.0018506342187833,0.0036913563797273,0.3654941865376507,0.0238330960273742,-0.1103051304817199,-0.0156269073486328,73,95,-5456,5506
22.4,1788261549719,-1.0985915660858154,1.183098554611206,0.0019714159425348,0.0047825961373746,-0.9978386163711548,0.0655072107911109,0.001741031180423,-0.0013759877990164,1.868088348704887e-07,0.0006609286647289,0.0022735421080142,0.3561660051345825,-0.0024995487183332,0.0045287730172276,-0.5677956938743591,0.8231532573699951,0.0019437070085542,0.0055992594851952,0.4126223590238047,0.0209901332855224,-0.0302432179450988,0.0028772354125976,124,76,-6081,5211
22.5,1788261549819,-0.8732394576072693,1.0985915660858154,0.0019753039814531,0.0047219041734933,-0.9965256452560424,0.0831291377544403,0.0015188340256485,-0.004559179745197,-4.835057991366611e-07,-0.0010752585949376,-0.0009299153462052,0.3711317181587219,-0.0024707354605197,0.0044825971126556,-0.5543684959411621,0.8322556614875793,-0.0004292598458389,-9.338202132908757e-06,0.3613752482105736,0.2101117372512817,-0.2265260219573974,0.0852270126342773,45,72,-4285,2904
22.6,1788261549919,-0.9014084339141846,1.1267606019973757,0.0019662715494632,0.0047222818247973,-0.996116042137146,0.0879017487168312,0.002171877730276,-0.002695982020906,1.0203775347381651e-06,-0.0005810025031678,-0.0014280802570283,0.2228456884622573,-0.00248309597373,0.0044523552060127,-0.5464701652526855,0.8374630808830261,-0.0030427654878169,2.206056650864719e-05,0.1951526197043436,-0.1026980280876159,0.334827721118927,-0.1299943923950195,31,2,-704,0
22.7,1788261550019,0.0,0.0,0.0017752419225871,0.0047063659876585,-0.9952458143234252,0.0972649380564689,0.0026397190393581,-0.0003727588159863,5.21727826754653e-08,-0.0006648752605542,-0.0049646338447928,-0.0043031168170273,-0.0025566834956407,0.0043631410226225,-0.5424714684486389,0.8400590419769287,-0.0013006254288883,0.0018350901419568,-0.000606270234643,-0.029253602027893,-0.0137582421302795,-0.1050786972045898,3,0,236,887
22.8,1788261550119,0.0,1.9154930114746092,0.0017225435003638,0.0047226194292306,-0.9951084852218628,0.0986601635813713,0.0084109997611267,0.0005333307188358,-5.6409575416545585e-08,-0.0016354339895769,-0.0020025745034217,0.0497585162520408,-0.0026512369513511,0.0043111778795719,-0.5417425036430359,0.8405292630195618,-0.0019667751787435,-0.0034829895941083,0.0514205545282344,0.783569872379303,0.2193561792373657,0.3396615982055664,236,386,6699,12212
22.9,1788261550219,1.5211267471313477,4.901408672332764,0.0018522061873227,0.0048546595498919,-0.9931504130363464,0.1167271062731742,0.0910011871688683,8.105138901039378e-05,-2.8264862643611284e-05,-0.0070538655854761,0.0066649839282035,0.4085593521595001,-0.0026258090510964,0.004514405503869,-0.5217783451080322,0.8530651330947876,0.0008725695859674,-0.0087059973147569,0.466893948496046,0.6931943297386169,0.3093520402908325,-0.1074905395507812,87,260,7122,17263
23.0,1788261550319,2.3943662643432617,7.521126747131348,0.0019597141072154,0.0050359847955405,-0.9895330667495728,0.1442054063081741,0.1489168967660841,0.0011216175364078,5.170559064377555e-06,-0.0063532884232699,-0.003847386687994,0.648525059223175,-0.0027628941461443,0.0044794240966439,-0.4967546164989471,0.8678750991821289,0.0039568221043981,-0.0217775822410486,0.7272230997793605,0.18735933303833,0.4155151844024658,0.1956090927124023,61,205,7246,22704
23.1,1788261550419,2.08450698852539,8.28169059753418,0.0020366357639431,0.0049794525839388,-0.9812362790107728,0.1927344352006912,0.1792767284902274,-0.0018324364367221,3.1770976442130194e-06,-0.0019282166613265,0.0009829888585954,0.9629723429679872,-0.00259879976511,0.0047551030293107,-0.4602581560611725,0.887768566608429,0.0036328553374437,0.012338700647477,1.0938507838487184,-0.3974979519844055,0.0551998019218444,0.2506513595581054,39,67,7708,21196
23.2,1788261550519,2.422535181045532,7.633802890777588,0.0018011592328548,0.0045082718133926,-0.971550703048706,0.2367819547653198,0.1681030578657549,-0.0030152236224701,1.2833398947265782e-05,0.0080983834341168,-0.0033426261506974,0.8846170902252197,-0.0022914744913578,0.0042757270857691,-0.4123955070972442,0.9109920263290404,0.009512530184237,0.0041961949579201,0.7996622021483742,0.2515749335289001,-0.1923046708106994,0.1898679733276367,145,94,9300,20143
23.3,1788261550619,3.0422534942626958,7.267605781555176,0.0018814150243997,0.0043516037985682,-0.963439404964447,0.2678845524787903,0.175011030885774,0.0035855642933025,3.597396237864755e-05,0.0064215110614895,-0.0164867099374532,0.6159736514091492,-0.002238031476736,0.0040893452242016,-0.3862176537513733,0.922395884990692,0.0135030091507531,-0.0151732133445284,0.5691882739974317,-0.5268558859825134,-0.0435526371002197,0.1701364517211914,32,117,8985,19294
23.4,1788261550719,3.0422534942626958,6.929577350616455,0.0022697579115629,0.0054373266175389,-0.9550955891609192,0.2962392270565033,0.1708968791864615,0.0042078645619213,1.5095081371680985e-05,-0.0226401649415493,-0.0015751164173707,0.6336615085601807,-0.0028582280501723,0.0051782457157969,-0.3599140346050262,0.9329668283462524,-0.0152391061733635,0.0069729849359769,0.633649041213247,-0.3091503977775574,-0.1530879735946655,0.3377275466918945,99,80,10759,18627
23.5,1788261550819,3.126760482788086,6.929577350616455,0.0021736505441367,0.0063700843602418,-0.946319341659546,0.3231629729270935,0.1650626054097714,0.0028989288005658,-4.808716612001954e-05,-0.0260801650583744,0.0056923306547105,0.5331336855888367,-0.0035877721384167,0.0062191430479288,-0.3288557231426239,0.944352924823761,-0.0151809241948005,0.0246389731358677,0.5307190312749028,-0.2304224967956543,-0.3183475136756897,0.3029956817626953,43,121,10961,18084
23.6,1788261550919,3.690140962600708,6.478873252868652,0.0024358483497053,0.0067916573025286,-0.9372050166130066,0.3487043976783752,0.1708982278579951,0.0066439985514277,-2.1845598019277807e-05,-0.0142416479066014,-0.0057116569951176,0.4418585300445556,-0.0038403691723942,0.0060906736180186,-0.3082361817359924,0.9512826204299928,-0.0085935081489957,-0.0312708487639476,0.4247816358301746,0.0425878763198852,-0.0867484211921691,0.3331975936889648,70,127,10336,18195
23.7,1788261551019,3.323943614959717,6.647887229919434,0.0022517654579132,0.0073965489864349,-0.9295552372932434,0.3686016499996185,0.1663405165195942,0.0080276511900046,1.5902074262498987e-05,-0.01768359541893,-0.0160416234284639,0.4416677951812744,-0.004393964074552,0.0063617974519729,-0.2891202270984649,0.957261562347412,-0.0152852859098253,-0.0241300126455839,0.4462733010182372,-0.1200251579284668,-0.0324739813804626,-0.3265151977539062,60,113,11159,17826
23.8,1788261551119,4.3380279541015625,5.802816867828369,0.0020792672876268,0.0072191311046481,-0.9226481914520264,0.3855697512626648,0.1733836205179417,0.0041726829333953,2.3592859664795137e-05,-0.0032745152711868,-0.0024294184986501,0.3043808937072754,-0.0044230800122022,0.0061979489400982,-0.2718976140022278,0.9622961282730104,-0.0075609980384706,0.0134388048161776,0.2368337366218171,-0.3055171370506286,-0.5861688852310181,0.4695415496826172,103,111,12902,16107
23.9,1788261551219,4.563380241394043,6.02816915512085,0.0013947626575827,0.0070390696637332,-0.9183396100997924,0.3957281708717346,0.1714467921115828,0.0032849512940837,1.0893902977807117e-06,-0.0012497869320213,-0.0111616989597678,0.2387159466743469,-0.0046698376536369,0.0050934189930558,-0.2588933408260345,0.9658812284469604,0.0044230398436313,-0.0469765604829998,0.2625859735188424,0.1352511048316955,0.2917559146881103,0.212472915649414,73,112,11504,15925
24.0,1788261551319,4.563380241394043,5.408450603485107,0.0006450281944125,0.0065557826310396,-0.9138524532318116,0.4059929251670837,0.169027413820561,0.0014367110262568,0.0001026472069204,0.0009932020911946,-0.0172099694609642,0.1679120063781738,-0.0047645326703786,0.0046827336773276,-0.2503447234630584,0.9681337475776672,-0.0112041078186048,0.0050997978511565,0.1227986909643977,-0.225108802318573,-0.0728405117988586,0.0873994827270507,65,100,13775,15449
24.1,1788261551419,4.366197109222412,5.464788913726807,0.0007877890020608,0.0062901033088564,-0.9108126759529114,0.4127712249755859,0.1676029882465753,0.0029404108677133,1.132690315504263e-05,0.0050325579941272,-0.0023704718332737,0.1549896597862243,-0.0043673105537891,0.0043873181566596,-0.2414617240428924,0.970390558242798,0.0093092958504256,-0.0061863014382106,0.1538898384353761,-0.0940440893173217,0.0853062272071838,0.2473201751708984,102,120,14351,15621
24.2,1788261551519,4.704225540161133,5.577464580535889,0.000486145960167,0.0061597833409905,-0.9081618189811708,0.418573647737503,0.1658739007382022,0.0016698848884253,2.672167431205709e-05,-0.0061300559900701,-0.0041961171664297,0.1348081231117248,-0.0045170439407229,0.0041751395910978,-0.2356691658496856,0.9718139171600342,-0.004218515560208,0.0019667478607406,0.134559941092128,-0.2291069030761718,-0.0419658422470092,-0.0848722457885742,82,118,13046,15358
24.3,1788261551619,4.535211086273193,5.633802890777588,6.949412636458874e-05,0.0058885458856821,-0.9046504497528076,0.4261139929294586,0.1646049157098951,0.0058215482532821,-2.128296798137728e-05,0.006353672593832,-0.0055512525141239,0.1711252480745315,-0.004552318714559,0.0036794310435652,-0.2282463461160659,0.9735857844352722,0.0113409288675784,-0.026580256295204,0.1904430823516565,0.3609219193458557,-0.0987612009048461,-0.2093048095703125,103,93,13689,15029
24.4,1788261551719,4.535211086273193,5.605633735656738,7.435795851051807e-05,0.0058071166276931,-0.9016005396842957,0.4325307011604309,0.167980256119849,0.0014372231860206,-3.601223446936528e-05,-0.0069263288751244,0.0034277839586138,0.1114744022488594,-0.0045312019065022,0.0038056969642639,-0.2205145955085754,0.9753656983375548,-0.0029827102716894,0.0060463903881312,0.1600802427598237,-0.0391904115676879,0.2121765613555908,-0.0208845138549804,69,121,13726,15455
24.5,1788261551819,4.535211086273193,5.633802890777588,-0.0005200069863349,0.0053641428239643,-0.8981770277023315,0.4396009147167206,0.171254001057064,0.0009545842663356,-2.8619418238723512e-05,0.0035135445650666,-0.0082896603271365,0.1629685759544372,-0.0045255180448293,0.0028265928849577,-0.2136011123657226,0.976906418800354,0.0098831000439935,-0.0392074117768342,0.1716291829091398,0.0971481800079345,-0.1086730360984802,-0.0007810592651367,107,104,13619,15154
24.6,1788261551919,4.957746505737305,5.211267471313477,-0.0006162500940263,0.0054277409799396,-0.8962689638137817,0.4434773027896881,0.1753812708505237,0.0018264569920266,0.0001034422573685,-0.002042633946985,-0.0092459609732031,0.0513420440256595,-0.0046505285426974,0.0030331583693623,-0.2095548659563064,0.9777811169624328,-0.0098211451876533,0.035167077833822,0.0315348808649051,0.1078681945800781,0.0531364679336547,-0.8545455932617188,96,111,14640,14489
24.7,1788261552019,4.563380241394043,5.549295902252197,-0.001290995045565,0.0048282919451594,-0.8952699899673462,0.4454960525035858,0.1721813555919716,0.0015932343852778,3.866819729862966e-05,-0.0001572707842569,-0.0199691727757453,0.0471944510936737,-0.0046497043222188,0.0019480800256133,-0.2062805294990539,0.9784799218177797,-0.0014258767013806,0.0022024459560837,0.0932137405983136,-0.0575978755950927,0.3717784881591797,-0.3287458419799804,66,124,13249,15672
24.8,1788261552119,5.014084339141846,5.211267471313477,-0.001415844541043,0.0043753297068178,-0.8916162252426147,0.4527685642242431,0.174489586135146,0.0010754550317976,-5.42826722387715e-05,0.0094326687976717,-0.0042190458625555,0.1608773171901703,-0.0043017137795686,0.0015336228534579,-0.1993059515953064,0.9799267053604126,0.0065512287559861,-0.0354083365931533,0.1277024238867982,0.3333569765090942,-0.01751309633255,-0.3183984756469726,140,54,15670,13250
24.9,1788261552219,5.239436626434326,4.929577350616455,-0.0014784394297748,0.0041725779883563,-0.8926774859428406,0.4506741762161255,0.1619871583271801,-0.0035241135743174,2.5225523110142707e-05,5.430337478173897e-05,-0.0073823714628815,-0.090342104434967,-0.0040926877409219,0.0015090620145201,-0.2018313407897949,0.9794106483459472,0.0069188423786661,0.0045185999589112,-0.1031549369169139,-0.072964072227478,0.182879090309143,-0.5313472747802734,67,112,14469,14313
25.0,1788261552319,5.126760482788086,4.957746505737305,-0.0017039051745086,0.0040448694489896,-0.8932744264602661,0.4494901299476623,0.1695155708412918,-0.0011532842808835,5.783888641077132e-06,0.0005220893071964,-0.0100591564550995,-0.052765917032957,-0.0040710028260946,0.0014656567946076,-0.2039670944213867,0.9789682030677797,0.0075764385700989,0.0247891270387958,-0.0415012000936318,-0.1870249509811401,0.1643868684768676,-0.5357418060302734,92,118,14710,14499
25.1,1788261552419,5.098591327667236,4.8450703620910645,-0.0018563288031145,0.0041147251613438,-0.8935660123825073,0.4489091336727142,0.1726107201493907,-0.0013302605498116,7.687930563817573e-05,-0.0085076335817575,-0.0147728631272912,-3.983863643952645e-05,-0.0044372770935297,0.0008001746609807,-0.2045326232910156,0.9788493514060974,-0.0040400440140548,-0.0219153734456206,-0.0425197214149855,0.2167094945907592,-0.0135628581047058,-0.1537332534790039,89,105,15825,13739
25.2,1788261552519,5.126760482788086,5.070422649383545,-0.0018234179588034,0.0040632230229675,-0.8948564529418945,0.4463317990303039,0.1736467617471785,0.0017686945328221,8.636455639130624e-06,-0.0030754168983548,0.0025098195765167,-0.0444498658180236,-0.0043117180466651,0.0012304531410336,-0.2067455351352691,0.9783845543861388,0.0008916358032142,0.023787649779827,-0.0520225687927369,-0.2302151918411255,-0.0923882722854614,-0.2773370742797851,66,116,14481,14312
25.3,1788261552619,4.985915660858154,5.239436626434326,-0.0021755690686404,0.0041486313566565,-0.8950968384742737,0.4458470940589905,0.1682444755181307,0.0005885390151082,3.720454211783796e-05,-0.009159411303699,-0.010770964436233,-0.0212720464915037,-0.0045992536470294,0.0009786011651158,-0.2072279155254364,0.9782814383506776,0.0018676723300275,0.0105119154087985,0.0046267472694925,-0.3917542695999145,-0.0122424960136413,0.2000951766967773,44,131,13861,14831
25.4,1788261552719,4.873239517211914,5.267605781555176,-0.0021064612083137,0.0040292297489941,-0.8946755528450012,0.4466933906078338,0.1711684498671339,0.0040728930219733,1.228101992001293e-07,0.0070646330714225,0.0002151453663827,0.0484727770090103,-0.0042683100327849,0.0013189129531383,-0.2040012925863266,0.9789604544639589,0.0055946225664982,0.0073533029475652,0.0576977929420305,0.0955177545547485,0.0777682065963745,-0.026341438293457,117,86,14524,14451
25.5,1788261552819,4.901408672332764,5.183098793029785,-0.0012977911392226,0.0042455838993191,-0.8926550149917603,0.4507185220718384,0.1747952624027938,0.0012190483424915,-3.720372039326136e-05,0.0001214455260196,0.0058448775671422,0.052118681371212,-0.0041410066187381,0.0014491407200694,-0.2015058547258377,0.9794775247573853,0.0023008753203154,-0.0269859724682222,0.0459332203228944,0.1811483502388,0.0180863142013549,0.009648323059082,98,96,14502,14689
25.6,1788261552919,5.070422649383545,4.957746505737305,-0.0013160252710804,0.0040915696881711,-0.8919021487236023,0.4522080421447754,0.1721811296118552,0.0018626844230318,-4.108403743555435e-05,-0.0074083497747778,0.0119481896981596,0.0094069465994834,-0.004138677380979,0.0015937313437461,-0.2001653909683227,0.9797521233558656,-0.0173073266047745,0.0140584999225893,-0.0086412573141276,-0.0053024888038635,-0.212207555770874,0.1362237930297851,80,107,15204,14334
25.7,1788261553019,4.957746505737305,5.098591327667236,-0.0009838838595896,0.0043372814543545,-0.8914549350738525,0.4530874788761139,0.1687593425063988,0.0005850793207394,-4.805923781315796e-05,-0.0027851839549839,0.0161272920668125,0.0395340174436569,-0.0040075303986668,0.0019177803769707,-0.1992336213588714,0.9799419641494752,-0.0093727317266798,-0.0016556247071208,0.0177251916384268,0.1432864665985107,-0.1417787671089172,0.1573314666748047,100,91,15284,13968
25.8,1788261553119,5.154929637908936,5.070422649383545,-0.0007127516437321,0.00459352042526,-0.8921279907226562,0.4517589211463928,0.1681805518935241,-0.0031447743586896,-8.422693754733366e-05,-0.0041576512157917,0.0145654380321502,-0.0595006272196769,-0.004055755212903,0.0022995779290795,-0.2013197094202041,0.9795145392417908,0.0021623732174316,-0.0080217465572005,-0.0566401358424134,0.2162253856658935,0.1047374010086059,-0.0632362365722656,58,119,14786,14151
25.9,1788261553219,5.098591327667236,5.126760482788086,-0.000240936758928,0.0047632325440645,-0.8922591209411621,0.4514985978603363,0.1727948579640512,0.0004714520211227,-2.237405905365332e-05,0.0051004500128328,0.0114417094737291,0.0145904934033751,-0.0038759745657444,0.0030536204576492,-0.2008286863565445,0.9796140193939208,-0.0007109710429479,0.0311357435246259,0.0220192491082537,0.0249184966087341,0.0431951880455017,-0.0666389465332031,103,104,14478,14417
26.0,1788261553319,4.901408672332764,5.239436626434326,0.0003316095098853,0.005209494382143,-0.8914803266525269,0.4530294239521026,0.1681942383664703,-0.0009900536564256,-1.8157804098983466e-05,-0.0003029557701665,0.0228525213897228,0.050173245370388,-0.0036646462976932,0.0037629390135407,-0.198726937174797,0.9800409078598022,0.0153213691863234,0.040953756468126,0.0675129349575252,-0.0759390592575073,-0.0037389993667602,0.0240211486816406,107,117,14577,14795
26.1,1788261553419,4.901408672332764,5.239436626434326,0.0009341710247099,0.005231593735516,-0.8902297019958496,0.4554808735847473,0.1791535671452989,-0.0003896735733752,-2.667524950672933e-05,0.0045577767305076,0.0088197393342852,0.0538434125483036,-0.0035166600719094,0.0039926515892148,-0.1965122818946838,0.9804869890213012,0.0005119097511129,0.0073293307027717,0.0573833339389124,0.068994402885437,0.0425007343292236,0.5405473709106445,75,106,14647,14586
26.2,1788261553519,4.8450703620910645,5.154929637908936,0.0008841441012918,0.0052677942439913,-0.8892967700958252,0.4572992920875549,0.1750253842327772,-0.0015047858189797,-1.8945611735088928e-05,-0.0037235843483358,-0.0062447907403111,0.0583545826375484,-0.0035930601879954,0.0038963286206126,-0.1944438219070434,0.9808993339538574,3.29617575506216e-05,-0.022151189762404,0.040473735100742,-0.0505381822586059,-0.0658684372901916,0.6468162536621094,111,119,14729,14855
26.3,1788261553619,4.957746505737305,5.380281925201416,0.0008956468664109,0.0053544640541076,-0.8881036043167114,0.4596114158630371,0.1639350926510111,-0.0005230204239127,-3.2560396459708745e-05,-0.0037235380150377,0.0034481533803045,0.0472116842865943,-0.003746761009097,0.0036122687160968,-0.1914325505495071,0.981492042541504,-0.0051426730279312,-0.0462444582639198,0.0625371870971404,0.0976116061210632,0.2188994884490966,-0.0404157638549804,80,99,14200,14116
26.4,1788261553719,4.901408672332764,5.154929637908936,0.0007211989723145,0.005261399783194,-0.8866720795631409,0.4623684585094452,0.1639888710544537,0.001728705523156,5.606337467665683e-05,0.0013524797977879,-0.0008313693106174,0.0618287697434425,-0.0036574229598045,0.0038782376796007,-0.1889246106147766,0.9819771647453308,0.0022977074896427,0.0324443844661822,0.0543606289496472,-0.0508994460105896,-0.274504005908966,-0.3772220611572265,113,112,14577,14846
26.5,1788261553819,4.957746505737305,5.154929637908936,0.0005742267239838,0.0050335535779595,-0.8857927322387695,0.4640534818172455,0.1703921815020307,-0.0018578582990836,-5.735795335260877e-05,0.002827150048688,0.0097147244960069,0.0412812381982803,-0.0037004454061388,0.0033072354272007,-0.1869464218616485,0.982357621192932,-0.0074483812156482,-0.0194279458104247,0.0366426074940637,0.1562811732292175,0.1959016323089599,0.6838092803955078,81,102,15518,13645
26.6,1788261553919,5.042253494262695,5.098591327667236,0.0003766812151297,0.0049389214254915,-0.885275661945343,0.4650402963161468,0.1729665592138298,0.0013578386656264,7.24752848311761e-05,-0.0004494875029195,-0.0091218138113617,0.0454173497855663,-0.0036298912018537,0.0033177388831973,-0.1853186041116714,0.9826661944389344,0.0010439466676834,-0.0045686049048754,0.0454841352345768,0.2797094583511352,-0.0093536376953125,0.2215595245361328,105,93,15051,13909
26.7,1788261554019,4.985915660858154,5.295774459838867,0.0003454629331827,0.0049087577499449,-0.8849613070487976,0.4656384885311126,0.1721571151005057,-0.0006473947323214,1.0503859701941949e-05,0.0004159300879109,-0.0017784174997359,0.0270006563514471,-0.003221346065402,0.0037014512345194,-0.1837761402130127,0.9829559326171876,0.0050194508115476,0.0201051917630984,0.0583322908186268,-0.2565069794654846,-0.1433359980583191,-0.3125877380371094,95,78,14958,13619
26.8,1788261554119,4.957746505737305,5.014084339141846,0.0007213428616523,0.0046156616881489,-0.8839524984359741,0.4675531685352325,0.1671766400307111,-0.0009896825871633,7.610577643192657e-05,-0.0097047109156847,0.0010492784203961,-0.0174035057425498,-0.0032007973641157,0.003446196205914,-0.1832124143838882,0.9830620884895324,-0.0071719248236004,0.0151065982884339,-0.0087227021050181,0.0200159549713134,-0.0122789144515991,-0.1503410339355468,63,154,14173,15301
26.9,1788261554219,4.873239517211914,5.183098793029785,0.0007919031195342,0.0044376370497047,-0.8828729391098022,0.4695903658866882,0.1726968426113538,0.0024466924274568,-3.3526197554576746e-05,0.0089801307767629,-0.0036919037811458,0.0511456690728664,-0.0029902774840593,0.0035036476328969,-0.1807089745998382,0.9835258722305298,8.067835585538418e-05,-0.0084505613526169,0.0526192076615245,0.1715621352195739,0.0483773350715637,0.2960853576660156,124,107,14755,14747
27.0,1788261554319,4.901408672332764,5.211267471313477,0.0010740199359133,0.0049486891366541,-0.8823554515838623,0.470556229352951,0.1665381917597065,-0.0021915061595242,-5.0326716667628304e-05,-0.012883273884654,0.0194257535040378,0.0439059846103191,-0.0031048264354467,0.0037485472857952,-0.1795563846826553,0.9837356209754944,0.0010832132434417,-0.0009295844684551,0.0276827590864856,-0.2274876832962036,-0.012006402015686,0.5266437530517578,91,114,14355,14638
27.1,1788261554419,4.8450703620910645,5.154929637908936,0.0009686120320111,0.0047429846599698,-0.8809403777122498,0.4732026159763336,0.1695305322392903,0.0028420828930754,6.628976515919606e-05,0.0052050272934138,-0.011399433016777,0.0631657168269157,-0.0031137550249695,0.0037278532981872,-0.1768872439861297,0.9842191934585572,-0.0034796755830307,0.0035851612813639,0.0675638012644358,-0.0636637806892395,0.0973079800605773,0.1671476364135742,106,116,14772,14949
27.2,1788261554519,4.873239517211914,5.126760482788086,0.0008023597765713,0.0048336866311728,-0.880014955997467,0.4749205112457275,0.1739039648024785,0.0007638739707367,-3.0194601353833235e-05,-0.0034151691943407,0.0057875257916748,0.0180958285927772,-0.0035746125504374,0.0037581659853458,-0.1742348074913025,0.984690487384796,-0.0163921549501177,0.0094718468077947,0.0379575068140633,-0.044313907623291,0.2565277814865112,0.3981609344482422,82,129,14489,14906
