time_s,timestamp_ms,wheel_vels__velocity_left,wheel_vels__velocity_right,odom__orient_x,odom__orient_y,odom__orient_z,odom__orient_w,odom__lin_x,odom__lin_y,odom__lin_z,odom__ang_x,odom__ang_y,odom__ang_z,imu__orient_x,imu__orient_y,imu__orient_z,imu__orient_w,imu__angvel_x,imu__angvel_y,imu__angvel_z,imu__acc_x,imu__acc_y,imu__acc_z,wheel_status__current_ma_left,wheel_status__current_ma_right,wheel_status__pwm_left,wheel_status__pwm_right
0.0,1788259757348,0.0,0.0,-0.005567773245275,0.0001776727149263,0.2771382927894592,0.9608138799667358,0.0,0.0,0.0,0.0,0.0,0.0,-0.0047738887369632,-0.0034407852217555,0.8264832496643066,0.5629305243492126,-0.0001167647308733,5.915323680499183e-06,-1.0222089442681236e-11,0.0114868283271789,-0.0042487382888793,-0.0043487548828125,0,0,0,0
0.1,1788259757448,0.0,0.0,-0.005567773245275,0.0001776727149263,0.2771382927894592,0.9608138799667358,0.0,0.0,0.0,0.0,0.0,0.0,-0.0047738887369632,-0.0034407852217555,0.8264832496643066,0.5629305243492126,-0.0001167647308733,5.915323680499183e-06,-1.0222089442681236e-11,0.0114868283271789,-0.0042487382888793,-0.0043487548828125,0,0,0,0
0.2,1788259757548,0.0,0.0,-0.005567773245275,0.0001776727149263,0.2771382927894592,0.9608138799667358,0.0,0.0,0.0,0.0,0.0,0.0,-0.0047738887369632,-0.0034407852217555,0.8264832496643066,0.5629305243492126,-0.0001167647308733,5.915323680499183e-06,-1.0222089442681236e-11,0.0114868283271789,-0.0042487382888793,-0.0043487548828125,0,0,0,0
0.3,1788259757648,0.0,0.0,-0.005567773245275,0.0001776727149263,0.2771382927894592,0.9608138799667358,0.0,0.0,0.0,0.0,0.0,0.0,-0.0047738887369632,-0.0034407852217555,0.8264832496643066,0.5629305243492126,-0.0001167647308733,5.915323680499183e-06,-1.0222089442681236e-11,0.0114868283271789,-0.0042487382888793,-0.0043487548828125,0,0,0,0
0.4,1788259757748,0.0,0.0,-0.005567773245275,0.0001776727149263,0.2771382927894592,0.9608138799667358,0.0,0.0,0.0,0.0,0.0,0.0,-0.0047738887369632,-0.0034407852217555,0.8264832496643066,0.5629305243492126,-0.0001167647308733,5.915323680499183e-06,-1.0222089442681236e-11,0.0114868283271789,-0.0042487382888793,-0.0043487548828125,0,0,0,0
0.5,1788259757848,0.0,0.0,-0.005567773245275,0.0001776727149263,0.2771382927894592,0.9608138799667358,0.0,0.0,0.0,0.0,0.0,0.0,-0.0047738887369632,-0.0034407852217555,0.8264832496643066,0.5629305243492126,-0.0001167647308733,5.915323680499183e-06,-1.0222089442681236e-11,0.0114868283271789,-0.0042487382888793,-0.0043487548828125,0,0,0,0
0.6,1788259757948,0.0,0.0,-0.005567773245275,0.0001776727149263,0.2771382927894592,0.9608138799667358,0.0,0.0,0.0,0.0,0.0,0.0,-0.0047738887369632,-0.0034407852217555,0.8264832496643066,0.5629305243492126,-0.0001167647308733,5.915323680499183e-06,-1.0222089442681236e-11,0.0114868283271789,-0.0042487382888793,-0.0043487548828125,0,0,0,0
0.7,1788259758048,0.0,0.0,-0.005567773245275,0.0001776727149263,0.2771382927894592,0.9608138799667358,0.0,0.0,0.0,0.0,0.0,0.0,-0.0047738887369632,-0.0034407852217555,0.8264832496643066,0.5629305243492126,-0.0001167647308733,5.915323680499183e-06,-1.0222089442681236e-11,0.0114868283271789,-0.0042487382888793,-0.0043487548828125,0,0,0,0
0.8,1788259758148,0.0,0.0,-0.005567773245275,0.0001776727149263,0.2771382927894592,0.9608138799667358,0.0,0.0,0.0,0.0,0.0,0.0,-0.0047738887369632,-0.0034407852217555,0.8264832496643066,0.5629305243492126,-0.0001167647308733,5.915323680499183e-06,-1.0222089442681236e-11,0.0114868283271789,-0.0042487382888793,-0.0043487548828125,0,0,0,0
0.9,1788259758248,0.0,0.0,-0.005567773245275,0.0001776727149263,0.2771382927894592,0.9608138799667358,0.0,0.0,0.0,0.0,0.0,0.0,-0.0047738887369632,-0.0034407852217555,0.8264832496643066,0.5629305243492126,-0.0001167647308733,5.915323680499183e-06,-1.0222089442681236e-11,0.0114868283271789,-0.0042487382888793,-0.0043487548828125,0,0,0,0
1.0,1788259758348,0.0,0.0,-0.005567773245275,0.0001776727149263,0.2771382927894592,0.9608138799667358,0.0,0.0,0.0,0.0,0.0,0.0,-0.0047738887369632,-0.0034407852217555,0.8264832496643066,0.5629305243492126,-0.0001167647308733,5.915323680499183e-06,-1.0222089442681236e-11,0.0114868283271789,-0.0042487382888793,-0.0043487548828125,0,0,0,0
1.1,1788259758448,0.0,0.0,-0.005567773245275,0.0001776727149263,0.2771382927894592,0.9608138799667358,0.0,0.0,0.0,0.0,0.0,0.0,-0.0047738887369632,-0.0034407852217555,0.8264832496643066,0.5629305243492126,-0.0001167647308733,5.915323680499183e-06,-1.0222089442681236e-11,0.0114868283271789,-0.0042487382888793,-0.0043487548828125,0,0,0,0
1.2,1788259758548,0.0,0.0,-0.005567773245275,0.0001776727149263,0.2771382927894592,0.9608138799667358,0.0,0.0,0.0,0.0,0.0,0.0,-0.0047753201797604,-0.0034471433609724,0.8264832496643066,0.5629305243492126,-0.0001188937331398,-6.833483972012403e-05,1.1067305344463856e-10,0.0144901871681213,-0.0293707251548767,0.006810188293457,0,0,0,0
1.3,1788259758648,0.0,0.0,-0.005567773245275,0.0001776727149263,0.2771382927894592,0.9608138799667358,0.0,0.0,0.0,0.0,0.0,0.0,-0.0047758761793375,-0.0034537492319941,0.8264832496643066,0.5629305243492126,-0.0001119331800846,-8.131566111791698e-05,1.365621256743407e-10,0.0051955580711364,0.0100303888320922,0.0183477401733398,0,0,0,0
1.4,1788259758748,0.0,0.0,-0.005567773245275,0.0001776727149263,0.2771382927894592,0.9608138799667358,0.0,0.0,0.0,0.0,0.0,0.0,-0.0047762766480445,-0.0034589916467666,0.8264832496643066,0.5629305243492126,-8.198691321712128e-05,-2.980249831857249e-05,3.7872706498664015e-11,-0.0104554891586303,0.0135784745216369,0.0072889328002929,0,0,0,0
1.5,1788259758848,0.0,0.0,-0.005567773245275,0.0001776727149263,0.2771382927894592,0.9608138799667358,0.0,0.0,0.0,0.0,0.0,0.0,-0.0047775087878108,-0.0034606736153364,0.8264832496643066,0.5629305243492126,-4.027404118783595e-05,4.018075362216459e-05,-2.4230247066387943e-11,-0.0080958008766174,-0.0064154267311096,0.0082578659057617,0,0,0,0
1.6,1788259758948,0.0,0.0,-0.005567773245275,0.0001776727149263,0.2771382927894592,0.9608138799667358,0.0,0.0,0.0,0.0,0.0,0.0,-0.0047814846038818,-0.0034590186551213,0.8264832496643066,0.5629305243492126,-9.62137477125263e-06,0.0001016893522205,-1.4560978527938315e-11,-0.0002707242965698,-0.0064013004302978,-0.017343521118164,0,0,0,0
1.7,1788259759048,0.0,0.0,-0.005567773245275,0.0001776727149263,0.2771382927894592,0.9608138799667358,0.0,0.0,0.0,0.0,0.0,0.0,-0.0047873342409729,-0.0034577529877424,0.8264831304550171,0.5629304647445679,-6.204768759428793e-05,0.0001532007905945,-1.2805467456881588e-10,0.0233764052391052,0.0279107689857482,-0.0007648468017578,0,0,0,0
1.8,1788259759148,0.0,0.0,-0.005567773245275,0.0001776727149263,0.2771382927894592,0.9608138799667358,0.0,0.0,0.0,0.0,0.0,0.0,-0.0047936486080288,-0.0034532863646745,0.8264831304550171,0.5629304647445679,3.1577888934643274e-05,0.0001255038425732,1.988239173709446e-06,0.0055922269821166,0.0076713562011718,-0.0313072204589843,0,0,0,0
1.9,1788259759248,0.0,0.0,-0.005567773245275,0.0001776727149263,0.2771382927894592,0.9608138799667358,0.0,0.0,0.0,0.0,0.0,0.0,-0.0047950372099876,-0.0034485002979636,0.8264831304550171,0.5629304647445679,6.464744610282937e-05,7.47707611013971e-05,7.459725557348214e-11,0.0070282816886901,-0.0070546269416809,-0.0147171020507812,0,0,0,0
2.0,1788259759348,0.0,0.0,-0.005567773245275,0.0001776727149263,0.2771382927894592,0.9608138799667358,0.0,0.0,0.0,0.0,0.0,0.0,-0.0047973887994885,-0.0034438325092196,0.8264831304550171,0.5629304647445679,5.069224706283016e-05,0.0001150818084395,1.935254501936397e-06,-0.0017070770263671,-0.0072459578514099,0.0163297653198242,0,0,0,0
2.1,1788259759448,0.0,0.0,-0.005567773245275,0.0001776727149263,0.2771382927894592,0.9608138799667358,0.0,0.0,0.0,0.0,0.0,0.0,-0.0048030391335487,-0.0034364713355898,0.8264831304550171,0.5629304647445679,7.463245263005866e-05,0.0001529656880351,1.8099593617829752e-10,0.0078502297401428,0.0248840451240539,-0.0005559921264648,0,0,0,0
2.2,1788259759548,0.0,0.0,-0.005567773245275,0.0001776727149263,0.2771382927894592,0.9608138799667358,0.0,0.0,0.0,0.0,0.0,0.0,-0.0048052128404378,-0.003428678959608,0.8264831304550171,0.5629304647445679,0.0001255815629032,0.0001279054031874,2.413991477374787e-10,-0.0101003646850585,-0.0023353695869445,-0.0276317596435546,0,0,0,0
2.3,1788259759648,0.0,0.0,-0.0057917186059057,0.0003578723408281,0.2769924104213714,0.9608545899391174,-0.0005436218638399,0.0006321425919001,-7.321108322153372e-09,-0.0068118600174784,0.0097446730360388,-0.0062129464931786,-0.0048049055039882,-0.0034202374517917,0.8264831304550171,0.5629304647445679,0.0001677934326129,8.220663380196625e-05,2.0410184242859523e-06,-0.0088691711425781,-0.0065980553627014,0.013737678527832,0,0,0,0
2.4,1788259759748,0.0,0.0,-0.005791719071567,0.0003578723408281,0.2769924104213714,0.9608545899391174,0.0,0.0,0.0,0.0,0.0,0.0,-0.0048000086098909,-0.0034092366695404,0.8264832496643066,0.5629305243492126,0.0002126411611994,-1.9340620541268345e-05,1.930980825355149e-06,-0.0078299045562744,0.0036266446113586,0.0029268264770507,0,0,0,0
2.5,1788259759848,0.0,0.0,-0.005791719071567,0.0003578723408281,0.2769924104213714,0.9608545899391174,0.0,0.0,0.0,0.0,0.0,0.0,-0.0047916239127516,-0.0034041972830891,0.8264832496643066,0.5629305243492126,0.0002047172398751,-0.0001243011308189,-3.7140142977629835e-10,-0.0032852292060852,0.0106467604637146,0.0152769088745117,0,0,0,0
2.6,1788259759948,0.0,0.0,-0.005791719071567,0.0003578723408281,0.2769924104213714,0.9608545899391174,0.0,0.0,0.0,0.0,0.0,0.0,-0.0047812340781092,-0.0034005967900156,0.8264833688735962,0.5629305839538574,0.0001660135901875,-0.0001387840037192,-3.642663531767258e-10,-0.006995677947998,0.012717068195343,-0.0086078643798828,0,0,0,0
2.7,1788259760048,0.0,0.0,-0.005791719071567,0.0003578723408281,0.2769924104213714,0.9608545899391174,0.0,0.0,0.0,0.0,0.0,0.0,-0.0047687236219644,-0.0033988300710916,0.8264833688735962,0.5629305839538574,9.828226479453154e-05,-0.0001747135473862,-2.5505531257728705e-10,0.0014336705207824,0.0094428062438964,0.0130977630615234,0,0,0,0
2.8,1788259760148,0.0,0.0,-0.005791719071567,0.0003578723408281,0.2769924104213714,0.9608545899391174,0.0,0.0,0.0,0.0,0.0,0.0,-0.0047594364732503,-0.003400002606213,0.8264834880828857,0.5629306435585022,0.0001113255940022,-0.000193549280883,-3.3167240369316347e-10,-0.0114713907241821,-0.03214693069458,0.0069894790649414,0,0,0,0
2.9,1788259760248,0.0,0.0,-0.005791719071567,0.0003578723408281,0.2769924104213714,0.9608545899391174,0.0,0.0,0.0,0.0,0.0,0.0,-0.0047501772642135,-0.0034006172791123,0.8264834880828857,0.5629306435585022,0.0001011520357841,-0.0001561601735253,-2.360781670315918e-10,0.0212020277976989,0.0200631618499755,-0.0037384033203125,0,0,0,0
3.0,1788259760348,0.0,0.0,-0.005791719071567,0.0003578723408281,0.2769924104213714,0.9608545899391174,0.0,0.0,0.0,0.0,0.0,0.0,-0.0047418354079127,-0.0033994577825069,0.8264834880828857,0.5629306435585022,8.303221196753562e-05,-6.504395464050594e-05,-8.080962017861743e-11,-0.0069931745529174,0.0110597014427185,0.0053434371948242,0,0,0,0
3.1,1788259760448,0.0,0.0,-0.005791719071567,0.0003578723408281,0.2769924104213714,0.9608545899391174,0.0,0.0,0.0,0.0,0.0,0.0,-0.0047378530725836,-0.0033962959423661,0.8264834880828857,0.5629306435585022,0.0001267853953574,-2.781461629388287e-05,-4.6640859897892656e-11,-0.0085711479187011,-0.0144120454788208,0.004709243774414,0,0,0,0
3.2,1788259760548,0.0,0.0,-0.005791719071567,0.0003578723408281,0.2769924104213714,0.9608545899391174,0.0,0.0,0.0,0.0,0.0,0.0,-0.0047356495633721,-0.0033916253596544,0.8264836072921753,0.562930703163147,0.0001315591643808,3.381186442376474e-05,6.87972370533459e-11,0.0349463820457458,-0.0076276063919067,0.0058088302612304,0,0,0,0
3.3,1788259760648,0.0,0.0,-0.005791719071567,0.0003578723408281,0.2769924104213714,0.9608545899391174,0.0,0.0,0.0,0.0,0.0,0.0,-0.0047323266044259,-0.0033836159855127,0.8264836072921753,0.562930703163147,0.0001228053101034,4.092018712106635e-05,1.908892067401007e-06,0.0064721703529357,0.0104934573173522,-0.0221109390258789,0,0,0,0
3.4,1788259760748,0.0,0.0,-0.005791719071567,0.0003578723408281,0.2769924104213714,0.9608545899391174,0.0,0.0,0.0,0.0,0.0,0.0,-0.0047298604622483,-0.0033793486654758,0.8264836072921753,0.562930703163147,8.730713894933419e-05,-8.106510281492997e-06,-8.131111790735891e-12,0.0149500370025634,0.0015672445297241,-0.0043373107910156,0,0,0,0
3.5,1788259760848,0.0,0.0,-0.005791719071567,0.0003578723408281,0.2769924104213714,0.9608545899391174,0.0,0.0,0.0,0.0,0.0,0.0,-0.0047255391255021,-0.0033772215247154,0.8264837265014648,0.5629307627677917,8.7776370497008e-05,-7.912100258509628e-05,-1.0050930783718016e-10,0.030432641506195,-0.0217997431755065,-0.0020360946655273,0,0,0,0
3.6,1788259760948,0.0,0.0,-0.005791719071567,0.0003578723408281,0.2769924104213714,0.9608545899391174,0.0,0.0,0.0,0.0,0.0,0.0,-0.004718373529613,-0.0033801924437284,0.8264837265014648,0.5629307627677917,1.1879363291740363e-06,-0.000141255037428,-2.4995251450854813e-12,-0.0005989074707031,-0.0210461616516113,-0.0164403915405273,0,0,0,0
3.7,1788259761048,0.0,0.0,-0.005791719071567,0.0003578723408281,0.2769924104213714,0.9608545899391174,0.0,0.0,0.0,0.0,0.0,0.0,-0.0047143641859292,-0.0033873710781335,0.8264837265014648,0.5629307627677917,-0.0001218338261823,-0.0001606146919462,-1.9852844074290715e-06,0.0046066641807556,0.0106010437011718,-0.0268735885620117,0,0,0,0
3.8,1788259761148,0.0,0.0,-0.005791719071567,0.0003578723408281,0.2769924104213714,0.9608545899391174,0.0,0.0,0.0,0.0,0.0,0.0,-0.0047102002426981,-0.0033966312184929,0.8264837265014648,0.5629307627677917,-0.000132617939201,-0.0002313856287409,-2.132925293329522e-06,-0.001480221748352,-0.0054934620857238,-0.0174474716186523,0,0,0,0
3.9,1788259761248,0.0,0.0,-0.005791719071567,0.0003578723408281,0.2769924104213714,0.9608545899391174,0.0,0.0,0.0,0.0,0.0,0.0,-0.0047039575874805,-0.0034106001257896,0.8264837265014648,0.5629307627677917,-0.0001420727347663,-0.0002155367929662,4.596309881378725e-10,0.0001575350761413,-0.0194984674453735,-0.0220718383789062,0,0,0,0
4.0,1788259761348,0.0,0.0,-0.005791719071567,0.0003578723408281,0.2769924104213714,0.9608545899391174,0.0,0.0,0.0,0.0,0.0,0.0,-0.0047025009989738,-0.0034227883443236,0.8264836072921753,0.562930703163147,-0.0001977250981956,-0.0001488373221752,-1.8798316322412769e-06,-0.0067521929740905,0.0043519735336303,-0.0120954513549804,0,0,0,0
4.1,1788259761448,0.0,0.0,-0.005791719071567,0.0003578723408281,0.2769924104213714,0.9608545899391174,0.0,0.0,0.0,0.0,0.0,0.0,-0.0047013526782393,-0.0034325048327445,0.8264836072921753,0.562930703163147,-0.0001520053644267,-0.0001303014095919,-1.9883261176971147e-06,-0.0067508816719055,-0.0032240152359008,0.0010499954223632,0,0,0,0
4.2,1788259761548,0.0,0.0,-0.005791719071567,0.0003578723408281,0.2769924104213714,0.9608545899391174,0.0,0.0,0.0,0.0,0.0,0.0,-0.0046999752521514,-0.0034424364566802,0.8264836072921753,0.562930703163147,-0.0001205038110218,-0.0001237460059652,-1.93000238913473e-06,-0.0087246298789978,-0.0319549441337585,0.0086908340454101,0,0,0,0
4.3,1788259761648,0.0,0.0,-0.005791719071567,0.0003578723408281,0.2769924104213714,0.9608545899391174,0.0,0.0,0.0,0.0,0.0,0.0,-0.0046977438032627,-0.0034508630633354,0.8264836072921753,0.562930703163147,-0.0001006689201211,-0.0001660017849909,2.4995142504626565e-10,0.0088691711425781,0.0254033207893371,-0.0139274597167968,0,0,0,0
4.4,1788259761748,0.0,0.0,-0.005791719071567,0.0003578723408281,0.2769924104213714,0.9608545899391174,0.0,0.0,0.0,0.0,0.0,0.0,-0.00469271838665,-0.0034557431936264,0.8264836072921753,0.562930703163147,7.008831649233073e-06,-0.0001342810854284,-1.3975338698888929e-11,-0.0108644962310791,0.0171800851821899,0.020263671875,0,0,0,0
4.5,1788259761848,0.0,0.0,-0.005791719071567,0.0003578723408281,0.2769924104213714,0.9608545899391174,0.0,0.0,0.0,0.0,0.0,0.0,-0.0046874154359102,-0.0034560747444629,0.8264836072921753,0.562930703163147,7.042528568626126e-05,-8.10092598458607e-05,-8.885623146424388e-11,-0.0086827874183654,-0.0137318968772888,0.0093812942504882,0,0,0,0
4.6,1788259761948,0.0,0.0,-0.005791719071567,0.0003578723408281,0.2769924104213714,0.9608545899391174,0.0,0.0,0.0,0.0,0.0,0.0,-0.0046843495219945,-0.0034537557512521,0.8264836072921753,0.562930703163147,3.4193009649711344e-05,6.413935000673905e-06,3.486997034999907e-12,-0.0383604168891906,-0.0168002843856811,-0.0253782272338867,0,0,0,0
4.7,1788259762048,0.0,0.0,-0.005791719071567,0.0003578723408281,0.2769924104213714,0.9608545899391174,0.0,0.0,0.0,0.0,0.0,0.0,-0.0046863751485943,-0.0034514311701059,0.8264836072921753,0.562930703163147,1.66700690041376e-05,8.66034210448381e-05,2.1595569313276e-11,0.0358535051345825,-0.0203675627708435,-0.0253877639770507,0,0,0,0
4.8,1788259762148,0.0,0.0,-0.005791719071567,0.0003578723408281,0.2769924104213714,0.9608545899391174,0.0,0.0,0.0,0.0,0.0,0.0,-0.0046881325542926,-0.0034494446590542,0.8264836072921753,0.562930703163147,2.383521495438932e-05,4.0513838819439245e-05,1.4922789533704724e-11,0.0085223913192749,-0.0062005519866943,-0.0113420486450195,0,0,0,0
4.9,1788259762248,0.0,0.0,-0.005791719071567,0.0003578723408281,0.2769924104213714,0.9608545899391174,0.0,0.0,0.0,0.0,0.0,0.0,-0.0046855993568897,-0.0034475503489375,0.8264836072921753,0.562930703163147,2.152559106505672e-05,-3.830825528527043e-05,-1.1051056976069244e-11,-0.0083534717559814,0.0206272602081298,0.0159463882446289,0,0,0,0
5.0,1788259762348,0.0,0.0,-0.005791719071567,0.0003578723408281,0.2769924104213714,0.9608545899391174,0.0,0.0,0.0,0.0,0.0,0.0,-0.0046848440542817,-0.0034493030980229,0.8264836072921753,0.562930703163147,-4.328712655756184e-05,-4.3785571135358105e-05,2.8330862598917028e-11,-0.0138604044914245,-0.0219410061836242,0.0137357711791992,0,0,0,0
5.1,1788259762448,0.0,0.0,-0.005791719071567,0.0003578723408281,0.2769924104213714,0.9608545899391174,0.0,0.0,0.0,0.0,0.0,0.0,-0.0046846689656376,-0.0034524798393249,0.8264836072921753,0.562930703163147,-3.0203114487301843e-05,-3.5765272204765354e-05,1.682104772274057e-11,-0.0011035203933715,0.0085906982421875,-0.0090761184692382,0,0,0,0
5.2,1788259762548,0.0,0.0,-0.005791719071567,0.0003578723408281,0.2769924104213714,0.9608545899391174,0.0,0.0,0.0,0.0,0.0,0.0,-0.0046839164569973,-0.0034526623785495,0.8264836072921753,0.562930703163147,1.5595015883151584e-05,1.5051364931049686e-05,3.518436660704642e-12,-0.0347197651863098,0.0118175148963928,-0.0148439407348632,0,0,0,0
5.3,1788259762648,0.0,0.0,-0.005791719071567,0.0003578723408281,0.2769924104213714,0.9608545899391174,0.0,0.0,0.0,0.0,0.0,0.0,-0.004685222171247,-0.0034493943676352,0.8264836072921753,0.562930703163147,-6.220869951241883e-06,4.580114772475041e-05,-4.265565088179158e-12,-0.0058167576789855,-0.0130343437194824,-0.0076160430908203,0,0,0,0
5.4,1788259762748,0.0,0.0,-0.005791719071567,0.0003578723408281,0.2769924104213714,0.9608545899391174,0.0,0.0,0.0,0.0,0.0,0.0,-0.0046892194077372,-0.0034507764503359,0.8264836072921753,0.562930703163147,-0.0001091878533244,4.984527926069285e-05,-8.165635747793944e-11,-0.0182125568389892,0.0184500217437744,-0.0272235870361328,0,0,0,0
5.5,1788259762848,0.0,0.0,-0.005791719071567,0.0003578723408281,0.2769924104213714,0.9608545899391174,0.0,0.0,0.0,0.0,0.0,0.0,-0.0046946546062827,-0.0034543657675385,0.8264836072921753,0.562930703163147,-0.0001235363014806,5.592502065142604e-05,-1.1039253442613172e-10,0.0015070438385009,0.0148326158523559,0.0034847259521484,0,0,0,0
5.6,1788259762948,0.0,0.0,-0.005791719071567,0.0003578723408281,0.2769924104213714,0.9608545899391174,0.0,0.0,0.0,0.0,0.0,0.0,-0.0047019710764288,-0.0034586964175105,0.8264834880828857,0.5629306435585022,-0.0001482243140785,7.056169540977586e-05,-1.6323779839825182e-10,0.0034420490264892,0.0276748538017272,0.0168838500976562,0,0,0,0
5.7,1788259763048,0.0,0.0,-0.005791719071567,0.0003578723408281,0.2769924104213714,0.9608545899391174,0.0,0.0,0.0,0.0,0.0,0.0,-0.0047087222337722,-0.0034615350887179,0.8264834880828857,0.5629306435585022,-0.0001294312762585,8.29242276414265e-05,-1.6544425777396958e-10,-0.0071297883987426,-0.0350592136383056,0.008101463317871,0,0,0,0
5.8,1788259763148,0.0,0.0,-0.005791719071567,0.0003578723408281,0.2769924104213714,0.9608545899391174,0.0,0.0,0.0,0.0,0.0,0.0,-0.0047184312716126,-0.0034670243039727,0.8264834880828857,0.5629306435585022,-0.0001794573846583,5.660779725502831e-05,-1.5221610477799743e-10,-0.0109314322471618,-0.0220106840133667,0.0119247436523437,1,0,0,0
5.9,1788259763248,0.0,0.0,-0.005791719071567,0.0003578723408281,0.2769924104213714,0.9608545899391174,0.0,0.0,0.0,0.0,0.0,0.0,-0.0047262404114007,-0.0034740567207336,0.8264833688735962,0.5629305839538574,-0.0002413187054284,5.584937262125368e-05,-1.955848181508986e-10,0.0161584019660949,0.0110269784927368,-0.0079984664916992,0,0,0,0
6.0,1788259763348,0.0,0.0,-0.005791719071567,0.0003578723408281,0.2769924104213714,0.9608545899391174,0.0,0.0,0.0,0.0,0.0,0.0,-0.0047330260276794,-0.0034810528159141,0.8264833688735962,0.5629305839538574,-0.0002248412406335,4.399627637480479e-05,-2.198230664415183e-06,-0.0125683546066284,-0.0105448365211486,-0.014139175415039,0,0,0,0
6.1,1788259763448,0.0,0.0,-0.005791719071567,0.0003578723408281,0.2769924104213714,0.9608545899391174,0.0,0.0,0.0,0.0,0.0,0.0,-0.0047397287562489,-0.0034869303926825,0.8264832496643066,0.5629305243492126,-0.0001665865530909,4.382510191952822e-05,-1.463025184547702e-10,-0.0088387131690979,0.0253678560256958,-0.0245275497436523,0,0,0,0
6.2,1788259763548,0.0,0.0,-0.005791719071567,0.0003578723408281,0.2769924104213714,0.9608545899391174,0.0,0.0,0.0,0.0,0.0,0.0,-0.0047456920146942,-0.0034888796508312,0.8264832496643066,0.5629305243492126,-7.04038546318105e-05,0.0001114153419987,2.05126172991703e-06,0.0043109655380249,-0.0220378041267395,-0.0277137756347656,0,0,0,0
6.3,1788259763648,0.0,0.0,-0.005791719071567,0.0003578723408281,0.2769924104213714,0.9608545899391174,0.0,0.0,0.0,0.0,0.0,0.0,-0.0047526722773909,-0.0034868624061346,0.8264832496643066,0.5629305243492126,-4.162858411515113e-06,0.0001122729126807,-7.0056739725245245e-12,0.0114665031433105,0.0096381902694702,-0.0011072158813476,0,0,0,0
6.4,1788259763748,0.0,0.0,-0.005791719071567,0.0003578723408281,0.2769924104213714,0.9608545899391174,0.0,0.0,0.0,0.0,0.0,0.0,-0.0047552529722452,-0.0034848153591156,0.8264832496643066,0.5629305243492126,-5.373337596035581e-06,6.431109269443464e-05,-4.761601013319462e-12,0.0001848936080932,0.0185242295265197,0.0278396606445312,0,0,0,0
6.5,1788259763848,0.0,0.0,-0.005791719071567,0.0003578723408281,0.2769924104213714,0.9608545899391174,0.0,0.0,0.0,0.0,0.0,0.0,-0.0047580664977431,-0.0034860018640756,0.8264832496643066,0.5629305243492126,-7.902327795694364e-05,7.402142916116946e-06,-8.794740479188009e-12,0.0034857988357543,0.0013501048088073,0.0124416351318359,0,0,0,0
6.6,1788259763948,0.0,0.0,-0.005791719071567,0.0003578723408281,0.2769924104213714,0.9608545899391174,0.0,0.0,0.0,0.0,0.0,0.0,-0.0047594392672181,-0.0034889709204435,0.8264832496643066,0.5629305243492126,-4.981696849633635e-05,-2.5189212919882533e-05,1.9254198086516463e-11,0.0086545944213867,-0.0203914642333984,-0.0008325576782226,0,0,0,0
6.7,1788259764048,0.0,0.0,-0.005791719071567,0.0003578723408281,0.2769924104213714,0.9608545899391174,0.0,0.0,0.0,0.0,0.0,0.0,-0.0047588376328349,-0.0034928396344184,0.8264832496643066,0.5629305243492126,-6.960561693089532e-05,-7.376927736266837e-05,-1.981136661452225e-06,0.0352373123168945,0.0104172229766845,-0.0147676467895507,0,0,0,0
6.8,1788259764148,0.0,0.0,-0.005791719071567,0.0003578723408281,0.2769924104213714,0.9608545899391174,0.0,0.0,0.0,0.0,0.0,0.0,-0.004754633642733,-0.003497339785099,0.8264831304550171,0.5629304647445679,-2.131169828610694e-05,-0.0001669441861578,5.321266919647501e-11,-0.0069624185562133,-0.0132706761360168,-0.004256248474121,1,0,0,0
6.9,1788259764248,0.0,0.0,-0.005791719071567,0.0003578723408281,0.2769924104213714,0.9608545899391174,0.0,0.0,0.0,0.0,0.0,0.0,-0.0047448864206671,-0.003504317253828,0.8264831304550171,0.5629304647445679,4.926490347870436e-06,-0.0002229197511824,-1.645311393958032e-11,-0.0165534615516662,-0.0098066926002502,-0.0071887969970703,0,0,0,0
7.0,1788259764348,0.0,0.0,-0.005791719071567,0.0003578723408281,0.2769924104213714,0.9608545899391174,0.0,0.0,0.0,0.0,0.0,0.0,-0.0047367298975586,-0.0035108961164951,0.8264832496643066,0.5629305243492126,-2.6350762821393315e-05,-0.0002414659901362,9.557515923671076e-11,0.0027754306793212,0.0046743750572204,0.0060243606567382,0,0,0,0
7.1,1788259764448,0.0,0.0,-0.005791719071567,0.0003578723408281,0.2769924104213714,0.9608545899391174,0.0,0.0,0.0,0.0,0.0,0.0,-0.0047367298975586,-0.0035108961164951,0.8264832496643066,0.5629305243492126,-2.6350762821393315e-05,-0.0002414659901362,9.557515923671076e-11,0.0027754306793212,0.0046743750572204,0.0060243606567382,0,0,0,0
7.2,1788259764548,0.0,0.0,-0.005791719071567,0.0003578723408281,0.2769924104213714,0.9608545899391174,0.0,0.0,0.0,0.0,0.0,0.0,-0.0047367298975586,-0.0035108961164951,0.8264832496643066,0.5629305243492126,-2.6350762821393315e-05,-0.0002414659901362,9.557515923671076e-11,0.0027754306793212,0.0046743750572204,0.0060243606567382,0,0,0,0
7.3,1788259764648,2.7887322902679443,6.732394218444824,-0.0056878579780459,-9.609863627701998e-05,0.3015596866607666,0.9534303545951844,0.1313093587682778,-0.0035678129390432,-8.24190964219345e-06,0.013762486167252,2.582256456662435e-06,0.4101908802986145,-0.0043201390653848,-0.0040411492809653,0.846547544002533,0.5322802066802979,-0.0258168734321896,-0.0014671074104772,0.4465311788910409,0.3771620392799377,0.0865316390991211,1.5003290176391602,57,142,9537,17588
7.4,1788259764748,2.8450703620910645,6.535211086273193,-0.0064590275287628,5.6933844462037086e-05,0.3297908306121826,0.9440320134162904,0.1726591764964542,0.0041297629490984,-3.294484249683543e-06,-0.0082384943962097,0.0106000928208231,0.6004419326782227,-0.0049971593543887,-0.0041972463950514,0.8652617931365967,0.5012779235839844,-0.0054083589989912,0.0300763679288895,0.6113774539198482,-0.1476829648017883,-0.1798229217529297,-0.3187894821166992,60,52,8416,16386
7.5,1788259764848,2.3380281925201416,5.492957592010498,-0.0066458215005695,0.0001470213755965,0.3570503890514374,0.9340614080429076,0.1599265996408334,-0.0033642111050672,2.3683168674088565e-05,-0.0038540731184184,0.0074102049693465,0.5861808657646179,-0.0056759621948003,-0.0040144333615899,0.8773415684700012,0.4798161089420318,-0.0093259174927353,0.0334211327958464,0.4935142649584162,-0.4220614433288574,0.1143271327018737,0.5492134094238281,12,24,5793,10589
7.6,1788259764948,2.7042253017425537,4.788732528686523,-0.0067676659673452,0.0002225623466074,0.3780324161052704,0.9257676005363464,0.1277740909649432,-0.0008746133018666,3.07024356890041e-05,-0.0017515564104542,-0.0069531393237411,0.425054132938385,-0.005166926421225,-0.0040910895913839,0.8860082030296326,0.4636227488517761,0.0096610217296187,-0.0133712908043311,0.4108887470466887,0.3257350921630859,0.073405385017395,0.124053955078125,106,64,8359,12796
7.7,1788259765048,2.816901445388794,4.985915660858154,-0.0067261084914207,0.000156705500558,0.3939341902732849,0.9191140532493592,0.1189390915087038,0.0038091365378395,2.8713591383622975e-05,-0.0065535879693925,-0.0037947865203022,0.3182849586009979,-0.0049761841073632,-0.0046180561184883,0.8952624797821045,0.4454874098300934,-0.0068217393277204,-0.0178044369563712,0.3595518564426845,0.111185610294342,-0.0950905680656433,0.2311954498291015,80,79,8244,13235
7.8,1788259765148,3.746478796005249,5.7183098793029785,-0.0069158878177404,-0.000247542746365,0.4121321439743042,0.9110978245735168,0.1304862749862411,0.0055303160602374,-2.030169796471082e-06,-0.0042602783069014,0.0026928950101137,0.3600176870822906,-0.0050681997090578,-0.0044120978564023,0.9022102355957032,0.4312441349029541,0.0142045461175583,-0.004303835122554,0.3656076667738916,1.2527797222137451,-0.1351074576377868,0.0436744689941406,208,186,15569,16617
7.9,1788259765248,4.619718074798584,5.605633735656738,-0.00663872808218,-5.101924762129784e-05,0.4246513247489929,0.905332624912262,0.1936712334850754,-0.0035218852095783,-5.389597727342729e-06,0.0037860467564314,0.0016189259476959,0.2416629344224929,-0.0050679398700594,-0.0042326422408223,0.9065011143684388,0.4221517741680145,0.0012920038776971,-0.001310636277085,0.1999449945134681,-0.3681639432907104,-0.0687163472175598,0.0345077514648437,80,46,12217,12886
8.0,1788259765348,2.5915493965148926,3.91549301147461,-0.0064978473819792,0.0002772146835923,0.4324313998222351,0.9016433954238892,0.1727698766900436,0.0013257850442661,-1.4465665525054035e-05,0.00632278714329,0.0072551821358501,0.1566890180110931,-0.0051783816888928,-0.0037421090528368,0.9095508456230164,0.4155437350273132,0.0101908667465607,-0.0015428680641519,0.1563595041785491,-1.2967069149017334,0.0963032841682434,-0.3380851745605469,69,27,3635,8370
8.1,1788259765448,4.591549396514893,5.77464771270752,-0.006172239780426,0.0003133250866085,0.4417153596878052,0.8971339464187622,0.0927252764611672,0.0035738195450272,7.821736961792062e-07,0.0039386427961289,-0.0102350637316703,0.2392313927412033,-0.0049521652981638,-0.0036155814304947,0.9144854545593262,0.4045723974704742,0.0041543029561006,0.0449999442130624,0.1158474327019209,0.8153235912322998,-0.0679080486297607,0.6126585006713867,123,118,14789,14974
8.2,1788259765548,4.957746505737305,5.323943614959717,-0.0058266567066311,0.000758710084483,0.4489602744579315,0.893532395362854,0.1822061988431341,0.0037885248355887,-4.133358617022874e-05,0.0122169144451618,0.0086319195106625,0.1392296850681305,-0.004546551965177,-0.0032345931977033,0.9172263741493224,0.398327499628067,0.0032197190742267,-0.0291061106898684,0.188445759891094,-0.1806289553642273,-0.2737758159637451,-0.4508838653564453,54,25,13707,12684
8.3,1788259765648,4.704225540161133,5.549295902252197,-0.0055363606661558,0.000589464791119,0.4559851586818695,0.8899699449539185,0.1695974404112818,0.0067048615705142,1.0156493011874612e-05,-0.002632888732478,-0.000822851085104,0.1336145401000976,-0.0041495067998766,-0.0030368221923708,0.9202209711074828,0.391365498304367,0.0174124522192912,-0.0162048681974966,0.1169394550469478,-0.1896471381187439,0.1640156507492065,-0.3652276992797851,73,79,12023,13784
8.4,1788259765748,4.676056385040283,5.521126747131348,-0.0050627328455448,0.0006217069458216,0.460976779460907,0.8873975872993469,0.1665818104691654,6.197360511111685e-05,1.1091887493197624e-06,0.0121229169890284,0.0052984063513576,0.1384809613227844,-0.0042303521186113,-0.0023887073621153,0.9226914048194884,0.3855087459087372,0.0199900832038319,0.0159612796842855,0.1432208757148433,-0.0510446429252624,-0.116488516330719,-0.1616439819335937,63,81,12696,14432
8.5,1788259765848,4.535211086273193,5.605633735656738,-0.0046291258186101,0.0008272548438981,0.4672284424304962,0.8841241002082825,0.1815726770066138,-0.0023132723846073,4.009658967571245e-06,-0.0092289149761199,0.0109782693907618,0.1568584442138672,-0.0045684520155191,-0.0024097822606563,0.9249383807182312,0.3800818622112274,-0.0037494782093627,0.0029432284501746,0.0985074864144617,-0.0387093424797058,-0.3151444792747497,0.3525295257568359,49,78,12614,13766
8.6,1788259765948,4.676056385040283,5.6619720458984375,-0.0050285621546208,0.0013517577899619,0.4729620814323425,0.8810673952102661,0.1692699099117614,0.0011796808334359,-8.849448081187676e-06,0.0084828240796923,0.008150115609169,0.1338237822055816,-0.0048312237486243,-0.0021352367475628,0.9273674488067628,0.3741147220134735,-0.0077599453376769,0.0053093619201175,0.1345893001562347,-0.1313605904579162,-0.0179214477539062,0.2463159561157226,69,78,12359,13818
8.7,1788259766048,4.478873252868652,5.492957592010498,-0.0050701703876256,0.0008503205608576,0.478761076927185,0.8779301643371582,0.1773404111929785,0.0001386529674422,-6.660317248846879e-06,-0.011316729709506,-0.0132045429199934,0.1338440328836441,-0.0049058487638831,-0.0023381514474749,0.9305313229560852,0.3661720156669616,0.0099142341761056,-0.015375255988942,0.1587184663548153,-0.0444604754447937,0.0706995725631713,1.4329328536987305,85,103,12844,14606
8.8,1788259766148,4.788732528686523,5.6619720458984375,-0.0054271332919597,0.0017062578117474,0.4850482046604156,0.8744688034057617,0.1720627545339431,0.0017652120012206,-1.8354125658828518e-05,0.0039965910837054,0.0111559201031923,0.1519573628902435,-0.0052940603345632,-0.0021666474640369,0.933009386062622,0.3598065078258514,-0.003532661169614,0.015524889411636,0.1498971083076782,-0.0699482560157775,0.2329380512237548,-0.0460948944091796,66,95,11894,13842
8.9,1788259766248,4.732394218444824,5.605633735656738,-0.0056260535493493,0.0016528638079762,0.4915843605995178,0.8708102107048035,0.1923638265365305,-0.0027967008440947,-3.1187633067785504e-07,-0.0089807212352752,0.0041963490657508,0.1624790430068969,-0.0056461570784449,-0.0023447144776582,0.935453236103058,0.3533975780010223,-0.0015110349345427,0.0221865006894626,0.1628614827752246,-0.1563621759414672,-0.3847106099128723,0.6495485305786133,59,86,11878,14154
9.0,1788259766348,4.619718074798584,5.521126747131348,-0.0059535391628742,0.0019357630517333,0.4990534484386444,0.8665486574172974,0.1750706591565445,0.0013657138134131,-2.129255275847626e-05,-0.002882475266233,0.0066663082689046,0.1526626050472259,-0.0060095014050602,-0.002108559012413,0.9387094378471376,0.3446508049964905,0.0012404642030517,0.0198940823822443,0.1499384571612292,-0.1080228090286254,0.1076171994209289,-0.5213479995727539,84,68,12240,14288
9.1,1788259766448,4.704225540161133,5.6619720458984375,-0.0060038832016289,0.0022085413802415,0.5055931210517883,0.8627483248710632,0.1701265911604124,0.0040729885505085,-7.317905547190332e-06,-0.0016557398485019,0.0018993142293766,0.1618421971797943,-0.0056302295997738,-0.0022450741380453,0.9412187933921814,0.3377431333065033,-0.0004557703081832,-0.0197699333566081,0.1519300031915005,0.1316738724708557,-0.0348807573318481,0.2262458801269531,72,88,11882,13923
9.2,1788259766548,4.732394218444824,5.605633735656738,-0.005699997767806,0.0022391648963093,0.5124044418334961,0.8587223887443542,0.1788595914636036,0.0001288924511152,-3.411253578707034e-05,0.0085000675171613,0.0073305577971041,0.1660899668931961,-0.0053381342440843,-0.0019459603354334,0.9435573220252992,0.3311603963375091,0.0074435341946828,-0.0312310235468089,0.1360983013313515,-0.1183872818946838,0.1881622076034546,-0.195770263671875,66,57,11935,13931
9.3,1788259766648,4.619718074798584,5.549295902252197,-0.0051331268623471,0.0017709735548123,0.5186226963996887,0.8549860119819641,0.1720396658203085,-1.506198274540086e-05,1.6912876169701753e-05,0.0046089375391602,-0.0115209845826029,0.1574033945798874,-0.0046699419617652,-0.0020080283284187,0.9467149972915648,0.3220323324203491,-0.0052167550641076,-0.0184196664609005,0.1502644004703008,0.1059154272079467,0.1076787710189819,0.2198781967163086,81,73,12429,14240
9.4,1788259766748,4.676056385040283,5.746479034423828,-0.0048085628077387,0.0015538183506578,0.5261319279670715,0.8503879904747009,0.1768251920332404,0.0018248868101597,-3.4274792481017675e-05,0.0044207666069269,-0.0013125807745382,0.1500620394945144,-0.0047732647508382,-0.0018855780363082,0.9488651156425476,0.3156399428844452,-0.0074218014575751,0.017003416458287,0.1496613590457245,-0.16779226064682,0.1045050024986267,-0.6493101119995117,27,131,10274,15416
9.5,1788259766848,4.169013977050781,5.97183084487915,-0.004545303992927,0.0011890177847817,0.5332704782485962,0.8459317088127136,0.1793672254213638,-2.757530487223701e-05,7.797291853477227e-05,0.001790182897821,-0.0187955796718597,0.1988940685987472,-0.0042450884357094,-0.001963086426258,0.951995611190796,0.3060760796070099,-0.0003787795638266,0.0006358573662407,0.2727531702729769,-0.099972128868103,0.113848865032196,0.2151002883911132,86,80,11641,15132
9.6,1788259766948,4.366197109222412,5.88732385635376,-0.0036381206009536,0.0005201338790357,0.5442606210708618,0.8389081358909607,0.1763362946905368,-6.332989753646006e-05,0.0001287900764205,0.0137223415076732,-0.0359329879283905,0.2761333882808685,-0.003651812672615,-0.0021341098472476,0.9556499719619752,0.2944746017456054,-0.0289143556705746,0.0352643434552701,0.2399014825225121,-0.061736524105072,0.1701261401176452,-0.2710390090942383,78,74,11511,14569
9.7,1788259767048,4.309859275817871,5.577464580535889,-0.0045535401441156,0.0003643888048827,0.5536878108978271,0.8327118158340454,0.1772794287720576,-0.0008048940011522,-1.820091990840468e-05,-0.0123836202546954,-0.0003732569457497,0.2152534425258636,-0.0037387944757938,-0.0028234459459781,0.9592946767807008,0.2823681831359863,-0.0065261615990929,0.008894919744558,0.1307411787366882,-0.2830289006233215,0.1277288198471069,0.158426284790039,100,75,13866,13905
9.8,1788259767148,4.450704097747803,5.549295902252197,-0.0049542430788278,0.0006418949924409,0.5611519813537598,0.8276976943016052,0.1723591890445311,0.0003436878090651,-7.22555802010215e-05,-1.6460720871691592e-05,0.0199912432581186,0.1519241034984588,-0.0048230439424514,-0.0026869997382164,0.9611424803733826,0.2759976387023926,-0.0112262448113499,0.0377238297345493,0.1414833770590545,-0.0358898639678955,-0.0513778924942016,-0.0066041946411132,36,75,13309,14154
9.9,1788259767248,4.450704097747803,5.633802890777588,-0.0054822438396513,0.0008123086299747,0.5673959851264954,0.8234264850616455,0.1682604219130226,0.0053097251294389,1.7299104053893257e-05,-0.0075486493296921,-0.0081998258829116,0.1719619780778885,-0.0045743389055132,-0.0030071195214986,0.9631552696228028,0.268890380859375,-0.0019552524522787,-0.0117478849427509,0.1507395978881966,-0.0711901187896728,-0.36420339345932,0.11669921875,70,58,13177,13711
10.0,1788259767348,4.394366264343262,5.943662166595459,-0.0055973185226321,0.0006078658625483,0.5734454393386841,0.8192244172096252,0.17442287299768,0.001504991872039,1.1188632811590408e-05,-0.0029745639767497,0.0022745796013623,0.1486163437366485,-0.0045974636450409,-0.0035429969429969,0.9660002589225768,0.258476048707962,-0.0089457158757626,0.0111082628096916,0.2523455116399234,-0.0372692346572876,-0.1521148085594177,-0.0845508575439453,60,111,11168,15297
10.1,1788259767448,4.169013977050781,6.0,-0.0058836070820689,0.0002113424707204,0.5826637148857117,0.8126919865608215,0.1799095696928668,-0.0019715726434283,-3.797924402219512e-05,-0.0066643529571592,0.0043837460689246,0.2702549397945404,-0.0043067010119557,-0.003701489418745,0.9690144658088684,0.2469386458396911,0.0085424007827567,-0.0129230734249396,0.2554397576399521,-0.2621359229087829,-0.3196905851364136,0.6080436706542969,90,79,11913,14720
10.2,1788259767548,4.0,5.97183084487915,-0.0057590524666011,-0.0001543629914522,0.5940452218055725,0.8044110536575317,0.16989943711968,0.0037326960432505,-1.591294247091981e-06,-0.0028432314284145,0.001028835773468,0.2505440711975097,-0.004450662061572,-0.0037260502576828,0.9718810319900512,0.2354007810354232,0.0039806326222205,0.009086991335974,0.2839860466200926,0.0625728964805603,0.2759484648704529,-0.5138044357299805,70,86,12394,15005
10.3,1788259767648,4.14084529876709,5.943662166595459,-0.0057787634432315,-5.668425001204014e-05,0.6049102544784546,0.7962727546691895,0.1808538858759362,0.0013388412855269,-2.194909917117328e-05,0.002704945160076,0.0020038697402924,0.2798128724098205,-0.0043359687551856,-0.003882941789925,0.9755313396453856,0.2197834551334381,-0.0075690542451829,-0.0160224607274693,0.2461204334142205,-0.1891034841537475,-0.1737592816352844,0.7963161468505859,93,83,12064,14910
10.4,1788259767748,3.9718310832977295,5.830986022949219,-0.0057133473455905,-0.0001892633736133,0.614609956741333,0.7888104915618896,0.1698234875232997,0.0041088379341133,-2.107997768545079e-05,0.0022169069852679,-0.0040209991857409,0.254217654466629,-0.0040717115625739,-0.0037325285375118,0.9780059456825256,0.2085038274526596,0.0048711688298265,-0.0075314506133866,0.2525194010422938,-0.2365532517433166,-0.0651035904884338,-0.2521705627441406,83,81,12471,15201
10.5,1788259767848,4.084506988525391,5.802816867828369,-0.0050708432681858,-0.0003907072823494,0.6247861385345459,0.7807793617248535,0.1706549262433368,0.0001864729147742,2.7125094103847157e-05,0.014253394678235,-0.0142381656914949,0.2857966423034668,-0.0037799729034304,-0.0031608426943421,0.9805815815925598,0.1960495561361313,0.0141806661758998,0.0153907088879579,0.2797870785815797,0.0187447667121887,0.018128752708435,1.136556625366211,74,80,12444,15326
10.6,1788259767948,4.760563373565674,5.605633735656738,-0.0045001748949289,-0.0001195585355162,0.6365845799446106,0.77119380235672,0.1713655818087285,0.0040305655136141,6.589976233579913e-05,0.0075153354555368,-0.0126356016844511,0.26249960064888,-0.0027962261810898,-0.0027861567214131,0.9832349419593812,0.1823006272315979,0.0122656278420126,-0.0460655679754123,0.1814035600795387,0.0234549641609191,-0.086899995803833,-0.6351690292358398,78,70,12418,13627
10.7,1788259768048,4.676056385040283,5.549295902252197,-0.0032446663826704,-0.0004844827344641,0.6438603401184082,0.7651359438896179,0.1798657827718735,0.0017860018785265,9.15581707459389e-05,0.0192770902067422,-0.0300162471830844,0.1957751810550689,-0.002552886493504,-0.0024801362305879,0.9845908284187316,0.1748377829790115,-0.0037357694494065,-0.0087743035515869,0.1362957231220043,0.0535595417022705,-0.3277235627174377,0.4158706665039062,119,50,12548,13699
10.8,1788259768148,4.676056385040283,5.943662166595459,-0.0034026189241558,-0.0001779996091499,0.6485458612442017,0.7611680030822754,0.1647625334592371,4.068177650864447e-05,-7.287492120022921e-05,0.0075077689252793,0.0008910609176382,0.1170691549777984,-0.0025727283209562,-0.0022379020228981,0.9855172038078308,0.1695411801338195,-0.0019681621134141,0.0199407342837091,0.1275820582886607,-0.1422804594039917,0.353820264339447,0.3800201416015625,36,147,10310,15133
10.9,1788259768248,4.2253522872924805,5.85915470123291,-0.0034085949882864,-0.0002702448982745,0.6541725993156433,0.756337583065033,0.1693204410527026,-0.0014989090194389,-1.539495932906704e-05,-0.0084691829979419,0.00334496749565,0.1969653815031051,-0.0024828575551509,-0.0024459064006805,0.98756605386734,0.1571660041809082,-0.0047093018162864,0.0393700730115552,0.2343485356591048,-0.1373159885406494,-0.1981757879257202,0.1552133560180664,87,95,11637,15448
11.0,1788259768348,3.9718310832977295,5.97183084487915,-0.0031524694059044,-0.0003846688196063,0.6647116541862488,0.7470932602882385,0.1668817237380533,0.0059857271008757,2.68467580317551e-05,0.005699404515326,-0.0031640515662729,0.2621716558933258,-0.0014732843264937,-0.0023095645010471,0.9893733263015748,0.1453717499971389,0.006893815460556,-0.0478118689084873,0.2636592292821029,0.0912356972694397,0.1332376599311828,-0.3170089721679687,74,71,12475,14861
11.1,1788259768448,4.14084529876709,5.943662166595459,-0.0026504113338887,-0.001158909057267,0.6734821796417236,0.7391977906227112,0.1745249319547252,0.0015224779733277,5.5956227580645936e-05,-0.0081142298877239,-0.0134378923103213,0.2337805330753326,-0.0009435908868908,-0.0026967478916049,0.9908572435379028,0.1348845213651657,-0.0025383656028459,-0.0251538804477817,0.2412174006935907,0.1388770341873169,0.1467562913894653,0.1270570755004882,83,58,13306,13554
11.2,1788259768548,4.619718074798584,5.577464580535889,-0.0024471867363899,-0.0015157399466261,0.6814123392105103,0.7318940162658691,0.1784018609709904,-0.0012690605051135,2.2274750253994964e-05,0.0002932209754362,-0.0071327127516269,0.2114672064781189,-0.0010523404926061,-0.0022724289447069,0.9924176335334778,0.1228865012526512,0.0131519471730832,0.0051435232561988,0.1839636026859001,0.2433401346206665,0.2112544775009155,-0.491546630859375,111,50,12401,13791
11.3,1788259768648,4.591549396514893,5.549295902252197,-0.0022803666070103,-0.0012381938286125,0.687293529510498,0.7263751029968262,0.1745288787268491,0.0006772830841009,4.1609324718995935e-05,-0.002599416533485,-0.0030830302275717,0.1463940590620041,-0.0004956601187586,-0.0025500850751996,0.9932537078857422,0.1159331277012825,-0.0148195548968517,-0.0410792257507191,0.1776574972007241,-0.0030039548873901,0.3246076107025146,-0.2029762268066406,93,70,12649,14056
11.4,1788259768748,4.450704097747803,5.492957592010498,-0.0018203572835773,-0.0020950222387909,0.6941437125205994,0.719831109046936,0.1748896180657898,0.0011801327587224,5.062641922986796e-05,-0.0043834433890879,-0.010777405463159,0.170346051454544,0.0002940008416771,-0.0028855362907052,0.994085729122162,0.1085598394274711,-0.0048272901467133,-0.0308243003424262,0.1523791675777207,-0.15535968542099,0.0918572545051574,0.1196718215942382,83,94,13157,14202
11.5,1788259768848,4.197183132171631,5.97183084487915,-0.0014641482848674,-0.0028754530940204,0.6997434496879578,0.7143869400024414,0.1796725944876813,-0.0003462730386075,5.841841850929293e-05,-0.0081729646772146,-0.0296813230961561,0.1577682644128799,0.00112603046,-0.0035910028964281,0.9950276613235474,0.0995286628603935,-0.0259751933916816,-0.0459272224483675,0.1294534643167244,0.2164838314056396,0.3272827267646789,0.5619335174560547,31,123,11844,15019
11.6,1788259768948,3.9718310832977295,5.915493011474609,-0.0014678413281217,-0.0035617970861494,0.7050455808639526,0.7091514468193054,0.1779755055420021,0.0015625872622052,2.417983673841049e-05,-0.0066458978690207,-0.0068820528686046,0.1711057722568512,0.0011319983750581,-0.003745213150978,0.9959271550178528,0.0900772362947464,-0.0057932293633252,0.0054528010308122,0.2329354376731079,-0.2085176706314087,0.0339530110359191,-0.4197778701782226,74,90,12232,14976
11.7,1788259769048,4.478873252868652,5.521126747131348,-0.001175359240733,-0.0039568552747368,0.7135880589485168,0.7005533576011658,0.1691005901867224,0.0006706802333266,3.064254358286148e-05,-0.0012390544870868,-0.0308028869330883,0.2658352553844452,0.0016056904569268,-0.0039571803063154,0.9969497323036194,0.0779304504394531,-0.0032200395117392,0.013248354180337,0.1993314671820275,0.0634483098983764,-0.459905743598938,0.1011075973510742,112,61,13035,14008
11.8,1788259769148,4.507042407989502,5.521126747131348,-0.0004995027557015,-0.0046420684084296,0.7208013534545898,0.6931260824203491,0.1773699489652986,0.0034645858184079,8.865231405132512e-05,0.0056578097864985,-0.0320996195077896,0.150885060429573,0.0022459058091044,-0.0041975555941462,0.997433304786682,0.0714439749717712,-0.0275694373919604,0.0353849687797527,0.144824381814662,0.1356306076049804,0.325918436050415,-0.2178783416748047,93,95,12891,14056
11.9,1788259769248,4.507042407989502,5.577464580535889,-0.0008996051037684,-0.004839293193072,0.7255336046218872,0.6881691813468933,0.1646253198200911,0.0046219832877394,-1.0914351509632742e-05,0.001996201230213,-0.002787887584418,0.1586623638868332,0.0025880075991153,-0.0041428934782743,0.998072385787964,0.0618676245212554,0.0025294578525343,0.0031163388669688,0.1705708206182269,0.0520241856575012,-0.1110311150550842,0.4701251983642578,79,70,13033,14025
12.0,1788259769348,4.478873252868652,5.633802890777588,-0.000841406174004,-0.0048389160074293,0.7311317920684814,0.6822185516357422,0.1758763527653922,0.0004279226762408,1.727085894835172e-05,-0.004008546937257,0.0050463913939893,0.1616517305374145,0.0025395900011062,-0.0042707165703177,0.9984964728355408,0.0545914359390735,0.0016676887361849,-0.0062699927968079,0.1625699364815154,0.1038306951522827,0.0131139159202575,-0.1573619842529297,73,69,13097,13757
12.1,1788259769448,4.3380279541015625,6.084506988525391,-0.0009540859609842,-0.0048901308327913,0.7364123463630676,0.6765146255493164,0.174585291334419,0.0024217495722178,9.001701228129959e-06,-0.0030208791140466,0.001207695226185,0.1662178784608841,0.0021091485396027,-0.0043543819338083,0.9988640546798706,0.0474040322005748,0.0030167333801937,0.0105185213840372,0.1560701671233575,-0.0696932077407836,-0.0916765928268432,0.0185937881469726,62,97,11372,14653
12.2,1788259769548,4.619718074798584,5.436619758605957,-0.0013157967478036,-0.0045237452723085,0.7436032891273499,0.6686045527458191,0.1709814823918077,0.0036398826914261,-4.789141138739432e-05,-0.0025676568038761,0.0122619234025478,0.224755972623825,0.0020099803805351,-0.0044662319123744,0.9993430972099304,0.0359081737697124,-0.0029875501698451,-0.0015244261671729,0.134768311859263,-0.0222667455673217,-0.2358431816101074,-0.5371856689453125,70,67,12845,14432
12.3,1788259769648,4.394366264343262,5.577464580535889,-0.0014046053402125,-0.0045875422656536,0.7487627863883972,0.66282057762146,0.1762759687563409,0.0006090158347273,4.712789180731627e-07,0.0003600805648602,0.0064457929693162,0.1562158465385437,0.0015071220695972,-0.0042837848886847,0.9995986819267272,0.0279640462249517,0.0086140892561337,0.0070299182429371,0.1678450079054199,-0.1172871589660644,0.0608801245689392,1.5316286087036133,78,91,13339,14056
12.4,1788259769748,4.507042407989502,5.690140724182129,-0.0015168581157922,-0.00434081396088,0.7537148594856262,0.657185435295105,0.1726961249607614,0.0004174937954403,3.3601968896395385e-05,-8.296952728414908e-05,-0.0038041311781853,0.1485733538866043,0.0013786312192678,-0.0042667584493756,0.999768614768982,0.021037658676505,0.0040031574067248,0.0022488655955862,0.1558566916475935,0.1254244446754455,-0.1011294722557067,-0.711517333984375,82,72,13102,13790
12.5,1788259769848,4.647887229919434,5.521126747131348,-0.0018678863998502,-0.004026249051094,0.7588430047035217,0.6512585878372192,0.1807732086478224,0.0015799993633363,-4.162304906436696e-05,-0.0002955374948214,0.0082779768854379,0.168084442615509,0.0006178980693221,-0.0043117823079228,0.9999082684516908,0.0128238499164581,-0.0027976905416187,0.025245664499578,0.1573106786889967,-0.0671866536140441,0.2050018906593322,-0.1304559707641601,81,68,12505,14121
12.6,1788259769948,4.3380279541015625,5.521126747131348,-0.0026822949294,-0.003561079967767,0.7645506262779236,0.6445481777191162,0.1730402920086644,0.0030460354754803,-6.257950096409785e-05,-0.0050227120518684,0.01404495164752,0.1550392061471939,-0.000331194140017,-0.0041169468313455,0.9999754428863524,0.005673904903233,0.0302781221514588,0.0370198657850604,0.1843124040702213,0.0262707471847534,-0.1466946005821228,0.0704498291015625,130,87,13499,14138
12.7,1788259770048,4.901408672332764,5.211267471313477,-0.0031261567492038,-0.0025133988820016,0.7694541811943054,0.638689398765564,0.178582095940172,0.001666106485903,-1.378020690764782e-05,0.0039427336305379,0.0060891406610608,0.1486526876688003,0.001414144411683,0.0039065275341272,-0.9999884963035583,0.002389783039689,-0.0087578390871454,0.0390248526241205,0.0814595008403459,-0.2691453695297241,0.1041778326034545,0.5715084075927734,102,54,14120,13033
12.8,1788259770148,4.788732528686523,5.295774459838867,-0.0039021573029458,-0.0019317800179123,0.7716916799545288,0.6359819173812866,0.1723554711271397,0.0036839700470473,-7.992535522737818e-05,-0.0037282535340636,0.0190752707421779,0.0350840613245964,0.0023616887629032,0.0037871561944484,-0.9999804496765136,0.0043857628479599,0.0141838638547897,0.0381946292982,0.0424755861642604,0.1280903220176696,0.1100669503211975,-0.8648643493652344,75,66,13969,12737
12.9,1788259770248,5.211267471313477,5.126760482788086,-0.004431938752532,-0.0014346517855301,0.772598385810852,0.6348778605461121,0.1759558286630212,0.0021455446971557,3.1907683487482594e-08,-0.0022657201625406,0.0077703446149826,0.0040871538221836,0.0022652661427855,0.0038894806057214,-0.9999804496765136,0.0043338844552636,0.0057733625680402,-0.0255545915301962,-0.0103399739771172,0.2041059136390686,0.0949844121932983,0.5364933013916016,81,77,13422,12350
13.0,1788259770348,4.957746505737305,4.985915660858154,-0.0058673061430454,-0.0008507538586854,0.7722060680389404,0.6353445053100586,0.1689100062003352,0.0006890879262711,-0.0001353389087825,-0.0174472443759441,0.0453918986022472,-0.0239529088139534,0.0044638495892286,0.0044827871024608,-0.9999749064445496,0.0032047694548964,-0.0048956179663256,0.0049119335876725,-0.0196410054850707,0.2274003624916076,0.1539252996444702,-0.07000732421875,66,84,14299,13035
13.1,1788259770448,4.873239517211914,5.154929637908936,-0.0066842408850789,-0.0003365380689501,0.7715969085693359,0.6360765695571899,0.1704235409976602,-0.0005716227158783,-4.733448841718706e-05,-0.006264123134315,0.0269292760640382,-0.0307153332978487,0.0052217422053217,0.0047253109514713,-0.999972403049469,0.0024032117798924,-0.008081469250942,-0.0042376676720723,-0.0167324937369038,-0.1684990525245666,-0.1839416027069091,0.1264905929565429,37,101,13311,13690
13.2,1788259770548,5.323943614959717,5.042253494262695,-0.0077244332060217,-0.0001024603843688,0.7716346383094788,0.6360189914703369,0.177935422964241,0.0022173146907083,-4.312712969461218e-05,-0.0119264563545584,0.0294983983039855,0.0123570272698998,0.0064289616420865,0.0051319729536771,-0.9999596476554872,0.0036059506237506,-0.0046423650933672,0.0264391324933115,0.0401969205723194,-0.0678926110267639,0.0919596552848815,-0.7078142166137695,83,20,13926,11738
13.3,1788259770648,5.352112770080566,4.873239517211914,-0.0079406611621379,0.000184366479516,0.7725367546081543,0.6349203586578369,0.182624232371852,-0.0018169987300383,-6.267284847641382e-06,0.0069003733806312,0.0023018179927021,0.0488363355398178,0.0062208455055952,0.0048037087544798,-0.9999628067016602,0.0035556089133024,0.0088084232875559,-0.0110008275135688,-0.0405151588018513,0.0774909853935241,0.1140830516815185,-0.1715841293334961,79,61,13821,12242
13.4,1788259770748,5.323943614959717,4.929577350616455,-0.0082634929567575,0.0004711577203124,0.7710863947868347,0.6366767883300781,0.1718926929839015,-0.0008791996107908,-6.1031538802341846e-05,-0.00116190710105,0.0137183247134089,-0.0571242496371269,0.0067998310551047,0.0048302095383405,-0.9999647736549376,0.000948928296566,0.0075700118107445,0.0061460028800172,-0.0572533873675923,0.0676592588424682,-0.1196343302726745,-0.2773914337158203,43,93,12690,13143
13.5,1788259770848,4.985915660858154,5.126760482788086,-0.0082094985991716,0.000613308744505,0.7701456546783447,0.6378150582313538,0.1723099077757018,0.0001484525231175,1.4351271074331386e-05,0.0035096036735922,-0.0025423041079193,-0.0235997047275304,0.0064609749242663,0.00467633549124,-0.9999682307243348,3.278814256191254e-05,-0.0009450060492592,-0.0083830627210964,-0.0004539752686983,0.0175508260726928,-0.0660726428031921,0.3746404647827148,80,98,13951,12667
13.6,1788259770948,5.126760482788086,5.042253494262695,-0.0077132266014814,0.0003018525894731,0.7699201107025146,0.6380937695503235,0.1684311904340907,0.0010064377828247,-3.527678571486506e-08,0.0032844559755176,-0.0240519382059574,-0.0149827916175127,0.0060541201382875,0.0044895140454173,-0.999971568584442,0.0003859847784042,0.003632074794693,0.0273031336674093,0.0209232285426599,0.0469949841499328,-0.1024999022483825,0.4301795959472656,82,95,13460,12844
13.7,1788259771048,5.126760482788086,4.8450703620910645,-0.0077132266014814,0.0003018542192876,0.7699199914932251,0.638093888759613,0.1769019300010719,0.0027675973609218,1.6323367139152668e-08,0.0,0.0,0.0,0.0050980141386389,0.004172071814537,-0.9999778866767884,0.0009195934981107,0.0107369953519974,-0.0344079670044218,0.0087872731954093,0.0840669274330139,0.1765645742416381,0.7196531295776367,56,63,14180,11659
13.8,1788259771148,5.211267471313477,4.873239517211914,-0.0063441451638937,-0.0003964593634009,0.7697812914848328,0.6382761597633362,0.1700408908754221,-0.0077827724423009,3.615357872129543e-05,-0.0019375648116692,-0.0207394696772098,-0.0239249933511018,-0.0041323350742459,-0.0042848763987421,0.9999811053276062,0.0015408499166369,0.0180513699673985,-0.0133949672111946,-0.0481742944730792,0.0278986096382141,0.1248199343681335,-0.0013685226440429,69,48,14148,12235
13.9,1788259771248,5.183098793029785,4.901408672332764,-0.0058817300014197,-0.0002191101666539,0.768712043762207,0.6395679116249084,0.1722558262236951,-0.0013098958254458,-1.2725167311189687e-05,0.0180452037602663,0.0054006855934858,-0.023069579154253,-0.0039274133741855,-0.0036393627524375,0.9999815225601196,0.0028859637677669,0.013858684949306,-0.0147307862136988,-0.0464967076607206,-0.2745954990386963,-0.3981035947799682,0.0362253189086914,80,66,14367,12197
14.0,1788259771348,5.098591327667236,5.042253494262695,-0.004726406186819,-0.0006201348733156,0.7673836946487427,0.6411705017089844,0.1730185800120621,-0.0024943430992968,4.549741949079121e-05,0.0063170380890369,-0.02711290307343,-0.041699893772602,-0.0023449091240763,-0.0035749124363064,0.9999779462814332,0.0050932969897985,-0.0061867899771789,-0.0380898089280015,-0.047844144937898,-0.110663890838623,0.2606741786003113,0.0363721847534179,82,71,13449,12638
14.1,1788259771448,5.126760482788086,5.126760482788086,-0.0041845683008432,-0.0011596392141655,0.7666330337524414,0.6420708894729614,0.1701361878227029,-0.0011718665918472,6.589324707648193e-09,0.0,-9.922747956636613e-09,0.0,-0.0025855898857116,-0.0033380668610334,0.9999765753746032,0.0053901057690382,0.0036272781288469,0.0227902472765692,-0.0215688965006468,-0.1321974396705627,-0.3967230916023254,-0.0770893096923828,100,95,13661,12629
14.2,1788259771548,5.211267471313477,4.957746505737305,-0.0032054185867309,-0.0013269773917272,0.7662243247032166,0.6425638198852539,0.173068514542412,-7.822625384066225e-05,8.376084106914224e-05,0.0157405491918325,-0.0236339196562767,-0.007338123396039,-0.001670891419053,-0.0033228825777769,0.9999772310256958,0.0056312717497348,-0.0249511532147539,0.0091695969182089,-0.0053092240216933,-0.2144427895545959,0.0867150425910949,0.4956216812133789,89,22,14231,11868
14.3,1788259771648,5.239436626434326,4.929577350616455,-0.0036668088287115,-0.0014772946015,0.7651538848876953,0.6438353657722473,0.170113754646023,0.0006954715838798,-2.6849938669522532e-05,-0.0170945078134536,0.0109531274065375,-0.0694651827216148,-0.0019103167578577,-0.0035524070262908,0.9999534487724304,0.0087667861953377,-0.0129485907033369,-0.0155906299319061,-0.0411296969783092,-0.1284071803092956,0.3040811419486999,0.0985660552978515,89,65,14309,12377
14.4,1788259771748,5.154929637908936,4.816901206970215,-0.0037324195727705,-0.0016155935591086,0.7635517716407776,0.6457338929176331,0.1759492354455671,0.0043538570465134,-1.1474550340621818e-05,-0.0074612419120967,-0.0065174358896911,-0.065760813653469,-0.0022077327594161,-0.0040422845631837,0.9999213814735411,0.0116626545786857,-0.0128685755924574,0.0135343509571163,-0.0739782212936375,0.0151871442794799,-0.3723206520080566,-0.1941595077514648,87,89,14470,12667
14.5,1788259771848,5.154929637908936,5.014084339141846,-0.0041835899464786,-0.0017306794179603,0.7619237899780273,0.6476508975028992,0.167989447154681,-0.0043250308428317,1.655158761351353e-05,0.0005291030975058,-0.0027604808565229,-0.0343849584460258,-0.0016733650118112,-0.0039654094725847,0.9998995065689088,0.0135063603520393,0.0086916823561836,-0.0201728589753895,-0.0282777410053996,0.1572915911674499,0.0604029893875122,-0.3161239624023437,82,99,13740,13301
14.6,1788259771948,5.267605781555176,4.957746505737305,-0.0039954669773578,-0.0018438063561916,0.7612600922584534,0.6484317183494568,0.184415665635309,0.0010765837256561,-7.256825480087296e-09,0.0,0.0,0.0,-0.0013683829456567,-0.0040673362091183,0.9998854994773864,0.0145140578970313,-0.0056787266430264,0.0115537435075766,-0.0512481908861694,-0.0873631834983825,-0.0864843726158142,-0.5592794418334961,72,63,14032,12169
14.7,1788259772048,5.267605781555176,4.901408672332764,-0.0036756976041942,-0.0021832347847521,0.759437620639801,0.650566041469574,0.1726748186705334,-0.0001371859262978,3.15179100341853e-06,0.0004395566065795,0.001261445111595,-0.0792618244886398,-0.0014935182407498,-0.0039206985384225,0.9998353123664856,0.0176596548408269,0.002122505928055,-0.0025061124075699,-0.0520686571727326,0.0853352546691894,0.1378198266029358,0.5245790481567383,70,128,14115,12408
14.8,1788259772148,5.098591327667236,5.126760482788086,-0.0038945612031966,-0.0017382289515808,0.7579447031021118,0.6523048281669617,0.1652020457561173,0.0002555277528552,-3.508577916622412e-05,0.0037933669518679,0.014448813162744,-0.0333489514887332,-0.0020491974428296,-0.0036823162809014,0.9998031258583068,0.019389558583498,0.006798896489265,-0.0003094950119758,-0.0412180111938155,-0.1306937336921692,0.005401074886322,0.4145364761352539,64,90,13450,12733
14.9,1788259772248,5.183098793029785,4.816901206970215,-0.003979112021625,-0.0015521798050031,0.7571597695350647,0.6532156467437744,0.1720397728549034,-0.0012574591862355,-8.172171093010218e-06,-0.000372218521079,0.0014258489245548,-0.0181788727641105,-0.0019261613488197,-0.0036457944661378,0.99976247549057,0.0214019957929849,0.0009320954487134,-0.0109819391252714,-0.0508780437187792,0.0541644096374511,0.0846931934356689,-0.1534261703491211,69,72,14473,12636
15.0,1788259772348,5.267605781555176,4.957746505737305,-0.0037713365163654,-0.0014341218629851,0.7554702162742615,0.6551705598831177,0.1841298252652022,-0.0004811427805122,8.98713840308251e-06,0.006329920142889,-0.0004158901574555,-0.0447064004838466,-0.0016617141664028,-0.0036281161010265,0.9997200965881348,0.0233207941055297,-0.0098737443922951,-0.0158306434294761,-0.0550852946617153,-0.0959047079086303,-0.2792472243309021,0.7680978775024414,67,66,14074,12111
15.1,1788259772448,5.183098793029785,4.901408672332764,-0.0034112809225916,-0.0016817997675389,0.7537679076194763,0.6571298241615295,0.1742904106223865,-0.0005080047970603,7.520917590668159e-05,0.0057827262207865,-0.0025899072643369,-0.0579507127404212,-0.001358387991786,-0.0032047126442193,0.9996607899665833,0.0258113648742437,0.0142957038392844,-0.0270488791726122,-0.0502411589496177,0.092051088809967,0.1851842999458313,0.0394115447998046,88,91,14660,12502
15.2,1788259772548,5.267605781555176,4.816901206970215,-0.0031651728786528,-0.0013652796624228,0.7520803809165955,0.6590624451637268,0.1730453902196754,0.0011096026479028,-3.25245712868022e-05,0.007582873571664,0.0055961231701076,-0.0708779171109199,-0.0018086275085806,-0.0031992755830287,0.999584972858429,0.0285738613456487,-0.0092665948221083,0.0174732486363773,-0.0761219417917883,-0.1145533323287963,-0.3774887919425964,0.4255867004394531,64,82,14045,12721
15.3,1788259772648,4.676056385040283,4.535211086273193,-0.0035370732657611,-0.000748936086893,0.7502978444099426,0.6610898971557617,0.1785408681538648,0.0002490748975729,-4.1739426886583416e-05,0.0155871557071805,0.0269335750490427,-0.0433231443166732,-0.00258528906852,-0.0029413681477308,0.9994860887527466,0.0318150743842124,0.0021772916526481,0.0362455217285819,-0.0716414622802709,0.0219632983207702,-0.2498170733451843,0.437774658203125,17,43,10293,11197
15.4,1788259772748,2.08450698852539,3.577464818954468,-0.0036936956457793,-0.0008914350764825,0.7486745715141296,0.6629267930984497,0.1583199174794588,-0.0003308871002637,2.3792921427709667e-05,-0.0031995612662285,-0.0050447448156774,-0.0210024081170558,-0.0024178065359592,-0.0030880831182003,0.99954092502594,0.0300426296889781,0.0101823050685423,-0.0055669798149665,0.1638512174897346,-1.19572651386261,0.147358238697052,0.7854108810424805,49,19,1600,7874
15.5,1788259772848,0.0,2.366197109222412,-0.0036543663591146,-0.0006097841542214,0.7557452917098999,0.6548552513122559,0.0789612861238936,0.0035205364927445,6.521149708132591e-06,0.0078109237365424,-0.0045979144051671,0.2817616164684295,-0.0023035341873764,-0.0026087583974003,0.9999373555183412,0.0106409145519137,-0.000281242978153,0.0033941149844203,0.3856455028399643,-0.7376589179039001,0.4826700091361999,-0.592534065246582,141,13,-6693,5899
15.6,1788259772948,-2.422535181045532,1.5774648189544678,-0.003744326531887,-0.0006511544343084,0.7676169276237488,0.6408975720405579,0.0137119126517594,0.0012251565938007,-7.621272202263573e-07,-0.0123951686546206,0.0056175324134528,0.3971470892429352,0.0025349389761686,0.0030562179163098,-0.9999423623085022,0.0099816732108592,-0.0057629634912923,0.0050501106288219,0.532607922161379,0.1419333815574646,0.1206328272819519,0.1447372436523437,90,145,-7549,6316
15.7,1788259773048,-2.0281689167022705,1.9154930114746092,-0.0038261697627604,-0.0009496337734162,0.7841960191726685,0.6205005645751953,-0.0058257944572755,0.0017544543273321,-7.749874234138114e-07,-0.0072783455252647,-0.0094350902363657,0.6016259789466858,0.0023314859718084,0.0031789690256118,-0.9992788434028624,0.0377651453018188,0.0009331982004272,0.0052275641367371,0.5824514262470946,0.1783574819564819,-0.1572608351707458,-0.020461082458496,96,34,-6950,5602
15.8,1788259773148,-1.97183096408844,1.9154930114746092,-0.0038791997358202,-0.0008435988565906,0.8037636280059814,0.5949355363845825,0.0049756851151518,-0.0008836346963891,-8.050599308345524e-08,0.0004172578337602,0.0021010069176554,0.547940731048584,0.002210627309978,0.0031094849109649,-0.9974350929260254,0.0714746043086052,1.822387476571629e-05,-0.012601252548604,0.6127540095381395,0.0925612449645996,0.0776541233062744,0.1387577056884765,78,32,-7202,5567
15.9,1788259773248,-1.6619718074798584,1.4929577112197876,-0.0036048567853868,-0.0010187578154727,0.8204917311668396,0.5716462135314941,0.0051084226357562,0.0010217033577574,1.149750077262157e-06,-0.0005356018664315,-0.0071784285828471,0.6098226308822632,0.0022123027592897,0.0030423123389482,-0.9953498840332032,0.09625244140625,-0.0002292169447608,0.0064346090313608,0.4538246243658861,-0.26823490858078,-0.0569390654563903,0.0207109451293945,83,60,-5520,4722
16.0,1788259773348,-1.5492957830429075,1.4929577112197876,-0.0035249679349362,-0.0010902355425059,0.8329356908798218,0.5533574223518372,0.0003562031182917,-0.0042737094052828,-2.816148699276542e-07,-0.0036177875008434,-0.0077464114874601,0.4217228293418884,0.0018398184329271,0.0032219029963016,-0.993297278881073,0.1155282706022262,-0.0086838439931383,-0.0088210093411278,0.4635993615668218,0.0200011730194091,0.0050643682479858,0.1126708984375,62,55,-6337,4772
16.1,1788259773448,-1.0985915660858154,1.154929518699646,-0.0035837539471685,-0.0013766451738774,0.8450038433074951,0.5347464084625244,-0.002524230129876,-0.0047601229298782,4.5658062976933486e-07,-0.0058710188604891,-0.0003574168949853,0.4703169465065002,0.0020403796806931,0.0034634945914149,-0.9901591539382936,0.1398879289627075,-0.0035969457191404,0.0073942335370363,0.4252777385893147,0.1285268068313598,-0.0060428977012634,0.0844888687133789,57,51,-5195,3928
16.2,1788259773548,-1.3521126508712769,1.1267606019973757,-0.004009433556348,-0.0013449030229821,0.8562774062156677,0.5164989233016968,0.002860020294144,-0.0055886027436879,2.862391028703618e-07,-0.0045574610121548,0.0064469627104699,0.3355575203895569,0.0021422691643238,0.0036260038614273,-0.987959086894989,0.1546581387519836,-0.0034061329918711,-0.0082552122699198,0.3317091141121114,0.0562809109687805,0.1466972827911377,0.117466926574707,69,46,-4749,4453
16.3,1788259773648,-1.2676056623458862,1.183098554611206,-0.0040454138070344,-0.0015040889848023,0.8650230765342712,0.5017135739326477,0.000953450489437,0.0004109863521871,1.9375583333553932e-07,-0.0042075314559042,-0.0013744253665208,0.375604510307312,0.0022439239546656,0.0037970431149005,-0.984334409236908,0.1762562990188598,-0.0021609035884205,0.0044284824105277,0.3424591387202944,-0.0001044273376464,0.0254463553428649,-0.0094585418701171,48,37,-4907,4173
16.4,1788259773748,-1.154929518699646,1.183098554611206,-0.004117417614907,-0.0015211733989417,0.8731898069381714,0.4873605966567993,0.0025020019855366,-0.0011011361606536,1.675344704324679e-07,-0.0017455898923799,-0.002035112818703,0.329172283411026,0.0023015839979052,0.0038619125261902,-0.9816186428070068,0.1907998770475387,-0.0035324280381486,0.0053910982152784,0.3344206556878089,0.0002439618110656,0.0559666156768798,0.0194978713989257,98,46,-5790,4544
16.5,1788259773848,-1.183098554611206,1.183098554611206,-0.0043030143715441,-0.001548912608996,0.8811990022659302,0.4727232754230499,-0.00110865652864,-0.0014572950817217,2.584779564561281e-07,-0.0042655570432543,0.0016881857300177,0.3640045523643493,0.0022981977090239,0.0040521621704101,-0.9782072901725768,0.207578644156456,-0.0072879017008134,-6.559442241990158e-06,0.4260540260757614,-0.0399432778358459,0.0685522556304931,0.1378936767578125,39,54,-5170,4325
16.6,1788259773948,-0.5633803009986877,0.6197183132171631,-0.0043833497911691,-0.0017936583608388,0.8913835883140564,0.4532248675823211,0.0035264269107992,-0.0010222842309504,2.940807996143477e-07,-0.0050894836895167,-0.0008646632777526,0.3894108235836029,0.0021789688616991,0.0042299171909689,-0.9736567735671996,0.2279692441225052,-0.002876952888968,-0.0041224831663023,0.2473505459691812,0.0929410457611084,-0.1658353209495544,0.1298389434814453,83,129,-4743,3884
16.7,1788259774048,0.0,0.0,-0.0044174920767545,-0.0018711445154622,0.8962202072143555,0.4435835778713226,0.0029905187181685,-0.0017726820558837,7.193494007533676e-08,-0.0016689585754647,0.0002837952924892,0.145794078707695,0.0021912194788455,0.0042721927165985,-0.9728643298149108,0.2313262522220611,-0.0003409868903391,-0.002259116538396,0.0035522166784792,0.0653852224349975,-0.1072092652320861,0.0438766479492187,4,0,0,0
16.8,1788259774148,0.0845070406794548,0.0845070406794548,-0.004422151017934,-0.0018750590970739,0.8964263200759888,0.4431668519973755,0.0029503817338811,-0.0028458445379423,-6.306662610113773e-08,0.0,0.0,0.0,0.0021026572212576,0.0043124835938215,-0.9729384183883668,0.2310146987438202,-0.0040957729445273,-0.0065287066413797,0.0346025216008149,0.5502573251724243,0.2617545127868652,0.1050434112548828,178,289,6651,9423
16.9,1788259774248,3.014084577560425,4.591549396514893,-0.004311597906053,-0.0021560860332101,0.8987720608711243,0.4383897483348846,0.0528652940036478,0.004410367679754,1.1451783019699313e-05,-0.0065776202827692,-0.0048694191500544,0.1888667345046997,0.0020198905840516,0.0042297933250665,-0.9702068567276,0.2422327697277069,0.0121608295461115,0.002132479291418,0.1898044600221126,0.8047313690185547,0.2892812490463257,0.011549949645996,182,182,13249,14357
17.0,1788259774348,4.478873252868652,6.3380279541015625,-0.0046792677603662,-0.0022450499236583,0.9034194350242616,0.4287265539169311,0.1518374115897746,0.0013258412970535,-1.0715136120633316e-05,-0.0162313673645257,0.0110803665593266,0.198148176074028,0.0025464203208684,0.0048835957422852,-0.9675623178482056,0.2525727152824402,0.0024443138850997,0.0149506361817484,0.3160512435685764,0.3782587647438049,-0.0925284624099731,-0.8324756622314453,93,72,12733,15481
17.1,1788259774448,4.478873252868652,5.915493011474609,-0.0049665966071188,-0.0019769161008298,0.9096077680587769,0.4154336452484131,0.1873444616859922,0.0068150934965337,6.559793366160379e-05,0.0080832075327634,-0.00366175849922,0.3199524879455566,0.0019708089530467,0.0044320533052086,-0.9637631773948668,0.2667155265808105,0.0001650458723196,-0.0488680795475742,0.3314214332156527,-0.0200831890106201,0.1044656634330749,0.0951576232910156,52,38,11341,14818
17.2,1788259774548,4.478873252868652,5.7183098793029785,-0.0046223206445574,-0.0019481830531731,0.915374994277954,0.4025711417198181,0.1788141352759484,0.0002777256544288,6.9026214314650746e-06,0.0025770480278879,0.0006883615278638,0.2731018960475921,0.0025288620963692,0.0044054435566067,-0.959464967250824,0.2817821800708771,0.009845791544955,0.0339091840090136,0.275445011182025,-0.1096986532211303,-0.3859739899635315,0.4827308654785156,92,62,11048,15141
17.3,1788259774648,4.366197109222412,5.943662166595459,-0.0037467214278876,-0.0018711519660428,0.9202112555503844,0.3913998305797577,0.1670207111337431,0.0023952121767883,9.110763663154312e-05,0.0146109079942107,-0.053305085748434,0.258304238319397,0.0017980271950364,0.0034174807369709,-0.9562562704086304,0.2925047576427459,0.0142568839410998,-0.0331711616345512,0.2330000618550249,-0.0028101801872253,0.1180011630058288,0.2246932983398437,93,44,11710,14467
17.4,1788259774748,4.197183132171631,5.97183084487915,-0.0028242534026503,-0.0014041613321751,0.9252873659133912,0.3792536854743957,0.1689898956284531,0.0040037742945233,0.0001001104337583,0.0159349031746387,-0.0326833836734294,0.2318509817123413,0.0010953322052955,0.0027046017348766,-0.9529477953910828,0.3031203150749206,0.0008716838026954,0.0012640540442804,0.267189590539944,0.1105411052703857,0.5090407133102417,0.6987724304199219,73,75,12144,14611
17.5,1788259774848,4.535211086273193,5.521126747131348,-0.001827725674957,-0.0014650506200268,0.9301222562789916,0.3672425448894501,0.1761397884476599,0.0010952283122206,3.308156093731634e-05,0.0100958310067653,-0.0250910967588424,0.267876535654068,3.898516297340393e-06,0.0021985145285725,-0.9485050439834596,0.3167544305324554,0.0005035735797976,-0.0138741146744404,0.183233486635285,-0.1937248110771179,-0.3656731843948364,-0.0024566650390625,54,52,13016,13736
17.6,1788259774948,4.366197109222412,5.633802890777588,-0.0011970198247581,-0.0017520014662295,0.9334364533424376,0.3587365746498108,0.1731885152905704,0.0016917608639437,6.290467526140592e-05,0.0011115091620013,-0.0122425975278019,0.1658208668231964,-0.0001562060788273,0.0021404260769486,-0.9463862776756288,0.3230302929878235,0.0041639669115386,-0.0048316101348458,0.139085970218013,0.0774933695793151,0.0574163198471069,0.0883750915527343,81,77,13549,13427
17.7,1788259775048,4.422535419464111,5.464788913726807,-0.0010345253394916,-0.0016645984724164,0.9357339143753052,0.352701336145401,0.1726315481650898,0.0033822652031599,2.0640449005791453e-05,0.006011361721903,-0.0084671713411808,0.1329363882541656,-0.0001167254522442,0.002684379927814,-0.9446633458137512,0.3280303478240967,-0.0346630961476713,0.0097437082363123,0.0940108862654188,-0.0290566682815551,-0.1101946830749511,0.0254449844360351,86,79,12367,14028
17.8,1788259775148,4.507042407989502,5.605633735656738,-0.0017620550934225,-0.0026474262122064,0.938104808330536,0.3463368117809295,0.1625201450321652,0.0040884707773649,-2.2323094835915467e-05,-0.0125368498265743,0.000424886267865,0.1386690139770507,-0.0006666639819741,0.0032437117770314,-0.9419840574264526,0.3356415033340454,-0.0051665235198928,-0.0131136379807456,0.1243482161336018,-0.0910955667495727,0.0149791240692138,-0.2272872924804687,74,60,12864,13898
17.9,1788259775248,4.535211086273193,5.408450603485107,-0.0022801677696406,-0.0030738054774701,0.9402827620506288,0.3403726816177368,0.1736018861677684,0.0021985589165368,-5.897537759024971e-05,-0.0163065399974584,0.0232687033712863,0.1246462762355804,-6.649736315011978e-05,0.0041665397584438,-0.9400209188461304,0.3410913050174713,-0.0173348317641929,0.0220899856451885,0.1423999438092333,-0.1335287690162658,0.1458937525749206,-0.400909423828125,46,95,12771,14729
18.0,1788259775348,4.478873252868652,5.549295902252197,-0.0022328170016407,-0.0034003530163317,0.9426673650741576,0.3337088227272033,0.1750095626191311,0.0005220898948632,9.892711039841512e-05,-0.0014634283725172,-0.0111787784844636,0.1627545356750488,-0.0007824134081602,0.0039865961298346,-0.9374146461486816,0.3481914401054382,-0.0014611631106522,-0.0353018003295319,0.1729339667482125,-0.0206685066223144,-0.2513806819915771,0.3478012084960937,113,71,12808,14042
18.1,1788259775448,4.563380241394043,5.549295902252197,-0.0024365498684346,-0.0035778973251581,0.9452032446861268,0.32645383477211,0.1734296272101424,0.0003757514149097,-5.7641114820929216e-06,-0.0100130289793014,0.0169023461639881,0.1427458971738815,-7.638800889253616e-05,0.0048305010423064,-0.934337317943573,0.3563571274280548,-0.0099916253287131,0.0175335105310375,0.1390653810217398,-0.1504560112953186,0.0281733274459838,0.3866739273071289,54,88,12686,14265
18.2,1788259775548,4.535211086273193,5.408450603485107,-0.0030028254259377,-0.0040704999119043,0.9479021430015564,0.3185215890407562,0.1691928945497165,0.0030214102279487,2.132993570269524e-05,-0.0120232617482543,-0.0028033156413584,0.1571855992078781,-0.0004347143694758,0.0052112219855189,-0.931830644607544,0.3628557324409485,-0.0071194711983016,-0.0105558330973974,0.150571611762986,0.0477706789970397,-0.2524869441986084,-0.2679080963134765,113,41,14673,12571
18.3,1788259775648,5.014084339141846,5.014084339141846,-0.0030092545785009,-0.0042582545429468,0.9498041272163392,0.3128014802932739,0.1696111321395577,0.0021402672972082,1.7630221972564836e-05,0.0026314794085919,-0.0022486771922558,0.1010297089815139,-0.0001463275402784,0.0054451609030365,-0.930632710456848,0.3659141957759857,-0.0107056146434111,0.0201605716351596,0.01682852275639,0.1621466875076294,0.1324995160102844,0.4503545761108398,103,75,14611,12718
18.4,1788259775748,4.422535419464111,5.492957592010498,-0.0034861438907682,-0.0041491934098303,0.9497594833374025,0.3129337430000305,0.1801555943680432,-0.0019047642133307,-0.0001217421036068,-0.0019352034432813,0.0208018589764833,-0.0058529148809611,-0.0003936942666769,0.0057410513982176,-0.9304921627044678,0.3662667274475097,-0.0084893534750453,0.0116914684162202,0.103523667784301,-0.0291783213615417,0.1628954410552978,0.2123708724975586,63,131,13203,14054
18.5,1788259775848,5.070422649383545,4.929577350616455,-0.0034770499914884,-0.0046302760019898,0.950645923614502,0.3102237284183502,0.1704983044742312,0.0037154120481492,4.448062077159198e-05,-0.0055730263702571,0.0037433183752,0.101024106144905,-0.0005226163193583,0.0056872591376304,-0.9290370941162108,0.3699427247047424,0.000857521648593,-0.0287134572838983,0.0588469181355284,0.0984066128730773,0.1397087574005127,0.4177322387695312,119,59,13950,12953
18.6,1788259775948,4.647887229919434,5.605633735656738,-0.0035665719769895,-0.0045532244257628,0.9512458443641664,0.3083797097206116,0.1701821838620524,-0.0027364024750745,-5.421710147097966e-09,0.0,9.705998671449834e-09,0.0,-0.0001497883349657,0.0060849376022815,-0.9289073944091796,0.3702620267868042,0.0058649737698197,0.0075755768949079,0.0363626747420089,-0.0105412602424621,-0.1928688287734985,-0.1708183288574218,49,72,11844,14251
18.7,1788259776048,4.788732528686523,4.985915660858154,-0.0038039539940655,-0.0047341482713818,0.9528510570526124,0.3033777475357055,0.1696822708665972,0.004050776227659,-2.990689747157932e-05,-0.0027908401098102,0.0075767319649457,0.1492722928524017,-0.0005564168095588,0.0059065744280815,-0.9259385466575624,0.3776277899742126,0.0029612658892676,-0.0197406779557383,0.0937315707717521,0.0793488025665283,-0.2992380857467651,0.3139400482177734,86,47,14772,12671
18.8,1788259776148,5.408450603485107,4.985915660858154,-0.00338064157404,-0.0048976805992424,0.9537150859832764,0.3006527721881866,0.1744535025586619,0.0012361151091265,2.415491184678713e-08,0.0,0.0,0.0,-0.000443541444838,0.005733429454267,-0.9259905219078064,0.3775028884410858,0.0195351992975729,-0.0209944552549561,0.015990740856503,-0.0689822435379028,0.2391879558563232,0.3186483383178711,88,54,13745,11856
18.9,1788259776248,5.126760482788086,4.901408672332764,-0.0030062161386013,-0.0047591654583811,0.9538573026657104,0.300207644701004,0.1725645405075034,0.0004003024617118,7.180037017354597e-05,0.0102622006088495,-0.0133864535018801,0.0196068212389946,-0.0004053572192788,0.0060956375673413,-0.9262669682502748,0.3768185973167419,-0.0007138701194259,-0.0050151535263294,-0.0555171587920216,-0.1054514646530151,-0.2989852428436279,0.3559541702270508,94,44,14698,12109
19.0,1788259776348,5.042253494262695,5.154929637908936,-0.0036335913464426,-0.004777405411005,0.953230917453766,0.3021834790706634,0.1760886398186074,0.0039576011950695,-2.1715993194568453e-05,0.0043121031485497,0.0066207493655383,-0.0335299298167228,2.878718078136444e-05,0.006084693595767,-0.926742434501648,0.3756482303142547,0.0040627470382496,0.0064459576823036,0.0047754884746929,-0.0156399011611938,-0.0119363069534301,0.4375219345092773,92,70,13997,12491
19.1,1788259776448,5.014084339141846,4.985915660858154,-0.0036335913464426,-0.004777405411005,0.953230917453766,0.3021834790706634,0.1789243268189304,0.0011439963373563,-1.2614880574444474e-08,0.0,0.0,0.0,-0.0002622064203023,0.0064199697226285,-0.92693692445755,0.375162124633789,-0.0066047663145829,0.0186104093552513,-0.0090184100392023,-0.0205619931221008,0.2284058332443237,-0.1247596740722656,81,71,13992,12964
19.2,1788259776548,5.183098793029785,5.070422649383545,-0.0036805374547839,-0.0050384514033794,0.9530207514762878,0.3028406202793121,0.1763023526406519,0.0027547082359959,2.6368082257618044e-05,-0.0021291500888764,-0.0046616941690444,-0.0130538083612918,-0.0008537797257304,0.0060325963422656,-0.9270547032356262,0.3748766183853149,-0.0017940813996592,-0.0047919812466918,-0.008077278570336,0.0339329838752746,0.1361209750175476,-0.4070692062377929,96,75,13454,12710
19.3,1788259776648,5.098591327667236,5.126760482788086,-0.0036805374547839,-0.0050384514033794,0.9530207514762878,0.3028406202793121,0.1764283998703506,0.0016060577017946,2.4342402144185078e-08,0.0,0.0,0.0,-0.000670239329338,0.0061442060396075,-0.9267429113388062,0.3756452798843384,0.0020264844803466,0.0184746122975654,0.042450798765889,0.1751022934913635,0.1006518006324768,0.1287660598754882,95,103,13713,12677
19.4,1788259776748,4.816901206970215,5.126760482788086,-0.0034693351481109,-0.005115317646414,0.9531497359275818,0.3024359047412872,0.1795765400457043,0.0024142795863757,1.1318248477959601e-09,0.0,0.0,0.0,-0.0007049823179841,0.0061411168426275,-0.926501452922821,0.3762404024600982,-0.0014645055004173,0.0060754213105369,0.0093751609837845,0.0291235446929931,-0.0646491050720214,0.4159154891967773,54,99,13485,13724
19.5,1788259776848,5.098591327667236,4.985915660858154,-0.0036980672739446,-0.0051054744981229,0.9536386132240297,0.3008881211280823,0.1748169648945027,0.0030226265534643,-6.0145311811320735e-05,-0.0019656454678624,0.0172668807208538,0.049488428980112,-0.000419002957642,0.0065785776823759,-0.9256964921951294,0.3782096207141876,-0.0092534618609766,-0.0104383911053891,0.041677754029113,0.0146815180778503,0.031804621219635,0.120767593383789,70,69,13610,13014
19.6,1788259776948,5.042253494262695,5.070422649383545,-0.004247689153999,-0.0048092831857502,0.9543774724006652,0.2985337674617767,0.1748190882998451,0.000461273425717,-6.7367141118061e-05,0.0127503313124179,0.0168622527271509,0.0411176308989524,3.20998951792717e-05,0.005859425291419,-0.9249505996704102,0.3800421357154846,0.0229368037081598,-0.0170831704070282,0.0208572369243602,0.0053476095199584,0.1706103086471557,-0.1454172134399414,86,77,13769,12735
19.7,1788259777048,5.126760482788086,5.070422649383545,-0.0039614858105778,-0.0046201255172491,0.9545098543167114,0.2981174290180206,0.1789910114551337,0.0011541885776628,-1.7684230909148416e-08,0.0,0.0,0.0,1.1830590665340424e-05,0.0059970449656248,-0.9249342083930968,0.380079984664917,-0.0070716723631288,-0.0053921472788339,-0.0001563758007678,-0.0473295450210571,-0.1036105155944824,0.3712921142578125,105,84,13564,12706
19.8,1788259777148,4.873239517211914,5.211267471313477,-0.0037017064169049,-0.0044002709910273,0.954599380493164,0.297837346792221,0.1811187737474122,-0.0008877424115247,4.559224021397653e-05,0.0121969878673553,-0.0078334230929613,0.012499121017754,8.691847324371338e-05,0.0055172722786664,-0.9248242974281312,0.3803543746471405,0.0050553458990204,0.0171142182604575,0.007901591779863,0.0009971261024475,0.0177310109138488,-0.511256217956543,82,79,13306,13233
19.9,1788259777248,5.042253494262695,4.8450703620910645,-0.0033811093308031,-0.0044087334536015,0.9549087285995485,0.2968475818634033,0.174957332043856,-0.0005198844573691,2.9255495855019026e-05,0.0042134104296565,-0.0066064931452274,0.0289292465895414,0.0004035830497741,0.0055040586739778,-0.9242991209030152,0.3816290497779846,0.0121982979779346,0.0298223474460425,0.0081927847974377,-0.0426093339920043,-0.1076873540878295,0.3683786392211914,39,79,13737,13190
20.0,1788259777348,5.211267471313477,4.873239517211914,-0.0035677589476108,-0.0042362306267023,0.9550223350524902,0.2964824140071869,0.1767544033237857,-0.0016747923973113,5.0181281965145086e-08,0.0,0.0,0.0,0.0001651085913181,0.0052527617663145,-0.924874782562256,0.3802355229854584,-0.0012369486906371,-0.0158938124077779,-0.0536490599976713,0.1229379773139953,-0.0158445835113525,0.4598207473754883,106,71,14573,12103
20.1,1788259777448,4.901408672332764,5.014084339141846,-0.0026828050613403,-0.0037021080497652,0.9543571472167968,0.2986326813697815,0.1742090166801243,0.0016219614354099,3.146604911911417e-05,0.0199120081961154,-0.0282564032822847,-0.0509412437677383,-0.0005507115274667,0.0044649308547377,-0.9253771901130676,0.3790210783481598,-0.0078633873900202,0.0077010078557812,-0.0068704220597813,-0.3788092136383056,-0.0512615442276001,0.3973493576049804,62,61,13523,12556
20.2,1788259777548,5.126760482788086,4.901408672332764,-0.003193303477019,-0.003783242078498,0.95418381690979,0.2991799712181091,0.1780628259604801,0.0011993491422535,-5.580001090321815e-05,-0.0029380759224295,0.0098418379202485,-0.0125420708209276,1.7140060663223267e-05,0.0047335745766758,-0.9258983731269836,0.3777431547641754,0.0081637071094408,-0.0161197263096951,-0.0390230870987493,-0.0529392957687377,-0.2794710397720337,-1.0123567581176758,56,58,14928,12232
20.3,1788259777648,5.211267471313477,4.901408672332764,-0.0029353268910199,-0.0036017480306327,0.953725278377533,0.3006434440612793,0.1768362377124815,0.0037203610707727,2.461783873703322e-05,0.0059562278911471,-0.0061694644391536,-0.0381388887763023,-0.0001815212890505,0.004754651337862,-0.9266579747200012,0.3758753538131714,-0.0092791841484657,0.0094112175501876,-0.0574087566109134,-0.0411386489868164,0.112065315246582,0.0232934951782226,89,70,14386,12283
20.4,1788259777748,5.098591327667236,5.183098793029785,-0.0031034783460199,-0.003552658483386,0.9528511166572572,0.303401380777359,0.1732374772664783,0.0022813434150685,-3.0882388444848004e-05,0.004252073355019,0.01211045589298,-0.070476122200489,-0.0001557916402816,0.0045075621455907,-0.9275676012039183,0.3736283183097839,0.0062175107826687,-0.0250546112393294,-0.0568375469072971,0.0445849299430847,-0.2511705160140991,0.4469194412231445,70,84,13691,12458
20.5,1788259777848,4.985915660858154,5.183098793029785,-0.002783968579024,-0.0035966492723673,0.952378749847412,0.3048838078975677,0.1756002275067876,-0.0002582680821465,-1.8061369223734683e-06,-0.0005624695913866,0.0003119058965239,-0.0167472623288631,-0.0006132461130619,0.0044663352891802,-0.9279783964157104,0.3726066350936889,-0.0084816780956191,-0.0108550473220042,-0.0187708688023317,0.0161181092262268,-0.008630096912384,-0.4603595733642578,46,125,12857,13582
20.6,1788259777948,5.436619758605957,4.957746505737305,-0.0027472511865198,-0.0037995125167071,0.9523027539253236,0.3051187098026275,0.177582807865109,0.0019110010328698,-2.0211945337615976e-08,-0.005502519197762,0.0101778153330087,0.0087669277563691,-3.886222839355469e-05,0.0049311332404613,-0.9280054569244384,0.3725339770317077,-0.0034770160480903,0.0132868689573467,-0.0392923476245034,-0.1293408274650573,-0.160646915435791,0.049574851989746,97,72,13701,12082
20.7,1788259778048,5.211267471313477,4.901408672332764,-0.0028671137988567,-0.0039232168346643,0.9515759944915771,0.3073751926422119,0.1713196272575021,-0.0001245903470241,1.619317140204352e-05,-0.001174388336949,-0.0042495694942772,-0.0663158223032951,-0.0008290186524391,0.0046699736267328,-0.9290854930877686,0.3698346018791199,-0.0014774631984348,-0.0432283884907462,-0.0534750656688122,-0.0450219511985778,-0.0051254034042358,0.3062849044799804,61,57,14098,12273
20.8,1788259778148,5.267605781555176,4.901408672332764,-0.0026798495091497,-0.0040585207752883,0.9508352875709534,0.309658795595169,0.1766382284992895,0.0025932240386154,5.392085004518099e-06,0.0025522783398628,0.005466800648719,-0.0442314259707927,-0.0002125287428498,0.0048347534611821,-0.930031716823578,0.3674474060535431,0.0009907865401313,-0.0009838898248106,-0.0441523343668571,-0.227108359336853,0.1670035719871521,0.6602230072021484,117,90,14166,12443
20.9,1788259778248,5.183098793029785,4.901408672332764,-0.002771021798253,-0.0038814297877252,0.9503328204154968,0.3111988604068756,0.1681233456477333,-0.0058190320889557,-1.5580910756381211e-09,-0.0008104195003397,-0.0153741687536239,-0.0262221209704875,-0.0002289032563567,0.004796995781362,-0.9306167960166932,0.3659636676311493,0.001835583007973,0.0278562898858869,-0.0411620327479766,-0.03483647108078,-0.0556862950325012,-0.6873359680175781,58,67,14240,12228
21.0,1788259778348,4.8450703620910645,4.985915660858154,-0.0025889265816658,-0.0037381327711045,0.9497382640838624,0.3130121827125549,0.1685970287613314,-0.0028847785602161,2.435436637749077e-05,0.0069571170024573,-0.0035512202885001,-0.0287748593837022,-0.0009564850479364,0.0044041099026799,-0.9311150312423706,0.3646979629993438,-0.0089631166239624,-0.0434472665797234,-0.0219023424501643,0.0982690453529357,0.1883782744407653,-0.4225225448608398,83,97,14337,13244
21.1,1788259778448,4.8450703620910645,5.295774459838867,-0.0023147210013121,-0.0038782146293669,0.9496392607688904,0.3133129179477691,0.1802869052805012,-0.0024682687621592,3.2936262714114885e-08,0.0,0.0,0.0,-0.0010934844613075,0.0042719505727291,-0.930971622467041,0.3650650084018707,0.0091936601049961,-0.0139614113068024,0.0335500652965373,-0.2055951356887817,0.3551724553108215,-0.3369159698486328,54,72,13164,13219
21.2,1788259778548,5.098591327667236,4.873239517211914,-0.0019377567805349,-0.0040088347159326,0.9499592781066896,0.3123420178890228,0.1835949734804744,0.0010359397235792,8.382383045428435e-05,-0.0002882337430492,-0.0167529303580522,0.0423803552985191,-0.001001319848001,0.0043970327824354,-0.9305517673492432,0.3661325871944427,0.0025258150904215,0.0082594247695572,0.0031018339012493,-0.0091614127159118,-0.3496790528297424,-0.0012712478637695,79,47,14486,12230
21.3,1788259778648,5.126760482788086,4.929577350616455,-0.0023612519726157,-0.0040017575956881,0.9498977065086364,0.3125265538692474,0.170948679388433,-0.0008123535384719,7.494231674615179e-08,-0.0054487981833517,0.0176081601530313,-0.0083742681890726,-0.0005305195227265,0.0046803755685687,-0.931041419506073,0.3648831248283386,0.0051088704303621,-0.0032562604254428,-0.051537324272487,-0.0106092691421508,0.0961639285087585,0.1994132995605468,68,71,14637,12204
21.4,1788259778748,5.211267471313477,4.901408672332764,-0.0024832966737449,-0.0037409712094813,0.9493528008461,0.3141802549362182,0.1754327795548816,-0.0012634389723571,-1.8549821262416815e-05,0.0038971677422523,0.005822701845318,-0.0132413720712065,-0.000471462495625,0.0046540293842554,-0.9320828318595886,0.3622152209281921,-0.002715636326716,-0.0142037905353054,-0.0692931642472976,-0.0405718684196472,-0.2200960516929626,-0.1089649200439453,73,76,14394,12203
21.5,1788259778848,5.633802890777588,4.535211086273193,-0.0027843706775456,-0.0037389229983091,0.9482721090316772,0.3174242079257965,0.1749682228726964,0.0015042536475094,-7.74655433908372e-06,0.0024073296226561,0.0091596888378262,-0.0615901425480842,-8.869171142578125e-05,0.0047060884535312,-0.9330311417579652,0.359764814376831,-0.0046359005512088,0.0038772434440587,-0.0702456206671889,0.1339071393013,-0.0659134984016418,0.1577844619750976,104,54,15355,11332
21.6,1788259778948,5.6619720458984375,4.478873252868652,-0.0028574119787663,-0.0038521070964634,0.9466489553451538,0.3222308158874511,0.1758078675462607,-0.0016069998055188,4.205309789659001e-05,-0.0009086620993912,-0.0015440972056239,-0.1211465001106262,-0.0003262814134359,0.0048201493918895,-0.935487687587738,0.3533262610435486,-0.0023169711166782,-0.0065069204638382,-0.1736100814594701,-0.1696406602859497,-0.0232197046279907,-0.2406473159790039,75,64,14345,12188
21.7,1788259779048,5.211267471313477,4.8450703620910645,-0.0031627230346202,-0.0038614519871771,0.944322407245636,0.328983724117279,0.1671287988196324,-0.0006991900282208,-1.6172258141457036e-05,-0.0020399340428411,0.0117251751944422,-0.1343802660703659,0.0003835093230009,0.0050958050414919,-0.9375808238983154,0.3477300703525543,0.002567515738527,0.0354062510433016,-0.042141674691346,0.1278454661369323,0.3876520991325378,-0.1228532791137695,77,122,14125,12815
21.8,1788259779148,5.352112770080566,4.788732528686523,-0.0035392038989812,-0.0036274194717407,0.9433189034461976,0.3318490982055664,0.177182025700201,0.001261745962778,-3.1176021488869536e-05,0.0025230161845684,0.008933319710195,-0.0595184601843357,0.0006768899038434,0.0053717456758022,-0.9387038946151732,0.3446819484233856,-0.0121744793998605,0.0109284802688806,-0.0808786587040131,-0.0763119459152221,-0.1422587037086486,0.3409872055053711,68,95,13617,12780
21.9,1788259779248,5.211267471313477,5.070422649383545,-0.0038539769593626,-0.0038930918090045,0.9419502019882202,0.3357080817222595,0.1803616865886997,0.0019351487925747,9.14855901718944e-06,-0.0068461238406598,-0.0042593711987137,-0.084785409271717,0.0006018616259098,0.0055634286254644,-0.939793586730957,0.341696947813034,-0.0025288188199751,0.0126806968807638,-0.0503368396386866,0.052721619606018,0.302784264087677,-0.2801542282104492,70,91,12891,13124
22.0,1788259779348,3.633802890777588,4.647887229919434,-0.0041649146005511,-0.0038622715510427,0.941230833530426,0.3377164602279663,0.1764719241245601,0.0007853160222743,-1.382808930000734e-05,0.0009777243249118,0.008810881525278,-0.0433731637895107,0.000890745781362,0.0053678611293435,-0.9400654435157776,0.3409506976604461,0.0167377833934019,-0.0009731190271511,0.0241665978299011,-0.5177595615386963,0.2348325848579406,-0.3379220962524414,32,38,4668,10957
22.1,1788259779448,1.0704225301742554,3.859154939651489,-0.0041556293144822,-0.003637182759121,0.9429896473884584,0.3327763378620147,0.1249510512014475,0.0036789484522632,-6.733469010704555e-07,0.0008624230977147,-0.0023221049923449,0.192026287317276,0.0008457312360405,0.0053945397958159,-0.9341613054275512,0.3568093478679657,-0.0017673049541669,-0.0152754231492668,0.4618616397771779,-0.808984637260437,0.5397604703903198,0.4689855575561523,26,49,0,9791
22.2,1788259779548,-1.408450722694397,3.239436626434326,-0.0041203657165169,-0.0037126571405678,0.9518523812294006,0.306506484746933,0.0625388129894535,0.0013455869807678,7.78566078279655e-06,-0.0050888010300695,-0.004809649195522,0.5663434863090515,0.0007663145661354,0.0054485248401761,-0.923706591129303,0.3830613493919372,-0.0008066577434127,-0.0062984993210419,0.6995670394564381,-1.037018060684204,0.5171490907669067,0.115422248840332,171,66,-10343,8288
22.3,1788259779648,-3.492957830429077,2.873239517211914,-0.0041713383980095,-0.0038477685302495,0.9628438353538512,0.2699992060661316,0.0109308217464932,0.0007017527194847,-3.575364792006324e-07,-0.0073699685744941,-0.002814476378262,0.9033605456352234,0.0007212096825242,0.0055470848456025,-0.9069916605949402,0.4211113750934601,0.0006751208340716,-0.0086255507204637,0.9648273619085824,-0.0491629838943481,0.0715538263320922,-0.1494970321655273,89,53,-9737,7562
22.4,1788259779748,-3.070422649383545,2.873239517211914,-0.0039096283726394,-0.0044481912627816,0.9742334485054016,0.2254643142223358,-0.0001108198151806,0.003549376748269,-5.0892207902006e-07,-0.0198410768061876,-0.017292009666562,0.9315024614334106,0.0002232706174254,0.0057820761576294,-0.8826602697372437,0.469976007938385,0.0079486953209802,0.0035431420883566,0.8544612117060685,0.2085592150688171,0.0017599463462829,0.0581092834472656,83,58,-7918,6866
22.5,1788259779848,-2.4788732528686523,2.563380241394043,-0.0038177832029759,-0.0043175416067242,0.9826201796531676,0.1855376809835434,0.0083762957372064,-0.0028515823124341,9.107416070214004e-07,-0.0012138867750763,-0.005386565811932,0.8234626650810242,2.516619861125946e-05,0.0056959418579936,-0.8654060959815979,0.5010387897491455,-0.0030401074607625,-0.0103080533641311,0.7580122045315298,-0.0351981520652771,0.0322080850601196,-0.1568689346313476,68,68,-8844,7059
22.6,1788259779948,-2.422535181045532,2.197183132171631,-0.0036563605535775,-0.0044066058471798,0.9895811676979064,0.1438620388507843,-0.0025982946516964,-0.0023189931042517,3.408846089223869e-07,-0.0033359332010149,-0.0011336558964103,0.7362145781517029,-7.864926010370255e-05,0.0056403130292892,-0.8416976928710938,0.5399196147918701,-0.0027891524560357,-0.0125004107801936,0.8069885297695252,0.0919843912124633,-0.0521290898323059,0.2420310974121093,58,42,-6904,6157
22.7,1788259780048,-2.08450698852539,2.2253520488739014,-0.0032103881239891,-0.0044138743542134,0.9942397475242616,0.1070394217967987,0.0079094199586102,0.0005135754789916,3.4239711268877e-06,-0.001474565709941,-0.0191936213523149,0.7763450145721436,-0.0005901996046304,0.005279179662466,-0.8240265846252441,0.5665262341499329,-0.001640561699159,-0.0145716926886138,0.6355485618129022,-0.2356536388397216,0.0085112452507019,0.0106067657470703,42,56,-7870,6232
22.8,1788259780148,-1.774647831916809,1.8028168678283687,-0.0026226830668747,-0.0045493654906749,0.9971042275428772,0.0758662894368171,-0.0029683677794554,-0.0106824692646439,-6.378998421428681e-08,-0.0047923503443598,-0.0159353110939264,0.6326114535331726,-0.0009810496121644,0.0052129551768302,-0.808295488357544,0.5887532234191895,-0.0045961630675629,0.0033788332678202,0.5667362953647513,0.1888208389282226,-0.2106982469558715,0.0636720657348632,34,68,-6902,5438
22.9,1788259780248,-1.8309859037399288,1.887323975563049,-0.0024316296912729,-0.0045824344269931,0.998757004737854,0.0495733954012393,0.0025253607462291,-0.0043807023324955,2.226513888010994e-07,0.0007042771903797,-0.0060101160779595,0.5054232478141785,-0.0011192560195922,0.0049798861145973,-0.7943373322486877,0.6074554920196533,0.0006640817224011,-0.0094077009288449,0.563420710296076,-0.1382672786712646,0.1607324481010437,-0.0613746643066406,83,34,-7345,5479
23.0,1788259780348,-1.6338027715682983,1.4929577112197876,-0.0021475872490555,-0.0046831141225993,0.9998252391815186,0.0179699435830116,0.002056638799859,0.0002788594815234,8.047282634266766e-07,-0.003727632574737,-0.007971541956067,0.5747461318969727,-0.0013296268880367,0.005058460868895,-0.7740634083747864,0.6330864429473877,-0.0041324302937646,0.0028960274913308,0.5077141151825503,-0.1182709336280822,-0.1661431789398193,0.0190601348876953,65,85,-5374,4811
23.1,1788259780448,-1.4929577112197876,1.4929577112197876,0.0022630784660577,0.0046977656893432,-0.9999775290489196,0.0042122397571802,0.0016066467893144,-0.0013239273094221,-9.248949495612107e-08,0.0005274699069559,-0.0004545130359474,0.4541192650794983,-0.0012783948332071,0.0050647296011447,-0.7609552145004272,0.6487833261489868,-0.0029403618988151,-0.0007088912073631,0.4691366829499839,0.041122019290924,-0.0791218876838684,-0.0458431243896484,83,72,-6385,4763
23.2,1788259780548,-1.4647886753082275,1.4929577112197876,0.002105239778757,0.0046803508885204,-0.9996334314346312,0.0265822242945432,0.0024511124680523,-0.0001201134774251,2.712120515940387e-07,-9.069099178304896e-05,-0.0071304822340607,0.4671345949172973,-0.0013502482324838,0.0049347952008247,-0.7472416758537292,0.6645327210426331,0.0001525496473899,0.0019482048947104,0.4415283276493671,0.0710090994834899,-0.0125786066055297,-0.0775308609008789,66,87,-6374,4818
23.3,1788259780648,-1.1267606019973757,1.1267606019973757,0.001923831528984,0.0044062407687306,-0.9987583756446838,0.0495833717286586,0.0016904323425491,-0.0043835454173966,-5.459941085191535e-07,0.0074951844289898,-0.0077845808118581,0.4915773272514343,-0.0015119537711143,0.0044041480869054,-0.7285735607147217,0.6849517822265625,-0.0045390699890668,-0.0119214879810317,0.3997800537430383,0.0348073244094848,-0.1868787407875061,0.005441665649414,32,7,-5082,3544
23.4,1788259780748,-0.9295774698257446,0.9577465057373048,0.0015367373125627,0.0044560339301824,-0.9975548386573792,0.0697282776236534,-0.0017517895642379,-0.0016671703466317,-2.527024719481436e-07,-0.0044257552362978,-0.0065488866530358,0.303203672170639,-0.0017432188615202,0.0044571654871106,-0.7206861972808838,0.6932449340820312,-0.0052747795772303,-0.0013207167470124,0.2027970983323154,-0.0876367092132568,0.1644052267074585,0.0934247970581054,130,139,-6000,5140
23.5,1788259780848,-1.154929518699646,1.211267590522766,0.0016881177434697,0.004731107968837,-0.9965121746063232,0.0832962840795517,-0.0036772253946154,-0.0010061721765203,3.1063405901012705e-07,-0.0073000704869627,0.0066312020644545,0.3382709324359894,-0.0016197292134165,0.0050167357549071,-0.7059874534606934,0.7082048058509827,-0.0029583118774138,0.0018181069639593,0.3839778549121919,-0.1246106624603271,0.0963048338890075,0.0531997680664062,88,73,-5389,4466
23.6,1788259780948,-1.3521126508712769,1.2394366264343262,0.0019792998209595,0.004975046031177,-0.9948291778564452,0.1014211848378181,0.0019287327495718,-0.0010587708429131,-9.224107999513033e-08,-0.0046151648275554,4.852760685025714e-05,0.384791761636734,-0.0018418692052364,0.0050947042182087,-0.693487823009491,0.7204480767250061,-0.0051825700703654,-0.0077768430832855,0.3907660477060237,-0.0011283159255981,-0.0208316445350646,0.0746650695800781,59,61,-4517,4167
23.7,1788259781048,-1.1267606019973757,1.2676056623458862,0.0017602096777409,0.0051233847625553,-0.9927684664726256,0.1199228018522262,0.0013771141796744,-0.0008153926300913,2.5874574963103793e-08,-0.0027707142289727,-0.0053728423081338,0.3753392398357391,-0.0019815526902675,0.0050131091848015,-0.6819519996643066,0.7313770651817322,-0.001301977422692,-0.0041731908991062,0.3007287471983831,0.0064615607261657,0.0279807448387146,0.0517101287841796,100,104,-5017,4137
23.8,1788259781148,-0.9014084339141846,0.9014084339141846,0.0015744615811854,0.0050846710801124,-0.9903860092163086,0.1382287293672561,0.0017850116878858,0.001466308860101,1.2989950313653482e-07,0.0001596128568053,-0.0052085909992456,0.3324688971042633,-0.0019783154129981,0.0048029506579041,-0.6679661870002747,0.744173526763916,0.0047118208409414,-0.0027782660697598,0.2789782451980253,0.0304159522056579,-0.0259473323822021,0.0460739135742187,5,4,-1630,742
23.9,1788259781248,0.0,0.0,0.0015566213987767,0.0049306200817227,-0.9887422919273376,0.1495391577482223,0.004783553281383,-0.0015480930146107,-6.81506132083281e-08,0.0016941180219873,-0.0005987944896332,0.1716700196266174,-0.0020103333517909,0.0047824922949075,-0.6668433547019958,0.7451798915863037,-0.0002867640893975,-0.0026492976981198,-0.0912145435661092,0.1182166337966919,-0.0738659501075744,-0.0166091918945312,7,2,449,1680
24.0,1788259781348,0.0,2.5352113246917725,0.0013537262566387,0.0049212756566703,-0.988952100276947,0.1481471955776214,0.0071010948608905,-0.001968151231546,1.6814357611442634e-07,0.0004410270485095,-0.0066653457470238,2.1763758923043497e-05,-0.0021312460303306,0.004564574919641,-0.662613570690155,0.7489445805549622,0.0017838838821372,0.0003791622439989,0.3391314723767002,0.3145546317100525,0.5764517188072205,-0.2173995971679687,287,206,7205,10468
24.1,1788259781448,2.1408450603485107,5.97183084487915,0.0014557298272848,0.0050823902711272,-0.9862726926803588,0.1650403439998626,0.0804861074750125,0.0049808195369128,-1.239389995720329e-05,-0.0082202311605215,0.0080845179036259,0.4327993392944336,-0.0021453620865941,0.0049255779013037,-0.6467837691307068,0.7626546025276184,-0.0042462542002709,-0.0013458723532692,0.5073452380502218,0.6611893177032471,0.4780957698822021,-0.2286138534545898,69,229,7424,17413
24.2,1788259781548,2.619718313217163,7.97183084487915,0.0015507012140005,0.0052897459827363,-0.980514645576477,0.1963687390089035,0.1495507445764608,0.0055012514136513,4.0581095871400753e-05,-0.0018518174765631,-0.001213533221744,0.65828937292099,-0.0020597204566001,0.0049891108646988,-0.6116552948951721,0.7911059260368347,-0.0006075280136275,0.0030426051252257,0.8742222697458797,-0.0059778094291687,0.1048272848129272,0.3503284454345703,99,120,8953,19788
24.3,1788259781648,2.760563373565674,7.492957592010498,0.0017976724775508,0.0054025864228606,-0.9718617796897888,0.2354833334684372,0.1829096593680912,0.0002070922942409,2.945146229323352e-05,-0.0092489495873451,0.0081107094883918,0.8270812034606934,-0.0019789412617683,0.0054909912869334,-0.5818449854850769,0.81327885389328,-0.0022812786609523,0.0004497518021549,0.7860418592260954,-0.160660445690155,-9.751319885253906e-05,0.0361394882202148,102,28,9605,17035
24.4,1788259781748,3.183098554611206,6.957746505737305,0.001847646315582,0.0053864032961428,-0.962406575679779,0.2715531587600708,0.1834959052508047,-0.0009836215276878,5.991455800682096e-05,-0.0001400301553076,-0.0091295111924409,0.7664197683334351,-0.0020024739205837,0.00535483751446,-0.555444061756134,0.831534206867218,-0.0040499994396955,-0.0099190228164595,0.6460132451907311,-0.1755444407463073,0.2687887549400329,-0.0913753509521484,122,38,9975,16210
24.5,1788259781848,3.239436626434326,6.929577350616455,0.0016056452877819,0.0054246806539595,-0.9535896182060242,0.3010562360286712,0.1737491884410499,0.0041558432805496,5.4089189206154674e-05,-0.005931569263339,-0.0112514412030577,0.606560230255127,-0.0019395165145397,0.0055925957858562,-0.5269080996513367,0.8499017357826233,-0.0050698007217205,0.0085349836593895,0.5283729521662888,-0.1482722163200378,0.0626548528671264,0.2342348098754882,77,59,9664,16657
24.6,1788259781948,3.070422649383545,6.929577350616455,0.0020904303528368,0.0057577630504965,-0.9442906379699708,0.3290558159351349,0.164799021774763,0.0033902239685425,2.568947621731285e-05,-0.0099480971693992,0.0056126029230654,0.5134682655334473,-0.0020862277597188,0.005838300101459,-0.5064710974693298,0.8622347116470337,-0.0043467558857893,-0.013532641663094,0.5696197647859965,0.1305167078971862,0.0618972778320312,-0.2293081283569336,66,99,10119,17294
24.7,1788259782048,3.1549296379089355,6.957746505737305,0.0024282876402139,0.0061364993453025,-0.9350834488868712,0.3543661832809448,0.1765401444301085,0.0033134019186743,6.0992857444391385e-06,-0.0085490942001342,0.0039906753227114,0.5706095695495605,-0.0021624397486448,0.006303571164608,-0.4844173491001129,0.8748116493225098,-0.0097300704441367,-0.0092477256430572,0.5526052161540519,0.0894385576248169,0.0705450773239135,-0.1647930145263672,71,66,9440,16882
24.8,1788259782148,3.521126747131348,6.591549396514893,0.002422796562314,0.0064309411682188,-0.9254674911499025,0.3787645101547241,0.1771915060696184,0.0039915562935495,3.0211614714264835e-05,-0.0067689632996916,-0.0105697400867939,0.5513462424278259,-0.0024408297613263,0.005972720682621,-0.4560607671737671,0.8899252414703369,0.012061159514056,-0.0423889481096252,0.5650076720781355,0.2071659564971923,-0.1855640411376953,0.610020637512207,55,82,10894,15426
24.9,1788259782248,3.690140962600708,6.2253522872924805,0.001535041257739,0.0060055251233279,-0.9163154363632202,0.4004093408584595,0.1807380607849559,-0.0006349786641631,0.0001135663161505,0.0008254958083853,-0.0280638057738542,0.4477926194667816,-0.0021922495216131,0.0063113067299127,-0.4419611990451813,0.8970093131065369,0.0166903192983043,0.0230303562599992,0.3047619613248921,0.0627634525299072,-0.2111861109733581,-0.9806032180786132,96,67,12173,15222
25.0,1788259782348,4.619718074798584,5.521126747131348,0.0019998480565845,0.0060660880990326,-0.909495174884796,0.4156654775142669,0.1709898640287145,-0.00039299920537,6.074894642339993e-05,-0.0002530421188566,-0.018415305763483,0.2855378985404968,-0.002368850633502,0.0055758152157068,-0.4311356544494629,0.902266800403595,0.0107747526534446,-0.0247781421783359,0.2206413097928931,0.4903657436370849,-0.3844872117042541,0.0714168548583984,81,95,13536,13560
25.1,1788259782448,4.591549396514893,5.605633735656738,0.0017122100107371,0.0061547025106847,-0.9060871601104736,0.4230427145957947,0.1733523717655841,0.003165775338249,3.269295557355111e-05,-0.0049180160276591,-0.0073738768696784,0.130845308303833,-0.0027938550338149,0.0056172125041484,-0.4243921339511871,0.905456840991974,0.0157453777761167,-0.0199233997180422,0.1201930781803247,-0.1316111087799072,-0.2369617819786071,-0.2006406784057617,77,68,12471,13480
25.2,1788259782548,4.732394218444824,5.549295902252197,0.0017334832809865,0.0062651261687278,-0.9033750891685486,0.4288019835948944,0.1707173261504127,-0.0021616194322632,-8.396961105413365e-05,-0.0033183717168867,0.004965872503817,0.1261033862829208,-0.0025691231712698,0.0058351922780275,-0.419221967458725,0.9078614115715028,0.0083703188829751,0.011371993871176,0.1306231008400135,-0.0899724960327148,0.0406036376953125,-0.7103300094604492,68,79,12164,13787
25.3,1788259782648,4.450704097747803,5.633802890777588,0.0012609520927071,0.0064256312325596,-0.9006613492965698,0.4344725608825683,0.1742981836078496,0.0050071625826785,1.2254128699807725e-05,-0.014585587196052,-0.0066085774451494,0.1346719563007354,-0.0031929537653923,0.0049427533522248,-0.4107664227485657,0.9117215871810912,0.0107223276592799,-0.0305436099376353,0.1651689086860901,-0.0463104844093322,0.227026104927063,0.0474128723144531,71,83,12795,13750
25.4,1788259782748,4.8450703620910645,5.605633735656738,0.0008072438649833,0.0058691771700978,-0.8966255784034729,0.4427497386932373,0.1716576003640315,0.003195524407715,-2.891889362735847e-05,0.0007448336109519,-0.0025983739178627,0.1537095159292221,-0.0031825928017497,0.0048136627301573,-0.4047789573669433,0.9143964052200316,0.0039690532230745,-0.0060180649056386,0.1399652875215183,-0.1428450942039489,-0.1723192930221557,-0.6044063568115234,78,62,11641,13738
25.5,1788259782848,4.8450703620910645,5.183098793029785,-0.0001339851878583,0.005595332942903,-0.8936476111412048,0.4487344920635223,0.1716267239751985,0.0020754602284478,7.32006413374173e-05,-0.0063340268097817,-0.0221640542149543,0.1351325064897537,-0.0039138915017247,0.003980042412877,-0.3993366658687591,0.916787326335907,-0.0085173094079004,-0.0172128385959811,0.1221236208655347,0.3173756599426269,0.2508702278137207,-0.1298484802246093,116,38,14831,12019
25.6,1788259782948,4.873239517211914,5.239436626434326,-0.0007417097222059,0.0053296741098165,-0.8919882774353027,0.4520265460014343,0.1825505461062014,0.0016730065533823,4.334125121917164e-05,0.0047008409164845,-0.0083543304353952,0.0449364185333251,-0.003812339156866,0.0035967323929071,-0.3972045481204986,0.9177151918411256,0.0089012065661369,2.786170368899301e-06,0.0362404068926694,-0.1938941478729248,0.0317562222480773,-0.3176450729370117,55,55,13625,12813
25.7,1788259783048,5.014084339141846,5.183098793029785,-0.0006069872761145,0.0051993965171277,-0.8912898302078247,0.4534038305282593,0.1715737904866905,0.0048037473727968,-1.3577103095917403e-06,0.001954314764589,0.0006089141243137,0.0184947792440652,-0.0037941243499517,0.0029196217656135,-0.3947407603263855,0.9187800884246826,-0.0033704752837707,-0.0338862205955927,0.0514427772925996,-0.0474302768707275,-0.0138729214668273,0.2541036605834961,92,76,13134,12914
25.8,1788259783148,5.042253494262695,5.211267471313477,-0.0014348495751619,0.0043703406117856,-0.8898244500160217,0.4562798738479614,0.1686124227642852,0.0008617843417059,8.95755542065877e-05,0.0050809127278625,-0.0253111217170953,0.0581734403967857,-0.0036892490461468,0.0023917816579341,-0.3930683135986328,0.9194988012313844,0.0080377824315155,0.0070296692094685,0.0236179339330663,-0.0378261804580688,-0.0490833520889282,0.8287057876586914,84,58,13256,13023
25.9,1788259783248,4.8450703620910645,5.295774459838867,-0.0013511821161955,0.0041407537646591,-0.8892791271209717,0.4573441743850708,0.1746034181237935,0.0003774169240782,-1.281065312708115e-06,0.0052053504623472,-0.0020772151183336,0.0332958549261093,-0.0035004392266273,0.0020971931517124,-0.3915453553199768,0.9201498031616212,0.0089399404564587,0.0105554797638946,0.0508097650909941,0.1356052160263061,0.2823743820190429,-0.874267578125,71,84,13778,12966
26.0,1788259783348,4.901408672332764,5.211267471313477,-0.0015419330447912,0.003565362188965,-0.8881523013114929,0.4595327377319336,0.1722787884631555,0.000715173678328,3.961623166703574e-05,0.0111441165208816,-0.011335258372128,0.0522162988781929,-0.0031731920316815,0.0018406575545668,-0.3893312811851501,0.9210905432701112,-0.0066915794414081,0.0313951355486399,0.028995413008667,-0.1261667013168335,0.4372648000717163,0.2353105545043945,55,78,13251,13098
26.1,1788259783448,4.901408672332764,5.239436626434326,-0.0012386159505695,0.0035669798962771,-0.8877133131027222,0.4603811502456665,0.1725939141579669,0.0018485024905583,-0.0001128063924131,-0.0079478723928332,0.0218841861933469,0.0091103594750165,-0.0034328727051615,0.0023252964019775,-0.3886955678462982,0.9213569760322572,-0.0032768242760255,-0.0082027172987873,0.0454794104666355,-0.0303188562393188,-0.2000712752342224,0.3624629974365234,118,57,13470,13199
26.2,1788259783548,4.985915660858154,5.098591327667236,-0.0015521558234468,0.003973317798227,-0.8869943022727966,0.4617606103420257,0.1790404551311029,0.0015715175612305,-3.2725261534171526e-06,-0.0097070876508951,-0.0104871084913611,0.0278164483606815,-0.0041005378589034,0.001830194145441,-0.3879675269126892,0.9216621518135072,-0.0110975903823274,-0.0233376646944072,-0.0095040007950824,-0.1798822879791259,0.175678551197052,0.2134389877319336,75,49,14139,12412
26.3,1788259783648,4.985915660858154,5.042253494262695,-0.0013879357138648,0.0039622201584279,-0.8871381282806396,0.4614848792552948,0.1710668666132905,-0.00018271515781,-3.2186684128001455e-05,0.0035083196125924,0.0057992739602923,-0.0126879476010799,-0.0034258626401424,0.0022001648321747,-0.3887450993061065,0.9213364124298096,0.0120643341274127,-0.0221529379720369,0.0030309678887103,0.0254350900650024,0.0222777724266052,0.4714365005493164,68,81,14325,12873
26.4,1788259783748,4.957746505737305,5.183098793029785,-0.0011014719493687,0.0039733732119202,-0.8873191475868225,0.4611375331878662,0.174776228920579,0.0018822737603782,1.6863567834885015e-08,0.0,4.962153354881593e-09,0.0,-0.0036031510680913,0.0020961184054613,-0.3889744579792022,0.9212390780448914,-0.0010908940493256,-0.0001970176382607,-0.0049416427929995,-0.115426480770111,0.1343961954116821,-0.0231256484985351,48,66,14157,12345
26.5,1788259783848,5.098591327667236,5.211267471313477,-0.0011657085269689,0.0041771810501813,-0.8875508904457092,0.4606892168521881,0.1697287586264625,-0.0016805634326232,4.316583304049917e-08,-0.0087713664397597,0.0016295893583446,-0.0210768561810255,-0.0035294406116008,0.0029905559495091,-0.3890567123889923,0.9212021827697754,0.0017611179113802,0.030375970038611,0.0392480486443827,0.0779774785041809,-0.1476352214813232,-0.2228040695190429,65,116,13726,12899
26.6,1788259783948,4.732394218444824,5.183098793029785,-0.0010781281162053,0.0046527879312634,-0.8869555592536926,0.461830198764801,0.1731174835888495,0.0023865212089854,-1.1598344677646137e-05,-0.0038922866806387,0.001162058324553,0.0310062672942876,-0.0035833874717354,0.0029418533667922,-0.3870550394058227,0.9220449924468994,0.0104800934107086,0.0096210968329872,0.0354449015776244,0.0327767729759216,-0.2109140753746032,-0.6785173416137695,81,97,13597,13503
26.7,1788259784048,4.929577350616455,5.211267471313477,-0.0013347386848181,0.0045029050670564,-0.8861855268478394,0.4633067846298218,0.1769024305793156,0.0024204354983909,5.872299160743351e-05,-0.0037502774503082,-0.0153633840382099,0.0322824232280254,-0.0040159346535801,0.0027749435976147,-0.385530412197113,0.9226822257041932,-0.0092153118424865,-0.0081658749478151,0.026636845281842,0.1811594367027282,0.3168339729309082,0.2312812805175781,67,84,13187,13470
26.8,1788259784148,5.267605781555176,5.042253494262695,-0.0014221572782844,0.004650639835745,-0.885506272315979,0.4646019041538238,0.1803404364611521,-0.0016866800692165,-1.8158242507947112e-05,-0.0062219095416367,-0.0089334957301616,0.0417855642735958,-0.0040754722431302,0.0026783179491758,-0.3846831917762756,0.923035740852356,-0.0024807240202829,0.0128511362022967,0.0124590052439861,-0.2842866778373718,-0.3177095651626587,-0.3473243713378906,69,66,12842,12737
26.9,1788259784248,4.8450703620910645,5.239436626434326,-0.0012986271176487,0.0045861564576625,-0.8852745890617371,0.4650443196296692,0.1675504952585039,-0.000430351292561,-1.5353476025607187e-05,0.0051391650922596,0.0061244717799127,0.0118007846176624,-0.0033852532505989,0.0029098037630319,-0.3830063343048095,0.923734962940216,0.0123054433951632,0.0084705547495209,0.0647031391811168,-0.0392581820487976,0.0623596310615539,-0.5427761077880859,71,87,13378,13438
27.0,1788259784348,5.042253494262695,5.183098793029785,-0.0003963352646678,0.0044883526861667,-0.8840829730033875,0.4673081040382385,0.1739020675521537,0.0007175347734945,-6.590960530211217e-05,0.0050396337173879,0.0145437540486454,0.0419655069708824,-0.0032020825892686,0.003034995868802,-0.3821933269500732,0.9240718483924866,0.0006435939898994,-0.0198527751104697,-0.015838592269776,-0.0571189522743225,-0.1150437593460083,0.1670722961425781,53,123,12027,14351
27.1,1788259784448,4.676056385040283,5.633802890777588,-0.0001921091461554,0.004560587927699,-0.8832568526268005,0.4688671827316284,0.1872544187355238,-0.0010227191009145,-5.1589766480949785e-05,0.0012178438482806,0.0088495155796408,0.075477734208107,-0.0030764872208237,0.0031456081196665,-0.3786564767360687,0.925526797771454,0.0054474336780162,-0.015288890465927,0.1236922853830449,-0.2786683440208435,0.0795050263404846,-0.3896856307983398,49,84,11663,14025
27.2,1788259784548,4.422535419464111,5.690140724182129,-6.773299537599087e-05,0.0045831245370209,-0.8797745108604431,0.4753689765930176,0.1754435995425951,0.0041469823931114,-5.626397731826026e-05,-0.0004824615316465,0.0175681561231613,0.1755331456661224,-0.0028302045539021,0.0027036787942051,-0.3686698079109192,0.9295522570610046,0.018530732391807,-0.0390383431864519,0.1818369764579616,-0.2570559978485107,-0.0911206007003784,0.5019369125366211,67,74,12679,13657
27.3,1788259784648,4.366197109222412,5.6619720458984375,-0.000245859962888,0.004427220672369,-0.875698983669281,0.4828371703624725,0.1678492199087005,0.0038316290708694,-2.337803903181956e-05,-0.0116737987846136,0.0092367995530366,0.1637323498725891,-0.0030407132580876,0.0034589851275086,-0.3611742854118347,0.9324870109558104,0.0001717723762146,0.0230701265075036,0.2041966925233495,0.1664265394210815,0.1748591661453247,-0.284006118774414,92,69,13419,13802
27.4,1788259784748,4.760563373565674,5.154929637908936,-0.0001687458716332,0.0044909915886819,-0.8708993196487427,0.4914408028125763,0.1835839262236683,0.0061679074130553,5.749257332794399e-05,0.002096215263009,-0.0024658082984387,0.1650835275650024,-0.0030446136370301,0.0035548685118556,-0.3543994128704071,0.9350824356079102,-0.0041120680878408,0.0059284858020359,0.1543679548371669,0.0308253169059753,-0.0153155326843261,0.2544879913330078,95,75,14233,13119
27.5,1788259784848,4.985915660858154,5.126760482788086,0.0001363803166896,0.0051178825087845,-0.8680689930915833,0.4964171648025512,0.1852850661533493,0.0024378515723987,1.9127044163054603e-05,-0.0081298761069774,0.0022496546152979,0.0945178717374801,-0.0030150860548019,0.003850670531392,-0.3496515452861786,0.93686705827713,0.0149470457413396,-0.0069781985647549,0.0652854640338661,-0.1027904152870178,0.1182733178138732,-0.4243154525756836,93,50,14483,12062
27.6,1788259784948,4.873239517211914,5.211267471313477,0.0001180844847112,0.0048155295662581,-0.8671205639839172,0.4980751872062683,0.180705119082994,0.0027175353022057,5.022914127966622e-06,0.0041909762658178,-0.001478882622905,0.013835753314197,-0.0026307506486773,0.0039545884355902,-0.34934201836586,0.9369832277297974,0.0072230464596199,0.0289263544853014,0.0003396769403774,-0.0406962037086486,0.0473135709762573,-0.4334383010864258,67,75,13668,12904
27.7,1788259785048,4.901408672332764,5.070422649383545,0.0001180844847112,0.0048155295662581,-0.8671205639839172,0.4980751872062683,0.1759454866554888,0.0023460917576177,6.388366420787381e-08,0.0,-3.329441833344049e-09,0.0,-0.0032587787136435,0.0035592503845691,-0.3488078713417053,0.9371818900108336,-0.0028005277270854,-0.0177961330352445,0.02390483437964,0.2553859353065491,0.2165099382400512,-0.5094966888427734,83,98,13474,13669
27.8,1788259785148,4.929577350616455,5.154929637908936,-0.0001789048546925,0.0046950308606028,-0.8662686347961426,0.4995565116405487,0.1844047322385291,0.0020509502485057,1.7657206958253476e-05,0.0019938556943088,-0.0036405669525265,0.0297346897423267,-0.0032093422487378,0.0035398127511143,-0.3466716408729553,0.9379743933677672,-0.0087811847156522,0.0185248458553867,0.0386153352609564,0.0536643266677856,0.010859191417694,0.2170934677124023,88,41,14460,12325
