time_s,timestamp_ms,wheel_vels__velocity_left,wheel_vels__velocity_right,odom__orient_x,odom__orient_y,odom__orient_z,odom__orient_w,odom__lin_x,odom__lin_y,odom__lin_z,odom__ang_x,odom__ang_y,odom__ang_z,imu__orient_x,imu__orient_y,imu__orient_z,imu__orient_w,imu__angvel_x,imu__angvel_y,imu__angvel_z,imu__acc_x,imu__acc_y,imu__acc_z,wheel_status__current_ma_left,wheel_status__current_ma_right,wheel_status__pwm_left,wheel_status__pwm_right
0.0,1788435421309,0.0,0.0,-0.001908317557536,-0.0015178660396486,-0.2558630406856537,0.9667099714279176,0.0,0.0,0.0,0.0,2.430857959367927e-09,0.0,-0.0021261721849441,0.0010248320177197,-0.9584060907363892,0.2853982746601105,-0.0005625408224671,-0.0001230877266374,-0.0009783643508188,0.0032444596290588,0.0073797106742858,-0.0145263671875,0,0,0,0
0.1,1788435421409,0.0,0.0,-0.001908317557536,-0.0015178660396486,-0.2558630406856537,0.9667099714279176,0.0,0.0,0.0,0.0,2.430857959367927e-09,0.0,-0.0021261721849441,0.0010248320177197,-0.9584060907363892,0.2853982746601105,-0.0005625408224671,-0.0001230877266374,-0.0009783643508188,0.0032444596290588,0.0073797106742858,-0.0145263671875,0,0,0,0
0.2,1788435421509,0.0,0.0,-0.001908317557536,-0.0015178660396486,-0.2558630406856537,0.9667099714279176,0.0,0.0,0.0,0.0,2.430857959367927e-09,0.0,-0.0021261721849441,0.0010248320177197,-0.9584060907363892,0.2853982746601105,-0.0005625408224671,-0.0001230877266374,-0.0009783643508188,0.0032444596290588,0.0073797106742858,-0.0145263671875,0,0,0,0
0.3,1788435421609,0.0,0.0,-0.001908317557536,-0.0015178660396486,-0.2558630406856537,0.9667099714279176,0.0,0.0,0.0,0.0,2.430857959367927e-09,0.0,-0.0021261721849441,0.0010248320177197,-0.9584060907363892,0.2853982746601105,-0.0005625408224671,-0.0001230877266374,-0.0009783643508188,0.0032444596290588,0.0073797106742858,-0.0145263671875,0,0,0,0
0.4,1788435421709,0.0,0.0,-0.001908317557536,-0.0015178660396486,-0.2558630406856537,0.9667099714279176,0.0,0.0,0.0,0.0,2.430857959367927e-09,0.0,-0.0021261721849441,0.0010248320177197,-0.9584060907363892,0.2853982746601105,-0.0005625408224671,-0.0001230877266374,-0.0009783643508188,0.0032444596290588,0.0073797106742858,-0.0145263671875,0,0,0,0
0.5,1788435421809,0.0,0.0,-0.001908317557536,-0.0015178660396486,-0.2558630406856537,0.9667099714279176,0.0,0.0,0.0,0.0,2.430857959367927e-09,0.0,-0.0021261721849441,0.0010248320177197,-0.9584060907363892,0.2853982746601105,-0.0005625408224671,-0.0001230877266374,-0.0009783643508188,0.0032444596290588,0.0073797106742858,-0.0145263671875,0,0,0,0
0.6,1788435421909,0.0,0.0,-0.001908317557536,-0.0015178660396486,-0.2558630406856537,0.9667099714279176,0.0,0.0,0.0,0.0,2.430857959367927e-09,0.0,-0.0021261721849441,0.0010248320177197,-0.9584060907363892,0.2853982746601105,-0.0005625408224671,-0.0001230877266374,-0.0009783643508188,0.0032444596290588,0.0073797106742858,-0.0145263671875,0,0,0,0
0.7,1788435422009,0.0,0.0,-0.001908317557536,-0.0015178660396486,-0.2558630406856537,0.9667099714279176,0.0,0.0,0.0,0.0,2.430857959367927e-09,0.0,-0.0021261721849441,0.0010248320177197,-0.9584060907363892,0.2853982746601105,-0.0005625408224671,-0.0001230877266374,-0.0009783643508188,0.0032444596290588,0.0073797106742858,-0.0145263671875,0,0,0,0
0.8,1788435422109,0.0,0.0,-0.001908317557536,-0.0015178660396486,-0.2558630406856537,0.9667099714279176,0.0,0.0,0.0,0.0,2.430857959367927e-09,0.0,-0.0021261721849441,0.0010248320177197,-0.9584060907363892,0.2853982746601105,-0.0005625408224671,-0.0001230877266374,-0.0009783643508188,0.0032444596290588,0.0073797106742858,-0.0145263671875,0,0,0,0
0.9,1788435422209,0.0,0.0,-0.001908317557536,-0.0015178660396486,-0.2558630406856537,0.9667099714279176,0.0,0.0,0.0,0.0,2.430857959367927e-09,0.0,-0.0021261721849441,0.0010248320177197,-0.9584060907363892,0.2853982746601105,-0.0005625408224671,-0.0001230877266374,-0.0009783643508188,0.0032444596290588,0.0073797106742858,-0.0145263671875,0,0,0,0
1.0,1788435422309,0.0,0.0,-0.001908317557536,-0.0015178660396486,-0.2558630406856537,0.9667099714279176,0.0,0.0,0.0,0.0,2.430857959367927e-09,0.0,-0.0021261721849441,0.0010248320177197,-0.9584060907363892,0.2853982746601105,-0.0005625408224671,-0.0001230877266374,-0.0009783643508188,0.0032444596290588,0.0073797106742858,-0.0145263671875,0,0,0,0
1.1,1788435422409,0.0,0.0,-0.001908317557536,-0.0015178660396486,-0.2558630406856537,0.9667099714279176,0.0,0.0,0.0,0.0,2.430857959367927e-09,0.0,-0.0021261721849441,0.0010248320177197,-0.9584060907363892,0.2853982746601105,-0.0005625408224671,-0.0001230877266374,-0.0009783643508188,0.0032444596290588,0.0073797106742858,-0.0145263671875,0,0,0,0
1.2,1788435422509,0.0,0.0,-0.001908317557536,-0.0015178660396486,-0.2558630406856537,0.9667099714279176,0.0,0.0,0.0,0.0,2.430857959367927e-09,0.0,-0.0021261721849441,0.0010248320177197,-0.9584060907363892,0.2853982746601105,-0.0005625408224671,-0.0001230877266374,-0.0009783643508188,0.0032444596290588,0.0073797106742858,-0.0145263671875,0,0,0,0
1.3,1788435422609,0.0,0.0,-0.001908317557536,-0.0015178660396486,-0.2558630406856537,0.9667099714279176,0.0,0.0,0.0,0.0,2.430857959367927e-09,0.0,-0.0021261721849441,0.0010248320177197,-0.9584060907363892,0.2853982746601105,-0.0005625408224671,-0.0001230877266374,-0.0009783643508188,0.0032444596290588,0.0073797106742858,-0.0145263671875,0,0,0,0
1.4,1788435422709,0.0,0.0,-0.001908317557536,-0.0015178660396486,-0.2558630406856537,0.9667099714279176,0.0,0.0,0.0,0.0,2.430857959367927e-09,0.0,-0.0021261721849441,0.0010248320177197,-0.9584060907363892,0.2853982746601105,-0.0005625408224671,-0.0001230877266374,-0.0009783643508188,0.0032444596290588,0.0073797106742858,-0.0145263671875,0,0,0,0
1.5,1788435422809,0.0,0.0,-0.001908317557536,-0.0015178660396486,-0.2558630406856537,0.9667099714279176,0.0,0.0,0.0,0.0,2.430857959367927e-09,0.0,-0.0021261721849441,0.0010248320177197,-0.9584060907363892,0.2853982746601105,-0.0005625408224671,-0.0001230877266374,-0.0009783643508188,0.0032444596290588,0.0073797106742858,-0.0145263671875,0,0,0,0
1.6,1788435422909,0.0,0.0,-0.001908317557536,-0.0015178660396486,-0.2558630406856537,0.9667099714279176,0.0,0.0,0.0,0.0,2.430857959367927e-09,0.0,-0.0021261721849441,0.0010248320177197,-0.9584060907363892,0.2853982746601105,-0.0005625408224671,-0.0001230877266374,-0.0009783643508188,0.0032444596290588,0.0073797106742858,-0.0145263671875,0,0,0,0
1.7,1788435423009,0.0,0.0,-0.001908317557536,-0.0015178660396486,-0.2558630406856537,0.9667099714279176,0.0,0.0,0.0,0.0,2.430857959367927e-09,0.0,-0.0021261721849441,0.0010248320177197,-0.9584060907363892,0.2853982746601105,-0.0005625408224671,-0.0001230877266374,-0.0009783643508188,0.0032444596290588,0.0073797106742858,-0.0145263671875,0,0,0,0
1.8,1788435423109,0.0,0.0,-0.001908317557536,-0.0015178660396486,-0.2558630406856537,0.9667099714279176,0.0,0.0,0.0,0.0,2.430857959367927e-09,0.0,-0.0021261721849441,0.0010248320177197,-0.9584060907363892,0.2853982746601105,-0.0005625408224671,-0.0001230877266374,-0.0009783643508188,0.0032444596290588,0.0073797106742858,-0.0145263671875,0,0,0,0
1.9,1788435423209,0.0,0.0,-0.001908317557536,-0.0015178660396486,-0.2558630406856537,0.9667099714279176,0.0,0.0,0.0,0.0,2.430857959367927e-09,0.0,-0.0021261721849441,0.0010248320177197,-0.9584060907363892,0.2853982746601105,-0.0005625408224671,-0.0001230877266374,-0.0009783643508188,0.0032444596290588,0.0073797106742858,-0.0145263671875,0,0,0,0
2.0,1788435423309,0.0,0.0,-0.001908317557536,-0.0015178660396486,-0.2558630406856537,0.9667099714279176,0.0,0.0,0.0,0.0,2.430857959367927e-09,0.0,-0.0021261721849441,0.0010248320177197,-0.9584060907363892,0.2853982746601105,-0.0005625408224671,-0.0001230877266374,-0.0009783643508188,0.0032444596290588,0.0073797106742858,-0.0145263671875,0,0,0,0
2.1,1788435423409,0.0,0.0,-0.001908317557536,-0.0015178660396486,-0.2558630406856537,0.9667099714279176,0.0,0.0,0.0,0.0,2.430857959367927e-09,0.0,-0.0021261721849441,0.0010248320177197,-0.9584060907363892,0.2853982746601105,-0.0005625408224671,-0.0001230877266374,-0.0009783643508188,0.0032444596290588,0.0073797106742858,-0.0145263671875,0,0,0,0
2.2,1788435423509,0.0,0.0,-0.001908317557536,-0.0015178660396486,-0.2558630406856537,0.9667099714279176,0.0,0.0,0.0,0.0,2.430857959367927e-09,0.0,-0.0021261721849441,0.0010248320177197,-0.9584060907363892,0.2853982746601105,-0.0005625408224671,-0.0001230877266374,-0.0009783643508188,0.0032444596290588,0.0073797106742858,-0.0145263671875,0,0,0,0
2.3,1788435423609,0.0,0.0,-0.001908317557536,-0.0015178660396486,-0.2558630406856537,0.9667099714279176,0.0,0.0,0.0,0.0,2.430857959367927e-09,0.0,-0.0021261721849441,0.0010248320177197,-0.9584060907363892,0.2853982746601105,-0.0005625408224671,-0.0001230877266374,-0.0009783643508188,0.0032444596290588,0.0073797106742858,-0.0145263671875,0,0,0,0
2.4,1788435423709,0.0,0.0,-0.001908317557536,-0.0015178660396486,-0.2558630406856537,0.9667099714279176,0.0,0.0,0.0,0.0,2.430857959367927e-09,0.0,-0.0021261721849441,0.0010248320177197,-0.9584060907363892,0.2853982746601105,-0.0005625408224671,-0.0001230877266374,-0.0009783643508188,0.0032444596290588,0.0073797106742858,-0.0145263671875,0,0,0,0
2.5,1788435423809,0.0,0.0,-0.001908317557536,-0.0015178660396486,-0.2558630406856537,0.9667099714279176,0.0,0.0,0.0,0.0,2.430857959367927e-09,0.0,-0.0021261721849441,0.0010248320177197,-0.9584060907363892,0.2853982746601105,-0.0005625408224671,-0.0001230877266374,-0.0009783643508188,0.0032444596290588,0.0073797106742858,-0.0145263671875,0,0,0,0
2.6,1788435423909,0.0,0.0,-0.001908317557536,-0.0015178660396486,-0.2558630406856537,0.9667099714279176,0.0,0.0,0.0,0.0,2.430857959367927e-09,0.0,-0.0021261721849441,0.0010248320177197,-0.9584060907363892,0.2853982746601105,-0.0005625408224671,-0.0001230877266374,-0.0009783643508188,0.0032444596290588,0.0073797106742858,-0.0145263671875,0,0,0,0
2.7,1788435424009,0.0,0.0,-0.001908317557536,-0.0015178660396486,-0.2558630406856537,0.9667099714279176,0.0,0.0,0.0,0.0,2.430857959367927e-09,0.0,-0.0021261721849441,0.0010248320177197,-0.9584060907363892,0.2853982746601105,-0.0005625408224671,-0.0001230877266374,-0.0009783643508188,0.0032444596290588,0.0073797106742858,-0.0145263671875,0,0,0,0
2.8,1788435424109,0.0,0.0,-0.001908317557536,-0.0015178660396486,-0.2558630406856537,0.9667099714279176,0.0,0.0,0.0,0.0,2.430857959367927e-09,0.0,-0.0021261721849441,0.0010248320177197,-0.9584060907363892,0.2853982746601105,-0.0005625408224671,-0.0001230877266374,-0.0009783643508188,0.0032444596290588,0.0073797106742858,-0.0145263671875,0,0,0,0
2.9,1788435424209,0.0,0.0,-0.001908317557536,-0.0015178660396486,-0.2558630406856537,0.9667099714279176,0.0,0.0,0.0,0.0,2.430857959367927e-09,0.0,-0.0021261721849441,0.0010248320177197,-0.9584060907363892,0.2853982746601105,-0.0005625408224671,-0.0001230877266374,-0.0009783643508188,0.0032444596290588,0.0073797106742858,-0.0145263671875,0,0,0,0
3.0,1788435424309,0.0,0.0,-0.001908317557536,-0.0015178660396486,-0.2558630406856537,0.9667099714279176,0.0,0.0,0.0,0.0,2.430857959367927e-09,0.0,-0.0021261721849441,0.0010248320177197,-0.9584060907363892,0.2853982746601105,-0.0005625408224671,-0.0001230877266374,-0.0009783643508188,0.0032444596290588,0.0073797106742858,-0.0145263671875,0,0,0,0
3.1,1788435424409,0.0,0.0,-0.001908317557536,-0.0015178660396486,-0.2558630406856537,0.9667099714279176,0.0,0.0,0.0,0.0,2.430857959367927e-09,0.0,-0.0021261721849441,0.0010248320177197,-0.9584060907363892,0.2853982746601105,-0.0005625408224671,-0.0001230877266374,-0.0009783643508188,0.0032444596290588,0.0073797106742858,-0.0145263671875,0,0,0,0
3.2,1788435424509,0.0,0.0,-0.001908317557536,-0.0015178660396486,-0.2558630406856537,0.9667099714279176,0.0,0.0,0.0,0.0,2.430857959367927e-09,0.0,-0.0021261721849441,0.0010248320177197,-0.9584060907363892,0.2853982746601105,-0.0005625408224671,-0.0001230877266374,-0.0009783643508188,0.0032444596290588,0.0073797106742858,-0.0145263671875,0,0,0,0
3.3,1788435424609,0.0,0.0,-0.001908317557536,-0.0015178660396486,-0.2558630406856537,0.9667099714279176,0.0,0.0,0.0,0.0,2.430857959367927e-09,0.0,-0.0021261721849441,0.0010248320177197,-0.9584060907363892,0.2853982746601105,-0.0005625408224671,-0.0001230877266374,-0.0009783643508188,0.0032444596290588,0.0073797106742858,-0.0145263671875,0,0,0,0
3.4,1788435424709,0.0,0.0,-0.001908317557536,-0.0015178660396486,-0.2558630406856537,0.9667099714279176,0.0,0.0,0.0,0.0,2.430857959367927e-09,0.0,-0.0021261721849441,0.0010248320177197,-0.9584060907363892,0.2853982746601105,-0.0005625408224671,-0.0001230877266374,-0.0009783643508188,0.0032444596290588,0.0073797106742858,-0.0145263671875,0,0,0,0
3.5,1788435424809,0.0,0.0,-0.001908317557536,-0.0015178660396486,-0.2558630406856537,0.9667099714279176,0.0,0.0,0.0,0.0,2.430857959367927e-09,0.0,-0.0021261721849441,0.0010248320177197,-0.9584060907363892,0.2853982746601105,-0.0005625408224671,-0.0001230877266374,-0.0009783643508188,0.0032444596290588,0.0073797106742858,-0.0145263671875,0,0,0,0
3.6,1788435424909,0.0,0.0,-0.001908317557536,-0.0015178660396486,-0.2558630406856537,0.9667099714279176,0.0,0.0,0.0,0.0,2.430857959367927e-09,0.0,-0.0021261721849441,0.0010248320177197,-0.9584060907363892,0.2853982746601105,-0.0005625408224671,-0.0001230877266374,-0.0009783643508188,0.0032444596290588,0.0073797106742858,-0.0145263671875,0,0,0,0
3.7,1788435425009,0.0,0.0,-0.001908317557536,-0.0015178660396486,-0.2558630406856537,0.9667099714279176,0.0,0.0,0.0,0.0,2.430857959367927e-09,0.0,-0.0021261721849441,0.0010248320177197,-0.9584060907363892,0.2853982746601105,-0.0005625408224671,-0.0001230877266374,-0.0009783643508188,0.0032444596290588,0.0073797106742858,-0.0145263671875,0,0,0,0
3.8,1788435425109,0.0,0.0,-0.001908317557536,-0.0015178660396486,-0.2558630406856537,0.9667099714279176,0.0,0.0,0.0,0.0,2.359905604265577e-09,0.0,-0.0021265652030706,0.0010071480646729,-0.9583855867385864,0.2854669988155365,0.0011037562863739,2.8632441833693987e-05,0.0018208616268096,0.0049300789833068,0.0339266657829284,0.0070991516113281,0,0,0,0
3.9,1788435425209,0.0,0.0,-0.001908317557536,-0.0015178660396486,-0.2558630406856537,0.9667099714279176,0.0,0.0,0.0,0.0,2.4258395292520163e-09,0.0,-0.0021500093862414,0.0009895330294966,-0.958388328552246,0.2854577898979187,0.000505470969847,-4.4050439707289605e-07,-0.0001195147595858,-0.0279430150985717,-0.0040021538734436,0.0105886459350585,0,0,0,0
4.0,1788435425309,0.0,0.0,-0.001908317557536,-0.0015178660396486,-0.2558630406856537,0.9667099714279176,0.0,0.0,0.0,0.0,2.465244230975827e-09,0.0,-0.0021614469587802,0.0009419014677405,-0.9583796858787536,0.2854870557785034,0.0006279045110706,4.983995940652152e-05,-0.0010114442137162,-0.0032907724380493,0.0131203532218933,0.0160245895385742,0,0,0,0
4.1,1788435425409,0.0,0.0,-0.001908317557536,-0.0015178660396486,-0.2558630406856537,0.9667099714279176,0.0,0.0,0.0,0.0,2.4410931054319462e-09,0.0,-0.0021298052743077,0.0009121298789978,-0.9583817720413208,0.2854802906513214,0.0013491230550615,0.0003975445505113,0.0007324738424225,-0.0387817621231079,-0.0037354826927185,-0.0019998550415039,0,0,0,0
4.2,1788435425509,0.0,0.0,-0.001908317557536,-0.0015178660396486,-0.2558630406856537,0.9667099714279176,0.0,0.0,0.0,0.0,2.36903541228628e-09,0.0,-0.0021271277219057,0.0008875057101249,-0.9583813548088074,0.2854820191860199,-0.0002422021917655,0.0002228120462043,0.001099971409545,0.0150130987167358,0.0227295756340026,-0.0037183761596679,0,0,0,0
4.3,1788435425609,0.0,0.0,-0.001908317557536,-0.0015178660396486,-0.2558630406856537,0.9667099714279176,0.0,0.0,0.0,0.0,2.4106561191672427e-09,0.0,-0.0021249251440167,0.0009052269160747,-0.9583855271339417,0.285467654466629,-0.0003397631693774,0.0004115227338708,-0.000660107815133,-0.0064004659652709,-0.0182396173477172,-0.0110187530517578,0,0,0,0
4.4,1788435425709,0.0,0.0,-0.001908317557536,-0.0015178660396486,-0.2558630406856537,0.9667099714279176,0.0,0.0,0.0,0.0,1.8186128158959038e-09,0.0,-0.0021356474608182,0.0009119883179664,-0.9583821296691896,0.2854792177677154,-0.0010913558779559,0.0003903802461285,-0.0015266887455035,0.0293488502502441,-0.0001454353332519,0.0123882293701171,0,0,0,0
4.5,1788435425809,0.0,0.0,-0.001908317557536,-0.0015178660396486,-0.2558630406856537,0.9667099714279176,0.0,0.0,0.0,0.0,2.4740434145797963e-09,0.0,-0.0021317694336175,0.0008678110316395,-0.9583735466003418,0.2855080962181091,0.0017370073851087,-0.0003570330097176,0.0011995649712387,0.0022322535514831,0.0385060906410217,0.0178661346435546,0,0,0,0
4.6,1788435425909,0.0,0.0,-0.001908317557536,-0.0015178660396486,-0.2558630406856537,0.9667099714279176,0.0,0.0,0.0,0.0,2.452388958573692e-09,0.0,-0.0021306760609149,0.0008700788021087,-0.9583707451820374,0.2855172753334045,0.000466727246623,-3.2122358487136125e-06,0.0016235025729884,-0.0013238191604614,0.0278264880180358,-0.0037145614624023,0,0,0,0
4.7,1788435426009,0.0,0.0,-0.001908317557536,-0.0015178660396486,-0.2558630406856537,0.9667099714279176,0.0,0.0,0.0,0.0,2.4271322729418902e-09,0.0,-0.002129927277565,0.0008712103590369,-0.9583727121353148,0.2855107486248016,0.0006322031275275,0.0007412213220652,-0.0003239556864279,-0.0228605866432189,-0.0062955021858215,0.0033740997314453,0,0,0,0
4.8,1788435426109,0.0,0.0,-0.001908317557536,-0.0015178660396486,-0.2558630406856537,0.9667099714279176,0.0,0.0,0.0,0.0,2.393090614560833e-09,0.0,-0.0021677715703845,0.000852545723319,-0.958370804786682,0.2855169177055359,0.0001005323156724,0.0019616972294464,-0.0013719833480902,0.042773962020874,0.0114976167678833,0.0178098678588867,0,0,0,0
4.9,1788435426209,0.0,0.0,-0.001908317557536,-0.0015178660396486,-0.2558630406856537,0.9667099714279176,0.0,0.0,0.0,0.0,2.421316036560484e-09,0.0,-0.0021491525694727,0.0008542845025658,-0.9583650827407836,0.2855362892150879,-7.641915545206191e-05,-0.0003318603453399,-0.0012968274819139,0.0161935687065124,-0.008285105228424,0.0033807754516601,0,0,0,0
5.0,1788435426309,0.0,0.0,-0.001908317557536,-0.0015178660396486,-0.2558630406856537,0.9667099714279176,0.0,0.0,0.0,0.0,2.4860373759594268e-09,0.0,-0.0021356800571084,0.0008617434650659,-0.9583632349967957,0.2855424284934997,-0.0004187447590801,0.000211914017182,0.0003735955704119,-0.0050655007362365,0.0115547180175781,-0.0019683837890625,0,0,0,0
5.1,1788435426409,0.0,0.0,-0.001908317557536,-0.0015178660396486,-0.2558630406856537,0.9667099714279176,0.0,0.0,0.0,0.0,2.4289601441296327e-09,0.0,-0.0021504005417227,0.0008886903524398,-0.958372950553894,0.2855100929737091,0.0007608622935667,3.8196467598443816e-05,-0.0003092444179453,-0.0411136746406555,0.0049315690994262,0.0087795257568359,0,0,0,0
5.2,1788435426509,0.0,0.0,-0.001908317557536,-0.0015178660396486,-0.2558630406856537,0.9667099714279176,0.0,0.0,0.0,0.0,2.345648786317156e-09,0.0,-0.0021015042439103,0.0008960338309407,-0.9583741426467896,0.2855062484741211,-0.0011680132162824,0.0020457492579392,-0.0007930655862051,0.0299041271209716,-0.0220871567726135,-0.0128231048583984,0,0,0,0
5.3,1788435426609,0.0,0.0,-0.001908317557536,-0.0015178660396486,-0.2558630406856537,0.9667099714279176,0.0,0.0,0.0,0.0,2.398162113337321e-09,0.0,-0.0021067596971988,0.0009069852530956,-0.9583715200424194,0.2855150997638702,0.0004488964663624,-0.0001461909880174,2.3720652106863605e-05,0.0172966122627258,0.0212013125419616,0.0088376998901367,0,0,0,0
5.4,1788435426709,0.0,0.0,-0.001908317557536,-0.0015178660396486,-0.2558630406856537,0.9667099714279176,0.0,0.0,0.0,0.0,2.374205276822749e-09,0.0,-0.0021261386573314,0.0008852267637848,-0.9583635926246644,0.2855416536331177,0.0006119771663475,-0.0015039490130762,0.0022452545486082,0.0132162570953369,-0.0042653083801269,0.0195503234863281,0,0,0,0
5.5,1788435426809,0.0,0.0,-0.001908317557536,-0.0015178660396486,-0.2558630406856537,0.9667099714279176,0.0,0.0,0.0,0.0,2.4017681177213035e-09,0.0,-0.0021252846345305,0.000887956470251,-0.9583593010902404,0.285555899143219,0.0006279673266365,0.0009162181696858,0.0012644983116555,-0.0100888609886169,-0.0005644559860229,-0.0037956237792968,0,0,0,0
5.6,1788435426909,0.0,0.0,-0.001908317557536,-0.0015178660396486,-0.2558630406856537,0.9667099714279176,0.0,0.0,0.0,0.0,3.6044671691826125e-09,0.0,-0.0021504741162061,0.0008950624614953,-0.958366632461548,0.285531222820282,-7.820350262873882e-05,-0.0003190801375707,-0.0003393472729624,-0.026694118976593,-0.0272868275642395,0.0194816589355468,0,0,0,0
5.7,1788435427009,0.0,0.0,-0.001908317557536,-0.0015178660396486,-0.2558630406856537,0.9667099714279176,0.0,0.0,0.0,0.0,2.5159547778486054e-09,0.0,-0.0021595014259219,0.0008873017504811,-0.9583632349967957,0.2855423390865326,-0.0005867433851996,-0.0009851762060765,-0.0003248488593415,0.0090143084526062,-0.0112485289573669,0.0339031219482421,0,0,0,0
5.8,1788435427109,0.0,0.0,-0.001908317557536,-0.0015178660396486,-0.2558630406856537,0.9667099714279176,0.0,0.0,0.0,0.0,2.411510990896204e-09,0.0,-0.0021565658971667,0.0008882731199264,-0.9583706259727478,0.2855175137519836,0.0006286506425093,0.000567484424527,2.778964057898757e-05,-0.0160573720932006,-0.0039878487586975,0.0051679611206054,0,0,0,0
5.9,1788435427209,0.0,0.0,-0.001908317557536,-0.0015178660396486,-0.2558630406856537,0.9667099714279176,0.0,0.0,0.0,0.0,2.443708790877963e-09,0.0,-0.0021419180557131,0.0009201793000102,-0.9583709836006165,0.2855163514614105,-0.0014109040415921,0.001038871819005,-0.0002676046687741,-0.0209800004959106,-0.0015940070152282,-0.0217800140380859,0,0,0,0
6.0,1788435427309,0.0,0.0,-0.001908317557536,-0.0015178660396486,-0.2558630406856537,0.9667099714279176,0.0,0.0,0.0,0.0,2.4469266612925367e-09,0.0,-0.0021578529849648,0.0008967937901616,-0.958373725414276,0.2855071723461151,-0.0002450833068049,-0.0004677673262101,-0.0006638394771512,0.0216982960700988,0.0124386548995971,-0.023533821105957,0,0,0,0
6.1,1788435427409,0.0,0.0,-0.001908317557536,-0.0015178660396486,-0.2558630406856537,0.9667099714279176,0.0,0.0,0.0,0.0,2.413263588962877e-09,0.0,-0.0021705366671085,0.0008888328447937,-0.9583582282066344,0.2855593562126159,0.0001755624794953,-0.0020343774687171,0.0002856317753636,-0.0198942422866821,-0.0236319303512573,0.0068874359130859,0,0,0,0
6.2,1788435427509,0.0,0.0,-0.001908317557536,-0.0015178660396486,-0.2558630406856537,0.9667099714279176,0.0,0.0,0.0,0.0,2.42967734820354e-09,0.0,-0.0021913265809416,0.0009050089865922,-0.958364725112915,0.2855370044708252,-0.0005950247013587,-0.0004230044833698,-0.0006438798169488,0.012136697769165,0.0001637935638427,-0.0002307891845703,0,0,0,0
6.3,1788435427609,0.0,0.0,-0.001908317557536,-0.0015178660396486,-0.2558630406856537,0.9667099714279176,0.0,0.0,0.0,0.0,2.435416313062433e-09,0.0,-0.0021882550790905,0.0009128982201218,-0.9583694934844972,0.2855209410190582,0.0010017775033747,0.0004064508602772,2.434931765694965e-05,-0.0111089944839477,0.0164889097213745,-0.0038022994995117,0,0,0,0
6.4,1788435427709,0.0,0.0,-0.001908317557536,-0.0015178660396486,-0.2558630406856537,0.9667099714279176,0.0,0.0,0.0,0.0,2.466431725522966e-09,0.0,-0.0022211354225873,0.0009158169850707,-0.9583836197853088,0.2854732573032379,-0.0009757051482447,-0.0001363863045869,-0.0010463756490023,-0.0117132067680358,-0.0156256556510925,0.0086832046508789,0,0,0,0
6.5,1788435427809,0.0,0.0,-0.001908317557536,-0.0015178660396486,-0.2558630406856537,0.9667099714279176,0.0,0.0,0.0,0.0,2.404900056873771e-09,0.0,-0.0022493889555335,0.000886557623744,-0.9583787322044371,0.2854896187782287,-0.0004165304603119,0.000376404960297,-0.0011457918862795,0.0199272036552429,-0.0088262557983398,0.0087032318115234,0,0,0,0
6.6,1788435427909,0.0,0.0,-0.001908317557536,-0.0015178660396486,-0.2558630406856537,0.9667099714279176,0.0,0.0,0.0,0.0,2.3952944072647142e-09,0.0,-0.0021921908482909,0.0009276587516069,-0.9583809971809388,0.2854824066162109,-0.0012389130191122,0.0035736862818378,-0.0003968972158531,-0.0003206729888916,-0.0371091961860656,0.0086174011230468,0,0,0,0
6.7,1788435428009,0.0,0.0,-0.001908317557536,-0.0015178660396486,-0.2558630406856537,0.9667099714279176,0.0,0.0,0.0,0.0,2.4046713509306983e-09,0.0,-0.0021751299500465,0.0009517855942249,-0.958373486995697,0.285507470369339,0.0009676201337605,-0.0004859255048773,0.0019604616238759,0.0198920369148254,0.0081660151481628,0.0087232589721679,0,0,0,0
6.8,1788435428109,0.0,0.0,-0.001908317557536,-0.0015178660396486,-0.2558630406856537,0.9667099714279176,0.0,0.0,0.0,0.0,2.493899753375217e-09,0.0,-0.0021672425791621,0.0009927116334438,-0.9583724737167358,0.2855111360549927,-0.0005943459150813,0.001767300812012,0.0002773015553211,-0.0336173176765441,0.0268303751945495,0.0195207595825195,0,0,0,0
6.9,1788435428209,0.0,0.0,-0.001908317557536,-0.0015178660396486,-0.2558630406856537,0.9667099714279176,0.0,0.0,0.0,0.0,2.4170621060193302e-09,0.0,-0.0021688006818294,0.0009715864434838,-0.9583715796470642,0.285514086484909,0.0012852824634108,-0.0004886106476071,0.0001972521334888,0.0003705620765686,0.0031371712684631,0.0015058517456054,0,0,0,0
7.0,1788435428309,0.0,0.0,-0.001908317557536,-0.0015178660396486,-0.2558630406856537,0.9667099714279176,0.0,0.0,0.0,0.0,2.3787896097360317e-09,0.0,-0.0021396148949861,0.0010114125907421,-0.9583665728569032,0.2855308949947357,0.0006733833871591,-0.0006303168807644,0.0014104503588405,0.0190983414649963,0.0234627723693847,0.0105314254760742,0,0,0,0
7.1,1788435428409,0.0,0.0,-0.001908317557536,-0.0015178660396486,-0.2558630406856537,0.9667099714279176,0.0,0.0,0.0,0.0,2.421382205852751e-09,0.0,-0.0021396148949861,0.0010114125907421,-0.9583665728569032,0.2855308949947357,0.0006733833871591,-0.0006303168807644,0.0014104503588405,0.0190983414649963,0.0234627723693847,0.0105314254760742,0,0,0,0
7.2,1788435428509,0.0,0.0,-0.001908317557536,-0.0015178660396486,-0.2558630406856537,0.9667099714279176,0.0,0.0,0.0,0.0,2.3591748554707684e-09,0.0,-0.0021396148949861,0.0010114125907421,-0.9583665728569032,0.2855308949947357,0.0006733833871591,-0.0006303168807644,0.0014104503588405,0.0190983414649963,0.0234627723693847,0.0105314254760742,0,0,0,0
7.3,1788435428609,0.0,0.0,-0.001908317557536,-0.0015178660396486,-0.2558630406856537,0.9667099714279176,0.0,0.0,0.0,0.0,3.6161302841009046e-09,0.0,-0.0020757429301738,0.0010330229997634,-0.9583868384361268,0.2854633033275604,-0.0012089239774003,0.0022527015758689,-0.0009766359475982,-0.0244868993759155,-0.0285640358924865,0.0085563659667968,0,0,0,0
7.4,1788435428709,0.0,0.0,-0.001908317557536,-0.0015178660396486,-0.2558630406856537,0.9667099714279176,0.0,0.0,0.0,0.0,2.424620504370978e-09,0.0,-0.0020686816424131,0.0010580355301499,-0.9583805203437804,0.2854846119880676,-0.0007997069462231,-0.0006647371042972,0.0001962428474705,0.0134984850883483,0.000558853149414,0.026595115661621,0,0,0,0
7.5,1788435428809,0.0,0.0,-0.001908317557536,-0.0015178660396486,-0.2558630406856537,0.9667099714279176,0.0,0.0,0.0,0.0,2.423212519531148e-09,0.0,-0.0020345682278275,0.0010878043249249,-0.9583940505981444,0.2854392826557159,-0.0004398409434625,0.0021355540521367,-0.0018890315345657,0.0071275830268859,-0.00800222158432,0.0050106048583984,0,0,0,0
7.6,1788435428909,0.0,0.0,-0.001908317557536,-0.0015178660396486,-0.2558630406856537,0.9667099714279176,0.0,0.0,0.0,0.0,2.421806533092763e-09,0.0,-0.0019870260730385,0.0010748775675892,-0.9583951830863952,0.2854358851909637,-0.0002250743577256,0.0023986925589865,-0.0019654668764236,0.0313004255294799,0.0112832784652709,-0.0093183517456054,0,0,0,0
7.7,1788435429009,0.0,0.0,-0.001908317557536,-0.0015178660396486,-0.2558630406856537,0.9667099714279176,0.0,0.0,0.0,0.0,2.558985023881632e-09,0.0,-0.0019698161631822,0.0010124556720256,-0.9583895206451416,0.2854551076889038,0.0004459113376779,0.0009379802735865,-0.0001513148368606,-0.0118466019630432,-0.0062260031700134,0.0211496353149414,0,0,0,0
7.8,1788435429109,0.0,0.0,-0.001908317557536,-0.0015178660396486,-0.2558630406856537,0.9667099714279176,0.0,0.0,0.0,0.0,2.4231845419109277e-09,0.0,-0.0019546244293451,0.001024117693305,-0.9583831429481506,0.2854767441749573,0.0007928668390829,-0.0020754788410678,0.0017844132852649,0.0298247933387756,0.0299391150474548,-0.0218591690063476,0,0,0,0
7.9,1788435429209,0.0,0.0,-0.001908317557536,-0.0015178660396486,-0.2558630406856537,0.9667099714279176,0.0,0.0,0.0,0.0,2.42517561588329e-09,0.0,-0.001968927681446,0.0009845811873674,-0.9583812355995178,0.2854832708835602,0.0011456793792926,-0.0008398262362795,0.000725744203028,0.0059729218482971,0.0004286766052246,0.0193586349487304,0,0,0,0
8.0,1788435429309,0.0,0.0,-0.001908317557536,-0.0015178660396486,-0.2558630406856537,0.9667099714279176,0.0,0.0,0.0,0.0,1.840133712072145e-09,0.0,-0.0019102087244391,0.0010113343596458,-0.958397090435028,0.285430371761322,-0.000352906029412,0.0030592399934992,-0.0014332117674811,-0.0053542852401733,-0.0066003203392028,0.0247135162353515,0,0,0,0
8.1,1788435429409,0.0,0.0,-0.001908317557536,-0.0015178660396486,-0.2558630406856537,0.9667099714279176,0.0,0.0,0.0,0.0,1.831375828764692e-09,0.0,-0.0019055753946304,0.001013814471662,-0.9583876132965088,0.2854619920253753,1.443057192810734e-05,0.0003933309103415,0.0005569581385793,0.0055261850357055,0.0132166147232055,0.0085945129394531,0,0,0,0
8.2,1788435429509,0.0,0.0,-0.001908317557536,-0.0015178660396486,-0.2558630406856537,0.9667099714279176,0.0,0.0,0.0,0.0,2.374546781425124e-09,0.0,-0.0019213669002056,0.0009706458076834,-0.9583833813667296,0.2854763269424438,0.0014721617086816,-0.0009986857302603,0.0004487200126009,0.0301300287246704,0.010728895664215,-0.0039854049682617,0,0,0,0
8.3,1788435429609,0.0,0.0,-0.001908317557536,-0.0015178660396486,-0.2558630406856537,0.9667099714279176,0.0,0.0,0.0,0.0,2.4790745012381876e-09,0.0,-0.0019023176282644,0.0009500384330749,-0.9583837985992432,0.2854748666286468,0.0007838557556041,-0.0003182963077651,0.0019554653714797,-0.0127394199371337,-0.0059468746185302,0.0013370513916015,0,0,0,0
8.4,1788435429709,0.0,0.0,-0.001908317557536,-0.0015178660396486,-0.2558630406856537,0.9667099714279176,0.0,0.0,0.0,0.0,1.8014693070611543e-09,0.0,-0.0018921829760074,0.0009274315088987,-0.9583911299705504,0.2854506075382232,0.0005778749382373,0.0016916338133302,-0.0004690024979453,-0.019864797592163,-0.0171677470207214,-0.013071060180664,0,0,0,0
8.5,1788435429809,0.0,0.0,-0.001908317557536,-0.0015178660396486,-0.2558630406856537,0.9667099714279176,0.0,0.0,0.0,0.0,2.467965165564578e-09,0.0,-0.0019298465922474,0.0009072804823517,-0.958389163017273,0.2854567170143127,-0.0008124875682243,0.0002135422323793,-0.0008711025446296,0.0295977592468261,-0.0084259510040283,0.0139017105102539,0,0,0,0
8.6,1788435429909,0.0,0.0,-0.001908317557536,-0.0015178660396486,-0.2558630406856537,0.9667099714279176,0.0,0.0,0.0,0.0,2.408927501917901e-09,0.0,-0.0019094031304121,0.0009117759764194,-0.95838063955307,0.2854858636856079,-0.00022319342922,-1.1847605848856852e-05,0.0014768154384533,-0.0041102766990661,0.0006006956100463,-0.01483154296875,0,0,0,0
8.7,1788435430009,0.0,0.0,-0.001908317557536,-0.0015178660396486,-0.2558630406856537,0.9667099714279176,0.0,0.0,0.0,0.0,2.408927501917901e-09,0.0,-0.0018662055954337,0.0009292624890804,-0.9583886861801147,0.285458892583847,0.0010330565135136,0.0006994761532074,0.0004509047464121,0.0021717548370361,-0.0173324942588806,0.0102596282958984,0,0,0,0
8.8,1788435430109,0.0,0.0,-0.001908317557536,-0.0015178660396486,-0.2558630406856537,0.9667099714279176,0.0,0.0,0.0,0.0,1.7867529678028402e-09,0.0,-0.0018837815150618,0.0009492971003055,-0.958386778831482,0.2854653596878052,-8.639414337787328e-05,0.000351776232078,0.0008717760619243,-0.0106084942817687,-0.0059564709663391,-0.0364236831665039,0,0,0,0
8.9,1788435430209,0.0,0.0,-0.001908317557536,-0.0015178660396486,-0.2558630406856537,0.9667099714279176,0.0,0.0,0.0,0.0,2.490941231059196e-09,0.0,-0.001892551779747,0.0009485026821494,-0.9583848118782043,0.285471498966217,7.057692269280269e-05,-0.0002884919096459,-0.00121996169768,-0.0050637125968933,-0.01309734582901,0.0162010192871093,0,0,572,-591
9.0,1788435430309,1.0140844583511353,-0.98591548204422,-0.0018140643369406,-0.0013313703238964,-0.2567224204540252,0.9664824604988098,-0.0019221884731777,0.0020667607206702,-6.421072279916657e-11,0.0017431760206818,0.0086070895195007,-0.0371895208954811,-0.002016126178205,0.0009415848180651,-0.960786521434784,0.277280181646347,-0.0056971246896823,0.0024215010521122,-0.417031562690016,0.0049537420272827,-0.1453146338462829,-0.1457710266113281,129,79,4821,-5656
9.1,1788435430409,0.7042253613471985,-0.9014084339141846,-0.0017463295953348,-0.0009334282949566,-0.2720358967781067,0.962285041809082,-0.0047836443493881,0.0043282500993376,1.347776422252861e-06,-0.0005661480827257,0.012289859354496,-0.3362687528133392,-0.001676051877439,0.0010348362848162,-0.9646894931793212,0.263382613658905,-0.000566251321545,0.0018463218910987,-0.2137899689584662,0.1641108393669128,-0.0470909476280212,-0.1095724105834961,39,96,4628,-4670
9.2,1788435430509,0.0,0.0,-0.0017550283810123,-0.0008663611952215,-0.2827065885066986,0.9592044353485109,-0.0002231853513718,0.003011639743371,1.1754967208293227e-07,-0.0006337273516692,0.0001701532455626,-0.2221513092517852,-0.001695217564702,0.0010329708456993,-0.9678939580917358,0.2513509094715118,0.0029084258773447,-0.0024881915326534,-0.1501353916278046,-0.2120278477668762,0.4211421012878418,-0.000732421875,0,0,0,0
9.3,1788435430609,2.169013977050781,1.0140844583511353,-0.0017674214905127,-0.0009192128200083,-0.2898778915405273,0.957061529159546,-0.0011954186954104,0.0029282560067369,3.1075707863271054e-08,0.000528453849256,-0.0002954341180156,-0.0330075323581695,-0.0017514079809188,0.0010135220363736,-0.9679644107818604,0.2510795295238495,0.0003711488018232,-0.005046354158635,-0.0240403902953899,-0.0676904916763305,0.2380331158638,-0.0765857696533203,126,105,6857,6716
9.4,1788435430709,4.2816901206970215,2.901408433914185,-0.0016727423062548,-0.0009673233143985,-0.2900241315364837,0.9570173025131226,0.0606386166703531,-0.0003155092893681,-6.501606343246295e-07,0.0022457689046859,0.0021440591663122,-0.0645764917135238,-0.0018724426627159,0.0008560018613934,-0.9692299365997314,0.2461484968662262,0.0014755471911479,-0.0043929550917638,-0.1619303273608517,0.8738378882408142,-0.210063099861145,-0.0325145721435546,233,186,16455,12589
9.5,1788435430809,6.394366264343262,4.394366264343262,-0.0017729104729369,-0.0013200180837884,-0.2977699935436249,0.9546350836753844,0.1398176611812914,-0.001505342354157,1.212296387287801e-05,0.000808815122582,-0.0116295721381902,-0.1842941790819168,-0.0015923269093036,0.0010042740032076,-0.971217155456543,0.238188236951828,-0.0045001822776371,0.0240801068757147,-0.2751978851192582,0.8601977229118347,-0.0680941939353942,-0.9823102951049804,154,91,18510,14339
9.6,1788435430909,5.211267471313477,4.647887229919434,-0.0009581585181877,-0.0007401012699119,-0.3102046847343445,0.9506690502166748,0.181481138306396,-0.0031686652296852,-4.0578684338712566e-05,0.0143140954896807,0.0097199948504567,-0.2214154601097107,-0.0009456118568778,0.0002878811210393,-0.9743419885635376,0.22507044672966,0.0043970488784719,0.004542742658288,-0.2230961784375591,-0.1500032544136047,0.0372750759124755,1.092118263244629,79,97,18001,13725
9.7,1788435431009,3.802816867828369,3.239436626434326,-0.0006996452575549,-0.0006235499167814,-0.3207104802131653,0.94717675447464,0.1659526095284717,-0.0030846802963907,-3.301233566794778e-05,0.0014509212924167,-0.000204417592613,-0.2284039705991745,-0.0010711308568716,0.000767215155065,-0.9769019484519958,0.2136843204498291,-0.0234766175680451,-0.0259620144893954,-0.1730867499406511,-1.7293038368225098,0.0016348361968994,1.1885099411010742,78,49,6211,5456
9.8,1788435431109,0.9577465057373048,0.9295774698257446,-0.0014158198609948,-0.0007336331764236,-0.3282321691513061,0.944595754146576,0.109330158487379,0.0001323951777952,6.103477292405056e-05,-0.0133940279483795,-0.0225119963288307,-0.1268839389085769,-0.0013421541079878,0.0010244576260447,-0.9775729775428772,0.2105901837348938,-0.0094591043099662,-0.0029975855239921,-0.0428752495898872,-0.8117333650588989,0.0339516997337341,0.017836570739746,29,16,0,191
9.9,1788435431209,0.0,0.0,-0.0016632026527076,-0.0006929992232471,-0.3301063776016235,0.9439420700073242,0.0160431356788525,0.0026471046813008,3.8477746174911523e-07,-0.0052191191352903,-0.0043019438162446,-0.0353527255356311,-0.0015574442222714,0.0009844629094004,-0.9777661561965942,0.2096899896860122,0.0014953537278176,-0.0039131245344678,-0.0256935150195359,0.0658512711524963,0.00905042886734,-0.0394144058227539,0,0,0,0
10.0,1788435431309,0.0,0.0,-0.0016700942069292,-0.0008555224630981,-0.3314463198184967,0.9434722065925598,-0.0041254864671388,-7.941469434225422e-05,-4.568141274383696e-07,0.0007737580453976,-0.0041692052036523,-0.0324478223919868,-0.0015687560662627,0.0009446637704968,-0.9781580567359924,0.2078543901443481,0.0004315807618508,-4.526266921369921e-05,-0.0196822065760219,-0.0262022614479064,-0.0601806044578552,0.0447988510131835,0,0,0,0
10.1,1788435431409,0.0,0.0,-0.0016447756206616,-0.0008586050826124,-0.3319483697414398,0.9432957768440248,-0.0002062840675544,-0.0002198042153782,1.740712476218609e-10,2.463650394801675e-09,-4.9273007896033505e-09,0.0,-0.0016398755833506,0.0009465431794524,-0.9781643748283386,0.2078242003917694,0.0001551147107766,0.0016145380716849,-0.0023353591137798,-0.0724441409111023,-0.0291852951049804,-0.0090160369873046,0,0,0,0
10.2,1788435431509,0.0,0.0,-0.0016695616068318,-0.0008905845461413,-0.3322754502296448,0.943180501461029,0.0,0.0,0.0,2.422760214670916e-09,-4.845520429341832e-09,0.0,-0.0017061028629541,0.0009450726211071,-0.9781702160835266,0.2077961862087249,-0.0012678132471537,-0.0016297957948772,-0.0054256651815244,0.0196772217750549,-0.0181589722633361,-0.012547492980957,0,0,0,0
10.3,1788435431609,0.0,0.0,-0.0016695616068318,-0.0008905845461413,-0.3322754502296448,0.943180501461029,0.0,0.0,0.0,0.0,0.0,0.0,-0.0016974695026874,0.0009580599144101,-0.9781572818756104,0.2078574299812317,0.0002486023309286,-0.0011756499562343,0.000379767257298,0.0234882831573486,0.0341339111328125,-0.0088233947753906,0,0,0,0
10.4,1788435431709,0.0,0.0,-0.0016695616068318,-0.0008905845461413,-0.3322754502296448,0.943180501461029,0.0,0.0,0.0,0.0,0.0,0.0,-0.0016932394355535,0.0009536575525999,-0.9781559109687804,0.2078637778759002,6.665352889079592e-05,-0.0004566635164748,0.0037327465759466,0.0037917494773864,0.0286214351654052,0.0001373291015625,0,0,0,0
10.5,1788435431809,0.0,0.0,-0.0016695616068318,-0.0008905845461413,-0.3322754502296448,0.943180501461029,0.0,0.0,0.0,0.0,0.0,0.0,-0.0017103860154747,0.0009696194902062,-0.9781667590141296,0.2078121155500412,-0.0006105844852407,0.0009333425006369,-0.0035365697787437,0.0232763886451721,0.0001990795135498,0.0234231948852539,0,0,0,0
10.6,1788435431909,0.0,0.0,-0.0016695616068318,-0.0008905845461413,-0.3322754502296448,0.943180501461029,0.0,0.0,0.0,0.0,0.0,0.0,-0.0016492577269673,0.0009555406868457,-0.978169858455658,0.207798346877098,-0.0004645797229248,0.0025772805268069,-0.0021085974416451,-0.0043423175811767,-0.0146523118019104,0.009002685546875,0,0,0,0
10.7,1788435432009,1.6056338548660278,1.774647831916809,-0.0016695616068318,-0.0008905845461413,-0.3322754502296448,0.943180501461029,0.0,0.0,0.0,0.0,0.0,0.0,-0.0021116025745868,0.0008858572691679,-0.9780294299125672,0.2084547132253646,-0.0020902871905251,-0.0279114677685762,0.0347008853437846,2.350266695022583,0.3332554697990417,-0.2623472213745117,262,340,12985,12891
10.8,1788435432109,5.154929637908936,4.704225540161133,-0.0019186529098078,-0.0012244648532941,-0.331520676612854,0.9434451460838318,0.0693591124889031,0.0022321435129542,4.263367084503152e-05,-0.0038020757492631,-0.0123359691351652,0.0247352384030818,-0.0026417858898639,0.0009744931012392,-0.9778667688369752,0.2092094272375106,-0.0022311794337092,-0.0269961702282043,0.0164386563303298,0.9216210842132568,-0.1204920411109924,-0.4021997451782226,139,201,15901,17791
10.9,1788435432209,5.211267471313477,5.323943614959717,-0.001751089701429,-0.0014001536183059,-0.3308410346508026,0.9436838030815125,0.1614356939913435,0.0054724519409656,-3.4324136283502806e-05,0.0191157311201095,0.0237358324229717,0.0217973608523607,-0.0014300253242254,0.0005478337407112,-0.9777414202690125,0.209808349609375,0.0020123079883581,0.0450458171540441,-0.0028759935507618,-0.1725923418998718,0.1924186944961547,0.6381053924560547,59,56,15587,15285
11.0,1788435432309,5.042253494262695,5.380281925201416,-0.0014507011510431,-0.0013117647031322,-0.3305492699146271,0.9437867403030396,0.1902766498626522,0.000655740634239,6.597919118227887e-10,-4.9678448021950325e-09,9.935689604390065e-09,0.0,-0.0019055418670177,0.0005326215177774,-0.9778777956962584,0.2091677188873291,-0.0114211437769614,-0.0223476679339435,-0.0190177221680951,-0.100972294807434,0.1615936160087585,0.6919622421264648,50,75,14083,15555
11.1,1788435432409,4.647887229919434,5.183098793029785,0.0002609536459203,-0.0001002363133011,-0.3296109437942505,0.9441167712211608,0.1556221851813219,0.0058181092313576,-6.511775758973973e-05,0.0510053299367427,0.0696411281824112,0.0623453631997108,0.0010514464229345,-0.0010115643963217,-0.9770596623420716,0.2129609286785125,0.0436439568869664,0.0251770574936811,0.1477365606703472,0.8978394269943237,0.2401651740074157,-0.0205183029174804,123,69,17699,15263
11.2,1788435432509,5.070422649383545,5.042253494262695,-0.0014995405217632,-0.0005153529345989,-0.3304845690727234,0.9438100457191468,0.1817627726709371,0.0024353012083439,0.0002413442610217,-0.0570268891751766,-0.0431933440268039,-0.1107050403952598,-0.0020625134930014,0.0010917792096734,-0.9779469966888428,0.2088401764631271,-0.0063288901597461,-0.0361393816772732,0.0074026966753642,-0.0961664915084838,0.2064312100410461,0.2358713150024414,16,73,14850,15349
11.3,1788435432609,5.323943614959717,5.098591327667236,-0.0019999183714389,-0.0014573123771697,-0.3312914371490478,0.9435251951217652,0.1592665455348843,0.0036830317797702,4.93581626806976e-05,-0.0002952977083623,-0.0185798946768045,0.0033282618969678,-0.0028947312384843,0.0007657939568161,-0.9779341220855712,0.2088923305273056,0.0045555799124231,-0.0077279722203337,-0.0047853227118302,0.5423351526260376,-0.2131707072257995,-0.4438381195068359,121,81,14522,15144
11.4,1788435432709,5.408450603485107,4.957746505737305,-0.0023812502622604,-0.0020311502739787,-0.3338538408279419,0.9426196217536926,0.1628958884824741,-0.0009360544830226,-8.683556842975421e-05,-0.0094260601326823,0.011846044100821,-0.056789468973875,-0.0028962418437004,0.0011182390153408,-0.9786441326141356,0.205538734793663,-0.0147755579367741,0.0171580185628872,-0.0647647545630892,-0.0759968161582946,0.1743370294570922,-0.5023221969604492,133,94,15314,14650
11.5,1788435432809,5.492957592010498,4.873239517211914,-0.0026642892044037,-0.0024321994278579,-0.3354178667068481,0.9420625567436218,0.1738186932688148,0.0014111342371769,2.235382258771536e-05,-0.0056963418610394,-0.0194813720881938,-0.0688411891460418,-0.0026613753288984,0.0010146973654627,-0.9792194962501526,0.2027834206819534,0.0125438058008049,0.0263465821327788,-0.0473205061208091,-0.1890039443969726,0.1996700167655944,0.3382558822631836,109,56,14794,14885
11.6,1788435432909,5.408450603485107,4.929577350616455,-0.0023130478803068,-0.0017039583763107,-0.3378469347953796,0.941196620464325,0.1712945992324792,0.0015856169326575,-7.638465285953673e-05,0.0003183589724358,0.0183605644851923,-0.045748021453619,-0.0026613753288984,0.0010146973654627,-0.9792194962501526,0.2027834206819534,0.0125438058008049,0.0263465821327788,-0.0473205061208091,-0.1890039443969726,0.1996700167655944,0.3382558822631836,125,78,15101,14918
11.7,1788435433009,4.873239517211914,5.070422649383545,-0.0009960004827007,0.0010559658985584,-0.3407050669193268,0.940169095993042,0.1791727590751563,0.0036546607535086,-0.0002741909623031,0.0146147133782505,0.021101227030158,-0.0223315022885799,0.0012229727581143,0.0016510384157299,-0.9799741506576538,0.1991139948368072,0.0075702730827751,-0.0346207159412452,-0.0087209902735578,-0.9235759377479552,-0.1066192984580993,2.1516923904418945,98,78,16779,14518
11.8,1788435433109,5.633802890777588,4.901408672332764,-0.0009150673868134,0.0005997697007842,-0.3409666419029236,0.9400747418403624,0.1708353749266836,0.0007185859234843,0.0002244537037466,0.0095652192831039,-0.0165529381483793,-0.011493606492877,-0.0011953609064221,0.000314506702125,-0.980101466178894,0.198493555188179,0.0192782528070943,-0.1058564106958244,-0.015753246048146,0.3851349949836731,0.0994691252708435,0.3514919281005859,81,71,14420,14673
11.9,1788435433209,5.042253494262695,4.8450703620910645,-0.000636437383946,-0.0003492247487884,-0.3426063060760498,0.9394786953926086,0.1736880799891019,0.0033870695949406,-7.77331582972838e-05,0.012640044093132,-0.0001246690371772,-0.0638911798596382,-0.0003442987799644,0.0008508544415235,-0.9807335734367372,0.1953478753566742,-0.0282066391507028,0.0398565039357986,-0.0803783280165869,-0.1915082931518554,-0.1673834323883056,0.0073347091674804,115,91,16552,15071
12.0,1788435433309,5.802816867828369,4.535211086273193,-0.0016592256724834,0.0004015200829599,-0.3478119075298309,0.9375627636909484,0.1672290035514891,2.975397632512782e-05,6.53219194159306e-06,-0.0382868982851505,0.0035627621691673,-0.1698213219642639,-0.0001957025378942,0.0025534303858876,-0.9825021624565125,0.1862340420484542,0.0091850354630996,-0.03618873211661,-0.139318333642198,0.2894728183746338,-0.2009153366088867,-0.3164882659912109,98,74,16179,14699
12.1,1788435433409,5.436619758605957,4.535211086273193,-0.0021117597352713,0.0017580281710252,-0.3546719253063202,0.9349867701530457,0.1646513119005451,-0.0081661897107178,2.3124299943029114e-05,0.0029429038986563,0.0096591804176568,-0.1431641727685928,-0.0004420243203639,0.0017390474677085,-0.9835702776908876,0.1805166006088256,0.0383846931654404,-0.0517159301524286,-0.137580774001104,-0.3265523314476013,-0.479048490524292,2.9460935592651367,33,67,17156,14022
12.2,1788435433509,5.408450603485107,4.901408672332764,-0.0018512117676436,0.0008833583560772,-0.3578625321388244,0.9337720274925232,0.1711149304256585,0.0040380641595045,4.454197529765741e-05,0.0237110517919063,-0.0305087137967348,-0.1454228609800338,-0.001239825040102,0.0001331958919763,-0.9846637845039368,0.1744584143161773,-0.0239819272691053,0.0268750775516849,-0.1590052300322977,-0.3667319416999817,-0.1156652569770813,0.7809572219848633,102,56,14719,14143
12.3,1788435433609,4.788732528686523,4.422535419464111,0.0004549680452328,-0.0007295006653293,-0.3643532395362854,0.9312604069709778,0.1596118444131379,0.0049707099692914,-7.146440997994233e-05,0.0351951085031032,0.042286280542612,-0.0857820957899093,-0.001239825040102,0.0001331958919763,-0.9846637845039368,0.1744584143161773,-0.0239819272691053,0.0268750775516849,-0.1590052300322977,-0.3667319416999817,-0.1156652569770813,0.7809572219848633,70,180,17163,16627
12.4,1788435433709,5.97183084487915,4.873239517211914,0.0011538268299773,0.0007437868625856,-0.3651716709136963,0.930939257144928,0.1733298710493461,-0.0051810647050766,-0.0003489475987182,0.0046890224330127,0.0671342387795448,-0.0363474264740943,-0.0010702777653932,0.0011261235922574,-0.9856755137443542,0.1686460077762603,-0.0677182142663582,-0.0867311577952609,-0.2149674519098013,-0.965217649936676,-0.4667204618453979,-0.105630874633789,20,91,12661,15885
12.5,1788435433809,3.4647886753082275,6.478873252868652,-0.0024328522849828,-4.722998710349202e-05,-0.3597082793712616,0.9330615997314452,0.1679743367352583,0.0113803499453363,0.0001143052730637,-0.0156694967299699,-0.028278162702918,0.3957891166210174,-0.0017545502632856,0.0021266546100378,-0.9815701246261596,0.1910824477672577,0.0005634702078082,-0.0153358473554685,0.4585590293025113,0.0338728427886962,-0.1581603288650512,-1.1228694915771484,84,94,12826,18333
12.6,1788435433909,3.859154939651489,6.2816901206970215,-0.0032784738577902,-0.0013403372140601,-0.3392255306243896,0.9406983852386476,0.1748540601843548,0.0047756111089295,9.188464154151676e-05,-0.009202167391777,-0.0472480356693267,0.4346120357513428,-0.0046789506450295,0.003754774108529,-0.9779486060142516,0.2087593823671341,-0.1004012011867094,-0.0333839002945909,0.2474360460063339,0.0333111882209777,-0.2319236397743225,0.5459775924682617,48,98,11622,18658
12.7,1788435434009,3.88732385635376,6.14084529876709,-0.0056577431969344,-0.0017553170910105,-0.3262020051479339,0.9452815055847168,0.1649570944918656,0.0042080436871686,8.79098828327418e-05,-0.0146283861249685,0.0043261609971523,0.2650530040264129,-0.005216590128839,0.0038058469071984,-0.9747689962387084,0.2231224924325943,-0.0031715175696362,-0.0364674062809212,0.3715496756221711,0.3304934501647949,0.3516511917114258,-1.190962791442871,75,151,11820,19672
12.8,1788435434109,3.9718310832977295,6.253520965576172,-0.0055444636382162,-0.0012813814682886,-0.3074690997600555,0.951541006565094,0.1604630717947117,0.0090199402613921,-8.454597517062173e-05,0.001916540088132,0.0341949127614498,0.4336905479431152,-0.0033056549727916,0.0042438060045242,-0.9687017798423768,0.2481690198183059,0.0046534465082322,0.0144813720722488,0.3482177562978731,0.0478599667549133,0.1101788282394409,-0.4339799880981445,133,102,12318,18962
12.9,1788435434209,4.084506988525391,5.915493011474609,-0.005153764039278,-0.0004741011653095,-0.2876313626766205,0.9577271938323976,0.1722558099073833,0.0061526742763295,-3.504323409475656e-05,0.0079177655279636,0.0066028530709445,0.3785197734832763,-0.0032062996178865,0.0040344083681702,-0.9655702114105223,0.2600916624069214,0.0032378514492028,-0.008359371937367,0.3219440454836502,-0.0886846184730529,-0.0143647193908691,0.3702735900878906,74,94,14360,17584
13.0,1788435434309,4.478873252868652,5.943662166595459,-0.0051797623746097,-0.0004780269227921,-0.2735800743103027,0.9618352055549622,0.1729966881446947,0.0022532734813396,-3.9110813692696735e-05,-0.0046888315118849,0.0058887763880193,0.2813257277011871,-0.0037119081243872,0.0045111989602446,-0.9609521627426147,0.2766529023647308,-0.0076038549157484,-0.0323203382494866,0.2469423813880345,0.1574063301086425,0.109197974205017,0.4462194442749023,82,91,12308,17475
13.1,1788435434409,4.253520965576172,6.0,-0.005629205610603,-0.0006556488806381,-0.2623364627361297,0.9649598002433776,0.1673155805642721,0.0046383350335581,-8.588456123408264e-06,-0.004306711256504,0.0013926761457696,0.2296421825885772,-0.0037190355360507,0.0044098598882555,-0.959750235080719,0.2807955741882324,0.0051817450015383,-0.0028832804286179,0.2126171601116974,0.1285263299942016,-0.0838835835456848,0.1421680450439453,40,93,13133,17732
13.2,1788435434509,4.253520965576172,5.577464580535889,-0.0057568722404539,-0.0001242008293047,-0.2497151494026184,0.9683022499084472,0.173100592899579,0.0034868524040491,0.0001489602552892,0.002039099112153,0.002253278158605,0.2502112090587616,-0.0035416139289736,0.0047760633751749,-0.9559075236320496,0.2936075925827026,0.0080875965508794,0.0271463925372256,0.2516199416860298,0.061076819896698,0.2641226053237915,2.142107963562012,99,52,15268,16434
13.3,1788435434609,4.3380279541015625,5.97183084487915,-0.0063169249333441,-0.001497846096754,-0.2406972050666809,0.9705785512924194,0.174084081550831,0.0053721237324715,0.0001333806443545,-0.0019853883422911,-0.0247720014303922,0.1632272601127624,-0.0044772196561098,0.0046023884788155,-0.9525407552719116,0.3043432235717773,-0.0048055568400545,-0.0010332311947563,0.1697132350425362,0.4251129031181335,0.1490383744239807,0.457305908203125,77,65,12709,17620
13.4,1788435434709,4.8450703620910645,5.464788913726807,-0.0054540913552045,-0.001128276111558,-0.2328008413314819,0.9725084900856018,0.1632038989787342,-0.0007371047263647,5.447571425529072e-06,0.0274278987199068,0.0196737125515937,0.1785780191421508,-0.0027853501960635,0.003892783075571,-0.9492207169532776,0.3145745396614074,0.0223160641533759,0.0403593825004649,0.2586650987653327,0.2974305748939514,0.1209322214126586,-0.3747081756591797,181,32,17100,14078
13.5,1788435434809,6.8450703620910645,3.4084506034851074,-0.0045487824827432,4.6611297875642776e-05,-0.2227663844823837,0.974861204624176,0.1843245430305683,-0.0017575023562526,-0.0001260837992916,0.008857044391334,0.0254049636423587,0.1842186897993087,-0.0005297334864735,0.0045882258564233,-0.9500871300697328,0.3119504451751709,-0.0009158852098938,0.0792941588090726,-0.3397686921504607,-0.0107707381248474,-0.7074552774429321,0.8300237655639648,166,17,20532,9157
13.6,1788435434909,6.309859275817871,3.690140962600708,-0.0030854169744998,0.0041769482195377,-0.2427600473165512,0.9700724482536316,0.1665556299288998,-0.008347829720061,-0.0002601481179746,0.0159054975956678,0.0866292789578437,-0.5052623152732849,7.339660078287125e-05,0.0045091416686773,-0.9516865015029908,0.3070383369922638,0.0217937012109442,0.0471219363819318,-0.4245045078194223,0.1905686259269714,-0.6121219396591187,-1.1974735260009766,25,103,18479,12176
13.7,1788435435009,6.676056385040283,3.3521127700805664,-0.0007660639239475,0.0056709432974457,-0.2657174170017242,0.9640340209007264,0.1454004017891678,-0.0081638125183619,-0.0001770507183398,0.0710573717951774,0.1103548482060432,-0.4429776072502136,0.0054408209398388,0.003624103963375,-0.96191668510437,0.273264467716217,0.0636126435796798,0.1926811355947566,-0.3961980868078157,0.8349521160125732,-0.1505597233772277,0.3957672119140625,25,103,18479,12176
13.8,1788435435109,5.7183098793029785,4.14084529876709,-0.0029615580569952,0.0043059843592345,-0.2865728437900543,0.9580442309379578,0.1769149600885167,-0.0007772155575791,8.205739220567328e-05,-0.0206303223967552,-0.0177106708288192,-0.4552286863327026,0.0019172206521034,0.00476801302284,-0.96887868642807,0.2474828511476516,0.007315195619117,0.0144991065154757,-0.2245520226867602,0.1661595106124878,0.4255178570747375,-1.952681064605713,75,110,17985,13914
13.9,1788435435209,5.549295902252197,4.676056385040283,-0.0030390936881303,0.0038338359445333,-0.2972886562347412,0.954775094985962,0.160447219732567,-0.0013993991055482,1.7112131012154235e-05,0.0059699309058487,-0.0108335698023438,-0.1953937262296676,0.000682002864778,0.0030035795643925,-0.9709521532058716,0.2392539232969284,0.059048496771892,-0.0494675858062507,-0.0926339408585547,0.1870496273040771,0.2018503546714782,-0.299290657043457,89,49,17187,14038
14.0,1788435435309,5.605633735656738,4.507042407989502,-0.0023765300866216,0.002042070031166,-0.3028470277786255,0.953033983707428,0.1742974179320814,0.0022434456941855,4.798576785539828e-05,0.0024178796447813,-0.0163794830441474,-0.0850638523697853,0.0007031308487057,0.0035286881029605,-0.9725928902626038,0.2324871122837066,-0.001793715774576,-0.0104910413626707,-0.1772026826478468,-0.0049107074737548,0.4457892179489136,0.9783334732055664,146,101,16388,14218
14.1,1788435435409,5.295774459838867,4.507042407989502,-0.0026007937267422,0.0026028172578662,-0.311000257730484,0.9504027962684632,0.1702245210550714,0.0018073564738647,-5.66873882816608e-05,-0.0001370200479868,0.0118033345788717,-0.1527202576398849,0.000604816712439,0.0034654261544346,-0.9740750789642334,0.2261975854635238,0.001011377564019,-0.0088190983671755,-0.1430659452500162,-0.0734973549842834,-0.0774859189987182,-0.4239797592163086,50,58,17486,14128
14.2,1788435435509,5.436619758605957,4.535211086273193,-0.0026815240271389,0.0019299897830933,-0.3174814283847809,0.9482586979866028,0.174577083839446,-0.0004299246701299,7.882286156435604e-05,0.0025386444758623,-0.0150053370743989,-0.1435878276824951,0.000197366811335,0.0030262498185038,-0.9758374094963074,0.2184770107269287,0.0118598955071628,-0.0129597658588212,-0.1825171572403586,-0.0564399361610412,-0.187529981136322,-1.356471061706543,150,85,17173,14019
14.3,1788435435609,5.352112770080566,5.014084339141846,-0.0022552625741809,0.0014609176432713,-0.3247814178466797,0.9457852244377136,0.1677217571019741,-0.0033901913278719,1.2174121688730369e-05,0.0152209578081965,-0.0086383828893303,-0.1487563252449035,0.0003431625664234,0.0026273233816027,-0.9770641922950744,0.2129285037517547,0.0027792436298743,0.0160050620083804,-0.0666949705666489,0.1291809678077697,0.2860156893730163,-0.7858686447143555,116,74,15131,14976
14.4,1788435435709,4.816901206970215,4.957746505737305,-0.0020630145445466,0.0012636855244636,-0.3279657363891601,0.9446865916252136,0.169700087121687,0.0025317112314302,4.235548072023055e-05,0.0037768809124827,-0.0154298963025212,-0.0386991500854492,0.0004696371033787,0.0027193166315555,-0.9773147702217102,0.2117742300033569,-0.0051923293424912,0.0196830132299655,-0.0020579252391635,0.1244863271713256,0.110976755619049,0.0309152603149414,87,63,16528,15491
14.5,1788435435809,4.450704097747803,5.295774459838867,-0.0022792411036789,0.0014895284548401,-0.3290985822677612,0.944291651248932,0.1729075000402978,-0.0008209052242665,3.099837762363046e-05,-0.0168467070907354,-0.0107410391792654,-0.0333160273730754,0.0010073333978652,0.0029823575168848,-0.9775235652923584,0.2108027637004852,-0.0054439429173052,0.0222551272132888,-0.0378438790698097,-0.0396660566329956,0.1934952735900879,-1.639261245727539,84,105,16056,16254
14.6,1788435435909,5.267605781555176,5.070422649383545,-0.0014288644306361,0.0023124266881495,-0.3272235691547394,0.9449430108070374,0.1746975812830499,-0.0020762011144178,-8.2960283417482e-05,0.0209186095744371,0.0103439912199974,0.0947558507323265,0.002070908434689,0.0024251211434602,-0.976679027080536,0.2146808356046676,-0.0036510991236969,0.0515707716790402,0.0240462719665107,0.4557827115058899,0.1307891607284546,0.0652685165405273,114,57,14535,15529
14.7,1788435436009,5.352112770080566,4.8450703620910645,-0.0011507971212267,0.0026054736226797,-0.3261293172836303,0.9453209042549132,0.1766162408039831,-0.0004907316587545,4.505618914918345e-09,-2.4257380548675656e-09,1.5767296801527664e-08,-1.2419778840921936e-06,0.0022781454026699,0.0024569062516093,-0.9769561886787416,0.2134135067462921,0.0041454050457746,0.029533100598177,-0.0169473056374889,0.2033173441886901,-0.1954768300056457,-0.9629859924316406,78,69,15536,14873
14.8,1788435436109,5.492957592010498,4.873239517211914,0.0011724231299012,0.0041769840754568,-0.3282744586467743,0.944572389125824,0.1643237087556518,0.0030369804320284,-0.0001079884497572,0.0560700297355651,0.0443592295050621,-0.0201966166496276,0.0044560227543115,0.0010371450334787,-0.9772220253944396,0.2121705412864685,0.083403164742679,0.0970981389015967,0.0101052188940742,0.7460387349128723,0.0486711859703063,-2.4311318397521973,138,85,15925,14867
14.9,1788435436209,4.901408672332764,5.070422649383545,-0.0008579876739531,0.0041425693780183,-0.3334943056106567,0.942742645740509,0.1795251188809443,0.0037386422414429,0.0001338899411642,-0.0329060852527618,-0.0108675668016076,-0.1424359828233719,0.0031273663043975,0.0029751732945442,-0.9784800410270692,0.2062965035438537,0.0031061175428535,0.0217920085993111,-0.0248432467060876,-0.1995365023612976,0.4256058931350708,1.188511848449707,38,84,15000,15335
15.0,1788435436309,4.985915660858154,4.929577350616455,-0.0008579876739531,0.0041425693780183,-0.3334943056106567,0.942742645740509,0.1700050983108315,0.0009856445062398,-5.496761356951246e-09,0.0,-2.421980838107629e-09,0.0,0.0029542809352278,0.0030647618696093,-0.9785581827163696,0.205926775932312,-0.0008075152710297,-0.0019737649292876,-0.0282329968118235,-0.0693075060844421,-0.2862187027931213,0.2545557022094726,50,83,16104,14684
15.1,1788435436409,5.577464580535889,4.760563373565674,-0.0010378081351518,0.0044975816272199,-0.3359504044055938,0.9418683648109436,0.1596001771356,-0.0003604087973718,-2.1738560542526408e-05,-0.0081671206280589,0.0124149741604924,-0.0673983544111251,0.0033467225730419,0.0033022873103618,-0.9791704416275024,0.2029854953289032,-0.0054807654153341,0.0052045889860778,-0.0998693129616841,0.1615740656852722,0.1538651585578918,0.7928466796875,62,85,16440,15214
15.2,1788435436509,5.352112770080566,4.873239517211914,-0.0020045039709657,0.0024251760914921,-0.3383314609527588,0.9410218000411988,0.1685735218101967,0.0051025160777849,3.2528883915512125e-05,-0.0031834777910262,-0.0742951035499572,-0.0372342057526111,-0.0012429961934685,0.0024922685697674,-0.9796431064605712,0.2007280737161636,0.0014351916092997,-0.1272982766965991,-0.0592747047446469,0.5117570161819458,0.0955919027328491,-4.198800086975098,81,92,15572,15072
15.3,1788435436609,5.267605781555176,4.901408672332764,-0.0025811488740146,0.0004020492488052,-0.3412903249263763,0.9399543404579164,0.1820746280117881,0.0022476146755177,3.481802117048645e-05,-2.1620397092192437e-05,-0.0149809475988149,-0.0694312378764152,-0.0007860325276851,0.0024418365210294,-0.9802353978157043,0.1978181600570678,0.0045025887169629,0.0249089916046295,-0.0589798019024678,-0.0760764479637146,-0.0684404969215393,-1.554244041442871,34,105,15506,15184
15.4,1788435436709,5.098591327667236,4.957746505737305,-0.0027575120329856,-0.0004445094964466,-0.3426992893218994,0.9394409656524658,0.1774031234947604,0.0009005932964525,-3.2647832061207147e-05,0.0038688362110406,-0.0051366174593567,-0.0215716380625963,-0.0019329423084855,0.0019181184470653,-0.9804229736328124,0.1968843787908554,0.0146794786648145,-0.0436318164757562,-0.0185847285085033,0.0288382172584533,-0.1080650687217712,1.4641876220703125,80,69,16113,14854
15.5,1788435436809,5.267605781555176,4.873239517211914,-0.0025627641007304,-0.0008598940912634,-0.3431421220302582,0.9392796158790588,0.1731634625095696,-0.0017498064122498,-7.1669605120567195e-09,0.0135008320212364,-0.0134041616693139,-0.0196515470743179,-0.0019023278728127,0.0011388007551431,-0.980809450149536,0.1949560344219207,0.0224118300258514,0.0320178340527646,-0.0583255756471296,0.0489118099212646,-0.0481153726577758,0.0032882690429687,36,77,15654,14889
15.6,1788435436909,5.126760482788086,4.873239517211914,-0.0017652441747486,-0.0016344803152605,-0.3464680910110473,0.938058614730835,0.1713439025188703,-0.0003397915311133,2.920639843103004e-05,0.0108461305499076,-0.0133103635162115,-0.0363850146532058,-0.0029252925887703,-0.0006490759551525,-0.981234848499298,0.1927934139966964,0.0604391368392351,-0.0608667137997645,0.0008001605763842,-0.1247579455375671,0.0411205887794494,-1.831354141235352,59,78,15871,14908
15.7,1788435437009,4.8450703620910645,4.760563373565674,-0.0024974981788545,-0.0023843105882406,-0.3506658673286438,0.9364942908287048,0.1583616379386551,0.0048468866075,-7.347891279361609e-05,-0.0458828397095203,0.0144547121599316,-0.1511228531599044,-0.0031827045604586,0.0011081136763095,-0.9822494983673096,0.1875488609075546,-0.0141859630066625,0.0083148250336033,-0.0882171400267218,0.0736912488937377,0.0250220894813537,-0.5296201705932617,78,147,15628,16853
15.8,1788435437109,5.183098793029785,4.873239517211914,-0.0031093736179172,-0.0025391192175447,-0.3514800667762756,0.9361867904663086,0.1724342397163321,0.0041653221036481,-6.210946685000379e-05,-0.0135678015649318,-0.020055741071701,0.0068150181323289,-0.0038232104852795,0.001365341246128,-0.9821552634239196,0.1880285441875457,0.0081365478784976,-0.0395234583905884,0.0093557253689425,0.1801949143409729,-0.0698699951171875,0.2351913452148437,40,72,15819,15232
15.9,1788435437209,5.154929637908936,4.901408672332764,-0.0031673980411142,-0.0019925117958337,-0.3513948023319244,0.9362198710441588,0.1700296271882554,-0.0008453489997178,-3.24478867029957e-09,0.0,0.0,0.0,-0.0038721514865756,0.0014708405360579,-0.982372522354126,0.1868881583213806,0.0090091939208713,-0.0094363057123563,-0.0412172859167935,-0.0235999226570129,-0.0193278193473815,0.3242139816284179,52,78,15231,15089
16.0,1788435437309,5.577464580535889,4.788732528686523,-0.0018609843682497,-0.0013294031377881,-0.3523248136043548,0.9358749985694884,0.1606133663156467,0.0074996735046827,-4.159237852631628e-05,0.0403337068855762,0.0587240345776081,-0.00078761234181,-0.0009718565270304,0.0004326356574892,-0.9823898673057556,0.1868400126695633,0.0556244683315769,0.1140499124267808,-0.00562754727697,0.5601498484611511,-0.087614893913269,0.04296875,136,89,14606,16345
16.1,1788435437409,5.154929637908936,4.985915660858154,-0.0040503689087927,-0.0028076153248548,-0.3568293452262878,0.9341565370559692,0.1802304941427808,0.0050674760977335,0.0002756943691582,-0.0725725069642067,-0.0879599526524543,-0.1389251947402954,-0.0040098223835229,0.0019425526261329,-0.9832767844200134,0.1820628196001052,0.0388952955616151,0.0290738016564784,-0.0472373715681779,-0.3022794723510742,-0.5136429667472839,-0.7980241775512695,80,93,14256,15838
16.2,1788435437509,4.816901206970215,5.098591327667236,-0.0031235045753419,-0.002901243045926,-0.3541974425315857,0.935160994529724,0.1576154158872473,0.0026209064163819,-5.559468045908328e-05,0.0131801897659897,0.0092813298106193,0.0650213882327079,-0.004201722331345,0.0010867323726415,-0.982675313949585,0.1852847039699554,0.0055449402133048,-0.0153291851283013,0.0328107023673315,0.0265042185783386,-0.0514684319496154,1.613119125366211,104,66,16428,15374
16.3,1788435437609,5.098591327667236,4.8450703620910645,-0.0030878817196935,-0.0017196239205077,-0.3566426038742065,0.9342342019081116,0.1682140374478854,-0.0010087278729529,-0.0001771764036169,-0.018168544396758,0.044094730168581,-0.0854969322681427,-0.0028241667896509,0.001724706031382,-0.9834355115890504,0.1812281906604766,0.0114768742109491,0.0069254245901346,-0.1307841024289733,-0.0148112177848815,-0.2340225577354431,0.5363559722900391,85,107,16514,15255
16.4,1788435437709,5.154929637908936,4.760563373565674,-0.0038881711661815,-0.0010401913896203,-0.3602475225925445,0.9328480362892152,0.1722353833786084,0.0023775439527632,-6.820989663485149e-05,-0.0289920419454574,0.0072527327574789,-0.0728085786104202,-0.0029173772782087,0.0028918338939547,-0.9839681386947632,0.178297221660614,-0.0109663784920293,-0.0123253583665624,-0.0523614016093734,0.1908702850341797,-0.2762987017631531,-0.2666254043579101,106,87,15906,15860
16.5,1788435437809,5.183098793029785,5.183098793029785,-0.0041807917878031,-0.0008848824072629,-0.3611450493335724,0.9324998259544371,0.1732234536261903,-0.0021139200428342,-6.864485398274093e-05,-0.0134544102475047,0.0017301574116572,-0.0390684902667999,-0.0032072206959128,0.0033828066661953,-0.9845014810562134,0.1753144860267639,-0.0095643909567161,-0.0140894535810447,-0.1057810886918039,-0.1098424196243286,-0.1727270483970642,1.1044178009033203,39,104,13503,16301
16.6,1788435437909,5.267605781555176,5.070422649383545,-0.0046487366780638,-0.000872770207934,-0.3650491237640381,0.9309762120246888,0.1664192789648001,0.0031837780379017,-6.486031433559695e-05,-0.0046546966768801,0.0119209727272391,-0.0219091698527336,-0.003232660703361,0.0035807844251394,-0.9847478866577148,0.1739205718040466,0.002952828424313,0.034199282299641,0.0286206396157896,-0.3825953006744385,-0.1045986413955688,0.5423479080200195,104,87,14426,15757
16.7,1788435438009,5.211267471313477,5.014084339141846,-0.0042615234851837,-0.0006677861092612,-0.3636098206043243,0.9315413236618042,0.1619588453984444,0.0017754333880275,-0.0001273988121344,0.0077676679939031,0.0284840930253267,0.0348805971443653,-0.0027608880773186,0.0032302569597959,-0.9844746589660645,0.1754756420850753,0.0009610100077665,-0.0132096364264819,0.0015960199710311,0.1875855922698974,-0.0986925363540649,0.6035251617431641,98,84,15393,15514
16.8,1788435438109,4.704225540161133,5.014084339141846,-0.0039258589968085,3.793160431087017e-05,-0.3630736470222473,0.9317522048950196,0.1772052878144417,0.0010552688739892,-6.238424112569659e-05,-0.0015954591799527,0.0114615214988589,0.0096069779247045,-0.0013871397823095,0.0034928359091281,-0.9844220876693726,0.1757810562849044,-0.0047231100486532,0.0346042683806194,-0.0071978349915179,0.0681866407394409,0.1028382182121276,-0.8185930252075195,57,110,16611,15597
16.9,1788435438209,5.070422649383545,5.098591327667236,-0.0034270687028765,0.0012812638888135,-0.3633822500705719,0.9316329956054688,0.1778883500103796,0.0005047837989654,-8.894514996872813e-05,-0.0007700757705606,0.034848902374506,-0.0130137111991643,0.0005834689363837,0.0035885032266378,-0.984531044960022,0.1751727908849716,0.0188841093400138,0.0883536999384947,-0.0144782546786157,0.2481411099433899,-0.0765093564987182,-0.0341167449951171,52,90,15995,14357
17.0,1788435438309,5.267605781555176,5.070422649383545,-0.0034323942381888,0.000872800592333,-0.3638999164104461,0.9314312934875488,0.1550977308598799,-0.0015731548661724,0.0002287408696099,-0.0037511272821575,-0.0437953062355518,-0.0216498263180255,-0.0011161854490637,0.0035113710910081,-0.9846828579902648,0.1743165701627731,-0.0084348095745765,0.0249598357319131,-0.0541243103524415,-0.2774638533592224,0.1512975692749023,1.0834732055664062,78,103,13761,16891
17.1,1788435438409,5.154929637908936,4.929577350616455,-0.0035424912348389,0.0014685285277664,-0.3634583353996277,0.9316025376319884,0.1670953137639832,0.0029571622977914,-1.4507346099929844e-05,-0.0130746634677052,0.0210235845297575,0.0194833427667617,-0.0001617521047592,0.0038169464096426,-0.9844499826431274,0.1756239235401153,-0.004515270519411,0.0685680231051858,0.0352463381746736,0.0390748381614685,-0.4158101081848144,-0.8917684555053711,114,65,16136,14782
17.2,1788435438509,4.873239517211914,4.760563373565674,-0.0033382750116288,0.0019516819156706,-0.3631767332553863,0.93171226978302,0.173809032083428,0.0018000971651513,-4.131406956326766e-05,-0.0029557882808148,0.0146348159760236,-0.0085081309080123,0.000268479809165,0.0038756756111979,-0.9845063090324402,0.1753064841032028,0.0110718191711316,-0.0030915127853269,-0.0062789261899312,-0.13405442237854,-0.080135703086853,-0.2425718307495117,128,107,17200,15392
17.3,1788435438609,5.549295902252197,5.098591327667236,-0.0023266072385013,0.0022840923629701,-0.3639937043190002,0.9313956499099731,0.1812367917720119,-0.00510712184797,3.8732139467375895e-05,-0.0299610551446676,-0.0382900349795818,-0.0543003194034099,-0.0006225565448403,0.0037398897111415,-0.9850476384162904,0.1722403615713119,-0.023122063424624,-0.054109854778364,-0.1307746363674761,-0.6507408022880554,-0.4508877396583557,-1.8907041549682615,73,88,13999,15386
17.4,1788435438709,5.408450603485107,5.042253494262695,-0.0030732920859009,0.0003269090084359,-0.3655887246131897,0.9307714104652404,0.1676030383145406,-0.0030761146876036,5.983700997799793e-05,0.0247514266520738,-0.0364732965826988,0.0270361136645078,-0.0024726390838623,0.0016922084614634,-0.9848464727401732,0.1734025776386261,0.0551684494056509,-0.0868216315495725,0.0133751542151708,-0.1943700909614563,0.1416084170341491,-0.7503395080566406,98,51,14746,13873
17.5,1788435438809,5.239436626434326,4.760563373565674,-0.0032363417558372,-0.00053154991474,-0.3677313029766083,0.929926335811615,0.1547353208976686,0.0031080307368052,-8.462831834918201e-05,-0.0178099703043699,0.0051205935887992,-0.1043775454163551,-0.0016360683366656,0.0025701494887471,-0.9855407476425172,0.1694116741418838,0.0004112856535381,0.040691120592667,-0.0986926264749375,0.1370058059692382,0.271939754486084,-0.5829038619995117,154,119,16143,15482
17.6,1788435438909,4.816901206970215,5.014084339141846,-0.0031665186397731,-0.0003680486697703,-0.3705169558525085,0.928820252418518,0.1757193570081012,0.0002734401409646,-9.042843654777534e-05,-0.0012176673626527,-0.002822667825967,-0.029104558750987,-0.002153598703444,0.0025082631036639,-0.9858472943305968,0.167613610625267,-0.0057365438581919,-0.0647969883650494,-0.0128682736682489,0.14854496717453,0.1490175127983093,-1.5045747756958008,69,130,15913,15723
17.7,1788435439009,4.8450703620910645,5.070422649383545,-0.00401391973719,0.0002552100922912,-0.3712077140808105,0.9285411238670348,0.1673773545029352,0.002926472806524,1.188594499944494e-06,-0.0263125672936439,-0.0150916967540979,-0.0132774068042635,-0.0028644688427448,0.0039668912068009,-0.9859822988510132,0.1667782068252563,-0.038133103682834,-0.0820935807758022,-0.0155593157304459,-0.1807828545570373,0.2518262863159179,0.4265670776367187,43,80,14992,16238
17.8,1788435439109,5.211267471313477,5.126760482788086,-0.0047909119166433,-0.0001577441580593,-0.3715358376502991,0.9284062385559082,0.1634962688526857,-0.0002664871232776,3.802112089294567e-09,-2.3153159389721626e-08,4.842490852752235e-09,-1.239677658304572e-06,-0.0034937728196382,0.0047648474574089,-0.9858320951461792,0.1676310151815414,-0.0349855009745036,-0.0360667057869208,0.0503620488527088,-0.0733193159103393,0.4091073870658874,-0.1475763320922851,54,71,14342,15247
17.9,1788435439209,5.352112770080566,5.042253494262695,-0.0045053511857986,-5.414534825831652e-05,-0.3678428828716278,0.9298770427703856,0.1584760555331837,0.0007228981977757,-5.614465439795586e-05,0.0371505729854106,0.0261460151523351,0.1079927384853363,-0.0020205043256282,0.0035039447247982,-0.9852325320243835,0.171173870563507,0.0433648084919535,0.0339774812934733,0.0600804078847761,0.3462117910385132,0.2580804824829101,1.0642766952514648,147,82,15244,15730
18.0,1788435439309,5.549295902252197,4.929577350616455,-0.003632367355749,-0.0002382325474172,-0.3678113222122192,0.9298933148384094,0.1771967917150409,0.0009314283753951,4.1769121490061446e-05,0.0208385735750198,-0.0004874941078014,-0.0066664721816778,-0.0010503847151994,0.0028192931786179,-0.9854003190994264,0.1702269613742828,0.014633907994367,0.0747102061705354,-0.0322259853796023,-0.1519930362701416,0.0326175093650817,0.2083940505981445,124,80,15091,14736
18.1,1788435439409,5.549295902252197,4.929577350616455,-0.0027329274453222,0.0006718154763802,-0.3695079088211059,0.929223358631134,0.1666191364021061,0.0014213927676402,-0.0001305692593192,0.0091739892959594,0.0351756885647773,-0.0457309670746326,-0.0014643473550677,0.0027736220508813,-0.9858035445213318,0.1678740829229354,-0.0122172845700582,-0.0495790433053619,-0.0591445343795291,0.1674830317497253,-0.1000568270683288,-0.0297746658325195,55,67,14999,14640
18.2,1788435439509,5.323943614959717,4.8450703620910645,-0.003178414190188,-0.000133718829602,-0.371814101934433,0.9283017516136168,0.1706795941498125,-0.0016437353193758,1.99181513180906e-05,0.0031679824460297,-0.0153845604509115,-0.041384782642126,-0.0013173446059226,0.0028809113427996,-0.9861832857131958,0.1656276434659958,-0.0135870834605931,0.0362013314501353,-0.0528633766640535,-0.0648571252822876,0.1818353533744812,-0.053476333618164,66,84,15802,14799
18.3,1788435439609,4.676056385040283,5.098591327667236,-0.0038280766457319,-0.0001686323666945,-0.375558853149414,0.9267906546592712,0.161524620091155,-0.0005684892500828,-2.933035429340015e-07,-0.0091398321092128,-0.0135037628933787,-0.0866117402911186,-0.0024665473029017,0.0031590284779667,-0.9868645668029784,0.161500334739685,-0.0129535046112158,-0.0445514471972808,-0.0923507151219592,0.0306217670440673,0.0816598534584045,-0.12890625,39,118,13852,16359
18.4,1788435439709,5.464788913726807,4.929577350616455,-0.0039706230163574,-0.0008074206998571,-0.3763883709907532,0.9264530539512634,0.1736923157404441,0.002504715470768,4.683594730561134e-05,0.0021879277192056,-0.0153909875079989,0.0083952918648719,-0.0026510693132877,0.0029612118378281,-0.9869398474693298,0.1610406935214996,-0.0029716535739374,0.0383799705575811,-0.0532725867336799,-0.2147315740585327,-0.0078682899475097,1.3058738708496094,136,66,15155,14779
18.5,1788435439809,5.323943614959717,5.126760482788086,-0.0015415125526487,-2.5026733055710796e-05,-0.3777293264865875,0.9259147644042968,0.1686267759706784,-0.000580309452554,-0.000339441103899,0.0510033443570137,0.0545711927115917,-0.0224568583071231,-0.0018153581768274,0.0014751404523849,-0.9872166514396667,0.1593672484159469,-0.029159261570482,-0.1172963002415238,-0.0757091175426779,0.9218212962150574,0.2094966769218444,-1.184526443481445,151,101,15391,15402
18.6,1788435439909,5.070422649383545,5.7183098793029785,-0.0026839596685022,0.0011929784668609,-0.3803061246871948,0.9248560070991516,0.1762107628206655,0.0028071708367065,0.0001428941307552,-0.0631770342588424,0.0291101410984992,-0.1157424449920654,6.152037531137466e-05,0.0034322822466492,-0.9872580170631408,0.1590904593467712,0.0237304651594687,-0.1367052986061578,0.1646440487636262,-0.5230349898338318,0.4609307050704956,-0.1388778686523437,15,66,10823,17014
18.7,1788435440009,4.2253522872924805,5.577464580535889,-0.0031476495787501,0.0014199566794559,-0.3752332031726837,0.9269239902496338,0.1579495135493547,0.0056396800721255,0.0003084051047382,0.0189312677830457,-0.0759477764368057,0.2114457935094833,-0.0013114800676703,0.0034401081502437,-0.9852529168128968,0.1710648983716964,-0.0002486193467927,-0.033458684880545,0.229198723599627,0.2232009768486023,0.0696219205856323,0.4152803421020508,122,82,15127,16943
18.8,1788435440109,4.788732528686523,5.549295902252197,-0.0038189303595572,0.000325538800098,-0.3655495941638946,0.930783987045288,0.1674554609012029,0.0025607258409748,0.0001102914857303,-0.0046097231097519,-0.0348232574760913,0.1833420097827911,-0.0023894514888525,0.003440361469984,-0.984264314174652,0.1766529232263565,0.0005709814099408,-0.0183026345795689,0.0746260142613322,-0.115178108215332,-0.1247672438621521,0.6644115447998047,56,94,13237,16921
18.9,1788435440209,4.535211086273193,5.549295902252197,-0.0043796431273221,-0.000607683090493,-0.3604654371738434,0.932762086391449,0.1752948667634749,-0.0012466612729856,7.816572429321535e-05,-0.0021546387579292,-0.02011932246387,0.0909024327993393,-0.0024865539744496,0.0038428688421845,-0.9833123087882996,0.1818680018186569,-0.0060063955369897,0.0124615290820689,0.1506536471679672,0.0139869451522827,0.1430356502532959,1.0243988037109375,105,86,13894,17157
19.0,1788435440309,5.070422649383545,5.183098793029785,-0.0042950450442731,0.0006219414644874,-0.3533960878849029,0.9354636669158936,0.1724234692849462,0.0022391979639129,-0.0001542044030848,5.583469828707166e-05,0.0268922764807939,0.1806600987911224,-0.0003585070371627,0.0040481742471456,-0.9819430112838744,0.1891335397958755,0.012969183424143,0.0781396129797662,0.1406157111192935,0.231450617313385,-0.3454158306121826,-1.8739676475524905,121,38,14958,15027
19.1,1788435440409,5.126760482788086,4.929577350616455,-0.0024426586460322,0.0005609411746263,-0.3488138020038605,0.9371886253356934,0.1809224303930302,6.652057413475957e-05,8.95846454997155e-05,0.0574806071817874,-0.0226878263056278,0.0629011839628219,0.0021035447716712,0.0040493002161383,-0.9820666313171388,0.1884792298078537,-0.0229554155271394,0.0557924553440205,-0.0656829022848628,-0.2268457412719726,-0.4267148375511169,1.1054954528808594,53,122,14071,16618
19.2,1788435440509,5.492957592010498,4.985915660858154,-0.002628484275192,0.0033851235639303,-0.3505008816719055,0.9365525841712952,0.1624647277683149,-0.0031161236504364,-0.0001106315297455,-0.0129377925768494,0.0049963607452809,-0.0082792649045586,0.0012825857847929,0.0041707968339324,-0.9819918274879456,0.1888730078935623,-0.0059861995466994,0.01273807971039,-0.0682806010394075,-0.1374690532684326,-0.3201172351837158,-0.5682086944580078,141,81,15456,14657
19.3,1788435440609,5.88732385635376,4.619718074798584,-0.0026026803534477,0.0028042942285537,-0.3526784777641296,0.9357368350028992,0.1808728022055726,0.0036842466491002,4.826408010315767e-05,0.0114627424627542,-0.0108618875965476,-0.0795950591564178,0.0013309903442859,0.0036564897745847,-0.9825435876846312,0.1859920918941497,0.012760363761808,0.0399213572598776,-0.1088959627214535,0.0516871213912963,0.1076388359069824,-0.3605632781982422,91,47,16181,13599
19.4,1788435440709,5.126760482788086,4.760563373565674,-0.002225489122793,0.0029636672697961,-0.3556325137615204,0.934618592262268,0.1815505946764351,-0.0010198055207898,-7.679023066982997e-05,0.0125777423381805,0.012197439558804,-0.1314364969730377,0.0010056924074888,0.0032613771036267,-0.9836633801460266,0.1799855977296829,-0.0035529145021843,-0.038440858812465,-0.0959293376776906,-0.1870707273483276,-0.3216800093650818,2.154550552368164,97,55,16028,15213
19.5,1788435440809,5.042253494262695,4.732394218444824,-0.0026828795671463,0.00256920279935,-0.35988450050354,0.9329894781112672,0.1762773766512484,0.0020599711093094,-6.109069875317168e-05,-0.0125970244407653,-0.0058799935504794,-0.0724772810935974,-0.0009196074679493,0.0050142323598265,-0.9841459393501282,0.1772873252630233,-0.1049985651336277,-0.0987161175437109,-0.108800662791495,0.0599727630615234,0.2691664099693298,2.603546142578125,30,90,14825,14913
19.6,1788435440909,5.323943614959717,4.957746505737305,-0.004411282017827,0.0014392317971214,-0.3631888628005981,0.9317039847373962,0.153042816911102,-0.0053821877177805,-8.155227842788789e-05,0.0171590447425842,0.0072755245491862,-0.0228111073374748,-0.0005729775875806,0.0038076872006058,-0.9846027493476868,0.1747647374868393,0.0146905173901754,0.0029424431201478,-0.0467093274943996,-0.1077972054481506,-0.2860291004180908,0.8273820877075195,50,72,15630,14886
19.7,1788435441009,5.014084339141846,4.478873252868652,-0.0033076247200369,0.0013468500692397,-0.3651484251022339,0.9309424757957458,0.1706014066971363,-0.001552012313116,-9.98841730848001e-06,0.016943434253335,0.0056274328380823,-0.0585659891366958,-0.0002188812941312,0.0033221486955881,-0.985133409500122,0.1717590391635894,0.0138857481832644,0.0315762143336888,-0.0611103326006768,-0.2464662790298462,-0.1166121959686279,0.6822376251220703,156,100,19068,14207
19.8,1788435441109,6.056337833404541,4.676056385040283,-0.0006725440034642,0.0023168430197983,-0.3679640889167785,0.9298368096351624,0.1637108850501752,0.0027339904128125,-0.0001681303796961,0.0737396255135536,0.0672737061977386,-0.0591974891722202,-0.0006471285596489,0.0033295797184109,-0.9864512085914612,0.1640198081731796,-0.0427832509013288,-0.1072586066446313,-0.2685279502904231,-0.1869862079620361,-0.5156115293502808,0.6992101669311523,77,47,15356,13328
19.9,1788435441209,5.492957592010498,4.450704097747803,-0.0029555321671068,0.0015217647887766,-0.3768112063407898,0.9262840747833252,0.1729692960401831,-0.0013324923687244,1.9707110433640707e-05,-0.0105061782523989,-0.0113444682210683,-0.2159078270196914,-0.0009171664714813,0.003297109156847,-0.9876224994659424,0.1568127870559692,0.0002710392858345,-0.0120027973063213,-0.1129098007965726,-0.2683115601539612,0.1197633147239685,0.946868896484375,60,61,16516,13953
20.0,1788435441309,5.380281925201416,4.478873252868652,-0.0033930561039596,0.0005459667299874,-0.3821683526039123,0.924086332321167,0.1543499821782761,-0.0017380045917743,4.882263544259695e-05,0.0012547775404527,-0.0253124255686998,-0.1159786581993103,-0.0016351407393813,0.0026493854820728,-0.9889882802963256,0.1479611098766327,0.0107209186343417,0.0057511613336358,-0.1933447760043289,0.0437912344932556,-0.0018713474273681,1.5483436584472656,56,106,17842,14225
20.1,1788435441409,5.492957592010498,4.816901206970215,-0.0034871217794716,-0.0005106321768835,-0.3909024894237518,0.9204253554344176,0.1701505659483289,-0.0038914016790404,-9.900486885115557e-06,0.0001907860714709,-0.0167837925255298,-0.1649838984012603,-0.002405016683042,0.0029407162219285,-0.9896639585494996,0.1433558017015457,-0.0170499502382775,0.0025612319236809,-0.1504521531777211,-0.0827444195747375,-0.0292471647262573,-1.6110200881958008,91,87,14490,15310
20.2,1788435441509,5.492957592010498,4.929577350616455,-0.0036957275588065,-0.0004565553972497,-0.3973073959350586,0.9176781177520752,0.1751936320450095,-0.0016773897737597,-1.8036318874112344e-06,0.0013556818012148,0.0036257561296224,-0.1281722784042358,-0.0015025418251752,0.0034335786476731,-0.990570068359375,0.136956050992012,-0.0111028387673995,0.0323068253856084,-0.0523545673069394,-0.1309411525726318,-0.0884194374084472,-1.056222915649414,97,94,14609,15118
20.3,1788435441609,5.492957592010498,4.929577350616455,-0.0034827031195163,0.0009517701109871,-0.3995247781276703,0.9167153239250184,0.1743036054203358,-0.0007921192363335,-8.20981963368694e-05,-0.003204726614058,0.0360645353794097,-0.0292589608579874,-0.0022505763918161,0.0035699941217899,-0.9906864166259766,0.1360979527235031,-0.016145708223418,-0.2152041408249116,-0.0211928551915431,0.2781878113746643,-0.1830938458442688,-5.093890190124512,103,62,14636,14969
20.4,1788435441709,5.88732385635376,4.647887229919434,-0.0045707137323915,-0.0016855031717568,-0.4003132581710815,0.9163653254508972,0.1637334283357483,-0.0012756206706249,0.0001293648816339,0.01083988789469,-0.0824921354651451,-0.0115434415638446,-0.0037737991660833,0.0027861148118972,-0.9911292195320128,0.1328193992376327,0.0058443917893286,-0.0233454238346299,-0.1138987870670252,-0.1183842420578002,-0.2994770407676697,0.8886032104492188,121,67,16300,13746
20.5,1788435441809,5.380281925201416,4.619718074798584,-0.004422737751156,-0.0018025109311565,-0.4053359627723694,0.9141553044319152,0.1647887257900823,-0.007224663363289,3.587499196419283e-05,0.0016814884729683,-0.0117595540359616,-0.1248295977711677,-0.0039419839158654,0.002931859344244,-0.9919779896736144,0.1263154149055481,-0.0119560397184306,-0.0177860017510788,-0.1587467589435016,-0.1704509854316711,-0.1351988911628723,1.6685457229614258,43,80,17586,13555
20.6,1788435441909,5.690140724182129,4.619718074798584,-0.0044708531349897,-0.0016710078343749,-0.4124184548854828,0.9109820127487184,0.177221166276119,0.0044775543258714,-2.275784165798748e-05,-0.0011883646948263,0.0037536695599555,-0.1713369190692901,-0.0044771321117877,0.0030487496405839,-0.992728054523468,0.1202568486332893,-0.0213674005190874,-0.0497523458176906,-0.1792597927749824,-0.1138608455657959,-0.2379683256149292,-0.4869146347045898,36,132,13041,17055
20.7,1788435442009,4.647887229919434,5.295774459838867,-0.0047863028012216,-0.0021963086910545,-0.4182975888252258,0.9082947373390198,0.1670148047926345,-0.0033628748155319,9.671581664791952e-05,0.0024802417028695,-0.0219439454376697,-0.0969649106264114,-0.0038544433191418,0.0025951135903596,-0.9930986166000366,0.1171906515955925,0.0216985342999879,0.0367317648677513,0.074581460131987,-0.1840113997459411,-0.1925296783447265,0.1147413253784179,49,110,15325,16151
20.8,1788435442109,4.676056385040283,5.605633735656738,-0.0037991004064679,-0.0016773371025919,-0.4154955744743347,0.9095856547355652,0.1744457214020319,0.0014412086847445,-7.97115271565e-05,0.0155137432739138,0.0246891435235738,0.0974318087100982,-0.0035468647256493,0.0008830111473798,-0.9920436143875122,0.1258414089679718,0.0660851525052853,-0.0732404434825943,0.188027645189196,0.1019983887672424,0.0412359237670898,0.2734060287475586,115,88,13423,17268
20.9,1788435442209,4.591549396514893,5.436619758605957,-0.0026275161653757,-0.0026761614717543,-0.4071089327335357,0.9133719205856324,0.1648296133666391,0.0043238088125817,0.0001323353199003,0.0289475135505199,-0.0315158031880855,0.2016311287879943,-0.0027932906523346,0.0010003335773944,-0.9910743832588196,0.1332774311304092,0.0404733510294883,0.0122940431533683,0.137572001704573,-0.3944672346115112,-0.3795741200447082,-0.6151876449584961,124,88,13890,16467
21.0,1788435442309,4.704225540161133,5.408450603485107,-0.0006114402785897,-0.0011410688748583,-0.3989030420780182,0.9169921875,0.1535272104131938,0.0020822211266302,-0.0001941224016703,0.0649838298559188,0.0643362924456596,0.2283307611942291,-0.0016955388709902,0.000112029723823,-0.9901447892189026,0.1400375366210937,-0.0296588859930471,-0.0358393140809595,0.1221238784108679,0.1959774494171142,0.152057409286499,-1.3734712600708008,124,33,16492,15126
21.1,1788435442409,5.352112770080566,5.042253494262695,-0.0034038079902529,-0.0021390505135059,-0.3964312672615051,0.9180556535720824,0.1863398377927825,0.006680144634969,0.0002185957106115,-0.0493701957166194,-0.0479667074978351,-0.0014917445369064,-0.0047064097598195,0.0029799845069646,-0.9898224472999572,0.1421993374824524,-0.0322530019038635,0.0068903040245273,0.0570104749846927,-0.2774582505226135,0.111490249633789,1.6495094299316406,60,61,14140,15078
21.2,1788435442509,4.676056385040283,5.070422649383545,-0.0046089515089988,-0.0023567425087094,-0.3940488696098327,0.9190748929977416,0.1660967956985641,0.0044091488572211,1.7615362900062705e-05,-0.0038220684509724,0.0042329058051109,0.0489190854132175,-0.0030904877930879,0.0023622708395123,-0.9895543456077576,0.1441082656383514,-0.0045313488880569,0.0018475187534131,0.0012665891605926,0.2598991394042969,0.0324455499649047,0.0704116821289062,105,132,16161,16719
21.3,1788435442609,5.239436626434326,5.070422649383545,-0.0033265764359384,-0.0005661958130076,-0.3922711312770843,0.9198434352874756,0.1766917205235435,0.0010677746326249,-0.0001388122547282,-0.0017021467210724,0.0439236611127853,0.0290865916758775,-0.002231603488326,0.0025928430259227,-0.9895082712173462,0.1444362252950668,-0.005159739085392,0.0441139856166258,0.0166918737964984,-0.1192871928215026,-0.0054160356521606,2.4355945587158203,126,63,15012,15393
21.4,1788435442709,5.126760482788086,4.901408672332764,-0.0033474925439804,-0.0004516164772212,-0.3919594883918762,0.91997629404068,0.1755934348230326,0.0020823271815661,-5.17944127924077e-10,-7.695169834676108e-09,1.894195733598281e-08,0.0,-0.001741150394082,0.0026300624012947,-0.989535391330719,0.1442558169364929,0.000561626152862,0.0056899828153262,-0.0260772678914082,-0.3624275326728821,0.120094895362854,0.8426666259765625,103,89,16521,14741
21.5,1788435442809,5.323943614959717,4.901408672332764,-0.0032578585669398,-9.83566278591752e-05,-0.3934621810913086,0.9193350076675416,0.1645299441053703,0.0020914112149154,-2.1120382932533333e-05,-0.0034814327955245,0.0058379746042191,-0.0511327236890792,-0.0018013278022408,0.0028348779305815,-0.9897781014442444,0.1425768435001373,-0.0095482761278708,-0.010699840262432,-0.0587944247692714,0.1512168049812317,-0.161502718925476,-1.2323637008666992,52,93,16310,14910
21.6,1788435442909,5.014084339141846,4.816901206970215,-0.0037001315504312,-0.0003806353779509,-0.3964302241802215,0.918057382106781,0.1714237460572626,0.0005475388251562,6.3663348623392e-05,-0.0062388209626078,-0.0160632561892271,-0.0625380128622055,-0.0016741640865802,0.0029238862916827,-0.990337371826172,0.138638287782669,0.0033581398195809,0.0293949254099257,-0.0706474321305537,0.0748091340065002,-0.2582582235336303,1.9697809219360352,135,113,16931,15392
21.7,1788435443009,5.915493011474609,4.591549396514893,-0.0032986174337565,0.0004996717907488,-0.3988571465015411,0.9170070290565492,0.1775946433397034,-0.0002957800030291,-6.762286275137766e-05,-0.0050532002933323,0.0089221065863966,-0.041332546621561,-0.0016741640865802,0.0029238862916827,-0.990337371826172,0.138638287782669,0.0033581398195809,0.0293949254099257,-0.0706474321305537,0.0748091340065002,-0.2582582235336303,1.9697809219360352,105,75,14803,14815
21.8,1788435443109,4.985915660858154,4.957746505737305,-0.0033510704524815,0.0005751011776737,-0.4038083553314209,0.9148373007774352,0.1811570473789258,0.0025823167716794,-5.876552865285794e-05,-0.0014681605389341,-0.0224498845636844,-0.1253629624843597,-0.0002558911219239,0.0031628254801034,-0.9916507005691528,0.1289145946502685,0.0109313583187318,0.0971047914674555,-0.120543139608075,-0.0199047327041625,-0.0929611325263977,-1.230485916137695,67,81,16540,14579
21.9,1788435443209,5.464788913726807,5.014084339141846,-0.0032234000973403,0.0015993567649275,-0.4089618027210235,0.9125443696975708,0.1708624794250098,0.0009580592600306,7.535649205834625e-06,-0.0121828597038984,0.0132228685542941,-0.1063739582896232,-0.000609228387475,0.0035392446443438,-0.9921998977661132,0.1246055662631988,0.0031044925970067,-0.0193738286506137,-0.0443307110671963,0.0974571108818054,0.0543271899223327,-0.1290302276611328,84,76,14853,14946
22.0,1788435443309,5.549295902252197,4.929577350616455,-0.0033124973997473,0.0013301024446263,-0.4105959832668304,0.911810338497162,0.1756442961338424,0.0033211065693515,-4.1471773208566526e-05,-0.0016645696014165,0.0029813139699399,-0.039464671164751,-6.644520908594131e-05,0.0035601798444986,-0.992277979850769,0.1239827573299408,0.0030444398320415,0.035642306505109,-0.0410392707694755,0.0364433526992797,-0.0827307701110839,-0.9771595001220704,87,109,14575,14956
22.1,1788435443409,5.211267471313477,4.985915660858154,-0.0037775826640427,-6.933929398655891e-05,-0.4136277735233307,0.9104382395744324,0.1675955702777771,9.282336611564474e-06,0.0001699164974476,0.0029361504130065,-0.080630250275135,-0.053778413683176,-0.0010581351816654,0.0032278802245855,-0.9926716089248656,0.1207957789301872,0.0035362781399143,0.0886485232958408,-0.0306352240113964,0.1517994403839111,-0.107998788356781,1.700784683227539,57,89,15964,14853
22.2,1788435443509,5.690140724182129,4.563380241394043,-0.0020280678290873,0.0009263532119803,-0.4142228364944458,0.9101727604866028,0.1740861739430566,0.0045159411379251,0.0001038600037658,0.0543550662696361,0.0299441721290349,0.0095793474465608,0.0001116069033741,0.0008080834522843,-0.9926883578300476,0.1207032799720764,0.0376082075101662,-0.0901710763783563,-0.0350678112231524,0.1014346480369567,0.325046956539154,-1.0264921188354492,43,49,17080,13492
22.3,1788435443609,5.6619720458984375,4.535211086273193,-0.0024843935389071,0.0001394379651173,-0.4183318316936493,0.9082908630371094,0.1962243484810645,0.0068240169009195,0.0001699758098569,-0.0467599779367446,-0.0513832308351993,-0.1784195899963379,-0.0009668031707406,0.0023783976212143,-0.9940828680992126,0.1085943952202797,0.0119327695705862,-0.0519576579906299,-0.1862002964965479,0.1642705798149109,0.0569911003112793,-0.6140127182006836,104,94,16190,13748
22.4,1788435443709,5.183098793029785,4.985915660858154,-0.0028288601897656,8.880964014679193e-05,-0.4307397305965423,0.9024718403816224,0.1652195119913178,0.0018097537119103,-1.551999103731794e-05,-0.0030416268855333,-0.0134674618020653,-0.1361669898033142,-0.0014844331890344,0.0024444153532385,-0.9947361946105956,0.1024292781949043,0.004092940904469,-0.0463442665891405,-0.1033195004807075,0.0425999760627746,0.0085072517395019,-0.4435157775878906,119,80,15027,15451
22.5,1788435443809,5.521126747131348,4.8450703620910645,-0.0030652547720819,-0.0004765081685036,-0.4321698844432831,0.9017868638038636,0.1633876626454991,0.0005578174729735,5.037472550965247e-05,0.0011749687837436,-0.0251902975142002,-0.0657760426402092,-0.0021714456379413,0.0023450376465916,-0.9949074983596802,0.1007418781518936,0.0084500767077068,-0.0243450063762193,-0.0422144228188064,0.1278392672538757,0.1077466607093811,-0.867070198059082,99,106,14492,15393
22.6,1788435443909,5.436619758605957,4.929577350616455,-0.0031472980044782,-0.0008921157568693,-0.4333501756191253,0.9012197256088256,0.176278336118681,0.0027234848114357,7.328024144301254e-06,0.0121712470427155,-0.0123280836269259,-0.0201080664992332,-0.0027015898376703,0.0011987090110778,-0.9949882626533508,0.0999484956264495,0.0458691869170211,-0.0133854542202279,0.0125291340147423,-0.1550239324569702,0.0779355764389038,1.7568893432617188,88,77,14975,14860
22.7,1788435444009,4.056337833404541,5.915493011474609,-0.0025537388864904,-0.0011908053420484,-0.434573233127594,0.9006321430206299,0.1657030409730267,0.0035021561309597,-3.670599690348839e-05,0.0063530164770781,0.0040872353129088,-0.0576974116265773,-0.0018890583887696,0.0018381970003247,-0.9952020049095154,0.0978068858385086,-0.0212882329420474,0.0749415204539824,0.0071306148872742,-0.2798778414726257,0.3978615999221802,1.6821584701538086,24,169,12708,19224
22.8,1788435444109,3.774647951126098,6.2253522872924805,-0.0040351822972297,-0.0009908854262903,-0.4214179515838623,0.9068570137023926,0.1665916898521144,0.0047119720699495,0.0001623638761739,-0.0278800409287214,-0.0312140323221683,0.3098340332508087,-0.0029482804238796,0.0027657616883516,-0.9936454892158508,0.112482950091362,-0.0301644707631185,-0.0484310533323673,0.3211299930962841,0.0254174470901489,0.034359335899353,1.692243576049805,18,123,11599,19421
22.9,1788435444209,4.02816915512085,5.7183098793029785,-0.0036105180624872,-0.0009985853685066,-0.4050202071666717,0.9143000841140748,0.1631055187667192,0.0003184519746796,-3.6983469915707815e-05,0.0179385282099246,0.0130460066720843,0.4078733921051025,-0.0029058549553155,0.002553105354309,-0.9915884733200072,0.1293729245662689,0.0256910428277089,0.0009293871850185,0.4403743855675459,0.7852045893669128,-0.1731822490692138,0.0467147827148437,213,43,16017,16533
23.0,1788435444309,4.901408672332764,5.577464580535889,-0.003376985900104,-0.0005286559462547,-0.3999874591827392,0.916514217853546,0.177052594044458,0.0029568347412763,-0.0001603437504133,0.0015087909996509,0.0211806148290634,0.2291776239871978,-0.0016696229577064,0.0024597719311714,-0.990004301071167,0.1410060822963714,0.0181603302371705,0.0057974680794276,0.1846852245887376,0.0020356178283691,0.2299007177352905,-2.0792007446289062,48,74,13584,16572
23.1,1788435444409,4.929577350616455,5.126760482788086,-0.0031973090954124,0.000477981637232,-0.3884340524673462,0.9214709401130676,0.1751785806257161,0.0009062768198113,4.619482392670342e-05,-0.0158440861850976,-0.0187252108007669,0.1525201052427292,-0.0010255593806505,0.0030545564368367,-0.9887628555297852,0.1494581848382949,0.0029109592524832,0.0233709112426757,0.0206288614276148,-0.0355250239372253,-0.2822888493537903,-1.6153249740600586,107,79,16544,14847
23.2,1788435444509,4.760563373565674,5.605633735656738,-0.0030209543183445,0.0009217540500685,-0.3871505856513977,0.9220110774040222,0.1716349077209611,-0.0006445555812628,-9.864037310347396e-05,0.0013930581044405,0.0080767488107085,0.0224450286477804,-0.0010450100526213,0.0030162297189235,-0.9885903596878052,0.1505953073501587,-0.0063504583481831,-0.0625914798848517,0.0473674598242508,-0.0812293887138366,0.1449995636940002,-0.3947057723999023,41,87,13075,16602
23.3,1788435444609,5.436619758605957,4.873239517211914,-0.0028884254861623,0.0015568586532026,-0.3831164836883545,0.9236942529678344,0.1718242321960184,0.0031531687202863,2.1585889902557237e-05,-0.0038039037026464,-0.0005001302342861,0.0843570530414581,-0.0003469958901405,0.0032205618917942,-0.9879931807518004,0.1544633358716964,0.0020499989578814,-0.0313160672861137,-0.0243021222132321,-0.0473130345344543,-0.3164591193199157,0.2938299179077148,78,71,15663,14906
23.4,1788435444709,5.211267471313477,4.929577350616455,-0.002977134194225,0.0011968741891905,-0.3843998312950134,0.9231611490249634,0.1707736982762655,-0.0007324603950498,6.289381817501437e-05,0.0023045924026519,-0.014781417325139,-0.0567974559962749,0.000191175378859,0.0027145817875862,-0.9883912801742554,0.1519059091806411,0.0377726140646326,0.0438157799159232,-0.0642668269978469,-0.6045368909835815,-0.0565530061721801,0.9642229080200196,70,78,16007,14560
23.5,1788435444809,5.549295902252197,4.929577350616455,-0.0009112955303862,0.0023177342955023,-0.386623352766037,0.9222343564033508,0.1686936671786447,-0.0080647463433892,-0.0001553119087844,0.0068872468546032,0.0277646668255329,-0.0539618544280529,-9.286776185035706e-05,0.0031121475622057,-0.9888796210289,0.1486858427524566,-0.1128956028329453,-0.120816930745057,-0.1528476157786286,0.3996773362159729,-0.2671431303024292,3.09958553314209,52,78,14968,14815
23.6,1788435444909,5.014084339141846,4.929577350616455,-0.0029491670429706,0.0014241331955417,-0.3913683593273163,0.9202282428741456,0.1713812841784443,-0.0026360657464209,2.478839546967976e-06,-0.0037904123309999,-0.0067010694183409,-0.069146491587162,0.0003311233595013,0.0033853715285658,-0.9894574284553528,0.1447846889495849,0.0001829581724567,0.0268886268796757,-0.0354492080966964,-0.1617454886436462,0.3070284128189087,0.0026264190673828,27,80,14877,15795
23.7,1788435445009,4.816901206970215,5.042253494262695,-0.0027456383686512,0.0024209376424551,-0.3922766149044037,0.9198400378227234,0.1608505284435567,0.0012997209262875,-3.004598508614175e-09,-0.0082732923328876,0.0189141370356082,0.00794243440032,0.0030092373490333,0.0042701456695795,-0.9893659353256226,0.1453537791967392,-0.0137852612675347,0.1587949970445395,0.0498360375631525,-1.4669703245162964,-0.3361837267875671,5.9513139724731445,126,161,14944,17307
23.8,1788435445109,4.507042407989502,5.126760482788086,-0.0038282847963273,0.0006120019243098,-0.3892237842082977,0.9211350679397584,0.1798572681921105,0.0017951449337815,0.0003861343940597,0.0061024515889585,-0.1395855993032455,0.0724796280264854,0.0011521959677338,0.0040738685056567,-0.98885315656662,0.148833692073822,-0.0064963653941328,0.2003490498176706,0.0537889579507808,0.164102017879486,-0.096300184726715,-1.6811437606811523,91,128,16069,16582
23.9,1788435445209,5.070422649383545,5.323943614959717,-0.0030118732247501,0.0026697753928601,-0.3858336508274078,0.92255961894989,0.1714644260866928,-7.769083764438883e-05,8.552976018594276e-05,0.0025668661110103,-0.0008839349029585,0.0927110165357589,0.0007420210167765,0.0038842186331748,-0.9882548451423644,0.1527634263038635,-0.0023114621043401,-0.0132561808582756,0.0904059415394964,-0.0619967579841613,-0.0082079768180847,0.0971078872680664,58,69,14147,15457
24.0,1788435445309,5.211267471313477,5.239436626434326,-0.0026507778093218,0.0028870082460343,-0.3833656013011932,0.9235883951187134,0.1825763976826213,0.0001603835522968,-4.359034551108471e-07,0.0057391547597944,-0.0019489574478939,0.0258796792477369,0.0009788535535335,0.0036275833845138,-0.9879506826400756,0.1547235250473022,0.0050305957643808,-0.0062088435576396,0.02830936529907,-0.0651584863662719,0.1554505825042724,-0.1252107620239257,100,105,13877,15699
24.1,1788435445409,4.873239517211914,5.154929637908936,-0.0024510126095265,0.0031235651113092,-0.3824349045753479,0.9239739179611206,0.1666063598045694,0.0036040485496201,-7.223558249273948e-05,0.0001349029625998,0.0163531061261892,0.0239976346492767,0.0016002478078007,0.003515182994306,-0.9877751469612122,0.1558375507593155,0.0081745958140216,0.0128374270202396,0.0300359569269267,-0.0452752113342285,-0.0620853304862976,-0.5226202011108398,157,85,15295,16170
24.2,1788435445509,5.211267471313477,5.211267471313477,-0.0022917911410331,0.0029265815392136,-0.3804507255554199,0.9247937202453612,0.1818762173024706,0.003034094769421,1.0510780542193898e-06,0.0034101288765668,-0.0055560222826898,0.0522120632231235,0.0008823992684483,0.0029081236571073,-0.987382471561432,0.1583246141672134,0.0380825987614698,-0.0419654145592898,0.0808830532603816,-0.0055316686630249,0.0089741349220275,0.8968105316162109,66,67,15727,15726
24.3,1788435445609,4.704225540161133,5.239436626434326,-0.0027483133599162,0.0028836778365075,-0.3784844577312469,0.9255990982055664,0.1687352427809204,0.0062140457824957,-0.000163615679661,-0.0307639949023723,0.0348334163427352,0.0027432858478277,0.0010241912677884,0.0041221315041184,-0.9871991872787476,0.1594354957342147,-0.0079708074102636,-0.0043917512551194,0.0077054290252962,0.1820296645164489,-0.3976808190345764,-0.8997316360473633,83,88,15455,15990
24.4,1788435445709,4.901408672332764,5.211267471313477,-0.0035311456304043,0.002653784584254,-0.3760020136833191,0.9266082644462584,0.1752631139948497,0.0083603059631339,2.942271839001876e-05,-0.0135193401947617,-0.0121781872585415,0.0462514720857143,6.381236016750336e-05,0.0043120384216308,-0.9865283370018004,0.1635340899229049,0.0084033573265835,-0.0340013735891928,0.0593680086173936,-0.0262600183486938,-0.0599173903465271,-1.6219358444213867,60,83,14712,15650
24.5,1788435445809,4.535211086273193,5.126760482788086,-0.0039691762067377,0.0020016888156533,-0.374524176120758,0.9272064566612244,0.1556461784780537,0.0047270242331751,2.532708996161748e-09,0.0,0.0,0.0,2.8446316719055176e-05,0.0049488637596368,-0.986397385597229,0.1643037945032119,-0.0179211531862094,0.0218417122856013,0.0330824387133575,0.1464505791664123,0.2197036147117614,0.0249910354614257,62,136,16413,15805
24.6,1788435445909,5.126760482788086,5.211267471313477,-0.0043619610369205,0.0018588608363643,-0.3734595477581024,0.9276343584060668,0.1760377354006131,0.0016393750303307,9.09702527208128e-05,0.0016169178998097,-0.0159235727041959,0.0264155752956867,-0.0021952940151095,0.0052932118996977,-0.98628968000412,0.1649236977100372,-0.0483683816032059,-0.1060788366451385,-0.0241876307539797,-0.2190783023834228,-0.299742043018341,0.0698938369750976,37,82,13971,15897
24.7,1788435446009,4.704225540161133,4.929577350616455,-0.0040732822380959,0.0011863759718835,-0.3712712824344635,0.9285147786140442,0.1568247487314219,0.0009198757615852,4.406194746930607e-05,0.043567307293415,-0.0031968287657946,0.0853161811828613,0.0004818998277187,0.0034596920013427,-0.9856712222099304,0.1686417758464813,0.0840790087766696,0.1329171306665023,0.1606436783084517,1.064583659172058,0.0229456424713134,1.049480438232422,298,108,17753,15894
24.8,1788435446109,5.014084339141846,5.267605781555176,-0.0034307946916669,0.0016485422383993,-0.3705134689807892,0.9288192987442015,0.1946447487460783,0.0009782339252355,9.964408770020152e-05,-0.0341185666620731,-0.0383464694023132,-0.0407548286020755,0.0006338851526379,0.0037190346047282,-0.9858016967773438,0.167871817946434,0.0243752919023912,0.1037459909218943,0.0129436537311034,-0.4325668811798095,0.2088503837585449,-0.6464405059814453,47,89,14376,15684
24.9,1788435446209,4.647887229919434,5.239436626434326,-0.0030295029282569,0.0018150090472772,-0.3681489527225494,0.9297600388526917,0.1623100338546772,0.0008352623317961,-2.609952212158246e-05,0.0042170011438429,-0.0022167349234223,0.0801165625452995,-0.0002509439364075,0.0035007717087864,-0.9852479100227356,0.1710970401763916,-0.0005569628174407,-0.0403590196765578,0.0588697675353453,0.1347044110298156,-0.0191755294799804,-0.5307521820068359,95,81,15314,15656
25.0,1788435446309,5.014084339141846,5.154929637908936,-0.0027987656649202,0.0020822836086153,-0.3658388257026672,0.9306716918945312,0.1760908439755573,0.0023766650437259,-7.508326195569538e-06,-0.0004099762008991,0.0035068853758275,0.0395980030298233,0.0002610469236969,0.0033257557079195,-0.9848568439483644,0.1733374595642089,0.0086135910564993,-0.0094013207868629,0.0240483799928491,-0.1928989887237548,-0.2128017544746399,1.4961004257202148,51,95,15713,15168
25.1,1788435446409,5.098591327667236,5.042253494262695,-0.0025337317492812,0.0019447209779173,-0.3651439547538757,0.9309455752372742,0.1757480603628829,-0.0007487530871776,-5.38988299278662e-06,0.0066983620636165,0.0009482186869718,0.0155423246324062,0.0002759378403425,0.0031051561236381,-0.9848523139953612,0.1733674556016922,-0.0123002287739062,-0.0059360322600774,-0.0328791934695075,-0.1186544895172119,-0.0702960491180419,-1.0468025207519531,48,78,15313,15221
25.2,1788435446509,5.014084339141846,5.211267471313477,-0.0023280158638954,0.0022100023925304,-0.3664241433143616,0.9304423928260804,0.1635274404997798,-0.0034187725796685,-2.655085907317815e-05,0.0002314134180778,0.009613393805921,-0.0272276625037193,0.0009263008832931,0.003366463817656,-0.9850802421569824,0.1720603704452514,-0.01656925552913,0.0134672861581118,0.0061194067603193,0.1324283480644226,0.0305500030517578,0.1697301864624023,112,91,14380,16279
25.3,1788435446609,4.647887229919434,5.183098793029785,-0.0024131860118359,0.0028386856429278,-0.3653419017791748,0.9308659434318542,0.1752507795995526,0.0006711029368955,-5.0600182184675166e-05,-0.0126330871134996,0.0223520752042531,0.0472579635679721,0.0012107416987419,0.0037413910031318,-0.9847451448440552,0.1739589422941208,-0.0160433747912292,-0.0060665521670676,0.0463392303571717,-0.2038874626159668,-0.009083092212677,1.6785783767700195,74,86,16197,15384
25.4,1788435446709,5.126760482788086,4.760563373565674,-0.0021322078537195,0.0030315238982439,-0.3627172112464905,0.931891918182373,0.1665717287126598,0.0034947111751991,-1.6926925163591682e-05,0.0159738790243864,0.0144284386187791,0.0672031566500663,0.0016842503100633,0.0033626835793256,-0.9842938780784608,0.1764978766441345,0.0142020793248903,0.023518191447741,0.0517142434164776,0.6382036209106445,-0.1193059682846069,1.5893335342407229,65,69,16470,15186
25.5,1788435446809,5.098591327667236,4.8450703620910645,-0.0021728097926825,0.0015443429583683,-0.3630034923553467,0.93178391456604,0.1674490335566342,0.0020392973422958,1.885119011105584e-05,0.012477807700634,-0.0813125446438789,-0.0157890059053897,-0.0016614207997918,0.0020703980699181,-0.9846699833869934,0.1744078397750854,0.0125717572959326,-0.0431273558025285,-0.0855140969639223,0.8986837863922119,0.0657634735107421,-3.785085678100586,83,85,16681,14831
25.6,1788435446909,5.464788913726807,4.478873252868652,-0.0027815289795398,-0.0006071570678614,-0.3668843507766723,0.9302622079849244,0.1687983312076452,-0.0041480787583595,0.0001062236153994,0.0026537089142948,-0.0137215880677104,-0.0786355286836624,-0.002813839353621,0.0020106201991438,-0.9852907061576844,0.1708516031503677,-0.0100900476930842,-0.0899697673379258,-0.0782236304586341,0.2406032085418701,0.0202674269676208,3.1775922775268555,51,61,17627,14297
25.7,1788435447009,5.352112770080566,4.873239517211914,-0.0026722627226263,-0.0008342032087966,-0.3712367117404938,0.9285340309143066,0.1731045465262496,6.171382504162199e-05,1.8154537156528468e-06,0.0117998719215393,0.0049305921420454,-0.0976441800594329,-0.0017772810533642,0.0020175818353891,-0.9860491752624512,0.1664326041936874,-0.0049257891047691,0.0371356231861391,-0.0787754331285903,-0.2063243985176086,0.5807248950004578,2.4926767349243164,121,70,15254,14898
25.8,1788435447109,5.77464771270752,4.507042407989502,-0.0027762176468968,-0.0007551949238404,-0.3746921122074127,0.9271448850631714,0.1703994837862197,-0.0018636184666684,1.5844799942778524e-05,-0.0035742770414799,-0.0189122259616851,-0.0766468271613121,-0.0017759650945663,0.0018199514597654,-0.9869052171707152,0.1612813919782638,0.011386162878675,0.0315743862909465,-0.1124674737599895,0.2339949607849121,0.0109737515449523,-1.0379648208618164,107,76,15944,13827
25.9,1788435447209,4.816901206970215,4.8450703620910645,-0.0020732721313834,-7.084402022883296e-05,-0.3801955580711365,0.9249038100242616,0.1660924297151618,-0.003329245660066,-5.0441215712763326e-05,0.0084981229156255,0.0276607032865285,-0.131312683224678,-0.0001962594687938,0.001604494638741,-0.9877795577049256,0.1558494120836258,0.0161051332573344,0.0587366361694375,-0.0867461426391373,-0.6997177004814148,0.0499652028083801,1.2194709777832031,124,98,17134,15064
26.0,1788435447309,5.802816867828369,4.563380241394043,-0.0003043948672711,0.0017097413074225,-0.3834490478038788,0.9235604405403136,0.1682281309694593,-0.0103047975084644,-0.0003019167476228,-0.0061335703358054,0.0210511330515146,-0.0615365952253341,0.0008657714352011,0.0020359409973025,-0.988230288028717,0.1529577523469925,-0.1774465305237101,-0.07112320778183,-0.1934551499704239,-0.0620122551918029,0.8946990966796875,1.6187801361083984,54,151,13731,16362
26.1,1788435447409,5.802816867828369,4.647887229919434,-0.0027189089450985,0.0016004964709281,-0.3886343836784363,0.92138671875,0.1706223046516504,-0.0056243565943498,2.483749609075085e-05,-0.0037725295405834,-0.0043806205503642,-0.0229912269860506,-4.422944039106369e-05,0.0033426545560359,-0.9888837337493896,0.1486530900001526,-0.0045364573214498,0.0101874305993804,-0.0052746365623591,-0.046555757522583,0.0304718017578125,-0.6410465240478516,74,66,15670,13684
26.2,1788435447509,5.408450603485107,4.619718074798584,-0.0028878645971417,0.0024211136624217,-0.3915809392929077,0.9201359748840332,0.1706251174029656,-0.0024129711878618,-0.0001453483123462,-0.0197153408080339,0.0291789360344409,-0.1332611441612243,0.0009967852383852,0.0039023458957672,-0.9897723197937012,0.1425993293523788,-0.0106588800397189,0.0283710554216313,-0.2081546106650298,-0.2128491997718811,-0.1552845239639282,2.0993423461914062,47,82,17362,13613
26.3,1788435447609,5.211267471313477,4.619718074798584,-0.0034271548502147,0.0019386765779927,-0.3987461626529693,0.917052924633026,0.1651105353358104,0.0012552775478484,7.520236067315884e-05,-0.0073564951308071,-0.0181331355124712,-0.1474443823099136,0.000274684280157,0.0034805638715624,-0.9906700253486632,0.1362375020980835,0.0434742154540443,0.014129365711003,-0.1122231500360154,-0.1832165122032165,-0.1711233854293823,0.996450424194336,146,90,17896,13627
26.4,1788435447709,5.97183084487915,4.591549396514893,-0.0010980633087456,0.0023311099503189,-0.4057371914386749,0.9139861464500428,0.1608828729243488,-0.003330606384395,-3.138952923047073e-06,0.0134065235033631,-0.0061091873794794,-0.1734330356121063,0.0013926113024353,0.0023642526939511,-0.9919040203094482,0.12696073949337,-0.0181618720072871,0.0089364861145698,-0.1814240926596484,0.0136291980743408,0.0095692873001098,-1.2374086380004885,99,77,15653,13680
26.5,1788435447809,5.352112770080566,4.563380241394043,-0.001962095266208,0.0016256381059065,-0.4137827455997467,0.9103720188140868,0.1691886201153009,0.0014382690225441,5.862020731234737e-05,-0.0114976158365607,-0.0311661176383495,-0.1778272986412048,0.0004974184557795,0.0025882348418235,-0.9928791522979736,0.1190968379378318,-0.0016229274703883,0.004044237373308,-0.1617111351141105,0.0518732666969299,0.231997013092041,-0.6046266555786133,105,112,17511,14049
26.6,1788435447909,5.830986022949219,4.535211086273193,-0.0019995437469333,0.0016577374190092,-0.4172738492488861,0.9087770581245422,0.1667797713036932,-0.0018622045374684,-2.4931971512182438e-05,-0.0018705622060224,0.0009667990379966,-0.1601566672325134,0.0001828903332352,0.0025176620110869,-0.9937168955802916,0.1118946895003318,-0.0092796639763424,-0.0672015492176317,-0.1626633415845419,0.1441422700881958,-0.1250098943710327,-0.9934701919555664,84,69,15823,14048
26.7,1788435448009,5.492957592010498,4.957746505737305,-0.0017492419574409,0.0025763567537069,-0.4271466135978699,0.9041770100593568,0.1716840936683829,0.0010850919897388,4.674775782029865e-05,-0.0052280975505709,-0.0001379876921419,-0.1292317807674408,0.0011473782360553,0.0026267264038324,-0.9944363236427308,0.105301022529602,0.0154054257171402,0.0101117800971893,-0.0560074461581423,0.0263665318489074,0.0639832615852356,-1.075617790222168,74,89,14599,15157
26.8,1788435448109,5.633802890777588,4.816901206970215,-0.0020311935804784,0.0020083070266991,-0.4289985001087188,0.9033007025718688,0.1710234996435379,-0.0016688564272185,0.0001150974021076,-0.0060797743499279,-0.0228987913578748,-0.0237496457993984,0.0001613842323422,0.002579947002232,-0.9945784211158752,0.1039577946066856,0.0108889101238751,-0.0301484498963999,-0.0293795650083651,-0.0785130858421325,-0.2417677044868469,2.361271858215332,89,70,14144,15437
26.9,1788435448209,5.408450603485107,4.901408672332764,-0.002007943810895,0.001184741850011,-0.4299326241016388,0.9028579592704772,0.172193175155965,0.0024494638925562,-4.236708767920642e-05,0.0070690964348614,0.0008181631565093,-0.0142912566661834,-1.934356987476349e-05,0.0021933149546384,-0.9946701526641846,0.1030846387147903,0.0084239507179572,-0.0058412704308739,-0.0305689714090645,-0.0534387230873107,-0.1984943747520446,0.1827106475830078,132,94,15221,15143
27.0,1788435448309,5.352112770080566,5.042253494262695,-0.0015530267264693,0.0008142077131196,-0.4317947924137115,0.9019702076911926,0.1608103865003483,-0.0037724445770013,-6.832794399240514e-05,0.0166296921670436,0.0190866328775882,-0.0421703718602657,-9.608548134565352e-05,0.0016959654167294,-0.994854748249054,0.1012972518801689,0.0082404655770007,0.0094101796634782,-0.0355789554188063,0.196999967098236,0.1114533543586731,0.9756412506103516,103,78,14170,15538
27.1,1788435448409,4.957746505737305,4.816901206970215,-0.0006844710442237,0.0017452409956604,-0.4323078393936157,0.901724100112915,0.160380797653243,0.0028450891002304,-4.5471865217000176e-05,0.0092352274805307,0.039842639118433,-0.0106913093477487,0.0035091713070869,0.0003266399726271,-0.9948583245277404,0.1012154147028923,0.0888711773405799,0.1369912441259574,0.0194920409875901,0.3833178281784057,-0.4003748893737793,0.3532018661499023,211,87,17408,15261
27.2,1788435448509,5.380281925201416,4.929577350616455,-0.001243753824383,2.7487287297844887e-05,-0.4343725740909576,0.9007324576377868,0.1793496463622207,0.0073385087568438,0.0003910017577519,-0.0626230090856552,-0.1793281286954879,-0.1025651395320892,-0.0011929450556635,0.0012665996327996,-0.995366632938385,0.0961371809244155,-0.0011841323236995,0.0477378966579477,-0.1139889818735683,-0.7448353171348572,0.3236324787139892,0.5214977264404297,106,66,15414,14617
27.3,1788435448609,5.436619758605957,4.816901206970215,-0.0020102735143154,-0.0008123073494061,-0.4378421604633331,0.8990492224693298,0.1662874513195878,-0.0030514543420089,2.3106553259147983e-05,-0.00026647222694,-0.002370981266722,-0.0486397109925746,-0.0018966104835271,0.0012153247371315,-0.9955715537071228,0.093979999423027,0.0049960662229722,0.0117910595863889,-0.0160040424310025,0.1220085620880127,-0.2151327133178711,-1.5253067016601562,77,110,14880,15304
27.4,1788435448709,5.577464580535889,4.929577350616455,-0.0024006073363125,-0.0013614511117339,-0.4395002424716949,0.8982382416725159,0.1682792680042441,0.0007779598959977,6.475122895592821e-05,-0.0063720764592289,-0.0172907598316669,-0.0558976307511329,-0.0022793319076299,0.0013603549450635,-0.9957672357559204,0.0918728858232498,0.0047084785241952,0.0015726154189582,-0.0669147138859609,-0.1374263167381286,-0.1150971055030822,0.7523460388183594,77,74,14744,14841
27.5,1788435448809,4.760563373565674,5.183098793029785,-0.0023056401405483,-0.0011886593420058,-0.4413124024868011,0.8973498344421387,0.1769266040898502,-0.0004796949329687,9.538808589773023e-06,-0.0004153224581386,-0.0017332326387986,-0.0186647232621908,-0.001896571367979,0.0013273637741804,-0.9959035515785216,0.0903924852609634,0.0078680745217643,-0.000978552942637,-0.0015729611199982,-0.1870228052139282,-0.0884302258491516,1.8957366943359373,81,85,14111,15997
27.6,1788435448909,4.760563373565674,4.957746505737305,-0.0011711721308529,-0.0002197849680669,-0.4396215975284576,0.8981822729110718,0.1726641924615722,0.0022754028145112,-3.446077571611032e-05,0.01856330037117,0.0157601311802864,0.0761652663350105,-0.0005889162421226,0.0006431099027395,-0.9955255389213562,0.0944891571998596,0.0048507965270078,0.0419216875561245,0.0475496805426558,0.2715287208557129,-0.0260795354843139,-2.339850902557373,102,68,16603,15783
27.7,1788435449009,5.267605781555176,4.535211086273193,-0.0006798706599511,-0.0002634246484376,-0.438241958618164,0.8988567590713501,0.1725877969481107,-0.0029321984936794,-7.861277561584175e-05,0.0088675320148468,0.0137949837371706,0.0112376464530825,-0.0002064034342765,0.0005503818392753,-0.9955560564994812,0.0941691622138023,-0.0117166338332705,0.0162786277415489,-0.039553116141392,0.3652045726776123,-0.2586183547973633,0.0677337646484375,84,91,18437,13728
27.8,1788435449109,5.77464771270752,4.507042407989502,-0.0002310383715666,3.676513733807951e-05,-0.4421575665473938,0.896937370300293,0.1778110142302834,0.0001949285260019,2.646581038207844e-05,0.0047782850451767,0.0178907625377178,-0.125780314207077,-0.000110718421638,0.0008874386548995,-0.9961281418800354,0.0879090055823326,-0.0682519204417826,0.0372524401411956,-0.1851795246778627,-0.3004599809646606,0.0287895202636718,-0.2550506591796875,117,75,16168,13802
27.9,1788435449209,5.633802890777588,4.507042407989502,-0.0017693652771413,0.000267508032266,-0.450787216424942,0.8926296234130859,0.1622272184673694,-0.0045453976898163,-3.889690421478322e-05,-0.0243882648646831,-0.0015488156350329,-0.2036553919315338,-0.0003213174641132,0.0018974598497152,-0.9968955516815186,0.0787123367190361,-0.0209900584928978,0.009440549293202,-0.1975019112640376,0.3129956722259521,0.0767146348953247,-0.6211328506469727,43,75,16208,14109
28.0,1788435449309,5.295774459838867,5.014084339141846,-0.0008018268854357,0.0020795622840523,-0.4565122425556183,0.8897144198417664,0.1658009866424846,-0.0017635651821235,-6.641346231532215e-05,0.0066872602328658,0.0361973419785499,-0.0419136732816696,0.0016863020136952,0.001795757561922,-0.9972575306892396,0.0739684402942657,-0.0038362547639923,0.0355636962642263,0.0031393267032574,-0.2306758165359497,-0.0502260327339172,1.4565038681030271,72,100,14293,16313
28.1,1788435449409,5.183098793029785,5.014084339141846,-0.0008018267690204,0.0020795622840523,-0.4565122127532959,0.8897144198417664,0.1756924877887503,-0.0009522972512352,-1.032375160692805e-08,0.0,-2.4302349022065073e-09,0.0,0.001570108346641,0.0017624050378799,-0.9972767233848572,0.0737136006355285,0.0034370036347248,0.0526431118225808,-0.0165582841323409,-0.2341933250427246,-0.3870595693588257,-0.4715728759765625,65,93,14599,15756
