time_s,timestamp_ms,wheel_vels__velocity_left,wheel_vels__velocity_right,odom__orient_x,odom__orient_y,odom__orient_z,odom__orient_w,odom__lin_x,odom__lin_y,odom__lin_z,odom__ang_x,odom__ang_y,odom__ang_z,imu__orient_x,imu__orient_y,imu__orient_z,imu__orient_w,imu__angvel_x,imu__angvel_y,imu__angvel_z,imu__acc_x,imu__acc_y,imu__acc_z,wheel_status__current_ma_left,wheel_status__current_ma_right,wheel_status__pwm_left,wheel_status__pwm_right
0.0,1788263040311,0.0,0.0,-0.0050339787267148,-0.0042570093646645,0.9074000120162964,0.4202162325382232,0.0,0.0,0.0,0.0,0.0,0.0,-0.0047869533300399,-0.004538937471807,0.930093228816986,0.3672644197940826,-4.463098998731668e-05,0.0001658614025426,-1.1052358097801809e-10,-0.0096364021301269,0.0130280256271362,-0.0149688720703125,6,0,0,0
0.1,1788263040411,0.0,0.0,-0.0050339787267148,-0.0042570093646645,0.9074000120162964,0.4202162325382232,0.0,0.0,0.0,0.0,0.0,0.0,-0.0047869533300399,-0.004538937471807,0.930093228816986,0.3672644197940826,-4.463098998731668e-05,0.0001658614025426,-1.1052358097801809e-10,-0.0096364021301269,0.0130280256271362,-0.0149688720703125,6,0,0,0
0.2,1788263040511,0.0,0.0,-0.0050339787267148,-0.0042570093646645,0.9074000120162964,0.4202162325382232,0.0,0.0,0.0,0.0,0.0,0.0,-0.0047869533300399,-0.004538937471807,0.930093228816986,0.3672644197940826,-4.463098998731668e-05,0.0001658614025426,-1.1052358097801809e-10,-0.0096364021301269,0.0130280256271362,-0.0149688720703125,6,0,0,0
0.3,1788263040611,0.0,0.0,-0.0050339787267148,-0.0042570093646645,0.9074000120162964,0.4202162325382232,0.0,0.0,0.0,0.0,0.0,0.0,-0.0047869533300399,-0.004538937471807,0.930093228816986,0.3672644197940826,-4.463098998731668e-05,0.0001658614025426,-1.1052358097801809e-10,-0.0096364021301269,0.0130280256271362,-0.0149688720703125,6,0,0,0
0.4,1788263040711,0.0,0.0,-0.0050339787267148,-0.0042570093646645,0.9074000120162964,0.4202162325382232,0.0,0.0,0.0,0.0,0.0,0.0,-0.0047869533300399,-0.004538937471807,0.930093228816986,0.3672644197940826,-4.463098998731668e-05,0.0001658614025426,-1.1052358097801809e-10,-0.0096364021301269,0.0130280256271362,-0.0149688720703125,6,0,0,0
0.5,1788263040811,0.0,0.0,-0.0050339787267148,-0.0042570093646645,0.9074000120162964,0.4202162325382232,0.0,0.0,0.0,0.0,0.0,0.0,-0.0047869533300399,-0.004538937471807,0.930093228816986,0.3672644197940826,-4.463098998731668e-05,0.0001658614025426,-1.1052358097801809e-10,-0.0096364021301269,0.0130280256271362,-0.0149688720703125,6,0,0,0
0.6,1788263040911,0.0,0.0,-0.0050339787267148,-0.0042570093646645,0.9074000120162964,0.4202162325382232,0.0,0.0,0.0,0.0,0.0,0.0,-0.0047869533300399,-0.004538937471807,0.930093228816986,0.3672644197940826,-4.463098998731668e-05,0.0001658614025426,-1.1052358097801809e-10,-0.0096364021301269,0.0130280256271362,-0.0149688720703125,6,0,0,0
0.7,1788263041011,0.0,0.0,-0.0050339787267148,-0.0042570093646645,0.9074000120162964,0.4202162325382232,0.0,0.0,0.0,0.0,0.0,0.0,-0.0047869533300399,-0.004538937471807,0.930093228816986,0.3672644197940826,-4.463098998731668e-05,0.0001658614025426,-1.1052358097801809e-10,-0.0096364021301269,0.0130280256271362,-0.0149688720703125,6,0,0,0
0.8,1788263041111,0.0,0.0,-0.0050339787267148,-0.0042570093646645,0.9074000120162964,0.4202162325382232,0.0,0.0,0.0,0.0,0.0,0.0,-0.0047869533300399,-0.004538937471807,0.930093228816986,0.3672644197940826,-4.463098998731668e-05,0.0001658614025426,-1.1052358097801809e-10,-0.0096364021301269,0.0130280256271362,-0.0149688720703125,6,0,0,0
0.9,1788263041211,0.0,0.0,-0.0050339787267148,-0.0042570093646645,0.9074000120162964,0.4202162325382232,0.0,0.0,0.0,0.0,0.0,0.0,-0.0047869533300399,-0.004538937471807,0.930093228816986,0.3672644197940826,-4.463098998731668e-05,0.0001658614025426,-1.1052358097801809e-10,-0.0096364021301269,0.0130280256271362,-0.0149688720703125,6,0,0,0
1.0,1788263041311,0.0,0.0,-0.0050339787267148,-0.0042570093646645,0.9074000120162964,0.4202162325382232,0.0,0.0,0.0,0.0,0.0,0.0,-0.0047869533300399,-0.004538937471807,0.930093228816986,0.3672644197940826,-4.463098998731668e-05,0.0001658614025426,-1.1052358097801809e-10,-0.0096364021301269,0.0130280256271362,-0.0149688720703125,6,0,0,0
1.1,1788263041411,0.0,0.0,-0.0050339787267148,-0.0042570093646645,0.9074000120162964,0.4202162325382232,0.0,0.0,0.0,0.0,0.0,0.0,-0.0047869533300399,-0.004538937471807,0.930093228816986,0.3672644197940826,-4.463098998731668e-05,0.0001658614025426,-1.1052358097801809e-10,-0.0096364021301269,0.0130280256271362,-0.0149688720703125,6,0,0,0
1.2,1788263041511,0.0,0.0,-0.0050339787267148,-0.0042570093646645,0.9074000120162964,0.4202162325382232,0.0,0.0,0.0,0.0,0.0,0.0,-0.0047869533300399,-0.004538937471807,0.930093228816986,0.3672644197940826,-4.463098998731668e-05,0.0001658614025426,-1.1052358097801809e-10,-0.0096364021301269,0.0130280256271362,-0.0149688720703125,6,0,0,0
1.3,1788263041611,0.0,0.0,-0.0050339787267148,-0.0042570093646645,0.9074000120162964,0.4202162325382232,0.0,0.0,0.0,0.0,0.0,0.0,-0.0047869533300399,-0.004538937471807,0.930093228816986,0.3672644197940826,-4.463098998731668e-05,0.0001658614025426,-1.1052358097801809e-10,-0.0096364021301269,0.0130280256271362,-0.0149688720703125,6,0,0,0
1.4,1788263041711,0.0,0.0,-0.0050339787267148,-0.0042570093646645,0.9074000120162964,0.4202162325382232,0.0,0.0,0.0,0.0,0.0,0.0,-0.0047869533300399,-0.004538937471807,0.930093228816986,0.3672644197940826,-4.463098998731668e-05,0.0001658614025426,-1.1052358097801809e-10,-0.0096364021301269,0.0130280256271362,-0.0149688720703125,6,0,0,0
1.5,1788263041811,0.0,0.0,-0.0050339787267148,-0.0042570093646645,0.9074000120162964,0.4202162325382232,0.0,0.0,0.0,0.0,0.0,0.0,-0.0047869533300399,-0.004538937471807,0.930093228816986,0.3672644197940826,-4.463098998731668e-05,0.0001658614025426,-1.1052358097801809e-10,-0.0096364021301269,0.0130280256271362,-0.0149688720703125,6,0,0,0
1.6,1788263041911,0.0,0.0,-0.0050339787267148,-0.0042570093646645,0.9074000120162964,0.4202162325382232,0.0,0.0,0.0,0.0,0.0,0.0,-0.0047869533300399,-0.004538937471807,0.930093228816986,0.3672644197940826,-4.463098998731668e-05,0.0001658614025426,-1.1052358097801809e-10,-0.0096364021301269,0.0130280256271362,-0.0149688720703125,6,0,0,0
1.7,1788263042011,0.0,0.0,-0.0050339787267148,-0.0042570093646645,0.9074000120162964,0.4202162325382232,0.0,0.0,0.0,0.0,0.0,0.0,-0.0047869533300399,-0.004538937471807,0.930093228816986,0.3672644197940826,-4.463098998731668e-05,0.0001658614025426,-1.1052358097801809e-10,-0.0096364021301269,0.0130280256271362,-0.0149688720703125,6,0,0,0
1.8,1788263042111,0.0,0.0,-0.0050339787267148,-0.0042570093646645,0.9074000120162964,0.4202162325382232,0.0,0.0,0.0,0.0,0.0,0.0,-0.0047869533300399,-0.004538937471807,0.930093228816986,0.3672644197940826,-4.463098998731668e-05,0.0001658614025426,-1.1052358097801809e-10,-0.0096364021301269,0.0130280256271362,-0.0149688720703125,6,0,0,0
1.9,1788263042211,0.0,0.0,-0.0050339787267148,-0.0042570093646645,0.9074000120162964,0.4202162325382232,0.0,0.0,0.0,0.0,0.0,0.0,-0.0047869533300399,-0.004538937471807,0.930093228816986,0.3672644197940826,-4.463098998731668e-05,0.0001658614025426,-1.1052358097801809e-10,-0.0096364021301269,0.0130280256271362,-0.0149688720703125,6,0,0,0
2.0,1788263042311,0.0,0.0,-0.0050339787267148,-0.0042570093646645,0.9074000120162964,0.4202162325382232,0.0,0.0,0.0,0.0,0.0,0.0,-0.0047869533300399,-0.004538937471807,0.930093228816986,0.3672644197940826,-4.463098998731668e-05,0.0001658614025426,-1.1052358097801809e-10,-0.0096364021301269,0.0130280256271362,-0.0149688720703125,6,0,0,0
2.1,1788263042411,0.0,0.0,-0.0050339787267148,-0.0042570093646645,0.9074000120162964,0.4202162325382232,0.0,0.0,0.0,0.0,0.0,0.0,-0.0047869533300399,-0.004538937471807,0.930093228816986,0.3672644197940826,-4.463098998731668e-05,0.0001658614025426,-1.1052358097801809e-10,-0.0096364021301269,0.0130280256271362,-0.0149688720703125,6,0,0,0
2.2,1788263042511,0.0,0.0,-0.0050339787267148,-0.0042570093646645,0.9074000120162964,0.4202162325382232,0.0,0.0,0.0,0.0,0.0,0.0,-0.0047869533300399,-0.004538937471807,0.930093228816986,0.3672644197940826,-4.463098998731668e-05,0.0001658614025426,-1.1052358097801809e-10,-0.0096364021301269,0.0130280256271362,-0.0149688720703125,6,0,0,0
2.3,1788263042611,0.0,0.0,-0.0050339787267148,-0.0042570093646645,0.9074000120162964,0.4202162325382232,0.0,0.0,0.0,0.0,0.0,0.0,-0.0047869533300399,-0.004538937471807,0.930093228816986,0.3672644197940826,-4.463098998731668e-05,0.0001658614025426,-1.1052358097801809e-10,-0.0096364021301269,0.0130280256271362,-0.0149688720703125,6,0,0,0
2.4,1788263042711,0.0,0.0,-0.0050339787267148,-0.0042570093646645,0.9074000120162964,0.4202162325382232,0.0,0.0,0.0,0.0,0.0,0.0,-0.0047869533300399,-0.004538937471807,0.930093228816986,0.3672644197940826,-4.463098998731668e-05,0.0001658614025426,-1.1052358097801809e-10,-0.0096364021301269,0.0130280256271362,-0.0149688720703125,6,0,0,0
2.5,1788263042811,0.0,0.0,-0.0050339787267148,-0.0042570093646645,0.9074000120162964,0.4202162325382232,0.0,0.0,0.0,0.0,0.0,0.0,-0.0047869533300399,-0.004538937471807,0.930093228816986,0.3672644197940826,-4.463098998731668e-05,0.0001658614025426,-1.1052358097801809e-10,-0.0096364021301269,0.0130280256271362,-0.0149688720703125,6,0,0,0
2.6,1788263042911,0.0,0.0,-0.0050339787267148,-0.0042570093646645,0.9074000120162964,0.4202162325382232,0.0,0.0,0.0,0.0,0.0,0.0,-0.0047869533300399,-0.004538937471807,0.930093228816986,0.3672644197940826,-4.463098998731668e-05,0.0001658614025426,-1.1052358097801809e-10,-0.0096364021301269,0.0130280256271362,-0.0149688720703125,6,0,0,0
2.7,1788263043011,0.0,0.0,-0.0050339787267148,-0.0042570093646645,0.9074000120162964,0.4202162325382232,0.0,0.0,0.0,0.0,0.0,0.0,-0.0047869533300399,-0.004538937471807,0.930093228816986,0.3672644197940826,-4.463098998731668e-05,0.0001658614025426,-1.1052358097801809e-10,-0.0096364021301269,0.0130280256271362,-0.0149688720703125,6,0,0,0
2.8,1788263043111,0.0,0.0,-0.0050339787267148,-0.0042570093646645,0.9074000120162964,0.4202162325382232,0.0,0.0,0.0,0.0,0.0,0.0,-0.0047869533300399,-0.004538937471807,0.930093228816986,0.3672644197940826,-4.463098998731668e-05,0.0001658614025426,-1.1052358097801809e-10,-0.0096364021301269,0.0130280256271362,-0.0149688720703125,6,0,0,0
2.9,1788263043211,0.0,0.0,-0.0050339787267148,-0.0042570093646645,0.9074000120162964,0.4202162325382232,0.0,0.0,0.0,0.0,0.0,0.0,-0.0047869533300399,-0.004538937471807,0.930093228816986,0.3672644197940826,-4.463098998731668e-05,0.0001658614025426,-1.1052358097801809e-10,-0.0096364021301269,0.0130280256271362,-0.0149688720703125,6,0,0,0
3.0,1788263043311,0.0,0.0,-0.0050339787267148,-0.0042570093646645,0.9074000120162964,0.4202162325382232,0.0,0.0,0.0,0.0,0.0,0.0,-0.0047869533300399,-0.004538937471807,0.930093228816986,0.3672644197940826,-4.463098998731668e-05,0.0001658614025426,-1.1052358097801809e-10,-0.0096364021301269,0.0130280256271362,-0.0149688720703125,6,0,0,0
3.1,1788263043411,0.0,0.0,-0.0050339787267148,-0.0042570093646645,0.9074000120162964,0.4202162325382232,0.0,0.0,0.0,0.0,0.0,0.0,-0.0047869533300399,-0.004538937471807,0.930093228816986,0.3672644197940826,-4.463098998731668e-05,0.0001658614025426,-1.1052358097801809e-10,-0.0096364021301269,0.0130280256271362,-0.0149688720703125,6,0,0,0
3.2,1788263043511,0.0,0.0,-0.0050339787267148,-0.0042570093646645,0.9074000120162964,0.4202162325382232,0.0,0.0,0.0,0.0,0.0,0.0,-0.0047911070287227,-0.0045383786782622,0.930093228816986,0.3672644197940826,-3.44620423882638e-05,0.0001430058064316,1.6670101688421074e-06,-0.0062818527221679,-0.0390697121620178,-0.018564224243164,2,0,0,0
3.3,1788263043611,0.0,0.0,-0.0050339787267148,-0.0042570093646645,0.9074000120162964,0.4202162325382232,0.0,0.0,0.0,0.0,0.0,0.0,-0.0047911070287227,-0.0045383786782622,0.930093228816986,0.3672644197940826,-3.44620423882638e-05,0.0001430058064316,1.6670101688421074e-06,-0.0062818527221679,-0.0390697121620178,-0.018564224243164,2,0,0,0
3.4,1788263043711,0.0,0.0,-0.0050339787267148,-0.0042570093646645,0.9074000120162964,0.4202162325382232,0.0,0.0,0.0,0.0,0.0,0.0,-0.0047911070287227,-0.0045383786782622,0.930093228816986,0.3672644197940826,-3.44620423882638e-05,0.0001430058064316,1.6670101688421074e-06,-0.0062818527221679,-0.0390697121620178,-0.018564224243164,2,0,0,0
3.5,1788263043811,0.0,0.0,-0.0050339787267148,-0.0042570093646645,0.9074000120162964,0.4202162325382232,0.0,0.0,0.0,0.0,0.0,0.0,-0.0047911070287227,-0.0045383786782622,0.930093228816986,0.3672644197940826,-3.44620423882638e-05,0.0001430058064316,1.6670101688421074e-06,-0.0062818527221679,-0.0390697121620178,-0.018564224243164,2,0,0,0
3.6,1788263043911,0.0,0.0,-0.0050507681444287,-0.0042581111192703,0.9073999524116516,0.4202162027359009,0.0,0.0,0.0,0.0,0.0,0.0,-0.0048002311959862,-0.0045519731938838,0.9300931096076964,0.3672643899917602,-0.0001302826887894,1.5459384961709007e-05,-3.0091128127678735e-11,0.0163217186927795,-0.0093035101890563,-0.0154008865356445,0,0,0,0
3.7,1788263044011,0.0,0.0,-0.0050507681444287,-0.0042581111192703,0.9073999524116516,0.4202162027359009,0.0,0.0,0.0,0.0,0.0,0.0,-0.0048008877784013,-0.0045577269047498,0.9300931096076964,0.3672643899917602,-0.0001216291675922,-6.300485627990764e-05,1.1486183875531629e-10,-0.0152838230133056,0.0260978937149047,0.0547351837158203,6,0,0,0
3.8,1788263044111,0.0,0.0,-0.0050507681444287,-0.0042581111192703,0.9073999524116516,0.4202162027359009,0.0,0.0,0.0,0.0,0.0,0.0,-0.0047990782186388,-0.0045620827004313,0.9300931096076964,0.3672643899917602,-1.5109986611954478e-05,-6.150908003327456e-05,1.2144367693399676e-11,-0.0059531331062316,0.0005121231079101,0.000594139099121,3,0,0,0
3.9,1788263044211,0.0,0.0,-0.0050507681444287,-0.0042581111192703,0.9073999524116516,0.4202162027359009,0.0,0.0,0.0,0.0,0.0,0.0,-0.0047959815710783,-0.0045614233240485,0.9300931096076964,0.3672643899917602,6.24384141844386e-05,-6.631178053987675e-05,-6.222081908829814e-11,0.0244714021682739,0.0466946363449096,-0.0132827758789062,1,0,0,0
4.0,1788263044311,0.0,0.0,-0.0050507681444287,-0.0042581111192703,0.9073999524116516,0.4202162027359009,0.0,0.0,0.0,0.0,0.0,0.0,-0.0047905379906296,-0.0045572659000754,0.9300931096076964,0.3672643899917602,0.0001565952785494,-7.288496861221706e-05,-1.7821734886871819e-10,-0.0132492184638977,0.0153170228004455,-0.024749755859375,7,0,0,0
4.1,1788263044411,0.0,0.0,-0.0050507681444287,-0.0042581111192703,0.9073999524116516,0.4202162027359009,0.0,0.0,0.0,0.0,0.0,0.0,-0.0047808662056922,-0.0045464448630809,0.9300931096076964,0.3672643899917602,0.0002359441462095,-9.45390317584319e-05,-3.346642308187706e-10,-0.0084484219551086,-0.0090876817703247,0.0282258987426757,3,0,0,0
4.2,1788263044511,0.0,0.0,-0.0050507681444287,-0.0042581111192703,0.9073999524116516,0.4202162027359009,0.0,0.0,0.0,0.0,0.0,0.0,-0.0047479290515184,-0.0045228665694594,0.930100917816162,0.3672454059123993,0.0011158224788796,-0.0001368684467912,0.0002461798414474,0.0036048889160156,-0.0145986676216125,0.0115165710449218,7,0,0,0
4.3,1788263044611,0.0,0.0,-0.0050507681444287,-0.0042581111192703,0.9073999524116516,0.4202162027359009,0.0,0.0,0.0,0.0,0.0,0.0,-0.0046991370618343,-0.0045396890491247,0.930101215839386,0.3672452270984649,0.0003565712485085,-0.001540344537699,0.0002613598778447,0.0009791254997253,0.0239430665969848,-0.0209875106811523,1,0,0,0
4.4,1788263044711,0.0,0.0,-0.0050507681444287,-0.0042581111192703,0.9073999524116516,0.4202162027359009,0.0,0.0,0.0,0.0,0.0,0.0,-0.0046230126172304,-0.004562278278172,0.9301048517227172,0.3672367632389068,-7.90559325332921e-05,-0.0013436251842582,0.0005861575268688,-0.0021579265594482,-0.001251995563507,0.0053615570068359,4,0,0,0
4.5,1788263044811,0.0,0.0,-0.0050507681444287,-0.0042581111192703,0.9073999524116516,0.4202162027359009,0.0,0.0,0.0,0.0,0.0,0.0,-0.0046026352792978,-0.0045805070549249,0.9300981163978576,0.367253839969635,-0.0002867658848556,-0.0007026036592683,-0.0006456752627077,-0.0197912454605102,0.0011683702468872,0.0012531280517578,1,0,0,0
4.6,1788263044911,0.0,0.0,-0.0050507681444287,-0.0042581111192703,0.9073999524116516,0.4202162027359009,0.0,0.0,0.0,0.0,0.0,0.0,-0.0045991353690624,-0.0045981602743268,0.9300981760025024,0.3672536015510559,-0.0006783594210344,0.000281690715482,6.544199008592637e-05,-0.008404791355133,-0.0269530415534973,0.0112257003784179,4,0,0,0
4.7,1788263045011,0.0,0.0,-0.0050507681444287,-0.0042581111192703,0.9073999524116516,0.4202162027359009,0.0,0.0,0.0,0.0,0.0,0.0,-0.0045559052377939,-0.0046350406482815,0.9301055073738098,0.3672350943088531,-0.0009118005740154,-0.0003169731168793,0.00189948608838,0.0038777589797973,0.0099295973777771,0.0088796615600585,1,0,0,0
4.8,1788263045111,0.0,0.0,-0.0050507681444287,-0.0042581111192703,0.9073999524116516,0.4202162027359009,0.0,0.0,0.0,0.0,0.0,0.0,-0.004589925520122,-0.0046343840658664,0.9301034212112428,0.3672397434711456,-0.0001018855858071,0.0011264094245623,-0.0001054287765873,-0.0042364597320556,-0.0038173794746398,-0.0076236724853515,1,0,0,0
4.9,1788263045211,0.0,0.0,-0.0050507681444287,-0.0042581111192703,0.9073999524116516,0.4202162027359009,0.0,0.0,0.0,0.0,0.0,0.0,-0.0045702550560235,-0.0046513369306921,0.9301046133041382,0.3672370016574859,0.0002228586831317,-0.0010223939281439,-0.0011806884483178,-0.0067164301872253,-0.0177360773086547,-0.0127830505371093,1,0,0,0
5.0,1788263045311,0.0,0.0,-0.0050507681444287,-0.0042581111192703,0.9073999524116516,0.4202162027359009,0.0,0.0,0.0,0.0,0.0,0.0,-0.0045407451689243,-0.0046449350193142,0.9301022291183472,0.367243230342865,-0.0006222486685356,0.0006299158174871,0.0006019681123341,-0.0158805847167968,-0.024269163608551,0.0329351425170898,4,0,0,0
5.1,1788263045411,0.0,0.0,-0.0050507681444287,-0.0042581111192703,0.9073999524116516,0.4202162027359009,0.0,0.0,0.0,0.0,0.0,0.0,-0.0045658014714717,-0.0046154418960213,0.930104434490204,0.3672378659248352,0.0002845117353996,0.0001055795532886,0.0002506339982562,-0.016802966594696,-0.0208116173744201,-0.000619888305664,4,0,0,0
5.2,1788263045511,0.0,0.0,-0.0050507681444287,-0.0042581111192703,0.9073999524116516,0.4202162027359009,0.0,0.0,0.0,0.0,0.0,0.0,-0.0045870607718825,-0.0046151997521519,0.930111527442932,0.3672197163105011,-9.462267713899744e-05,0.0002522105842841,-3.812253890922994e-10,-0.0113009810447692,-0.0046213865280151,-0.0075578689575195,0,0,0,0
5.3,1788263045611,0.0,0.0,-0.0050507681444287,-0.0042581111192703,0.9073999524116516,0.4202162027359009,0.0,0.0,0.0,0.0,0.0,0.0,-0.0046011852100491,-0.0046121627092361,0.9301114082336426,0.3672196865081787,5.931693812233648e-06,0.0002149695527135,1.911967274187194e-11,0.00281423330307,-0.0235677361488342,0.0159101486206054,2,0,0,0
5.4,1788263045711,0.0,0.0,-0.0048618004657328,-0.0043378379195928,0.907420814037323,0.4201726019382477,0.0001752005817166,-0.0002039801917761,9.84319800834104e-07,0.000284630456008,-0.0084283575415611,0.0019359305733814,-0.0046086143702268,-0.0046066381037235,0.9301114082336426,0.3672196865081787,8.369573831581416e-05,0.0001835115475036,1.961612612235575e-06,-0.0258395075798034,0.011817991733551,-0.008275032043457,6,0,0,0
5.5,1788263045811,0.0,0.0,-0.0048673627898097,-0.004331792704761,0.9074207544326782,0.4201725423336029,0.0,0.0,0.0,0.000123391568195,0.0002974174858536,2.336408442715765e-06,-0.0046145487576723,-0.0045930864289402,0.9301114082336426,0.3672196865081787,0.0002144693383961,0.0001749667316364,1.999108951990225e-06,-0.0022743940353393,-0.021528422832489,-0.0151195526123046,5,0,0,0
5.6,1788263045911,0.0,0.0,-0.0048706913366913,-0.0043223854154348,0.9074208736419678,0.4201725423336029,0.0,0.0,0.0,0.0,2.2199296623170998e-08,0.0,-0.0046191038563847,-0.004582236520946,0.9301114082336426,0.3672196865081787,0.0001634726238959,0.0001775292363375,1.926843226894957e-06,0.01221764087677,0.0109029412269592,-0.004408836364746,3,0,0,0
5.7,1788263046011,0.0,0.0,-0.0048773596063256,-0.0043031186796724,0.9074209928512572,0.4201725423336029,-3.50286971096325e-07,2.971341719383963e-07,1.7133363770966575e-09,0.0001965286646736,0.0002037135564023,2.6326313218305586e-06,-0.0046230051666498,-0.0045727686956524,0.930111527442932,0.3672197163105011,0.0001792427896271,0.000161437031399,2.2304683280766586e-06,-0.0007606744766235,-0.0127880573272705,0.0331907272338867,2,0,0,0
5.8,1788263046111,0.0,0.0,-0.0048795547336339,-0.004295147024095,0.907421052455902,0.4201723039150238,4.721899880699925e-07,-4.005396776822615e-07,-2.2977127122281663e-09,0.0002504776348359,0.0002119675045832,1.1829369213955944e-05,-0.0046252626925706,-0.004563458263874,0.930111527442932,0.3672197163105011,0.000106845240868,6.166300919635549e-05,1.9902312351526776e-06,0.0062404870986938,-0.0013272166252136,-0.0276079177856445,0,0,0,0
5.9,1788263046211,0.0,0.0,-0.0048795547336339,-0.004295147024095,0.907421052455902,0.4201723039150238,0.0,0.0,0.0,0.0,0.0,0.0,-0.0046272557228803,-0.0045585948973894,0.930111527442932,0.3672197163105011,6.568703137718058e-05,0.0001048806872393,1.0861765985394282e-10,-0.0058730840682983,-0.0245758891105651,0.0006828308105468,1,0,0,0
6.0,1788263046311,0.0,0.0,-0.0048795547336339,-0.004295147024095,0.907421052455902,0.4201723039150238,0.0,0.0,0.0,0.0,0.0,0.0,-0.0046341894194483,-0.0045541794970631,0.930111527442932,0.3672197163105011,2.6414787811911063e-05,0.0001983589347659,7.869760152912092e-11,0.014577031135559,-0.0404714941978454,0.0076971054077148,2,0,0,0
6.1,1788263046411,0.0,0.0,-0.0048795547336339,-0.004295147024095,0.907421052455902,0.4201723039150238,0.0,0.0,0.0,0.0,0.0,0.0,-0.0046423058956861,-0.0045517170801758,0.930111527442932,0.3672197163105011,-3.224993082556281e-05,0.0001852662211106,-8.954961668366148e-11,-0.0032169818878173,0.0085566043853759,-0.0133991241455078,5,0,0,0
6.2,1788263046511,0.0,0.0,-0.0048795547336339,-0.004295147024095,0.907421052455902,0.4201723039150238,0.0,0.0,0.0,0.0,0.0,0.0,-0.0046525858342647,-0.0045525068417191,0.930111527442932,0.3672197163105011,-9.939222639664693e-05,0.0001428216216646,1.9326594613738007e-06,0.0073351263999938,-0.0178525447845459,0.005035400390625,5,0,0,0
6.3,1788263046611,0.0,0.0,-0.0048795547336339,-0.004295147024095,0.907421052455902,0.4201723039150238,0.0,0.0,0.0,0.0,0.0,0.0,-0.0046611418947577,-0.0045566437765955,0.9301114082336426,0.3672196865081787,-0.0001759117444134,0.0001378952101897,-3.64277306206064e-10,-0.0017028450965881,-0.0119136571884155,0.0276145935058593,0,0,0,0
6.4,1788263046711,0.0,0.0,-0.0049208058044314,-0.0042834519408643,0.9074208736419678,0.4201723337173462,-1.2012055801831136e-06,1.4012893628623424e-06,1.0368155438967937e-08,-0.0002630535454954,0.0016574003966525,5.832066563016269e-06,-0.0046720812097191,-0.0045630680397152,0.930111289024353,0.3672196567058563,-0.0001495649277607,0.0001398577513095,-2.879886777563131e-10,-0.0086018443107604,-0.0208750963211059,-0.0075407028198242,0,0,0,0
6.5,1788263046811,0.0,0.0,-0.0049208058044314,-0.0042834519408643,0.9074208736419678,0.4201723337173462,0.0,0.0,0.0,0.0,0.0,0.0,-0.0046803690493106,-0.0045647118240594,0.930111289024353,0.3672196567058563,-7.568339223972688e-05,0.0001739286684584,1.991471472421869e-06,0.0043114423751831,0.0144258141517639,0.0183687210083007,3,0,0,0
6.6,1788263046911,0.0,0.0,-0.0049208058044314,-0.0042834519408643,0.9074208736419678,0.4201723337173462,0.0,0.0,0.0,0.0,0.0,0.0,-0.0046872738748788,-0.0045624440535902,0.930111289024353,0.3672196567058563,3.873488198457911e-06,0.0001416169287699,1.8780616616000235e-06,0.0041399598121643,-0.0275058150291442,0.0358209609985351,0,0,0,0
6.7,1788263047011,0.0,0.0,-0.0049208058044314,-0.0042834519408643,0.9074208736419678,0.4201723337173462,0.0,0.0,0.0,0.0,0.0,0.0,-0.0046944553032517,-0.004562322050333,0.930111289024353,0.3672196567058563,-8.417096600725868e-05,9.82617038785596e-05,1.9906161348068344e-06,-0.0121621489524841,0.005749762058258,0.0145864486694335,0,0,0,0
6.8,1788263047111,0.0,0.0,-0.0049208058044314,-0.0042834519408643,0.9074208736419678,0.4201723337173462,0.0,0.0,0.0,0.0,0.0,0.0,-0.004700768738985,-0.0045655649155378,0.9301111698150636,0.3672196269035339,-0.0001373330715641,0.0001044819177012,-2.1864745430480714e-10,0.0133248567581176,-0.0007027387619018,-0.0180110931396484,1,0,0,0
6.9,1788263047211,0.0,0.0,-0.0049208058044314,-0.0042834519408643,0.9074208736419678,0.4201723337173462,0.0,0.0,0.0,0.0,0.0,0.0,-0.0047076707705855,-0.0045694652944803,0.9301111698150636,0.3672196269035339,-0.0001266090033122,0.0001239396298666,1.986275081551304e-06,-0.013555884361267,-0.0046605467796325,0.0246248245239257,3,0,0,0
7.0,1788263047311,0.0,0.0,-0.0049208058044314,-0.0042834519408643,0.9074208736419678,0.4201723337173462,0.0,0.0,0.0,0.0,0.0,0.0,-0.0047204531729221,-0.0045717544853687,0.930111050605774,0.3672195971012115,-0.000134255188857,0.0002302023816614,-4.4668715288952966e-10,-0.0087508559226989,-0.0131285786628723,-0.0113964080810546,1,0,0,0
7.1,1788263047411,0.0,0.0,-0.0049786968156695,-0.0042925779707729,0.907420575618744,0.4201722741127014,-2.134304649942392e-06,2.300042830321216e-06,1.6014699710124357e-08,-0.001634127809666,0.0024405617732554,7.467845080100233e-06,-0.0047330809757113,-0.0045743528753519,0.930111050605774,0.3672195971012115,-0.000188913369637,0.0002473703063501,-6.347009263226218e-10,-0.0213745832443237,-0.0217822194099426,0.0067825317382812,1,0,0,0
7.2,1788263047511,0.0,0.0,-0.0049937078729271,-0.0042959512211382,0.9074205160140992,0.4201721549034118,-4.843256869463324e-07,4.1083453485500646e-07,2.287779052662981e-09,-0.000221510315896,0.0002454737550579,-3.6400188037077896e-06,-0.0047434857115149,-0.0045794453471899,0.9301109313964844,0.3672195672988891,-0.0001930149138847,0.0001503644932292,1.989089263453972e-06,-0.0018801093101501,0.003771424293518,-0.0157785415649414,0,0,0,0
7.3,1788263047611,0.0,0.0,-0.0050040632486343,-0.0043013454414904,0.907420575618744,0.420171707868576,0.0,0.0,0.0,-0.000145686630276,0.0001050717983162,7.885775630711578e-06,-0.0047512659803032,-0.0045844363048672,0.9301109313964844,0.3672195672988891,-0.0001440982846634,0.0001045471696471,-2.3572575581755707e-10,0.021148681640625,0.0267574191093444,0.0096492767333984,0,0,0,0
7.4,1788263047711,0.0,0.0,-0.0050110211595892,-0.0043050665408372,0.907420575618744,0.4201716780662536,-4.766648574355161e-07,4.043367696278149e-07,2.2513776083298603e-09,-7.999862282304093e-05,6.293535989243537e-05,0.0,-0.0047554951161146,-0.004587166942656,0.9301108121871948,0.3672195374965668,-2.8599544421317352e-05,8.505091759391288e-06,-3.635732494983021e-12,-0.0155752301216125,0.0168181061744689,0.0184144973754882,0,0,0,0
7.5,1788263047811,0.0,0.0,-0.0050116931088268,-0.0043057091534137,0.907420575618744,0.4201716780662536,0.0,0.0,0.0,1.2106786471122175e-06,-3.2129548799275653e-06,0.0,-0.0047547416761517,-0.0045865317806601,0.9301108121871948,0.3672195374965668,2.7632957350868616e-05,-1.5179537367880328e-05,-6.305123731310354e-12,0.0167421102523803,-0.0353997945785522,-0.0052862167358398,4,0,0,0
7.6,1788263047911,0.0,0.0,-0.0050105904228985,-0.0043055964633822,0.907420575618744,0.4201716780662536,0.0,0.0,0.0,-5.991235411784146e-06,-2.584418143669609e-05,0.0,-0.0047534285113215,-0.0045882351696491,0.9301108121871948,0.3672195374965668,-2.8658957306340023e-05,-4.266169855018552e-05,1.829649869016392e-11,-0.0067953467369079,0.0010223388671875,-0.0145978927612304,0,0,0,0
7.7,1788263048011,0.0,0.0,-0.0050094528123736,-0.0043079429306089,0.9074206352233888,0.4201715588569641,5.925759563748984e-07,-5.026596514420298e-07,-2.8015589960565542e-09,-5.706165393348783e-05,-5.731680721510202e-05,7.4226541073585395e-06,-0.0047529200091958,-0.0045931292697787,0.9301108121871948,0.3672195374965668,-0.0001369693925065,-5.36915073672463e-05,-1.9930780555733123e-06,-0.0284302234649658,-0.0033538341522216,-0.0204896926879882,1,0,0,0
7.8,1788263048111,0.0,0.0,-0.005010537803173,-0.0043162759393453,0.907420575618744,0.4201715588569641,0.0,0.0,0.0,-0.0001866670354502,-5.062224590801634e-05,-8.523608698851604e-07,-0.0047547705471515,-0.0046020308509469,0.9301108121871948,0.3672195374965668,-0.0002193349717236,-2.8149468030932614e-05,9.713115082551291e-11,0.0038908123970031,0.0171065926551818,0.0015420913696289,0,0,0,0
7.9,1788263048211,0.0,0.0,-0.0050135785713791,-0.0043255556374788,0.9074203968048096,0.4201718270778656,-5.946834050522938e-07,5.044469338966281e-07,2.831749673950677e-09,-0.0002007053699344,-1.9553759557311423e-05,-5.959240752417827e-06,-0.0047610038891434,-0.0046183820813894,0.9301106929779052,0.3672195076942444,-0.000320155278483,2.43892458859886e-05,-1.1747812826403698e-10,0.0240958333015441,-0.0159326791763305,0.0063676834106445,0,0,0,0
8.0,1788263048311,0.0,0.0,-0.0050217360258102,-0.0043412167578935,0.90742027759552,0.420171856880188,-4.74954361114133e-07,4.0288514336543123e-07,2.271258075571345e-09,-0.0004063381929881,3.3390530006727204e-05,-4.759451712743612e-06,-0.004768299870193,-0.0046332338824868,0.9301105737686156,0.367219477891922,-0.0003504900584591,2.919762411893353e-05,-1.6076150703349618e-10,0.0116000175476074,-0.0045689940452575,-0.002903938293457,0,0,0,0
8.1,1788263048411,0.0,0.0,-0.0050306841731071,-0.0043567414395511,0.9074201583862304,0.4201717376708984,0.0,0.0,0.0,-0.0002794354804791,2.8755986932083036e-05,0.0,-0.0047748126089572,-0.004645999521017,0.9301104545593262,0.3672194480895996,-0.000293164479802,1.7772234178994774e-05,-1.985110774890484e-06,-0.0136321187019348,0.0059031248092651,-0.0060787200927734,1,0,0,0
8.2,1788263048511,0.0,0.0,-0.005036115180701,-0.0043667843565344,0.9074201583862304,0.420171707868576,0.0,0.0,0.0,-0.0002600081206765,8.271923434222117e-06,0.0,-0.0047782463952898,-0.0046557309105992,0.9301104545593262,0.3672194480895996,-0.0002081746680861,-2.2887663955117157e-05,7.105619258161191e-11,0.020175278186798,-0.0142666101455688,-0.0074386596679687,0,0,0,0
8.3,1788263048611,0.0,0.0,-0.0050393026322126,-0.0043776337988674,0.9074200391769408,0.4201717376708984,0.0,0.0,0.0,-0.0001379551686113,-4.080725921085104e-05,0.0,-0.0047785369679331,-0.0046659875661134,0.9301103353500366,0.3672194182872772,-0.0001183757872708,-6.638704889060665e-05,1.1818375806733463e-10,-0.0109737515449523,-0.0061383843421936,0.0386171340942382,2,0,0,0
8.4,1788263048711,0.0,0.0,-0.0050392025150358,-0.0043836189433932,0.907419979572296,0.420171707868576,0.0,0.0,0.0,-6.193889566930011e-05,-3.891945743816905e-05,0.0,-0.0047766389325261,-0.004668703302741,0.9301103353500366,0.3672194182872772,2.4536983419793765e-06,-6.951109228230883e-05,-2.557121857374024e-12,-0.0036701560020446,0.0291270017623901,-0.0011816024780273,1,0,0,0
8.5,1788263048811,0.0,0.0,-0.005034789443016,-0.0043848194181919,0.9074200391769408,0.4201717674732208,0.0,0.0,0.0,8.586822514189407e-05,-8.324743248522282e-05,0.0,-0.0047708330675959,-0.0046649249270558,0.9301104545593262,0.3672194480895996,0.0001727924616904,-9.330385744875096e-05,-2.5812453455432757e-10,-0.0093002319335937,-0.0100247859954833,-0.0124025344848632,0,0,0,0
8.6,1788263048911,0.0,0.0,-0.0050246492028236,-0.0043762410059571,0.9074201583862304,0.4201717674732208,0.0,0.0,0.0,0.0002850148885045,-0.0001247974432772,-8.900196348804457e-07,-0.0047586150467395,-0.0046531176194548,0.9301104545593262,0.3672194480895996,0.0002784111973679,-0.0001444096454028,-1.989032060928765e-06,0.0207837224006652,0.0107155442237854,-0.0293550491333007,1,0,0,0
8.7,1788263049011,0.0,0.0,-0.0050144763663411,-0.0043685752898454,0.9074201583862304,0.420171856880188,0.0,0.0,0.0,0.0001998169755097,-0.000122666140669,-1.3858134479960429e-06,-0.004745215177536,-0.0046429093927145,0.9301105737686156,0.367219477891922,0.0003367922568241,-0.0001982634744753,-1.0702156429174191e-09,0.0054644346237182,0.0039647221565246,0.023101806640625,2,0,0,0
8.8,1788263049111,0.0,0.0,-0.0050009991973638,-0.0043593728914856,0.9074203968048096,0.4201717674732208,4.655983420306072e-07,-3.949483687764034e-07,-2.265943460038002e-09,0.0002256300795124,-0.0001322250609518,4.665694632421946e-06,-0.0047193877398967,-0.0046255318447947,0.9301108121871948,0.3672196269035339,0.0004621182502907,-0.0003563414532362,-7.985606702868089e-06,-0.0156839489936828,-0.0097526907920837,0.0083465576171875,1,0,0,0
8.9,1788263049211,0.0,0.0,-0.0049700308591127,-0.004342065192759,0.9074205160140992,0.4201719462871551,0.0,0.0,0.0,0.0003746720030903,-0.0002932655334006,-9.65532876762154e-07,-0.0046966969966888,-0.0046120360493659,0.9301108121871948,0.3672198951244354,0.0004669602408875,-0.0003538557698223,-5.981554327456933e-06,0.0004352331161499,0.0080015659332275,-0.0188875198364257,1,0,0,0
9.0,1788263049311,0.0,0.0,-0.0049422923475503,-0.0043272739276289,0.9074206352233888,0.4201722145080566,0.0,0.0,0.0,0.000758395937737,-0.0005673610721714,-8.722341590328142e-06,-0.0046761436387896,-0.0045990105718374,0.9301109313964844,0.367220014333725,0.000475279849422,-0.0003348696809149,-2.2352867492798865e-06,-0.006742775440216,0.0077625513076782,0.0130929946899414,7,0,0,0
9.1,1788263049411,0.0,0.0,-0.0049251662567257,-0.0043172761797904,0.9074206352233888,0.4201723337173462,5.655279730134915e-07,-4.797145463496034e-07,-2.7422355027090393e-09,0.0002716211311053,-0.00018535318668,0.0,-0.0046584401279687,-0.0046135252341628,0.9301126599311828,0.3672157227993011,-0.0008465700289819,-0.0007260257133746,0.0002346851994209,0.0129845738410949,-0.021422803401947,0.0209426879882812,49,291,2806,8550
9.2,1788263049511,0.8732394576072693,3.323943614959717,-0.0047902227379381,-0.0044093108735978,0.9077417254447936,0.4194790720939636,0.0030185081034935,-0.0026477885539624,9.467124672436696e-07,-0.0010686352616176,-0.0063929869793355,0.0304361544549465,-0.0039827842265367,-0.0046517783775925,0.9332772493362428,0.359104573726654,0.0062133745638738,-0.0255732255369435,0.3092608506808655,1.4067906141281128,-0.1578319668769836,-0.1226396560668945,85,304,6982,14354
9.3,1788263049611,2.197183132171631,5.7183098793029785,-0.0039663296192884,-0.0044867997057735,0.9131781458854676,0.4075165390968323,0.0816038701032677,-0.0044392923645653,3.284259436163211e-05,0.0019873748533427,-0.0201355256140232,0.2714943885803222,-0.0006571821868419,-0.0060139298439025,0.9377051591873168,0.3473793864250183,-0.012643969475183,-0.1745890320773356,0.3048745265119026,0.4320700168609619,0.141256034374237,0.2656364440917969,51,461,6893,23529
9.4,1788263049711,3.126760482788086,7.492957592010498,0.0066562481224536,-0.0091214478015899,0.9218711256980896,0.3873321712017059,0.1453187357768866,-0.0058162988736088,0.0006154251933619,0.0115935876965522,-0.287618339061737,0.5117553472518921,0.0185988303273916,-0.0119044482707977,0.9481229782104492,0.3171358108520508,0.041947791770367,-0.3373958826573315,0.5391752915503137,-0.3114713430404663,-0.5698941946029663,-0.8156681060791016,21,376,7998,26014
9.5,1788263049811,3.2957746982574463,6.309859275817871,0.0178114846348762,-0.0121258851140737,0.93137389421463,0.3634259104728699,0.1349026165708156,-0.0032386368550874,0.0001899919453474,0.0603487603366375,-0.0355945266783237,0.5163405537605286,0.016072055324912,-0.0107580088078975,0.9535754323005676,0.3005328774452209,-0.0034477256543907,0.0863152656987885,0.2520040805806313,0.546971321105957,-0.3093763589859009,-0.4646377563476562,24,390,8203,22927
9.6,1788263049911,1.8591549396514893,4.169013977050781,0.0123688923195004,-0.0101049877703189,0.9368879795074464,0.3492647707462311,0.1557557562765021,0.0052068471829809,-0.000241552772179,0.0189354997128248,0.1470482945442199,0.2765011489391327,0.0061893817037343,-0.0069830091670155,0.9578856825828552,0.2869983315467834,0.015288326469287,0.3338643755937334,0.3502852708716289,0.7593309283256531,1.892444968223572,0.6734037399291992,42,155,2569,12865
9.7,1788263050011,0.9295774698257446,1.9154930114746092,-0.0041407654061913,-0.0037340526469051,0.942067563533783,0.3353766798973083,0.0892237356532229,-0.0005087468214263,-0.0007860577847726,0.0013113722670823,0.330297440290451,0.2116676419973373,-0.0037378370761871,-0.0041651464998722,0.9602476358413696,0.2790936827659607,-0.0080404652419454,-0.0508320010284153,0.122915018932163,-1.4488600492477417,0.7794034481048584,1.7152414321899414,34,6,0,3451
9.8,1788263050111,0.0,0.0,-0.0041804052889347,-0.0039015505462884,0.943324625492096,0.3318223655223846,0.014291305964806,-0.0003929716044106,-1.81184460316004e-06,-0.0033149807713925,-0.0008113177609629,0.0563374832272529,-0.0040371315553784,-0.0041810534894466,0.9606912732124328,0.2775579988956451,0.000497473540665,-0.0058169943879856,0.0081339454054543,0.2212440967559814,0.1737479567527771,-0.003453254699707,3,0,0,0
9.9,1788263050211,0.0,0.0,-0.0042976946569979,-0.0039315866306424,0.9431158900260924,0.3324132263660431,0.000235463888018,-0.0002273052183747,-1.0418861214110084e-06,0.0,0.0,0.0,-0.0040224501863121,-0.0041610859334468,0.9606789350509644,0.2776011824607849,0.0012891053964756,-0.0005401692913439,-0.0009967939330862,-0.0357218980789184,0.0296725630760192,-0.0131826400756835,1,0,0,0
10.0,1788263050311,0.0,0.0,-0.0042628808878362,-0.0039411163888871,0.9431109428405762,0.3324275910854339,0.0,0.0,0.0,0.0,0.0,0.0,-0.004031540825963,-0.0041759153828024,0.9606819152832032,0.2775907218456268,-0.0001373994178478,-0.0007268711470268,0.0002389524761655,-0.0015584826469421,0.0317317247390747,-0.0039854049682617,0,0,0,0
10.1,1788263050411,0.0,0.0,-0.0042584207840263,-0.003937286324799,0.943107008934021,0.3324386477470398,-2.1147095487565974e-05,2.4635795167847268e-05,1.3747591203932986e-07,-3.344348442624323e-06,-0.0005965581513009,-0.0002519302652217,-0.0039735622704029,-0.0042177913710474,0.9606837034225464,0.2775847017765045,-0.00088094581445,-0.0018596237794714,0.0007835832984107,0.0112140774726867,-0.0166196823120117,0.0424518585205078,3,0,0,0
10.2,1788263050511,0.0,0.0,-0.0042064734734594,-0.0039783152751624,0.9431125521659852,0.332423061132431,5.668282512839115e-05,-6.576212790043437e-05,-3.67697478709295e-07,-0.000839781074319,-0.0024530899245291,0.0006329708849079,-0.0039650071412324,-0.0041906908154487,0.9606861472129822,0.2775768339633941,0.0009275842910919,0.0001606337863644,0.0002488593194855,-0.0104366540908813,0.0294194817543029,0.057016372680664,6,0,0,0
10.3,1788263050611,0.0,0.0,-0.0041996538639068,-0.0039555123075842,0.9431157112121582,0.3324147462844848,0.0,0.0,0.0,0.0,0.0,0.0,-0.0039853202179074,-0.0041773980483412,0.960689902305603,0.2775638103485107,0.0005272494450666,0.0024329816330306,7.687762530760203e-05,0.0063757896423339,-0.0010257363319396,0.0245685577392578,2,0,0,0
10.4,1788263050711,0.0,0.0,-0.004208299331367,-0.0039526266045868,0.943119466304779,0.3324039876461029,0.0,0.0,0.0,0.0,0.0,0.0,-0.0039811991155147,-0.0041760355234146,0.9606923460960388,0.2775550782680511,-0.0003124724972184,0.0010494766121036,-0.0001093821106951,0.0081238746643066,-0.031581699848175,0.0207719802856445,0,0,0,0
10.5,1788263050811,0.0,0.0,-0.0042337286286056,-0.0039298399351537,0.9431208372116088,0.3324000239372253,2.208559186887734e-05,-2.589498553277205e-05,-1.475289678756976e-07,0.0001084410396288,0.0011988070327788,0.0002708758693188,-0.0040041357278823,-0.0041812993586063,0.9606915712356568,0.2775574326515198,-0.0011396391728843,-0.0006875903609945,-0.0001190699957964,0.0065070986747741,0.0042964220046997,0.0587358474731445,29,114,1760,3307
10.6,1788263050911,2.197183132171631,3.521126747131348,-0.0034095190931111,-0.0040534096769988,0.943580150604248,0.3311019539833069,0.0105493548015023,-0.0044327556769595,1.782772703389456e-06,0.0061690709553658,-0.0331235229969024,0.0551024749875068,0.0001702439039945,-0.0050052236765623,0.9615212082862854,0.2746849656105041,0.008622205116433,-0.2138261879982964,0.0806706892495118,0.70382159948349,0.4767632484436035,0.5659246444702148,61,537,7879,18601
10.7,1788263051011,2.7042253017425537,5.746479034423828,0.0140737490728497,-0.0102461464703083,0.9443067908287048,0.328605592250824,0.1116499954959988,0.0054527628923526,0.0009464372688299,-0.0114274127408862,-0.5982719659805298,0.034302644431591,0.0215239841490983,-0.0091736791655421,0.9629837274551392,0.2685422301292419,0.0387397499918535,-0.0253966997995495,0.1600096653324869,1.668558120727539,0.1531081199645996,0.4530267715454101,167,594,13248,26920
10.8,1788263051111,3.859154939651489,6.591549396514893,0.0219102706760168,-0.0104102417826652,0.9463492631912231,0.3222337663173675,0.1271121443858435,-0.0033490322492867,3.7546935413547045e-05,0.0216773133724927,-0.0398319140076637,0.1021978557109832,0.0219110734760761,-0.0088431909680366,0.9639347195625304,0.2650879323482513,-0.0043887257925338,0.0820960909744536,0.1000415061132141,0.2662243843078613,0.2970977425575256,-0.5257091522216797,33,534,10171,27072
10.9,1788263051211,4.450704097747803,6.676056385040283,0.0158384218811988,-0.0099972020834684,0.9488409757614136,0.3151983618736267,0.170529864646673,0.0110559274849066,-0.0005230856291146,-0.0525362007319927,0.1819678694009781,0.1848440915346145,0.012469720095396,-0.0078151114284992,0.9666249752044678,0.2557725608348846,0.0228606790598408,0.2230278906796232,0.2552362931749685,-0.6801466941833496,-0.1126155853271484,0.2552566528320312,41,348,7886,22891
11.0,1788263051311,3.2676055431365967,6.2253522872924805,0.0151803288608789,-0.0096346940845251,0.9527907967567444,0.3030947744846344,0.1753644445331394,0.0100392119390027,0.0002599430422765,0.0071107712574303,-0.1451881229877472,0.2621853351593017,0.014949626289308,-0.0085064712911844,0.9710370898246764,0.2383088916540146,0.0036862987723235,0.1035312657446009,0.3636150325672926,0.6421877145767212,-0.3642083406448364,0.4355497360229492,34,377,10405,23129
11.1,1788263051411,3.633802890777588,6.507042407989502,0.0142040234059095,-0.0091841984540224,0.9572743773460388,0.2886862754821777,0.1643156297944719,0.0012171211143905,-0.0001939194451942,0.0093531422317028,0.0382919907569885,0.3122056126594543,0.0163187254220247,-0.008938668295741,0.9743879437446594,0.2241025120019912,-0.0025017741403573,-0.0493449680441283,0.3415362456106171,0.166374385356903,0.0456111431121826,-0.1452350616455078,7,427,7592,24577
11.2,1788263051511,3.690140962600708,6.309859275817871,0.0151384528726339,-0.0094764437526464,0.9621001482009888,0.2721110880374908,0.161696246676144,0.006492814533594,-5.087613597307126e-05,0.0135035365819931,0.0243173968046903,0.3549517691135406,0.0153285739943385,-0.0083474731072783,0.977970540523529,0.2080121040344238,0.013651910177056,0.0128372487057867,0.3878171781556722,-0.0498247742652893,0.249146282672882,0.8275032043457031,24,364,10011,23219
11.3,1788263051611,3.88732385635376,6.394366264343262,0.0154923237860202,-0.0093684028834104,0.9667190313339232,0.2551990151405334,0.1659887040369227,0.0077161090877402,4.920140643610416e-05,0.0080807525664567,-0.0300313811749219,0.323108971118927,0.0160089451819658,-0.0080801416188478,0.9818062782287598,0.189036875963211,0.0203917579628455,0.0074144539694828,0.3141373911674272,0.0382038950920105,-0.0230801701545715,0.0200223922729492,26,371,9747,22464
11.4,1788263051711,4.253520965576172,5.943662166595459,0.0155629273504018,-0.008716613985598,0.9709209203720092,0.2387350052595138,0.1762272048137361,-0.0016000375378616,1.2748188483282642e-05,0.0174438506364822,0.0002939490077551,0.2977912724018097,0.0162962395697832,-0.0076427524909377,0.9839087724685668,0.1777627766132354,0.0166918877894321,-0.0115761491347122,0.1996791495217875,0.0168671011924743,0.1722791194915771,-0.1995468139648437,26,386,11352,21278
11.5,1788263051811,4.253520965576172,5.88732385635376,0.0154743362218141,-0.0082396296784281,0.973090887069702,0.2297538816928863,0.1827309102146336,-0.0021719805435051,-4.955901048119041e-05,0.0137828104197978,0.0124498382210731,0.1957696378231048,0.0160945393145084,-0.0072745559737086,0.985343337059021,0.1696663349866867,0.0114601810736385,-0.0084211417865912,0.1801834167530918,-0.1117968559265136,0.1379647254943847,0.0740156173706054,15,376,10677,21777
11.6,1788263051911,4.309859275817871,5.88732385635376,0.014854596927762,-0.0075949467718601,0.9749915599822998,0.221614807844162,0.1731535914147676,0.0005379141911205,-9.858342272393705e-05,0.0175331849604845,0.0352670438587665,0.1759440749883651,0.015345917083323,-0.0063474215567111,0.9870312809944152,0.1596666425466537,0.0184392136259193,-0.0225491651934583,0.160672294054201,-0.1704515814781189,0.1530661582946777,0.0227518081665039,9,365,10226,21981
11.7,1788263052011,4.704225540161133,5.690140724182129,0.014731771312654,-0.0069514331407845,0.9768183827400208,0.2134491801261901,0.1721626588371995,0.0029159633758023,3.0724302893823825e-05,0.0181699600070714,0.0025282753631472,0.1758886128664016,0.0148967402055859,-0.0057874228805303,0.9883317351341248,0.1514763385057449,0.0120983033356921,0.0082225639995856,0.1712249268810205,0.1363142132759094,-0.0718429088592529,0.1195564270019531,29,361,11289,20477
11.8,1788263052111,4.478873252868652,5.549295902252197,0.0131922122091054,-0.0060374438762664,0.97872394323349,0.2046681642532348,0.1609779791007551,0.0016943977861245,-0.0001569948757787,0.0138724688440561,0.0558072924613952,0.1416960805654525,0.0134098678827285,-0.0050509991124272,0.9891911149024964,0.1459300816059112,0.0138930142794438,0.001497891066199,0.107825085620142,-0.0111696720123291,-0.0522372126579284,-0.0187959671020507,29,330,12532,20602
11.9,1788263052211,4.478873252868652,5.633802890777588,0.0126337828114628,-0.0054804868996143,0.979786217212677,0.1995727270841598,0.1806997773917351,-0.0014768543680523,-3.9140586822959394e-05,0.0095028802752494,0.0193033814430236,0.0982677191495895,0.0119447410106658,-0.0042081223800778,0.9900598526000975,0.1400755792856216,0.0135352428534873,0.0550966461314298,0.1001858175861675,0.0420076847076416,-0.1847941875457763,0.1933355331420898,16,341,12122,20284
12.0,1788263052311,4.507042407989502,5.605633735656738,0.0112962489947676,-0.0048914859071373,0.9805025458335876,0.1961206048727035,0.1728050571179742,0.0083267288888349,-0.0001075302822313,-0.0004427973181009,0.0336649678647518,0.0566787831485271,0.0124779073521494,-0.0047258185222744,0.9904510974884032,0.1372174322605133,0.0030659701681399,-0.0306171088857211,0.080381761214439,-0.1171125769615173,0.0343744158744812,0.2356023788452148,12,341,11773,20738
12.1,1788263052411,4.366197109222412,5.464788913726807,0.0133689176291227,-0.0055185863748192,0.9813642501831056,0.1916116625070572,0.1737062087084642,0.0052257740328541,0.0001792492386567,0.0065764915198087,-0.0378743037581443,0.0788396149873733,0.0129850236698985,-0.0046382704749703,0.9908979535102844,0.1339077651500702,0.0016517545745084,0.0454980358480086,0.0656426807948524,0.1569824814796447,-0.042112112045288,0.5836553573608398,68,418,12924,21391
12.2,1788263052511,4.3380279541015625,5.802816867828369,0.0134717570617794,-0.0058690002188086,0.9818840622901917,0.1889119297266006,0.1769883038519478,0.0036258629859707,0.0001034829112251,-0.0113398963585495,-0.0312983356416225,0.0643006265163421,0.013733965344727,-0.0053573995828628,0.9914175271987916,0.1298995912075042,-0.0131378344323437,0.002193860741336,0.1127661090324908,-0.1639410257339477,0.1211189627647399,0.1864910125732422,9,426,9990,22932
12.3,1788263052611,4.450704097747803,5.577464580535889,0.0140559338033199,-0.0060788188129663,0.9827655553817748,0.1842212080955505,0.1816292189005032,0.0083166267641724,4.722987055591572e-05,0.0104055609554052,-0.0327917523682117,0.1357455998659134,0.0144255831837654,-0.0056065451353788,0.9921202063560486,0.1243301331996917,-0.0125117507774415,0.026231939573391,0.0939708117184836,0.1123328208923339,-0.0894613265991211,0.6631069183349609,32,375,12229,21017
12.4,1788263052711,4.704225540161133,5.577464580535889,0.0141961304470896,-0.0067744124680757,0.9837941527366638,0.178610011935234,0.1740027445038146,0.0046359448812142,4.505149006411476e-05,-0.0121546136215329,-0.0058030830696225,0.1108132675290107,0.0143337557092309,-0.0060477890074253,0.9927289485931396,0.1193620637059211,0.0011316485950853,-0.0032335284460727,0.0998109706929175,-0.2316883206367492,0.1460036039352417,-0.1940698623657226,17,360,11706,20958
12.5,1788263052811,4.478873252868652,5.605633735656738,0.0147852757945656,-0.0070455521345138,0.9848876595497132,0.1724182665348053,0.1753291307065976,0.0046981264800908,0.0001083555606358,0.0012043487513437,-0.0245853438973426,0.1185907870531082,0.0149746658280491,-0.006308639422059,0.993513286113739,0.1125490814447403,-3.488107892331466e-05,0.0209539140626666,0.1132898230058925,-0.0345978140830993,0.0985446572303772,0.2077741622924804,39,371,12730,20686
12.6,1788263052911,4.591549396514893,5.549295902252197,0.0153337586671113,-0.0074374061077833,0.9857896566390992,0.1671175062656402,0.1786229931699469,0.002093610673761,7.427373152425503e-05,-0.0043799858540296,-0.0310202036052942,0.0997578874230384,0.0154424514621496,-0.0067199813202023,0.9940066337585448,0.1080151125788688,-0.0054927402552586,0.0111530861557014,0.1021322101635086,0.0857143402099609,-0.2443967461585998,0.1112451553344726,51,378,12374,20973
12.7,1788263053011,4.422535419464111,5.577464580535889,0.0146777294576168,-0.0075676273554563,0.986566722393036,0.1625214964151382,0.1656965255310043,0.0026803947223631,-2.8131240041100148e-05,-0.0015789362369105,0.0198119767010211,0.1022837907075882,0.0158606991171836,-0.0067186383530497,0.9944382905960084,0.1039035841822624,0.0061184454996352,-0.0570258122844195,0.0759369780007824,-0.3341053128242492,0.2493672966957092,-0.0580902099609375,15,369,12727,20760
12.8,1788263053111,4.591549396514893,5.577464580535889,0.016278838738799,-0.0076214876025915,0.9872198104858398,0.1583478599786758,0.1759214776414252,0.0007098187520702,0.0001668592870602,0.0071562137454748,-0.0369632132351398,0.1074936836957931,0.0170267578214406,-0.0068443287163972,0.9949440360069276,0.0987408682703971,-0.004916692056977,-0.0210804133550853,0.0796049938861628,-0.0045697689056396,-0.0200224518775939,-0.0517473220825195,28,377,12407,21033
12.9,1788263053211,4.619718074798584,5.605633735656738,0.0165993254631757,-0.0077376374974846,0.9879111051559448,0.1539359092712402,0.1754022476497414,0.0033971623466277,5.2803848165269405e-05,0.0028257921803742,-0.0052409735508263,0.0973092094063758,0.0170303732156753,-0.0069875167682766,0.9953725934028624,0.0943109318614006,-0.0038539154381005,-0.0224649236211518,0.1076424452697397,-0.160039484500885,0.2024286985397339,-0.1642427444458007,29,361,12207,20876
13.0,1788263053311,4.676056385040283,5.605633735656738,0.0169011484831571,-0.0078897224739193,0.988776922225952,0.1482300609350204,0.1778519121725583,0.005180428980936,5.600838674605376e-05,0.0045747528783977,-0.0127741275355219,0.1093423962593078,0.0175761096179485,-0.0068015567958354,0.995908498764038,0.0883807241916656,0.0141327026108664,0.0014677579555365,0.0891069025302984,0.1011013388633728,0.0033426880836486,0.2009143829345703,22,353,11934,20664
13.1,1788263053411,4.563380241394043,5.492957592010498,0.0165976118296384,-0.0074963560327887,0.9894163012504578,0.1439574658870697,0.1731164506753215,0.0040001543836455,-8.479123689292701e-05,0.0172772109508514,0.0378286242485046,0.1061196625232696,0.0182682108134031,-0.007027443498373,0.9961910247802734,0.0849733352661132,-0.0100298051163829,-0.0692076816831972,0.0685983081938718,-0.1728403568267822,0.0552355647087097,-0.4086484909057617,8,368,11592,21146
13.2,1788263053511,4.8450703620910645,5.183098793029785,0.017722699791193,-0.0079997591674327,0.989902913570404,0.140406996011734,0.1681890950988518,0.0043750823453736,0.0001290440819316,0.0019113280577585,-0.0152188828215003,0.089293323457241,0.0177687406539917,-0.006768180988729,0.9965062141418456,0.0813252031803131,0.0068046477448199,0.0054209506668464,0.061258941397862,0.2013757228851318,-0.1233835816383361,0.0534591674804687,39,369,13672,20228
13.3,1788263053611,4.873239517211914,5.239436626434326,0.0173651427030563,-0.0077925841324031,0.9901677370071412,0.1385836601257324,0.1767420897255408,-0.0015951904116465,-1.3278555761642596e-06,0.0,0.0,0.0,0.0169207882136106,-0.0069455681368708,0.996529757976532,0.0812033042311668,-0.0004828325640651,0.0288647463097324,0.0045807296002942,-0.1596213579177856,-0.0249019861221313,-0.2324409484863281,16,321,13498,19803
13.4,1788263053711,4.732394218444824,5.239436626434326,0.0159073658287525,-0.0079949963837862,0.9901972413063048,0.1385372132062912,0.1796507627032024,0.0037400553766724,-1.4010272928068102e-06,-0.0078036724589765,0.0291325114667415,-0.0066612907685339,0.0163601767271757,-0.0068069091066718,0.9965324997901917,0.0812956541776657,0.0186674680184922,-0.0223433118115051,0.0101530578981786,-0.0341662168502807,-0.0742242932319641,-0.1229352951049804,35,360,13690,19664
13.5,1788263053811,5.098591327667236,5.211267471313477,0.0159073658287525,-0.0079949963837862,0.9901972413063048,0.1385372132062912,0.1724063669012747,-4.095270481417931e-05,2.886022836408843e-06,0.0,0.0,0.0,0.0165204908698797,-0.0070890113711357,0.9964755773544312,0.0819347649812698,-0.0068871226345414,-0.0369180079793788,-0.026868341923356,-0.2536684274673462,0.2192550897598266,0.2354412078857422,28,358,12958,19890
13.6,1788263053911,4.760563373565674,5.098591327667236,0.0159924365580081,-0.008127748966217,0.990108072757721,0.1391548663377761,0.1759267578771493,-0.002220793425764,2.1287313357407908e-05,-0.0051907300949096,-0.0039511257782578,-0.0248177833855152,0.0158099178224802,-0.007171131670475,0.9964334964752196,0.0825763940811157,-0.0003835438909193,0.028840399339392,-0.0114521783357159,0.1838535666465759,-0.1353093385696411,-0.0649566650390625,50,401,13926,20504
13.7,1788263054011,4.8450703620910645,5.267605781555176,0.0153665840625762,-0.0079589486122131,0.9900384545326232,0.1397299617528915,0.1801873432126567,-0.0052300633940152,1.5369702190081877e-07,0.0,0.0,0.0,0.0160501450300216,-0.0073872888460755,0.9963656067848206,0.0833267048001289,-0.0237515596555497,0.0019304412572376,0.0013530604571078,0.1347396373748779,-0.1575684547424316,-0.2196578979492187,17,415,12744,20494
13.8,1788263054111,4.873239517211914,5.352112770080566,0.0156495701521635,-0.0079499604180455,0.9899410605430604,0.1403872221708297,0.1745769153958482,0.0007472504046775,-2.8106478275100216e-07,0.0,0.0,0.0,0.015383849851787,-0.0066360663622617,0.9964475631713868,0.0825326740741729,0.0286343414623857,0.0275457495752348,0.0174547964768873,-0.0850698351860046,-0.0028250217437744,-0.112706184387207,18,341,13331,19711
13.9,1788263054211,4.394366264343262,4.647887229919434,0.0146381333470344,-0.0074880789034068,0.9900586009025574,0.13969087600708,0.1801293155914577,-0.0035842931238785,1.487937578437047e-06,0.008258537389338,0.0263773184269666,0.0038754630368202,0.0136303706094622,-0.0061853257939219,0.9964685440063475,0.0826222226023674,0.0142505560743376,0.0386411046158156,-0.0062969864164836,-0.5126612186431885,0.2501378655433655,0.3504781723022461,41,273,7015,16760
14.0,1788263054311,1.6619718074798584,3.126760482788086,0.0118014765903353,-0.0066195530816912,0.9901719689369202,0.1391985714435577,0.1567275919595849,0.0035575783315652,-0.0001787223735652,0.0109315374866127,0.0878576263785362,0.0153184179216623,0.010960379615426,-0.0058293342590332,0.9968124032020568,0.0788094252347946,0.0013454227062924,0.0072889242674211,0.1446042295020707,-1.0454912185668943,-0.010370135307312,0.1085042953491211,82,212,0,10969
14.1,1788263054411,0.7323943376541138,1.2957746982574463,0.0115075875073671,-0.0063756466843187,0.9912182688713074,0.131580114364624,0.0681257835335809,-0.0002239145847963,2.652008394641765e-05,0.0086946114897727,-0.0303218364715576,0.180038183927536,0.0118827829137444,-0.0055475356057286,0.9973435997962952,0.0716503262519836,0.0083736206250108,0.0108517155795926,0.1336490909064716,-0.1699097752571106,0.0758329033851623,0.1363506317138672,4,244,0,7488
14.2,1788263054511,-1.183098554611206,1.0140844583511353,0.0105895362794399,-0.0059599750675261,0.9921548366546632,0.1244238317012786,0.0149653216768579,0.0054707641072951,-4.232916477057355e-06,0.0064469897188246,0.0299153178930282,0.1454946249723434,0.0132701937109231,-0.0053635910153388,0.9980347752571106,0.0610068291425704,0.0049391280769673,-0.0644421898142671,0.2155189265988625,0.2769880890846252,-0.0808035731315612,0.0614738464355468,179,319,-8346,9494
14.3,1788263054611,-1.1267606019973757,1.0985915660858154,0.0134385991841554,-0.0061769383028149,0.9932088851928712,0.115400955080986,-0.0014455344056235,0.0057122464040624,-2.215538989836153e-06,0.0031466935761272,-0.0426351279020309,0.202376127243042,0.0140520306304097,-0.0052458932623267,0.998567759990692,0.0513571389019489,0.0093961779276073,0.0022542178799015,0.2307529219966208,0.147828459739685,-0.1638271212577819,0.044438362121582,285,583,-9470,11665
14.4,1788263054711,-1.0985915660858154,1.380281686782837,0.0136079378426074,-0.00581656396389,0.9944967031478882,0.1037167608737945,0.0070324477689689,-0.0008382585222922,-6.760028901638065e-07,0.0132299112156033,0.0073416009545326,0.2480991333723068,0.0138210803270339,-0.0048638880252838,0.9991206526756288,0.0392858013510704,0.0103493179909659,0.0010597332787139,0.2917903868806386,-0.0526953935623168,-0.1226989030838012,0.0235719680786132,220,380,-9768,11063
14.5,1788263054811,-1.211267590522766,1.211267590522766,0.0128325801342725,-0.0053799608722329,0.9961177706718444,0.0869238749146461,0.0042142573607878,0.0036167153795624,-1.968078444837818e-06,0.0113653279840946,0.0220690295100212,0.3269490897655487,0.0128221046179533,-0.0045575695112347,0.9996148347854614,0.0241875499486923,0.0086447361481469,0.0175514649434546,0.359825666521422,-0.0726025104522705,-0.0647124648094177,0.2620611190795898,198,394,-9096,10661
14.6,1788263054911,-1.2957746982574463,1.1267606019973757,0.0131889134645462,-0.0051491744816303,0.9974863529205322,0.0694302096962928,0.0022718533748224,0.0010088298930011,2.56898243345662e-06,0.0099619654938578,-0.0183819010853767,0.3540937006473541,0.0130418371409177,-0.0041966559365391,0.9999008178710938,0.0032733809202909,0.0121953281050119,0.0258308553194614,0.3430454744633301,-0.172391653060913,-0.1006687879562377,0.0116252899169921,257,374,-8681,10318
14.7,1788263055011,-0.8169013857841492,0.6197183132171631,0.0127107538282871,-0.0046996315941214,0.9984377026557922,0.0542071796953678,0.0014367190006562,0.0007394944758579,-1.6067429096301526e-06,0.0162859391421079,0.0035176831297576,0.3333700895309448,-0.0138189764693379,0.0037869913503527,-0.9998341798782348,0.0112370271235704,0.0077716968908627,-0.0316875376156712,0.3117821451723705,0.2344481348991394,-0.3806300759315491,-0.1006412506103515,74,222,-2522,3899
14.8,1788263055111,1.211267590522766,1.4647886753082275,0.0128909619525074,-0.0045050005428493,0.9989935159683228,0.0427258424460887,0.0058532473286259,-0.0068433020367647,-2.898567470186689e-06,0.0033472594805061,0.0254878289997577,0.1448037475347519,-0.0133215636014938,0.0038276575505733,-0.9998188018798828,0.013047101907432,0.0019566831096223,-0.0916640273870596,-0.0123629422813703,0.7340503334999084,0.3040642738342285,0.0110187530517578,51,593,6330,14098
14.9,1788263055211,2.422535181045532,4.2816901206970215,0.016483986750245,-0.0046061379835009,0.9988791942596436,0.0441282056272029,0.0558267013642972,-0.0010537641901739,0.0001526931547532,0.0071467556990683,-0.1881831288337707,0.0070438203401863,-0.0179594606161117,0.0020256340503692,-0.9997113347053528,0.0158298648893833,0.0475445177147274,-0.0472659215164555,0.1115231511371267,1.2044211626052856,-0.0620911121368408,0.1152162551879882,141,632,12260,23546
15.0,1788263055311,4.760563373565674,6.084506988525391,0.0202052220702171,-0.0028816503472626,0.9989966154098512,0.0398655831813812,0.1209024222503416,0.0018060330777098,0.000300011000123,0.0216628704220056,-0.0833657756447792,0.0803206413984298,-0.0205606073141098,0.0024001328274607,-0.9996339678764344,0.0174219459295272,-0.0507232655131518,-0.0270824176928863,-0.0051827371951047,0.3604040145874023,-0.1800951361656189,0.0128183364868164,51,551,12036,24905
15.1,1788263055411,4.929577350616455,6.14084529876709,0.0179022308439016,-0.0044142161495983,0.999039888381958,0.0397397242486476,0.1806223293223496,0.0019949494888343,-0.0002735310143698,-0.0317596197128295,0.1194059401750564,0.0184425711631774,-0.0153895337134599,0.0038496740162372,-0.9996582865715028,0.0207794215530157,-0.0053225237531953,0.0055134089977734,0.1289896023293853,-0.3586891889572143,0.2279309034347534,0.066446304321289,20,451,9316,23179
15.2,1788263055511,4.02816915512085,5.85915470123291,0.0166031159460544,-0.0047678090631961,0.9992566108703612,0.0344627983868122,0.1891389749503199,0.0109873468852491,7.381568959541004e-05,-0.0002302240463905,-0.0604829899966716,0.1387654989957809,-0.0180180892348289,0.003701944835484,-0.999411642551422,0.0289492662996053,0.0046425770092216,-0.0154543629707678,0.2003820508818389,-0.0377085208892822,0.0228538513183593,-0.2472305297851562,13,384,10113,22678
15.3,1788263055611,4.3380279541015625,6.0,0.0177095383405685,-0.004738054703921,0.9995340704917908,0.0244044922292232,0.1721745033402913,0.0074073797171734,2.4169469612212597e-05,0.0043340628035366,-0.0018874268280342,0.2121615707874298,-0.0184477381408214,0.0034863855689764,-0.9991216063499452,0.0374630950391292,0.004326780898446,-0.0231918195804019,0.1658991640635445,0.0181877017021179,-0.0890591144561767,0.2088661193847656,12,373,9987,22088
15.4,1788263055711,4.309859275817871,5.915493011474609,0.019788347184658,-0.0044792876578867,0.9996843338012696,0.0148156993091106,0.1724012582693544,0.0060016851244257,0.0002072765184917,0.0051787635311484,-0.0491144321858882,0.1702470183372497,-0.0198347829282283,0.0028773006051778,-0.9986305832862854,0.0483257658779621,0.0183164062883984,0.016667438950693,0.2020543739550973,0.027722954750061,-0.0697828531265258,-0.1633739471435547,15,416,10373,22541
15.5,1788263055811,4.056337833404541,5.746479034423828,0.0196828749030828,-0.003758676815778,0.9997791647911072,0.0063186725601553,0.1761444022206953,0.0070608824370954,8.049905927861204e-06,0.0198168437927961,-0.0018421650165691,0.1890996098518371,-0.020277515053749,0.0023242095485329,-0.9982246160507202,0.055955983698368,0.0146060456242103,-0.0249162416980449,0.1774210525878627,-0.1157517433166503,0.0606728792190551,0.1550149917602539,7,476,10984,23331
15.6,1788263055911,4.366197109222412,6.14084529876709,-0.0204994920641183,0.0033353329636156,-0.9997822642326356,0.0019960550125688,0.1724474518772714,0.0050149549223423,6.664181422952387e-05,0.0109823001548647,-0.0206842068582773,0.1694014966487884,-0.0210837889462709,0.0019416818395256,-0.9977057576179504,0.0643042102456092,0.0166543903815756,-0.0262868341571936,0.2029814066977567,0.0598204135894775,0.0567154884338378,0.0130720138549804,11,405,10367,22369
15.7,1788263056011,4.2816901206970215,6.0,-0.0203276872634887,0.0030352966859936,-0.9997026324272156,0.0131220668554306,0.1823324736908249,0.0065336886136307,-2.9270099062019583e-05,0.008413378149271,0.020056378096342,0.2107967287302017,-0.0203516613692045,0.0018519079312682,-0.9970769882202148,0.0736201107501983,0.0041112898472905,0.0056460190112192,0.2093020204616415,0.0394695997238159,-0.0940043330192565,-0.1199312210083007,12,358,10595,21992
15.8,1788263056111,4.309859275817871,6.14084529876709,-0.0199799388647079,0.0028453222475945,-0.9995081424713136,0.0240035951137542,0.175489187316358,0.0078532987235913,2.6417355161848503e-06,0.0086041064932942,0.0063567110337316,0.2200830429792404,-0.0199593901634216,0.0012092841789126,-0.9959920644760132,0.0871786177158355,0.0347789427495531,0.0043689136691749,0.2406808656773804,0.0195870995521545,0.0359377861022949,-0.047621726989746,25,343,10501,20967
15.9,1788263056211,4.253520965576172,5.492957592010498,-0.0198908690363168,0.002141409786418,-0.9992265701293944,0.0338552743196487,0.1771032741040198,0.0032045715686164,-2.4561606117540477e-05,0.0144356908276677,-0.0025963545776903,0.1983886510133743,-0.019622154533863,0.0008883792906999,-0.9953635334968568,0.0941581651568412,0.013878060592358,0.0317767877321451,0.1079037160373005,0.3084156513214111,-0.3383830785751343,0.4810295104980469,62,360,13759,20356
16.0,1788263056311,4.591549396514893,5.521126747131348,-0.0196813829243183,0.0021634418517351,-0.99904465675354,0.0389589443802833,0.1760582776852128,-0.00051420841025,-2.5432232331745866e-07,-0.0042931567877531,-0.0033008931204676,0.0800797045230865,-0.0191562213003635,0.0008524823933839,-0.9949167370796204,0.0988583713769912,0.0087531168652252,0.0349819154302676,0.0739887725379833,-0.2572447657585144,0.0280025601387023,0.5121870040893555,22,340,12158,20280
16.1,1788263056411,4.478873252868652,5.690140724182129,-0.020601138472557,0.0022152098827064,-0.9988786578178406,0.042567778378725,0.1756491864560508,0.0029754560101015,-6.849537651597543e-06,-0.0062830122187733,-0.0395307056605815,0.0519151985645294,-0.0214704480022192,0.001132171601057,-0.9946096539497375,0.1014370918273925,0.0007366974618513,0.0091608284743853,0.0607451106443038,0.1554473638534546,-0.2178731560707092,-0.2412528991699218,48,368,12182,20367
16.2,1788263056511,4.366197109222412,5.464788913726807,-0.0201205126941204,0.0025341492146253,-0.9987301826477052,0.0461171045899391,0.1814587099669569,0.0024159185454518,-0.0001136372896119,-0.0041433474980294,0.0462096147239208,0.0752681419253349,-0.0208878237754106,0.0013270024210214,-0.9942408800125122,0.1051047667860984,-0.0010571906363547,-0.0540601067013977,0.1082328010908537,-0.2519207000732422,0.0758420825004577,0.2086725234985351,23,397,12202,21346
16.3,1788263056611,4.253520965576172,5.830986022949219,-0.0212817620486021,0.0024115154519677,-0.9985069632530212,0.0502504110336303,0.1745218088935292,0.0049905057502618,3.4322682846158186e-05,0.0082451729103922,-0.0191330946981906,0.0946316197514534,-0.0213533323258161,0.0010369690135121,-0.9935994744300842,0.1109188348054885,0.0179316495261123,-0.0170595033516719,0.1223271180598421,-0.3999592661857605,0.4706447720527649,-0.3170413970947265,8,437,10582,23062
16.4,1788263056711,4.450704097747803,5.943662166595459,-0.0212055891752243,0.0022653476335108,-0.9981800317764282,0.0564085878431797,0.1704633790559135,0.0081379256609286,6.297591875090104e-05,0.0088630747050046,-0.0066198664717376,0.151515856385231,-0.020734155550599,0.0010200208052992,-0.9929519295692444,0.1166858300566673,-0.0012956772845146,-0.0081049971120553,0.0856388780340205,-0.5486977696418762,0.3943347334861755,-0.1017189025878906,15,399,9884,22578
16.5,1788263056811,4.2253522872924805,5.943662166595459,-0.0208570100367069,0.002232190221548,-0.99779611825943,0.0629512220621109,0.1728454305708755,0.0075020844660399,7.622159660738792e-05,0.0001553031615912,-0.0168069787323474,0.1616998016834259,-0.0214410778135061,0.0006947563961148,-0.9919747710227966,0.1246026754379272,0.016587761207507,-0.0216491217674278,0.1891953599946998,0.0459649562835693,-0.0513191819190979,0.2387981414794922,8,419,10256,22611
16.6,1788263056911,4.619718074798584,5.6619720458984375,-0.0220248755067586,0.0015515200793743,-0.9970836043357848,0.073053739964962,0.1754206614458431,0.0079275345925715,0.0001109250425764,0.0145656298846006,-0.0224812664091587,0.1862581968307495,-0.0224632583558559,0.0001138839870691,-0.9904890060424804,0.1357460618019104,0.0065462400545646,-0.0198885433945249,0.1692146918620686,0.1754789352416992,-0.3018161058425903,0.0609941482543945,33,375,11504,20986
16.7,1788263057011,4.704225540161133,5.7183098793029785,-0.0226585585623979,0.0012808856554329,-0.9964643716812134,0.0808927938342094,0.1783322665859405,0.0011737119612311,5.245240950923757e-05,0.0077514015138149,-0.0176653508096933,0.1419936716556549,-0.0226943455636501,-0.0002401294186711,-0.9897000789642334,0.1413462907075882,0.0165425236548291,0.0099427669373309,0.1150366270380544,-0.0647058486938476,0.2173210978507995,0.0293760299682617,30,330,11736,20323
16.8,1788263057111,4.366197109222412,5.746479034423828,-0.0226660706102848,0.0008850157028064,-0.9960031509399414,0.0863893255591392,0.1792011150181778,0.0034499405933338,-5.5942787050437926e-05,0.0114758359268307,0.0023057167418301,0.0981051176786422,-0.0231774765998125,-0.0004916936159133,-0.989121437072754,0.1452629417181015,-8.979513038471217e-05,-0.0206148692833673,0.0779990528770775,0.0382612347602844,-0.1117269992828369,0.0856466293334961,9,432,10458,22679
16.9,1788263057211,4.507042407989502,5.97183084487915,-0.0232599955052137,0.0003853428643196,-0.995397925376892,0.0929616242647171,0.1727356650081404,0.0063007989982439,4.081736027714002e-05,0.017792647704482,-0.0047187507152557,0.1504746228456497,-0.0238302759826183,-0.0013366267085075,-0.9876640439033508,0.154758483171463,0.0249958702661971,-0.0275973329560572,0.2031012437042296,-0.0023136734962463,0.1150404810905456,-0.3827962875366211,8,449,9201,22791
17.0,1788263057311,4.450704097747803,5.746479034423828,-0.0229379627853631,-3.2600946724414825e-05,-0.9945199489593506,0.1019987314939498,0.1780754643120241,0.0070312779299426,-7.678992052240196e-05,0.0142004238441586,0.0345183461904525,0.2031716704368591,-0.0232094097882509,-0.0016470784321427,-0.9861241579055786,0.1643708497285843,0.0112266532722922,-0.0111921447812183,0.22389318280278,0.1118441224098205,-0.1218904852867126,-0.1347246170043945,39,342,12361,20232
17.1,1788263057411,4.535211086273193,5.577464580535889,-0.02267811819911,-0.0003168419934809,-0.9935702085494996,0.1109227761626243,0.1766453558401158,0.0030146385441865,-5.222356723075941e-05,0.0068236519582569,0.0274495184421539,0.1594744622707367,-0.0212766025215387,-0.0017894888296723,-0.9850990772247314,0.1706575900316238,0.0210110463526579,0.0661516827388159,0.1136575001715073,-0.0564508438110351,0.1458161473274231,-0.0261154174804687,41,296,12674,19838
17.2,1788263057511,4.563380241394043,5.295774459838867,-0.0210960544645786,-0.0003381406422704,-0.9930522441864014,0.1157676205039024,0.1779846195093448,0.000714315741034,-0.0001520639409265,-0.007698823697865,0.0068750707432627,0.0671664103865623,-0.0221962090581655,-0.0015747072175145,-0.98429673910141,0.1751139163970947,0.0036768306188674,0.0211368178568044,0.0684738016464544,0.2531220316886902,-0.0848082304000854,0.3592729568481445,30,381,12008,21115
17.3,1788263057611,4.14084529876709,5.690140724182129,-0.0229168217629194,-0.0007954634493216,-0.9925209879875184,0.1199012622237205,0.1733464849110499,0.0027088753971824,-7.013962481934275e-05,0.0157980266958475,-0.0095504401251673,0.0668426603078842,-0.0227253790944814,-0.0019794041290879,-0.9837595224380492,0.1780361086130142,-0.0022266644743233,0.020702309308946,0.0700539538472247,0.1032044887542724,-0.1183858513832092,0.3838882446289062,11,471,11389,23403
17.4,1788263057711,4.253520965576172,5.915493011474609,-0.0239078514277935,-0.0008820800576359,-0.9918841123580932,0.1248744949698448,0.1723830240622119,0.0085683934394612,0.0001352682461633,0.0045195682905614,-0.0408831685781478,0.1447983533143997,-0.0230590607970953,-0.002066102810204,-0.9823176264762878,0.185785174369812,0.0046673201344181,0.0259256709581273,0.184678707142254,-0.1876122951507568,-0.0327748656272888,-0.1144466400146484,23,456,10767,23340
17.5,1788263057811,4.873239517211914,5.605633735656738,-0.0229604169726371,-0.0006202205549925,-0.9908041954040528,0.1333398967981338,0.1733658169892501,0.0080037740020737,3.888251760264648e-06,-6.673388270428404e-05,0.0085502546280622,0.1938367486000061,-0.0230289511382579,-0.0020586904138326,-0.9809001684188844,0.1931329816579818,-0.0066429724038928,-0.0125870812683213,0.1147322000130465,0.024324357509613,-0.0305078029632568,0.0466279983520507,14,352,11004,21087
17.6,1788263057911,4.366197109222412,5.436619758605957,-0.0226444229483604,-0.0005235220305621,-0.9899553656578064,0.1395534873008728,0.1786924037162857,0.0006215923411414,-8.483962604360904e-05,-0.0029276914428919,0.0150992991402745,0.1088799983263015,-0.021124955266714,-0.0013096062466502,-0.9796836972236632,0.1994290649890899,-6.75308932431566e-05,0.0579911038887222,0.0955055310897833,-0.0452877283096313,-0.1260955333709716,-0.2869586944580078,38,402,13046,21478
17.7,1788263058011,4.591549396514893,5.633802890777588,-0.021074179559946,-0.0001645828597247,-0.9892423748970032,0.1447600126266479,0.1818115877798638,0.0014130472662407,-7.152885911654753e-05,0.0046312301419675,0.0138290030881762,0.0864401087164878,-0.021243704482913,-0.0014801165089011,-0.978987753391266,0.2028043717145919,0.0037220988603285,-0.0134744489488501,0.066127476673613,-0.1383994817733764,0.2059274911880493,-0.1916284561157226,26,369,12248,20958
17.8,1788263058111,4.366197109222412,5.746479034423828,-0.0200580768287181,4.701036959886551e-05,-0.9886534810066224,0.1488690823316574,0.1722959230097437,0.0027179696854574,-0.0001416036380521,-0.0009891826193779,0.0405129007995128,0.0947568863630294,-0.0194722283631563,-0.0008870102465152,-0.9781675338745116,0.2069015651941299,-0.0054627465151952,0.0336477217041474,0.095618695581841,0.066317617893219,-0.0440394878387451,-0.0753335952758789,30,360,12966,20734
17.9,1788263058211,4.253520965576172,6.02816915512085,-0.0178521666675806,0.000561318360269,-0.9879794716835022,0.1535500288009643,0.1781762148237364,0.0026290952987215,-0.0001573072812976,-0.0034725605510175,0.0640610456466674,0.1152121350169181,-0.0169003065675497,-0.0002894299104809,-0.9762561321258544,0.2159588187932968,0.0097130265782882,0.008004386009082,0.1982449843659971,-0.0811735987663269,0.2346194982528686,-0.3045368194580078,16,382,10519,21886
18.0,1788263058311,4.253520965576172,5.915493011474609,-0.016756510362029,0.0005922522395849,-0.9864273071289062,0.1633402109146118,0.1740664797309302,0.0091681013201573,-1.483355388371076e-05,0.0116068636998534,0.0060009523294866,0.2156986445188522,-0.0160111878067255,-0.0001063514500856,-0.974413812160492,0.2241905033588409,-0.0036495399468938,0.0436404823985183,0.1741547787044156,0.0788676142692565,0.036999225616455,0.0301971435546875,14,363,11005,21894
18.1,1788263058411,4.2253522872924805,5.88732385635376,-0.014747591689229,0.0008260279428213,-0.9846213459968568,0.1740765124559402,0.1829143412986244,0.0082359005278334,-0.0001844416855657,0.0095856264233589,0.0446710288524627,0.2232682555913925,-0.0148592004552483,-0.0001203883439302,-0.9721832275390624,0.2337499409914016,0.008561036264666,-0.0137185215472744,0.2014780225617664,-0.1759958863258361,0.0122652053833007,-0.1339588165283203,7,351,10782,21415
18.2,1788263058511,4.394366264343262,6.056337833404541,-0.0143871782347559,0.0007787642534822,-0.98273903131485,0.1844353824853897,0.1739787752318259,0.0064949196570209,-6.457247498676321e-05,0.0066809249110519,0.0131445880979299,0.2107031345367431,-0.0137133859097957,-0.0003221817314624,-0.9691539406776428,0.246074378490448,0.0147748785627132,0.0398007328307709,0.1963613541375631,0.2116038203239441,-0.1003521084785461,0.2440109252929687,18,349,10441,21174
18.3,1788263058611,4.535211086273193,5.690140724182129,-0.0139366779476404,0.0006702665705233,-0.9811205863952636,0.1928933411836624,0.1786254382765209,0.0059599130228157,-4.986393514694671e-05,-0.0052230497822165,0.0005892788176424,0.1739251017570495,-0.0141365937888622,-0.0001855948939919,-0.9671157598495485,0.2539433240890503,0.0080080082680587,0.0150012969514407,0.19464839271263,0.1949847936630249,-0.0671892762184143,0.075531005859375,45,278,12243,19672
18.4,1788263058711,4.676056385040283,5.521126747131348,-0.0134770376607775,0.0007846723310649,-0.979547381401062,0.2007601857185363,0.1764673354884986,0.0021639896955198,-6.470585002248747e-05,0.0010131067829206,0.0292481388896703,0.1275584399700164,-0.0136010460555553,0.0001168604940176,-0.9658584594726562,0.2587133347988128,-0.0060884001544911,-0.0273669180533777,0.1011049283898703,-0.3096269369125366,0.1103641390800476,-0.0361671447753906,36,311,11946,20037
18.5,1788263058811,4.394366264343262,5.605633735656738,-0.0144632495939731,0.0008239911403506,-0.978528618812561,0.2056011855602264,0.1757269160071202,0.0029520700565635,0.0001152054232569,-0.0011966845486313,-0.0273067131638526,0.08486969769001,-0.0148217035457491,-7.53253698348999e-05,-0.9645437002182008,0.2635068893432617,0.0042305291910634,-0.0293188610965967,0.0965813235415801,-0.4114556312561035,0.5464441776275635,-0.1855678558349609,9,473,10594,22692
18.6,1788263058911,4.394366264343262,5.6619720458984375,-0.0150038301944732,0.0008198451250791,-0.9773777723312378,0.2109668403863906,0.1748980570207401,0.0089481106845837,5.86938945144772e-05,-0.0012908183271065,-0.0116607127711176,0.1387064158916473,-0.0145968301221728,0.0003946749493479,-0.9627249836921692,0.2700875997543335,-0.0166479080659441,0.0225624231925773,0.1583134947516822,0.1943520903587341,-0.3026286959648132,0.3380603790283203,20,362,12302,20844
18.7,1788263059011,4.507042407989502,5.521126747131348,-0.0153668271377682,0.0011642510071396,-0.9760589599609376,0.2169594019651413,0.1750651978115464,0.0025199963185383,0.0001051576622826,-0.0035001013893634,-0.0373794585466384,0.1124860197305679,-0.0166794061660766,-0.0003311727195978,-0.9611995220184326,0.275349348783493,0.0135200109412918,-0.0743547231199189,0.1298941611842198,-0.0344646573066711,0.1774465441703796,-0.3732414245605469,37,366,12369,21011
18.8,1788263059111,4.478873252868652,5.464788913726807,-0.0163380522280931,0.0006544706411659,-0.974773406982422,0.2225968241691589,0.1761069479635401,0.0048640461441786,-5.395971011376891e-05,0.0041078915819525,0.0118364067748188,0.1018085330724716,-0.0170796401798725,-0.0002659708261489,-0.9596947431564332,0.2805248498916626,-0.0039874411888669,0.0015454238029241,0.0811092589554314,0.1056503653526306,-0.0578799247741699,0.6104927062988281,17,387,12253,21222
18.9,1788263059211,4.676056385040283,5.690140724182129,-0.0177082680165767,0.0006252462044358,-0.9738744497299194,0.2263946682214737,0.1798286361359145,0.0015314532465195,3.2903762191753004e-05,-0.0029225265607237,-0.0291036944836378,0.0846681296825409,-0.0182199664413929,-0.000986129976809,-0.9584670066833496,0.2846193611621856,0.0218799817349376,-0.0401218061496702,0.0921074876796768,-0.2167114615440368,0.0820582509040832,-0.438394546508789,16,356,11829,20541
19.0,1788263059311,4.901408672332764,5.295774459838867,-0.0185781400650739,-9.816978126764296e-05,-0.9726231098175048,0.2316443622112274,0.1782608258649577,0.0039701311817285,2.975103048556181e-05,0.0057353843003511,-0.0103140007704496,0.0868038535118103,-0.0186739638447761,-0.0008704671636223,-0.9576603174209596,0.287293016910553,-0.0224534821903746,-0.0010115718194249,0.0153907234757249,-0.0361197590827941,-0.1037546396255493,0.2280683517456054,25,310,13410,19106
19.1,1788263059411,4.873239517211914,5.211267471313477,-0.0184652432799339,0.0001599695533514,-0.972446858882904,0.2323919534683227,0.1840534666109465,-0.0034389926184015,5.11128601471321e-07,0.0057567008771002,-4.880569031229243e-05,0.024025771766901,-0.0195088889449834,-0.0012494074180722,-0.9574530720710754,0.2879262268543243,-0.0065352859854638,-0.0504530375314626,-0.0020659082730355,0.178709864616394,-0.1339619755744934,0.3843603134155273,32,365,13577,19329
19.2,1788263059511,5.183098793029785,4.985915660858154,-0.0195832327008247,-0.0001281299628317,-0.972373902797699,0.2326055765151977,0.1785706257365532,-0.0042503765124234,0.0001455762541817,-0.0049465894699096,-0.0269269738346338,-0.0015072658425197,-0.0194370839744806,-0.0010092305019497,-0.9580548405647278,0.2859233915805816,-0.0201085989137758,-0.0079879920667638,-0.0857938598280317,-0.2249541282653808,0.2307595014572143,-0.1759614944458007,41,370,13878,19478
19.3,1788263059611,4.816901206970215,5.211267471313477,-0.0190893951803445,0.000304989516735,-0.9730995297431946,0.2295926511287689,0.1775440120166976,-0.0007692196423926,-3.664106550551536e-05,-0.0062272390350699,0.0133586069568991,-0.0447579883038997,-0.018947621807456,-0.0006689596921205,-0.958467662334442,0.2845702469348907,-0.0020349219136849,0.003588992447869,-0.0084347040969118,-0.030521273612976,-0.0696621537208557,0.0794525146484375,28,354,12913,19705
19.4,1788263059711,5.042253494262695,5.042253494262695,-0.0184900909662246,0.0001146332360804,-0.97315114736557,0.2294230461120605,0.1755550895616638,0.0004382001485044,1.2457336088782738e-06,0.009092902764678,0.0153776304796338,-0.0051305047236382,-0.0178077612072229,-0.0004060482606291,-0.958961308002472,0.2829769849777221,-0.0312792527884444,-0.0001135752068923,-0.1033072111385195,-0.1013665795326232,-0.1526621580123901,0.1062355041503906,22,381,13994,19449
19.5,1788263059811,4.535211086273193,5.633802890777588,-0.018703980371356,0.0004897587932646,-0.973632037639618,0.2273555994033813,0.1798304804810482,-0.0030586618680705,0.0001170384131854,-0.0075354697182774,-0.0450842380523681,-0.0253282897174358,-0.0188643019646406,-0.0005995593965053,-0.9586885571479796,0.2838308811187744,0.0081078957646563,0.0187481723248572,0.0839469401094179,-0.1114097237586975,0.1175151467323303,0.1053647994995117,20,386,11965,21199
19.6,1788263059911,4.8450703620910645,5.380281925201416,-0.0192113351076841,0.0003430317156016,-0.9730181694030762,0.2299269288778305,0.1775876265392213,0.0037218792254373,3.6246490762636894e-05,0.0047258986160159,-0.0164458658546209,0.0834519863128662,-0.0190798286348581,-0.0005213608965277,-0.9580387473106384,0.2860026359558105,-0.0120274255707786,0.0130936916317531,0.0124275044560826,0.2493166923522949,-0.1938925981521606,0.1862821578979492,38,321,13745,19438
19.7,1788263060011,4.591549396514893,5.521126747131348,-0.0188832134008407,0.0005499348044395,-0.97272527217865,0.2311896085739135,0.1795100662323761,0.0009601884292718,-4.428288135151904e-05,-0.0035516652278602,0.0122073041275143,0.025864090770483,-0.0191208310425281,-0.0006715906783938,-0.9571613669395448,0.2889221310615539,0.0035701985476022,-0.0147013939969343,0.0677372150548737,-0.0041625499725341,0.1579533815383911,0.0041122436523437,20,340,11924,20815
19.8,1788263060111,4.422535419464111,5.549295902252197,-0.0191201940178871,0.000356372911483,-0.9715136885643004,0.2362103164196014,0.1766751653191949,0.0040097136967205,3.0407744473834988e-05,0.004866428207606,0.0002645313797984,0.0972528904676437,-0.0202941503375768,-0.00094535946846,-0.9558535218238832,0.2931402921676636,-0.0069275409981996,-0.0737385809516053,0.0829563972760043,-0.1696035861968994,0.2723550200462341,-0.2249393463134765,12,383,12438,20905
19.9,1788263060211,4.535211086273193,5.492957592010498,-0.0205106232315301,0.0001655174419283,-0.9705184102058412,0.240152895450592,0.1796907208078286,0.0011920450123961,2.3430981425410617e-05,0.0022123917005956,-0.0072299777530133,0.0964349135756492,-0.0205011032521724,-0.0010893270373344,-0.9546058177947998,0.2971639335155487,0.0036235106993989,-0.0017611394517241,0.1040606573444107,0.0863609910011291,-0.0531594157218933,0.1067609786987304,23,398,12190,21499
20.0,1788263060311,4.563380241394043,5.464788913726807,-0.0201684236526489,0.0002094809897243,-0.9694587588310242,0.2444237023591995,0.1737820650564325,0.0034792055638052,-1.2018914607801574e-06,0.0007916682516224,0.0144121181219816,0.102986603975296,-0.0205657053738832,-0.0012914231047034,-0.9530546069145204,0.3020967245101928,0.0136658279613773,-0.0170070553460872,0.0936705916860635,0.0350932478904724,-0.3181632757186889,0.5572986602783203,19,396,12029,21643
20.1,1788263060411,4.394366264343262,5.492957592010498,-0.021485611796379,-0.0002881647087633,-0.968389928340912,0.2485140413045883,0.1743594118012534,0.0016916485805652,0.0001279057253008,0.004421567544341,-0.0457561016082763,0.0863035023212432,-0.0211347267031669,-0.0017260564491152,-0.951964259147644,0.3054741322994232,0.0220215824525198,-0.011830356171753,0.0696424003302067,-0.103872537612915,0.2901188731193542,-0.5863819122314453,87,355,15273,19751
20.2,1788263060511,4.619718074798584,5.549295902252197,-0.0194370597600936,5.8224424719810486e-05,-0.9677619934082032,0.2511153221130371,0.1807619097990925,-0.0025688194937361,-0.0001626876325237,0.0012864609016105,0.0712307915091514,0.0220536403357982,-0.0194121692329645,-0.0007796138525009,-0.9518351554870604,0.305993914604187,-0.0182487132601985,-0.0047662677780005,-0.0062469237396096,-0.2898933291435241,-0.0643003582954406,0.8147144317626953,22,377,11732,20865
20.3,1788263060611,4.732394218444824,5.605633735656738,-0.0201985575258731,-0.000240805093199,-0.9674009680747986,0.252442866563797,0.1767674534576105,0.0054756258025208,0.000123185873167,0.0063348095864057,-0.0418642871081829,0.0699951723217964,-0.0204739905893802,-0.0014135167002677,-0.9506036639213562,0.3097282946109772,0.0029046839938394,-0.0207564688545232,0.0707644979145658,-0.275170087814331,0.2168562412261963,-0.1287689208984375,9,375,11030,21187
20.4,1788263060711,4.2816901206970215,5.464788913726807,-0.019412837922573,-5.3930096328258514e-05,-0.9664221405982972,0.2562253475189209,0.1708606027423972,0.0059052796573243,-9.794660359441552e-05,0.0045703873038291,0.0520327314734458,0.0910458117723465,-0.0195595566183328,-0.0014982875436544,-0.9492360353469848,0.3139524161815643,0.0104611700381557,-0.0085658133991067,0.1108229316596933,0.3769779205322265,-0.3213082551956177,0.2710638046264648,16,393,12571,21487
20.5,1788263060811,4.591549396514893,5.6619720458984375,-0.0202365480363369,-0.0008133854717016,-0.9648073315620422,0.2621765732765198,0.1787484265891157,0.0051408766496767,9.647994375993e-05,0.01133528444916,-0.0211149826645851,0.1064799502491951,-0.0202555637806653,-0.0023322524502873,-0.9477818012237548,0.3182670474052429,0.0234102450670532,-0.0148345544900163,0.0960261566665859,-0.1058717966079711,0.0705037117004394,-0.3389472961425781,28,394,11982,20877
20.6,1788263060911,4.8450703620910645,5.690140724182129,-0.0191040839999914,-0.0008692513220012,-0.9638643264770508,0.2657063603401184,0.1828945455318322,0.0018413429944017,-0.0001304908620193,0.0001454852026654,0.0360285267233848,0.0645483881235122,-0.0206800866872072,-0.0020560687407851,-0.9464529752731324,0.3221721053123474,-0.0195207846345127,-0.0630703983228355,0.076314299518359,0.0685760378837585,-0.0292491316795349,-0.1407556533813476,9,353,10466,20948
20.7,1788263061011,4.676056385040283,5.521126747131348,-0.0201666951179504,-0.0008028503507375,-0.9628922939300536,0.2691302597522735,0.1667935088854828,0.0055504616743737,-2.96488024712672e-05,0.0050504934042692,0.0249873250722885,0.0870632529258728,-0.020051097497344,-0.0018956335261464,-0.9453052878379822,0.3255645930767059,-0.0007616288350981,-0.0223594927254541,0.0742987431077312,-0.0194019079208374,0.0514745116233825,-0.0730457305908203,28,426,11481,21670
20.8,1788263061111,4.563380241394043,5.605633735656738,-0.0208273213356733,-0.0006830729544162,-0.9618911147117616,0.2726374268531799,0.175295512663528,0.0049611345470439,0.0001731042817417,-0.0085912300273776,-0.0380650609731674,0.0874126255512237,-0.0201522950083017,-0.0016928566619753,-0.9441124200820924,0.3290026187896728,0.003272325971766,0.0303024857240879,0.0766417432507625,-0.0372393727302551,0.1184090375900268,0.1716260910034179,34,387,12046,21255
20.9,1788263061211,4.619718074798584,5.464788913726807,-0.0188334304839372,0.0001129619777202,-0.9604946374893188,0.2776605188846588,0.1768746194411022,0.0031501210154864,-0.0001564939026108,-0.0057436055503785,0.047102652490139,0.1014502719044685,-0.0186125300824642,-0.0009017866104841,-0.9421949982643129,0.3345464766025543,-0.0011661934820998,0.004502149877787,0.0852464836464181,0.2350159287452697,-0.2382633090019226,0.0040102005004882,56,264,13922,19149
21.0,1788263061311,4.985915660858154,5.323943614959717,-0.0185613948851823,0.000339669175446,-0.9596521258354188,0.2805764079093933,0.1812148248883937,-0.0044509282006642,-2.906440756742725e-05,-0.0058169104158878,0.0050825178623199,0.0246145948767662,-0.0180490463972091,-0.0005904473364353,-0.941788375377655,0.3357208669185638,0.012693432325196,0.0016937138792339,0.0275195720720292,-0.2422721982002258,0.2299540042877197,-0.0732498168945312,26,280,13155,18635
21.1,1788263061411,4.957746505737305,5.098591327667236,-0.0178859494626522,0.0004975763149559,-0.959417462348938,0.2814212143421173,0.1713452376617982,-0.0014031374512707,-1.825894163157435e-05,0.0033874288201332,0.0101713705807924,0.0162352286279201,-0.0179782062768936,-0.0007826872169971,-0.9418357610702516,0.3355915248394012,0.0006554846063447,-0.0314513502958303,-0.0135488720751534,-0.1313529014587402,0.0335038304328918,-0.2985210418701172,24,339,13062,19797
21.2,1788263061511,4.8450703620910645,5.126760482788086,-0.0178859494626522,0.0004975763149559,-0.959417462348938,0.2814212143421173,0.1786645642330761,-0.0029757859487223,-1.7499869221338117e-06,0.0,0.0,0.0,-0.0175703074783086,-0.0008983006700873,-0.9419883489608764,0.3351843655109405,0.0023156377748968,0.0170020106614757,-0.008203106012049,0.1477707624435424,-0.0623328685760498,0.1063089370727539,23,376,13451,20255
21.3,1788263061611,4.985915660858154,5.239436626434326,-0.0172482393682003,0.0001017251051962,-0.9596886038780212,0.280535489320755,0.1723711342934628,-0.0051988361846497,-3.6226356644081e-05,0.0068723792210221,0.0190550535917282,-0.0167571958154439,-0.0168429110199213,-0.0007221521809697,-0.9422234892845154,0.3345604538917541,-0.0021703640476358,-0.0065760467033673,-0.026094859390772,-0.1921691298484802,0.009173035621643,-0.091552734375,20,346,12643,19743
21.4,1788263061711,4.253520965576172,5.802816867828369,-0.0172512046992778,-0.0001214751973748,-0.9597771763801576,0.2802322506904602,0.1807313198572718,-0.0013335192920662,-2.4712859429299685e-06,0.0067798686213791,-0.0179713517427444,-0.004981311969459,-0.0183598343282938,-0.0018741302192211,-0.94079327583313,0.3384779989719391,0.00664220100719,-0.0063553642686698,0.1425530109080828,0.126644492149353,-0.1894141435623169,0.1815395355224609,9,436,9896,22885
21.5,1788263061811,4.084506988525391,5.802816867828369,-0.0190825164318084,-0.001177355647087,-0.9580578804016112,0.2859364748001098,0.1768216984565477,0.0047762511924449,6.301233625972188e-05,0.0133599257096648,-0.0417201966047287,0.1304244101047516,-0.0185647178441286,-0.0022819582372903,-0.9385616779327391,0.3446041941642761,0.0104296393206986,0.0224478680054085,0.1430161606348094,-0.0772234797477722,-0.136535108089447,0.5437736511230469,22,445,10775,23380
21.6,1788263061911,4.253520965576172,6.0,-0.0197248719632625,-0.0014902218244969,-0.9557508230209352,0.2935115396976471,0.1751626918904537,0.0051055429394373,0.0001378937801632,0.0045026526786386,-0.0482208840548992,0.167401909828186,-0.0198240168392658,-0.0031865891069173,-0.9356377124786376,0.352390319108963,0.0243802338137808,-0.0157312891797741,0.1987314608253073,-0.2713034152984619,0.2188789248466491,-0.6283073425292969,13,386,10367,22500
21.7,1788263062011,4.507042407989502,5.830986022949219,-0.0192997865378856,-0.0022129565477371,-0.952472686767578,0.304004043340683,0.1744673706218736,0.0076177337107395,-1.240149551807002e-05,0.016454342752695,0.0185595005750656,0.2050548493862152,-0.0185630302876234,-0.0029396452009677,-0.9324066638946532,0.3609219193458557,-0.007206836252783,0.0409523808484657,0.1979585393081112,-0.2935503721237182,0.2591347098350525,0.1556463241577148,29,297,11809,20135
21.8,1788263062111,4.169013977050781,5.85915470123291,-0.0195771399885416,-0.0018535880371928,-0.9500176310539246,0.3115764558315277,0.1754375753657314,0.0059425583353972,0.0001138008900689,-0.0057217595167458,-0.0222647730261087,0.1435671597719192,-0.0183897390961647,-0.0031411498785018,-0.9294834733009338,0.3683917224407196,0.0249286582251714,0.0048044643302812,0.1115674596303117,-0.3711428642272949,0.2833139896392822,0.004378318786621,9,384,11258,21895
21.9,1788263062211,4.619718074798584,5.464788913726807,-0.0198605731129646,-0.0022896225564181,-0.948116898536682,0.3172926306724548,0.1734753569581277,0.0062690415028221,0.0001404086736463,-0.0072560794651508,-0.0667490810155868,0.1450272053480148,-0.0203015618026256,-0.0036418894305825,-0.9273788928985596,0.3735544383525848,0.0032994600023808,-0.0146228101352442,0.1051172154247142,0.0795367360115051,0.0730109214782714,-0.014296531677246,41,398,12152,21210
22.0,1788263062311,4.0,6.056337833404541,-0.0200265664607286,-0.0022624558769166,-0.9466043710708618,0.3217668831348419,0.1841495306982149,0.0009684802185358,-7.036094890962915e-05,-0.0002379749785177,0.0168592110276222,0.0838705748319625,-0.0199945829808712,-0.0036627436056733,-0.9244986772537231,0.3806428611278534,0.0201965237226966,0.0054671867666503,0.1744793390596203,-0.2276610136032104,0.1303301453590393,-0.1956081390380859,20,405,11223,21898
22.1,1788263062411,4.169013977050781,6.0,-0.0200132690370082,-0.0024962984025478,-0.9434497356414796,0.3309014439582824,0.1704897697274695,0.0064654226072619,-3.870621754459933e-05,0.0115075195208191,0.006015598308295,0.1863472908735275,-0.0205298662185668,-0.004146734252572,-0.9209222197532654,0.3891832232475281,0.012596466465007,-0.0323336863831939,0.2254954317230766,-0.097430408000946,-0.0212028622627258,0.2573080062866211,32,356,10923,21540
22.2,1788263062511,4.253520965576172,5.97183084487915,-0.020791495218873,-0.0030372459441423,-0.93977153301239,0.3411566913127899,0.1733102286092329,0.0078838061493795,0.0001102285341443,0.0080883353948593,-0.0127181261777877,0.2281264960765838,-0.0208323709666728,-0.0045818835496902,-0.9169909954071044,0.3983371555805206,0.0142908926130149,-0.0120236460968753,0.2020097254165555,0.0002529025077819,-0.1056246757507324,0.3061637878417969,20,350,11130,21380
22.3,1788263062611,4.14084529876709,5.492957592010498,-0.0212451182305812,-0.0035149627365171,-0.9365509748458862,0.3498692810535431,0.1727381950418574,0.0052455638703318,3.277161019284202e-05,0.0047002295032143,-0.0174373462796211,0.1931954026222229,-0.0212301462888717,-0.0050182249397039,-0.912161648273468,0.4092497825622558,0.0108336664749094,0.0113906860085355,0.1886254709115213,0.1925526261329651,-0.3842834830284118,-0.1252832412719726,57,331,13691,20546
22.4,1788263062711,4.591549396514893,5.690140724182129,-0.020926110446453,-0.0038091118913143,-0.933343470096588,0.358353853225708,0.1823858672446919,0.0018820950019963,-3.870450151125099e-05,0.0145863052457571,0.0251981131732463,0.1573258638381958,-0.0202545002102851,-0.0050514061003923,-0.9100298881530762,0.4140167832374573,0.0084615569596496,-0.0128096451335226,0.0935262858199591,-0.4144814610481262,0.1825476288795471,0.1023931503295898,35,289,12649,19430
22.5,1788263062811,4.591549396514893,5.521126747131348,-0.0210681352764368,-0.0041498481296002,-0.9315478205680848,0.362984299659729,0.1794837091525562,0.0039861594435645,2.2667923439603723e-05,0.0054004811681807,-0.0252941213548183,0.0936147719621658,-0.02025075443089,-0.0054252445697784,-0.9083490967750548,0.4176870584487915,0.0155401084245406,0.0388518267876268,0.0974860793397709,-0.0194649100303649,0.029323935508728,-0.0273408889770507,27,346,12181,20248
22.6,1788263062911,4.422535419464111,5.6619720458984375,-0.0209087636321783,-0.0047007510438561,-0.9297440052032472,0.3675823509693146,0.1738307611023907,0.0031982031916668,3.6277323272726274e-05,0.0110455695539712,-0.0218001771718263,0.0903583243489265,-0.0204580053687095,-0.0060025006532669,-0.9054245948791504,0.423971563577652,0.0038532162019333,0.0048631714594678,0.138508454190247,0.0944229364395141,-0.0338374376296997,-0.2853784561157226,36,368,12334,20593
22.7,1788263063011,4.535211086273193,5.549295902252197,-0.0204762388020753,-0.0047406833618879,-0.927632451057434,0.3729026019573211,0.1798045271083633,0.0051006884080512,-2.7225670993887607e-05,0.005931990686804,0.0156330298632383,0.1036733537912368,-0.0198421347886323,-0.0057109743356704,-0.9033450484275818,0.4284172356128692,-0.0067116181619638,0.0251832835526377,0.122068542294668,0.1686041951179504,-0.0094733834266662,0.1097421646118164,21,390,12314,20799
22.8,1788263063111,4.619718074798584,5.549295902252197,-0.0194504261016845,-0.004551975056529,-0.9255446195602416,0.378111332654953,0.1800292326321415,0.0049872260044386,-6.762244480631362e-05,0.0100089674815535,0.0310408007353544,0.1097303852438926,-0.0179062392562627,-0.0052203452214598,-0.901472806930542,0.4324338138103485,0.0035018611586252,0.0374264271327706,0.0761334348931074,-0.2887579798698425,0.2335355877876281,0.4590711593627929,15,359,12179,20449
22.9,1788263063211,4.760563373565674,5.690140724182129,-0.0201508868485689,-0.0046694092452526,-0.9237972497940063,0.3823228478431701,0.1753076941900407,0.0048012032782282,0.0002799100197177,-0.0105924140661954,-0.0804570093750953,0.0903823375701904,-0.0190268922597169,-0.0057407962158322,-0.8994618058204651,0.4365472495555877,0.020299517771832,0.0247376085533046,0.1094016007913414,0.2438547611236572,-0.3534684777259826,0.1968889236450195,45,314,12076,20201
23.0,1788263063311,4.253520965576172,5.88732385635376,-0.0193983595818281,-0.0043566133826971,-0.9219582676887512,0.3867785930633545,0.1780274179180192,0.0015606977642144,-1.1567598887200997e-05,-0.0053978050127625,0.0028757264371961,0.0735686644911766,-0.0189613923430442,-0.0051988633349537,-0.8971322178840637,0.441324383020401,0.0083834063022804,0.0300382844217176,0.1317796798731665,0.1477583646774292,-0.3196722269058227,0.783625602722168,9,451,8850,23961
23.1,1788263063411,4.11267614364624,6.2253522872924805,-0.0195556059479713,-0.004531311802566,-0.9192032217979432,0.393271654844284,0.175172287319209,0.008925361305808,7.303872448746914e-05,0.017207620665431,-0.0241634417325258,0.2115989774465561,-0.0192960407584905,-0.0056270500645041,-0.8924310207366943,0.4507360160350799,0.0061294922439517,-0.0081638809206635,0.2401032694938851,-0.1136006712913513,-0.0815734267234802,0.0549135208129882,10,461,8618,23855
23.2,1788263063511,3.9718310832977295,6.422535419464111,-0.0192495547235012,-0.0042620869353413,-0.9139937162399292,0.4052490293979645,0.1711934984791133,0.0070799328399711,3.987505733497495e-05,0.0005720147746615,0.0161501970142126,0.2718601822853088,-0.0193403866142034,-0.0057540675625205,-0.8843259215354919,0.4664339125156402,0.0095883974443657,-0.0301972695448159,0.3280444951102361,-0.0346007943153381,0.1094754338264465,-0.3419857025146484,12,356,8845,23043
23.3,1788263063611,3.492957830429077,6.366197109222412,-0.019826054573059,-0.0050033596344292,-0.9069072604179382,0.4208336770534515,0.1693362103522707,0.0052092441511676,4.0843273002930045e-05,0.0171638801693916,-0.0178217887878417,0.3141452074050903,-0.019452266395092,-0.0062752114608883,-0.8768819570541382,0.48027104139328,0.0017437729795754,0.0216598890024824,0.3898268902801099,0.5208961963653564,-0.3538146018981933,0.1468439102172851,17,357,10581,23106
23.4,1788263063711,3.690140962600708,6.366197109222412,-0.0200325865298509,-0.0054739573970437,-0.8993529081344604,0.4367300271987915,0.1775234025380703,0.0041578703139408,-4.4436010190639314e-05,0.0105968406423926,-0.0051844273693859,0.3418918251991272,-0.0195762142539024,-0.0064532002434134,-0.8696557879447937,0.4932280778884887,0.0013165675998504,0.0187374614253601,0.3307848743275668,0.0847929120063781,0.0359989404678344,-0.0576210021972656,19,341,10883,22258
23.5,1788263063811,4.197183132171631,5.915493011474609,-0.0188400447368621,-0.0050750020891427,-0.8930389881134033,0.4495560526847839,0.1746080513181926,0.003826076053203,-0.0001186417150196,0.0177952367812395,0.0453372485935688,0.3018203675746918,-0.0194493811577558,-0.006778547540307,-0.8611982464790344,0.507851779460907,0.0095391093732974,-0.0605592231001166,0.2475035488418024,0.1136616468429565,0.0181119441986084,-0.3324041366577148,10,352,11017,21462
23.6,1788263063911,4.507042407989502,5.943662166595459,-0.0197163764387369,-0.0058473851531744,-0.8871057629585266,0.4611079096794128,0.1737971363031001,0.0052785161213349,0.0001286512842864,0.0173941385000944,-0.0240205787122249,0.2426374405622482,-0.0197266861796379,-0.0075026703998446,-0.8561632633209229,0.5162742137908936,0.0072043480226271,-0.0361839038212515,0.1798041521987827,-0.089190125465393,0.0578139424324035,-0.1154699325561523,16,344,10363,21370
23.7,1788263064011,4.2816901206970215,5.830986022949219,-0.0194916725158691,-0.006295477040112,-0.8823553919792175,0.4701377749443054,0.171789909729202,0.0069233703569195,-9.506540446784442e-06,0.0153385465964674,0.0169577226042747,0.1972788721323013,-0.0196383856236934,-0.007840909063816,-0.8519620895385742,0.5231762528419495,0.0081894610571598,-0.0301079658871055,0.1631446367622569,-0.0042146444320678,0.1570956707000732,-0.13934326171875,13,367,10743,21863
23.8,1788263064111,4.02816915512085,6.0,-0.0196747593581676,-0.0064157145097851,-0.8777827024459839,0.4786118865013122,0.1710601091355414,0.008114598914714,-3.295923857667896e-05,0.00215944647789,0.0113635556772351,0.1820794939994812,-0.0189105123281478,-0.0079779205843806,-0.8458600640296936,0.533009946346283,0.0226119411280146,0.0269055172590713,0.2077173854804959,0.2135772705078125,-0.2797346115112304,0.1995878219604492,11,358,11460,21589
23.9,1788263064211,4.11267614364624,6.0,-0.0189873334020376,-0.006635645404458,-0.8735249042510986,0.4863637685775757,0.1737846883141001,0.0037918109736195,-0.000120660848198,0.0061393668875098,0.0315279141068458,0.1852382719516754,-0.0196420196443796,-0.0083519546315073,-0.8415000438690186,0.5398352146148682,0.0086940630788482,-0.0160680545634153,0.1902170483840829,0.2351858615875244,-0.0813920497894287,0.0060691833496093,16,357,11286,21322
24.0,1788263064311,4.02816915512085,5.915493011474609,-0.0197990834712982,-0.0072224829345941,-0.8688367009162903,0.4946500360965729,0.1709914367715129,0.0053492634442543,-8.150715098755861e-05,0.010414594784379,0.0114541025832295,0.1955389529466629,-0.0192539114505052,-0.0082622729241848,-0.8363606929779053,0.5477791428565979,0.0061096581269192,0.0075138887029035,0.2375355413818615,-0.1695207357406616,0.1807119846343994,-0.0595216751098632,14,358,11389,22074
24.1,1788263064411,4.14084529876709,6.0,-0.0198672655969858,-0.0072691603563725,-0.8630656003952026,0.5046486258506775,0.1727784914673842,0.0066030136256167,3.0098038534236453e-05,0.0047471062280237,-0.0076013575308024,0.2055332064628601,-0.0191979724913835,-0.0083409333601593,-0.8295632600784302,0.558020293712616,0.0010420560563819,0.0042218897208007,0.2266852594424222,0.124763548374176,-0.0350082516670227,0.1472139358520507,22,372,11585,21868
24.2,1788263064511,4.507042407989502,6.02816915512085,-0.019327338784933,-0.0071427533403038,-0.8579438328742981,0.5133300423622131,0.1788808502594711,0.0072679370739441,-2.4583748520262698e-05,0.0051714782603085,0.011151417158544,0.20376817882061,-0.0187170542776584,-0.0079709477722644,-0.8246604204177856,0.5652623176574707,-0.002312166083003,-0.0217164518493417,0.1841578589149913,-0.3415582180023193,0.2124823927879333,0.0288667678833007,9,347,9838,21312
24.3,1788263064611,4.2253522872924805,5.85915470123291,-0.0188823454082012,-0.0066112335771322,-0.8535250425338745,0.5206676721572876,0.1694899172236652,0.0079942509962286,-8.094310882961275e-06,-0.0013811412500217,0.0170979667454957,0.1896419078111648,-0.0180329624563455,-0.007541156373918,-0.8199718594551086,0.5720700025558472,0.006508551332772,0.0080639306973733,0.1672163447994954,-0.0757239460945129,0.1212013959884643,0.0775575637817382,13,407,10856,22264
24.4,1788263064711,4.253520965576172,5.88732385635376,-0.0184363480657339,-0.0070020677521824,-0.8487535119056702,0.5284206867218018,0.1713087282047974,0.0069309626089887,3.18102065614544e-05,0.0187739860266447,-0.0095910811796784,0.1815384179353714,-0.0177390333265066,-0.007960514165461,-0.814517617225647,0.5798129439353943,0.0046096545117999,0.014769916481795,0.1373302173877889,0.1710203289985656,-0.2987682223320007,0.3831567764282226,37,402,11197,22340
24.5,1788263064811,4.309859275817871,5.97183084487915,-0.0181780960410833,-0.0070405527949333,-0.84432452917099,0.5354773998260498,0.1760080792711073,0.00708994869983,2.4876957836097747e-05,0.0072092874906957,-0.00226362911053,0.1742832660675048,-0.0169562194496393,-0.0078094005584716,-0.809756875038147,0.586468517780304,0.018948735098542,0.02406537582175,0.1783526139119613,-0.3337267637252807,-0.0097419619560241,0.1570453643798828,14,387,10585,21816
24.6,1788263064911,4.11267614364624,5.802816867828369,-0.0171231552958488,-0.0066906884312629,-0.8388266563415527,0.5440881848335266,0.175281804208885,0.0075729315870627,-3.650722993866247e-05,0.005189798772335,0.0105986697599291,0.1865417808294296,-0.0161757189780473,-0.0075357323512434,-0.8025648593902588,0.5962979197502136,0.0028704849133342,0.0532186071545865,0.2129621793093584,0.4185560941696167,-0.1081066131591796,0.5409173965454102,13,369,11080,22137
24.7,1788263065011,3.91549301147461,5.88732385635376,-0.0164343994110822,-0.0064556957222521,-0.8334875702857971,0.5522559285163879,0.1816922582127322,0.0059070328900226,-9.984549825869864e-05,0.0005587374325841,0.0242682471871376,0.2008133083581924,-0.0151443518698215,-0.0065429871901869,-0.7968515753746033,0.6039499640464783,0.00168281053791,0.0657666654408642,0.2051251628169415,-0.1355077028274536,-0.1939275860786438,0.650853157043457,27,353,12025,21536
24.8,1788263065111,4.11267614364624,5.915493011474609,-0.0158471912145614,-0.0059274369850754,-0.8275628089904785,0.5611181259155273,0.1783976450684523,0.0044318719956685,-4.075978634263466e-05,0.0033608085941523,-0.0074728587642312,0.2022160440683365,-0.0157785378396511,-0.0073787085711956,-0.7912704944610596,0.6112182140350342,0.0184765531716822,-0.0302466870361036,0.2004748856143565,-0.1510143876075744,0.0560949444770813,-0.2591781616210937,35,336,11469,21288
24.9,1788263065211,4.2253522872924805,6.084506988525391,-0.0160483662039041,-0.0066504143178462,-0.8216719031333923,0.5696958899497986,0.1748283152071456,0.0070795737213599,2.9075822754053325e-05,0.0101071642711758,-0.0006853024824522,0.1769072711467743,-0.0152764152735471,-0.007548801600933,-0.7861762642860413,0.6177674531936646,0.0200790419620666,0.0208844922953063,0.2001700113085618,-0.1696277260780334,0.1862335205078125,0.3089685440063476,10,351,10758,21002
25.0,1788263065311,1.9154930114746092,4.676056385040283,-0.0174309220165014,-0.0075868023559451,-0.8170080184936523,0.5763128399848938,0.174367052050638,0.0066638850357822,0.0001939458904052,0.00390893407166,-0.0820625200867652,0.1623125225305557,-0.0150286965072155,-0.0071960482746362,-0.7787725329399109,0.6270850300788879,0.0137668147073561,0.0569635551604312,0.2273668696008575,-1.1676112413406372,0.2399730682373047,0.1935186386108398,121,185,0,14508
25.1,1788263065411,1.042253494262695,2.9577465057373047,-0.0156068410724401,-0.0066096540540456,-0.8107827305793762,0.585101842880249,0.1130153911375852,0.0049673395879294,3.5695924608136017e-06,0.0124720241874456,-0.0122232437133789,0.2564336657524109,-0.0155747476965188,-0.0079475091770291,-0.7695519924163818,0.6383447051048279,0.0084963470331893,-0.0086347133417909,0.3070815261354911,-0.2680148482322693,0.0031111240386962,0.1780691146850586,31,280,0,12769
25.2,1788263065511,-1.97183096408844,2.05633807182312,-0.0163771696388721,-0.0073427888564765,-0.8018336296081543,0.597277820110321,0.0632620084817278,0.0021756405821523,2.038326490856848e-05,0.0066265850327908,-0.0233144853264093,0.2986690104007721,-0.0157412439584732,-0.0081977490335702,-0.7612159848213196,0.6482555270195007,0.0100880526452599,0.0174011715655698,0.3418662017709603,-0.9040100574493408,0.3334268927574157,0.3312931060791015,253,352,-11385,11809
25.3,1788263065611,-1.887323975563049,1.6619718074798584,-0.0169447008520364,-0.0080649200826883,-0.7908825278282166,0.6116802096366882,0.0119448094266292,0.0101338345007859,8.004607771588772e-06,0.0121189281344413,-0.0372399166226387,0.3637837469577789,-0.0167178586125373,-0.0093654757365584,-0.7502992153167725,0.6608206629753113,0.0123029046843481,-0.0195198457566629,0.3642669328721598,0.1746656894683838,-0.2429660558700561,-0.0423994064331054,195,451,-10551,12571
25.4,1788263065711,-1.8028168678283687,1.6619718074798584,-0.0171623975038528,-0.0087220463901758,-0.7805993556976318,0.6247351765632629,0.0198198899190554,7.215194633328183e-05,1.918121609179812e-06,0.0159303769469261,-0.0080308094620704,0.302460104227066,-0.016694163903594,-0.0099888332188129,-0.7380841970443726,0.6744281053543091,0.0086003028915017,-0.0006593297421837,0.2991088148999544,-0.0675858855247497,0.0806078314781189,0.0557231903076171,247,472,-11541,13510
25.5,1788263065811,-1.774647831916809,1.9154930114746092,-0.0172041654586792,-0.0090258438140153,-0.7714077830314636,0.636044442653656,0.0194722511229038,0.0042259905074925,-1.6292267055418531e-06,0.0075159398838877,0.0011307816021144,0.3503386676311493,-0.0164581295102834,-0.0101622557267546,-0.7267364263534546,0.6866439580917358,0.0190720350863327,0.0011195097887772,0.3760325711018726,-0.106758713722229,-0.023243248462677,0.0905790328979492,194,428,-11458,12423
25.6,1788263065911,-1.9154930114746092,1.8591549396514893,-0.0170140415430068,-0.009651243686676,-0.759533703327179,0.6501737236976624,0.0198916049083526,0.0012934312761155,2.62288479131331e-06,0.0221665557473897,-0.0127494921907782,0.3664276301860809,-0.0163999814540147,-0.0106999473646283,-0.7151954770088196,0.6986501216888428,0.0075932078621594,0.0004420867947745,0.383962764129283,-0.0839581489562988,-0.0295110344886779,-0.0905170440673828,226,412,-11083,12400
25.7,1788263066011,-1.6619718074798584,1.8309859037399288,-0.0168220177292823,-0.0096116419881582,-0.7471665143966675,0.6643545031547546,0.0092370271977233,0.0056711797121341,-3.2484222936952925e-06,0.0076534878462553,0.0065483045764267,0.3905005156993866,-0.0164786856621503,-0.0113043133169412,-0.6987531185150146,0.7150837182998657,0.0211428004646232,-0.0286817762107069,0.3693895952781156,-0.0684256553649902,0.1156011819839477,-0.0710887908935546,320,386,-11856,12556
25.8,1788263066111,-1.7183098793029783,1.887323975563049,-0.0172405522316694,-0.0105623258277773,-0.7331519722938538,0.6797642707824707,0.0129682621468447,0.0060953353948546,1.3388998624888482e-05,0.0137245254591107,-0.0185144264250993,0.3544590175151825,-0.0162861719727516,-0.0111588919535279,-0.6876140236854553,0.7258080840110779,0.0077012098924464,0.02409077426768,0.3460792262654666,-0.0151871442794799,-0.142829954624176,0.1193265914916992,264,463,-11343,12738
25.9,1788263066211,-1.5211267471313477,1.6901408433914185,-0.0168710425496101,-0.010408878326416,-0.7227012515068054,0.690876305103302,0.0190633118857238,0.0013501791320516,1.8012811312329225e-06,0.0139073394238948,-0.0068448870442807,0.3420199453830719,-0.0162349939346313,-0.0116593744605779,-0.6767647862434387,0.735927939414978,0.0140422578389057,-0.0090492397224276,0.2923579578340007,-0.1619505882263183,0.1001599431037902,0.0503616333007812,231,344,-10156,10910
26.0,1788263066311,-1.436619758605957,1.6619718074798584,-0.0167372487485408,-0.010793287307024,-0.7108073234558105,0.7031047344207764,0.0098041035904685,0.0039890235966527,3.699777940664537e-06,0.0120187532156705,0.0010937661863863,0.3610791265964508,-0.0159049890935421,-0.0116971060633659,-0.6608052849769592,0.7502976059913635,0.01295922874986,-0.0084530781627752,0.3560337458379066,0.0198646187782287,0.0207555294036865,0.0021390914916992,241,324,-9947,10383
26.1,1788263066411,0.0,2.3943662643432617,-0.0164775755256414,-0.0110503584146499,-0.6968234181404114,0.7169683575630188,0.0107665766160035,0.0027269461169716,1.916571036376234e-06,0.0164360906928777,-0.0084495274350047,0.3553189933300018,-0.0159000512212514,-0.0125344460830092,-0.6494573354721069,0.7601285576820374,0.0173768424485585,-0.0233163325075139,0.2771543878165838,0.8326729536056519,-0.0671581029891967,-0.2194852828979492,8,469,0,15066
26.2,1788263066511,2.619718313217163,3.577464818954468,-0.0162252429872751,-0.0112831136211752,-0.6863441467285156,0.7270084023475647,0.0523992657415931,0.0035777006483496,-1.260086024757373e-05,0.0070233289152383,0.0172128528356552,0.2701616287231445,-0.0157216042280197,-0.0128211211413145,-0.6414129734039307,0.7669274806976318,0.0224078095430658,-0.0430476852253806,0.170810594018176,0.8983834981918335,-0.1625133752822876,0.0012168884277343,130,472,10551,18279
26.3,1788263066611,5.183098793029785,4.619718074798584,-0.0166825242340564,-0.0126763340085744,-0.682584285736084,0.7305065393447876,0.1215127249492474,0.0027730442193676,6.227583783526342e-05,0.0105478316545486,-0.0222531668841838,0.0629008635878562,-0.0157386362552642,-0.0136735141277313,-0.6406987905502319,0.7675092220306396,0.003345979812103,-0.0124840745177673,-0.1083858542664594,0.7545793652534485,-0.3659008145332336,-0.3489313125610351,230,414,19070,19373
26.4,1788263066711,5.6619720458984375,4.901408672332764,-0.0160070341080427,-0.0121275149285793,-0.6857074499130249,0.7276002168655396,0.1829229576025294,-0.009965588007394,3.17713285833423e-05,-0.0040703066624701,0.0265263449400663,-0.1721014678478241,-0.0140268914401531,-0.0112201673910021,-0.6486532092094421,0.7608720660209656,-0.0144462643671947,0.0323216061062509,-0.2801479419306539,-0.2739138007164001,0.0510490536689758,-0.4300680160522461,39,252,16220,16841
26.5,1788263066811,5.605633735656738,4.535211086273193,-0.0143116861581802,-0.0097633199766278,-0.6945738792419434,0.7192127704620361,0.180622340435845,-0.0056735657200515,-3.298384095686048e-05,-0.013042920269072,0.0308371931314468,-0.2334162294864654,-0.0133855203166604,-0.0103344395756721,-0.6557102799415588,0.7548231482505798,0.0063984943128165,0.0046401850400319,-0.1799135175085439,-0.2591767907142639,0.1869485974311828,-0.0239191055297851,44,269,14820,16787
26.6,1788263066911,5.352112770080566,4.676056385040283,-0.0147151192650198,-0.0103020528331398,-0.7014517784118652,0.7124905586242676,0.1730898612903441,-0.0090440500161839,9.870950710710176e-05,-0.0051375492475926,-0.0364411808550357,-0.1739457249641418,-0.0142200887203216,-0.0113115049898624,-0.6634418964385986,0.7480071187019348,0.0067266292441353,0.0100012252475668,-0.1808719316532614,-0.0625461339950561,0.4737696051597595,0.0234317779541015,35,361,13868,18949
26.7,1788263067011,5.267605781555176,4.929577350616455,-0.0147407669574022,-0.0100997891277074,-0.7063633799552917,0.7076238393783569,0.1764606654526125,-0.0050537173771171,-3.0648976448415304e-05,-0.011633695103228,0.0186138451099395,-0.1237371712923049,-0.0140911061316728,-0.0106124747544527,-0.6666092276573181,0.7451987266540527,-0.0050801076320002,0.012858807144497,-0.0644939853057866,0.1501942276954651,-0.1240090727806091,0.0289602279663085,72,315,14539,18502
26.8,1788263067111,5.408450603485107,4.957746505737305,-0.0142789185047149,-0.0091782659292221,-0.70899897813797,0.7050051689147949,0.1814357696835745,-0.003782312449333,-0.000154547490059,-0.0101360660046339,0.0356408208608627,-0.0806875452399253,-0.0133894672617316,-0.0095009105280041,-0.6694852113723755,0.7426440119743347,0.002112928265723,0.034253909297236,-0.0946146160498124,-0.099553644657135,0.0100939273834228,0.0400142669677734,31,308,13654,17913
26.9,1788263067211,5.154929637908936,4.816901206970215,-0.013049884699285,-0.0079780062660574,-0.7128675580024719,0.7011318802833557,0.1722131043972661,-0.0047297196101666,-0.0001185360688275,8.581101428717375e-05,0.0381982363760471,-0.0951376631855964,-0.0133198592811822,-0.0090291239321231,-0.6741448640823364,0.7384238839149475,-0.0043517465623159,-0.0395408338752543,-0.0905169932859167,0.1162111163139343,-0.1621975898742675,-0.2817115783691406,27,343,14364,18480
27.0,1788263067311,5.352112770080566,4.985915660858154,-0.0137645527720451,-0.0082736611366271,-0.7164134979248047,0.6974910497665405,0.176929760908432,-0.004982407793656,6.090303068738878e-05,0.000314658798743,-0.0026704573538154,-0.0888115987181663,-0.0130962049588561,-0.0089995227754116,-0.6772868037223816,0.7355475425720215,0.0020490573820729,0.0019335311230388,-0.0996671367556429,-0.075669527053833,0.319218635559082,-0.1125164031982421,46,323,14099,17953
27.1,1788263067411,4.8450703620910645,4.619718074798584,-0.0134360129013657,-0.0079693868756294,-0.7195262908935547,0.69428950548172,0.1728536961011,-0.0023315194550568,-4.285770711454122e-05,-0.0057610617950558,0.0111391460523009,-0.0951902940869331,-0.0130809918045997,-0.0087075596675276,-0.6805128455162048,0.7325677275657654,-0.0051821670841514,0.0036389203256111,-0.1047401694858192,-0.1408224701881408,-0.0355865955352783,0.3550319671630859,13,261,10313,16429
27.2,1788263067511,2.366197109222412,3.492957830429077,-0.0134929772466421,-0.0081916395574808,-0.7215514779090881,0.6921806931495667,0.1579765956861438,-0.0028335870455843,1.8971271932691685e-05,0.0079977670684456,-0.0043890653178095,-0.0365091450512409,-0.0130175733938813,-0.0090843802317976,-0.6803991198539734,0.7326698303222656,0.0064748549029841,-0.0342938746663487,0.0760403845758543,-1.2013579607009888,0.3092618584632873,0.0316324234008789,73,184,1362,12210
27.3,1788263067611,0.7887324094772339,2.08450698852539,-0.0138762444257736,-0.0087439585477113,-0.7191240787506104,0.6946882009506226,0.0756795675873775,0.0028889765579904,2.1614289478509607e-05,0.0073123099282383,-0.0262470766901969,0.1363143771886825,-0.0145478518679738,-0.0109154116362333,-0.6746549010276794,0.737909197807312,0.0054668792962262,-0.0634501113667769,0.1676715461162544,-0.22804856300354,-0.0160343050956726,-0.153472900390625,19,314,0,10527
27.4,1788263067711,-1.4647886753082275,1.3239436149597168,-0.0148189468309283,-0.0098296580836176,-0.7127995491027832,0.7011422514915466,0.0355682610030458,0.0010947003496527,1.59084053115111e-05,0.0046520605683326,-0.0007800199091434,0.1443647146224975,-0.0141547638922929,-0.0106187537312507,-0.6695346832275391,0.7425701022148132,0.0053489915830757,0.0014971107796436,0.1855468271217555,-0.5684412717819214,0.1708996295928955,0.1651372909545898,207,359,-9707,11290
27.5,1788263067811,-1.380281686782837,1.380281686782837,-0.0155278127640485,-0.0106931272894144,-0.7055914998054504,0.7083679437637329,0.0062543057981468,0.0066026750550479,3.2585110064349918e-06,0.0067559839226305,-0.0477686189115047,0.2614383399486542,-0.0148494960740208,-0.0112850693985819,-0.6592496633529663,0.7516928315162659,7.5936955896337185e-06,0.0115231991146875,0.1877966561963823,0.0031676292419433,0.0141389369964599,0.1106843948364257,226,501,-10016,12751
27.6,1788263067911,-1.436619758605957,1.5492957830429075,-0.0156662724912166,-0.0106540210545063,-0.6982355713844299,0.715617299079895,0.0206381137056229,0.0020422531982609,2.9791906383000177e-06,0.0041183531284332,-0.0119259878993034,0.2076133638620376,-0.0149942105636,-0.0116505082696676,-0.6502879858016968,0.7594504356384277,0.0082264800950251,-0.0041752699924188,0.2673224450558633,-0.1609576344490051,0.0396117568016052,0.0562829971313476,278,494,-10237,12441
27.7,1788263068011,-1.6056338548660278,1.5492957830429075,-0.0160271693021059,-0.0110680349171161,-0.6871317625045776,0.7262716889381409,0.0169518851687053,0.0033801060967101,8.014077696792705e-06,0.0031465103384107,-0.0175549872219562,0.2891942858695984,-0.0151508618146181,-0.0113307842984795,-0.640546977519989,0.7676858305931091,-0.0064490133793472,0.0349496785595593,0.2636553533108812,-0.014117956161499,0.0049198269844055,0.1699142456054687,187,454,-9206,12036
27.8,1788263068111,-1.4929577112197876,1.6901408433914185,-0.0156185226514935,-0.0102302264422178,-0.6774612665176392,0.7353214621543884,0.0202169771546438,0.0008894811667068,-1.186561063045168e-05,0.0025436677969992,0.0140823246911168,0.3002733886241913,-0.0150014758110046,-0.0112908016890287,-0.6303564310073853,0.7760787010192871,0.0128002333646164,-0.0086488535560912,0.2877433448139047,-0.1618670225143432,0.1836698651313781,-0.0489778518676757,231,357,-9609,10889
27.9,1788263068211,-1.5211267471313477,1.5492957830429075,-0.015654744580388,-0.0105803851038217,-0.6660953760147095,0.7456271648406982,0.014631646027172,0.0044893406535819,1.636267194291908e-06,0.0082169091328978,-0.0057649528607726,0.3118564784526825,-0.0151795921847224,-0.0118077863007783,-0.6162576079368591,0.7873098254203796,0.0102868545044863,-0.018943896483682,0.270742873650023,0.0303110480308532,0.0099655985832214,0.0375175476074218,209,415,-9587,11124
28.0,1788263068311,-1.2676056623458862,1.2394366264343262,-0.015903802588582,-0.0111533571034669,-0.6566428542137146,0.7539514303207397,0.0178168071643566,-5.6762533025890986e-05,4.032134125013868e-06,0.0107802581042051,-0.0168212819844484,0.2755836844444275,-0.0149399721994996,-0.0119293304160237,-0.606831431388855,0.7946006059646606,0.011544354913105,0.0116346220166479,0.2531830291290091,-0.1711765527725219,0.019199252128601,0.1386775970458984,256,316,-8113,9792
