time_s,timestamp_ms,wheel_vels__velocity_left,wheel_vels__velocity_right,odom__orient_x,odom__orient_y,odom__orient_z,odom__orient_w,odom__lin_x,odom__lin_y,odom__lin_z,odom__ang_x,odom__ang_y,odom__ang_z,imu__orient_x,imu__orient_y,imu__orient_z,imu__orient_w,imu__angvel_x,imu__angvel_y,imu__angvel_z,imu__acc_x,imu__acc_y,imu__acc_z,wheel_status__current_ma_left,wheel_status__current_ma_right,wheel_status__pwm_left,wheel_status__pwm_right
0.0,1788267174974,0.0,0.0,-0.0072408812120556,-0.0010120868682861,0.5729177594184875,0.8195802569389343,0.0,0.0,0.0,-0.0001732333475956,-0.0002601495070848,-6.036826562194619e-06,-0.0043740728870034,-0.0058527467772364,0.985463559627533,0.169729933142662,0.0002275458057331,-0.0001007540976586,-3.2063276765145696e-10,0.0255863666534423,0.0034391283988952,-0.000960350036621,0,0,0,0
0.1,1788267175074,0.0,0.0,-0.0072408812120556,-0.0010120868682861,0.5729177594184875,0.8195802569389343,0.0,0.0,0.0,-0.0001732333475956,-0.0002601495070848,-6.036826562194619e-06,-0.0043740728870034,-0.0058527467772364,0.985463559627533,0.169729933142662,0.0002275458057331,-0.0001007540976586,-3.2063276765145696e-10,0.0255863666534423,0.0034391283988952,-0.000960350036621,0,0,0,0
0.2,1788267175174,0.0,0.0,-0.0072408812120556,-0.0010120868682861,0.5729177594184875,0.8195802569389343,0.0,0.0,0.0,-0.0001732333475956,-0.0002601495070848,-6.036826562194619e-06,-0.0043740728870034,-0.0058527467772364,0.985463559627533,0.169729933142662,0.0002275458057331,-0.0001007540976586,-3.2063276765145696e-10,0.0255863666534423,0.0034391283988952,-0.000960350036621,0,0,0,0
0.3,1788267175274,0.0,0.0,-0.0072408812120556,-0.0010120868682861,0.5729177594184875,0.8195802569389343,0.0,0.0,0.0,-0.0001732333475956,-0.0002601495070848,-6.036826562194619e-06,-0.0043740728870034,-0.0058527467772364,0.985463559627533,0.169729933142662,0.0002275458057331,-0.0001007540976586,-3.2063276765145696e-10,0.0255863666534423,0.0034391283988952,-0.000960350036621,0,0,0,0
0.4,1788267175374,0.0,0.0,-0.0072408812120556,-0.0010120868682861,0.5729177594184875,0.8195802569389343,0.0,0.0,0.0,-0.0001732333475956,-0.0002601495070848,-6.036826562194619e-06,-0.0043740728870034,-0.0058527467772364,0.985463559627533,0.169729933142662,0.0002275458057331,-0.0001007540976586,-3.2063276765145696e-10,0.0255863666534423,0.0034391283988952,-0.000960350036621,0,0,0,0
0.5,1788267175474,0.0,0.0,-0.0072408812120556,-0.0010120868682861,0.5729177594184875,0.8195802569389343,0.0,0.0,0.0,-0.0001732333475956,-0.0002601495070848,-6.036826562194619e-06,-0.0043740728870034,-0.0058527467772364,0.985463559627533,0.169729933142662,0.0002275458057331,-0.0001007540976586,-3.2063276765145696e-10,0.0255863666534423,0.0034391283988952,-0.000960350036621,0,0,0,0
0.6,1788267175574,0.0,0.0,-0.0072408812120556,-0.0010120868682861,0.5729177594184875,0.8195802569389343,0.0,0.0,0.0,-0.0001732333475956,-0.0002601495070848,-6.036826562194619e-06,-0.0043740728870034,-0.0058527467772364,0.985463559627533,0.169729933142662,0.0002275458057331,-0.0001007540976586,-3.2063276765145696e-10,0.0255863666534423,0.0034391283988952,-0.000960350036621,0,0,0,0
0.7,1788267175674,0.0,0.0,-0.0072408812120556,-0.0010120868682861,0.5729177594184875,0.8195802569389343,0.0,0.0,0.0,-0.0001732333475956,-0.0002601495070848,-6.036826562194619e-06,-0.0043740728870034,-0.0058527467772364,0.985463559627533,0.169729933142662,0.0002275458057331,-0.0001007540976586,-3.2063276765145696e-10,0.0255863666534423,0.0034391283988952,-0.000960350036621,0,0,0,0
0.8,1788267175774,0.0,0.0,-0.0072408812120556,-0.0010120868682861,0.5729177594184875,0.8195802569389343,0.0,0.0,0.0,-0.0001732333475956,-0.0002601495070848,-6.036826562194619e-06,-0.0043740728870034,-0.0058527467772364,0.985463559627533,0.169729933142662,0.0002275458057331,-0.0001007540976586,-3.2063276765145696e-10,0.0255863666534423,0.0034391283988952,-0.000960350036621,0,0,0,0
0.9,1788267175874,0.0,0.0,-0.0072408812120556,-0.0010120868682861,0.5729177594184875,0.8195802569389343,0.0,0.0,0.0,-0.0001732333475956,-0.0002601495070848,-6.036826562194619e-06,-0.0043740728870034,-0.0058527467772364,0.985463559627533,0.169729933142662,0.0002275458057331,-0.0001007540976586,-3.2063276765145696e-10,0.0255863666534423,0.0034391283988952,-0.000960350036621,0,0,0,0
1.0,1788267175974,0.0,0.0,-0.0072408812120556,-0.0010120868682861,0.5729177594184875,0.8195802569389343,0.0,0.0,0.0,-0.0001732333475956,-0.0002601495070848,-6.036826562194619e-06,-0.0043740728870034,-0.0058527467772364,0.985463559627533,0.169729933142662,0.0002275458057331,-0.0001007540976586,-3.2063276765145696e-10,0.0255863666534423,0.0034391283988952,-0.000960350036621,0,0,0,0
1.1,1788267176074,0.0,0.0,-0.0072408812120556,-0.0010120868682861,0.5729177594184875,0.8195802569389343,0.0,0.0,0.0,-0.0001732333475956,-0.0002601495070848,-6.036826562194619e-06,-0.0043740728870034,-0.0058527467772364,0.985463559627533,0.169729933142662,0.0002275458057331,-0.0001007540976586,-3.2063276765145696e-10,0.0255863666534423,0.0034391283988952,-0.000960350036621,0,0,0,0
1.2,1788267176174,0.0,0.0,-0.0072408812120556,-0.0010120868682861,0.5729177594184875,0.8195802569389343,0.0,0.0,0.0,-0.0001732333475956,-0.0002601495070848,-6.036826562194619e-06,-0.0043740728870034,-0.0058527467772364,0.985463559627533,0.169729933142662,0.0002275458057331,-0.0001007540976586,-3.2063276765145696e-10,0.0255863666534423,0.0034391283988952,-0.000960350036621,0,0,0,0
1.3,1788267176274,0.0,0.0,-0.0072408812120556,-0.0010120868682861,0.5729177594184875,0.8195802569389343,0.0,0.0,0.0,-0.0001732333475956,-0.0002601495070848,-6.036826562194619e-06,-0.0043740728870034,-0.0058527467772364,0.985463559627533,0.169729933142662,0.0002275458057331,-0.0001007540976586,-3.2063276765145696e-10,0.0255863666534423,0.0034391283988952,-0.000960350036621,0,0,0,0
1.4,1788267176374,0.0,0.0,-0.0072408812120556,-0.0010120868682861,0.5729177594184875,0.8195802569389343,0.0,0.0,0.0,-0.0001732333475956,-0.0002601495070848,-6.036826562194619e-06,-0.0043740728870034,-0.0058527467772364,0.985463559627533,0.169729933142662,0.0002275458057331,-0.0001007540976586,-3.2063276765145696e-10,0.0255863666534423,0.0034391283988952,-0.000960350036621,0,0,0,0
1.5,1788267176474,0.0,0.0,-0.0072408812120556,-0.0010120868682861,0.5729177594184875,0.8195802569389343,0.0,0.0,0.0,-0.0001732333475956,-0.0002601495070848,-6.036826562194619e-06,-0.0043740728870034,-0.0058527467772364,0.985463559627533,0.169729933142662,0.0002275458057331,-0.0001007540976586,-3.2063276765145696e-10,0.0255863666534423,0.0034391283988952,-0.000960350036621,0,0,0,0
1.6,1788267176574,0.0,0.0,-0.0072408812120556,-0.0010120868682861,0.5729177594184875,0.8195802569389343,0.0,0.0,0.0,-0.0001732333475956,-0.0002601495070848,-6.036826562194619e-06,-0.0043740728870034,-0.0058527467772364,0.985463559627533,0.169729933142662,0.0002275458057331,-0.0001007540976586,-3.2063276765145696e-10,0.0255863666534423,0.0034391283988952,-0.000960350036621,0,0,0,0
1.7,1788267176674,0.0,0.0,-0.0072408812120556,-0.0010120868682861,0.5729177594184875,0.8195802569389343,0.0,0.0,0.0,-0.0001732333475956,-0.0002601495070848,-6.036826562194619e-06,-0.0043740728870034,-0.0058527467772364,0.985463559627533,0.169729933142662,0.0002275458057331,-0.0001007540976586,-3.2063276765145696e-10,0.0255863666534423,0.0034391283988952,-0.000960350036621,0,0,0,0
1.8,1788267176774,0.0,0.0,-0.0072408812120556,-0.0010120868682861,0.5729177594184875,0.8195802569389343,0.0,0.0,0.0,-0.0001732333475956,-0.0002601495070848,-6.036826562194619e-06,-0.0043740728870034,-0.0058527467772364,0.985463559627533,0.169729933142662,0.0002275458057331,-0.0001007540976586,-3.2063276765145696e-10,0.0255863666534423,0.0034391283988952,-0.000960350036621,0,0,0,0
1.9,1788267176874,0.0,0.0,-0.0072408812120556,-0.0010120868682861,0.5729177594184875,0.8195802569389343,0.0,0.0,0.0,-0.0001732333475956,-0.0002601495070848,-6.036826562194619e-06,-0.0043740728870034,-0.0058527467772364,0.985463559627533,0.169729933142662,0.0002275458057331,-0.0001007540976586,-3.2063276765145696e-10,0.0255863666534423,0.0034391283988952,-0.000960350036621,0,0,0,0
2.0,1788267176974,0.0,0.0,-0.0072408812120556,-0.0010120868682861,0.5729177594184875,0.8195802569389343,0.0,0.0,0.0,-0.0001732333475956,-0.0002601495070848,-6.036826562194619e-06,-0.0043740728870034,-0.0058527467772364,0.985463559627533,0.169729933142662,0.0002275458057331,-0.0001007540976586,-3.2063276765145696e-10,0.0255863666534423,0.0034391283988952,-0.000960350036621,0,0,0,0
2.1,1788267177074,0.0,0.0,-0.0072408812120556,-0.0010120868682861,0.5729177594184875,0.8195802569389343,0.0,0.0,0.0,-0.0001732333475956,-0.0002601495070848,-6.036826562194619e-06,-0.0043740728870034,-0.0058527467772364,0.985463559627533,0.169729933142662,0.0002275458057331,-0.0001007540976586,-3.2063276765145696e-10,0.0255863666534423,0.0034391283988952,-0.000960350036621,0,0,0,0
2.2,1788267177174,0.0,0.0,-0.0072408812120556,-0.0010120868682861,0.5729177594184875,0.8195802569389343,0.0,0.0,0.0,-0.0001732333475956,-0.0002601495070848,-6.036826562194619e-06,-0.0043740728870034,-0.0058527467772364,0.985463559627533,0.169729933142662,0.0002275458057331,-0.0001007540976586,-3.2063276765145696e-10,0.0255863666534423,0.0034391283988952,-0.000960350036621,0,0,0,0
2.3,1788267177274,0.0,0.0,-0.0072408812120556,-0.0010120868682861,0.5729177594184875,0.8195802569389343,0.0,0.0,0.0,-0.0001732333475956,-0.0002601495070848,-6.036826562194619e-06,-0.0043740728870034,-0.0058527467772364,0.985463559627533,0.169729933142662,0.0002275458057331,-0.0001007540976586,-3.2063276765145696e-10,0.0255863666534423,0.0034391283988952,-0.000960350036621,0,0,0,0
2.4,1788267177374,0.0,0.0,-0.0072408812120556,-0.0010120868682861,0.5729177594184875,0.8195802569389343,0.0,0.0,0.0,-0.0001732333475956,-0.0002601495070848,-6.036826562194619e-06,-0.0043740728870034,-0.0058527467772364,0.985463559627533,0.169729933142662,0.0002275458057331,-0.0001007540976586,-3.2063276765145696e-10,0.0255863666534423,0.0034391283988952,-0.000960350036621,0,0,0,0
2.5,1788267177474,0.0,0.0,-0.0072408812120556,-0.0010120868682861,0.5729177594184875,0.8195802569389343,0.0,0.0,0.0,-0.0001732333475956,-0.0002601495070848,-6.036826562194619e-06,-0.0043740728870034,-0.0058527467772364,0.985463559627533,0.169729933142662,0.0002275458057331,-0.0001007540976586,-3.2063276765145696e-10,0.0255863666534423,0.0034391283988952,-0.000960350036621,0,0,0,0
2.6,1788267177574,0.0,0.0,-0.0072408812120556,-0.0010120868682861,0.5729177594184875,0.8195802569389343,0.0,0.0,0.0,-0.0001732333475956,-0.0002601495070848,-6.036826562194619e-06,-0.0043740728870034,-0.0058527467772364,0.985463559627533,0.169729933142662,0.0002275458057331,-0.0001007540976586,-3.2063276765145696e-10,0.0255863666534423,0.0034391283988952,-0.000960350036621,0,0,0,0
2.7,1788267177674,0.0,0.0,-0.0072408812120556,-0.0010120868682861,0.5729177594184875,0.8195802569389343,0.0,0.0,0.0,-0.0001732333475956,-0.0002601495070848,-6.036826562194619e-06,-0.0043740728870034,-0.0058527467772364,0.985463559627533,0.169729933142662,0.0002275458057331,-0.0001007540976586,-3.2063276765145696e-10,0.0255863666534423,0.0034391283988952,-0.000960350036621,0,0,0,0
2.8,1788267177774,0.0,0.0,-0.0072408812120556,-0.0010120868682861,0.5729177594184875,0.8195802569389343,0.0,0.0,0.0,-0.0001732333475956,-0.0002601495070848,-6.036826562194619e-06,-0.0043740728870034,-0.0058527467772364,0.985463559627533,0.169729933142662,0.0002275458057331,-0.0001007540976586,-3.2063276765145696e-10,0.0255863666534423,0.0034391283988952,-0.000960350036621,0,0,0,0
2.9,1788267177874,0.0,0.0,-0.0072408812120556,-0.0010120868682861,0.5729177594184875,0.8195802569389343,0.0,0.0,0.0,-0.0001732333475956,-0.0002601495070848,-6.036826562194619e-06,-0.0043740728870034,-0.0058527467772364,0.985463559627533,0.169729933142662,0.0002275458057331,-0.0001007540976586,-3.2063276765145696e-10,0.0255863666534423,0.0034391283988952,-0.000960350036621,0,0,0,0
3.0,1788267177974,0.0,0.0,-0.0072408812120556,-0.0010120868682861,0.5729177594184875,0.8195802569389343,0.0,0.0,0.0,-0.0001732333475956,-0.0002601495070848,-6.036826562194619e-06,-0.0043740728870034,-0.0058527467772364,0.985463559627533,0.169729933142662,0.0002275458057331,-0.0001007540976586,-3.2063276765145696e-10,0.0255863666534423,0.0034391283988952,-0.000960350036621,0,0,0,0
3.1,1788267178074,0.0,0.0,-0.0072408812120556,-0.0010120868682861,0.5729177594184875,0.8195802569389343,0.0,0.0,0.0,-0.0001732333475956,-0.0002601495070848,-6.036826562194619e-06,-0.0043740728870034,-0.0058527467772364,0.985463559627533,0.169729933142662,0.0002275458057331,-0.0001007540976586,-3.2063276765145696e-10,0.0255863666534423,0.0034391283988952,-0.000960350036621,0,0,0,0
3.2,1788267178174,0.0,0.0,-0.0072408812120556,-0.0010120868682861,0.5729177594184875,0.8195802569389343,0.0,0.0,0.0,-0.0001732333475956,-0.0002601495070848,-6.036826562194619e-06,-0.0043740728870034,-0.0058527467772364,0.985463559627533,0.169729933142662,0.0002275458057331,-0.0001007540976586,-3.2063276765145696e-10,0.0255863666534423,0.0034391283988952,-0.000960350036621,0,0,0,0
3.3,1788267178274,0.0,0.0,-0.0072408812120556,-0.0010120868682861,0.5729177594184875,0.8195802569389343,0.0,0.0,0.0,-0.0001732333475956,-0.0002601495070848,-6.036826562194619e-06,-0.0043740728870034,-0.0058527467772364,0.985463559627533,0.169729933142662,0.0002275458057331,-0.0001007540976586,-3.2063276765145696e-10,0.0255863666534423,0.0034391283988952,-0.000960350036621,0,0,0,0
3.4,1788267178374,0.0,0.0,-0.0072408812120556,-0.0010120868682861,0.5729177594184875,0.8195802569389343,0.0,0.0,0.0,-0.0001732333475956,-0.0002601495070848,-6.036826562194619e-06,-0.0043740728870034,-0.0058527467772364,0.985463559627533,0.169729933142662,0.0002275458057331,-0.0001007540976586,-3.2063276765145696e-10,0.0255863666534423,0.0034391283988952,-0.000960350036621,0,0,0,0
3.5,1788267178474,0.0,0.0,-0.0072408812120556,-0.0010120868682861,0.5729177594184875,0.8195802569389343,0.0,0.0,0.0,-0.0001732333475956,-0.0002601495070848,-6.036826562194619e-06,-0.0043740728870034,-0.0058527467772364,0.985463559627533,0.169729933142662,0.0002275458057331,-0.0001007540976586,-3.2063276765145696e-10,0.0255863666534423,0.0034391283988952,-0.000960350036621,0,0,0,0
3.6,1788267178574,0.0,0.0,-0.0072408812120556,-0.0010120868682861,0.5729177594184875,0.8195802569389343,0.0,0.0,0.0,-0.0001732333475956,-0.0002601495070848,-6.036826562194619e-06,-0.0043740728870034,-0.0058527467772364,0.985463559627533,0.169729933142662,0.0002275458057331,-0.0001007540976586,-3.2063276765145696e-10,0.0255863666534423,0.0034391283988952,-0.000960350036621,0,0,0,0
3.7,1788267178674,0.0,0.0,-0.0072408812120556,-0.0010120868682861,0.5729177594184875,0.8195802569389343,0.0,0.0,0.0,-0.0001732333475956,-0.0002601495070848,-6.036826562194619e-06,-0.0043740728870034,-0.0058527467772364,0.985463559627533,0.169729933142662,0.0002275458057331,-0.0001007540976586,-3.2063276765145696e-10,0.0255863666534423,0.0034391283988952,-0.000960350036621,0,0,0,0
3.8,1788267178774,0.0,0.0,-0.0072408812120556,-0.0010120868682861,0.5729177594184875,0.8195802569389343,0.0,0.0,0.0,-0.0001732333475956,-0.0002601495070848,-6.036826562194619e-06,-0.0043740728870034,-0.0058527467772364,0.985463559627533,0.169729933142662,0.0002275458057331,-0.0001007540976586,-3.2063276765145696e-10,0.0255863666534423,0.0034391283988952,-0.000960350036621,0,0,0,0
3.9,1788267178874,0.0,0.0,-0.0072408812120556,-0.0010120868682861,0.5729177594184875,0.8195802569389343,0.0,0.0,0.0,-0.0001732333475956,-0.0002601495070848,-6.036826562194619e-06,-0.0043740728870034,-0.0058527467772364,0.985463559627533,0.169729933142662,0.0002275458057331,-0.0001007540976586,-3.2063276765145696e-10,0.0255863666534423,0.0034391283988952,-0.000960350036621,0,0,0,0
4.0,1788267178974,0.0,0.0,-0.0072408812120556,-0.0010120868682861,0.5729177594184875,0.8195802569389343,0.0,0.0,0.0,-0.0001732333475956,-0.0002601495070848,-6.036826562194619e-06,-0.0043740728870034,-0.0058527467772364,0.985463559627533,0.169729933142662,0.0002275458057331,-0.0001007540976586,-3.2063276765145696e-10,0.0255863666534423,0.0034391283988952,-0.000960350036621,0,0,0,0
4.1,1788267179074,0.0,0.0,-0.0072408812120556,-0.0010120868682861,0.5729177594184875,0.8195802569389343,0.0,0.0,0.0,-0.0001732333475956,-0.0002601495070848,-6.036826562194619e-06,-0.0043740728870034,-0.0058527467772364,0.985463559627533,0.169729933142662,0.0002275458057331,-0.0001007540976586,-3.2063276765145696e-10,0.0255863666534423,0.0034391283988952,-0.000960350036621,0,0,0,0
4.2,1788267179174,0.0,0.0,-0.0072408812120556,-0.0010120868682861,0.5729177594184875,0.8195802569389343,0.0,0.0,0.0,-0.0001732333475956,-0.0002601495070848,-6.036826562194619e-06,-0.0043740728870034,-0.0058527467772364,0.985463559627533,0.169729933142662,0.0002275458057331,-0.0001007540976586,-3.2063276765145696e-10,0.0255863666534423,0.0034391283988952,-0.000960350036621,0,0,0,0
4.3,1788267179274,0.0,0.0,-0.0072408812120556,-0.0010120868682861,0.5729177594184875,0.8195802569389343,0.0,0.0,0.0,-0.0001732333475956,-0.0002601495070848,-6.036826562194619e-06,-0.0043740728870034,-0.0058527467772364,0.985463559627533,0.169729933142662,0.0002275458057331,-0.0001007540976586,-3.2063276765145696e-10,0.0255863666534423,0.0034391283988952,-0.000960350036621,0,0,0,0
4.4,1788267179374,0.0,0.0,-0.0072408812120556,-0.0010120868682861,0.5729177594184875,0.8195802569389343,0.0,0.0,0.0,-0.0001732333475956,-0.0002601495070848,-6.036826562194619e-06,-0.0043740728870034,-0.0058527467772364,0.985463559627533,0.169729933142662,0.0002275458057331,-0.0001007540976586,-3.2063276765145696e-10,0.0255863666534423,0.0034391283988952,-0.000960350036621,0,0,0,0
4.5,1788267179474,0.0,0.0,-0.0072408812120556,-0.0010120868682861,0.5729177594184875,0.8195802569389343,0.0,0.0,0.0,-0.0001732333475956,-0.0002601495070848,-6.036826562194619e-06,-0.0043740728870034,-0.0058527467772364,0.985463559627533,0.169729933142662,0.0002275458057331,-0.0001007540976586,-3.2063276765145696e-10,0.0255863666534423,0.0034391283988952,-0.000960350036621,0,0,0,0
4.6,1788267179574,0.0,0.0,-0.0072408812120556,-0.0010120868682861,0.5729177594184875,0.8195802569389343,0.0,0.0,0.0,0.0,0.0,0.0,-0.0043709175661206,-0.0058491434901952,0.985463559627533,0.169729933142662,0.000210754907691,-0.0001288306922911,-5.26425114299647e-10,-0.0069497227668762,-0.0431671142578125,-0.0174274444580078,0,0,0,0
4.7,1788267179674,0.0,0.0,-0.0072229756042361,-0.0010127639397978,0.5729179382324219,0.8195802569389343,4.5014381949564267e-07,-5.242992194624215e-07,-3.838485146095782e-09,0.0002585199545137,-0.0002811385202221,2.588156803540187e-06,-0.0043627033010125,-0.0058439644053578,0.985463559627533,0.169729933142662,0.0001064557416081,-0.0001458249121686,-9.418111174037558e-07,-0.0054209232330322,0.0130055546760559,-0.0042495727539062,3,0,0,0
4.8,1788267179774,0.0,0.0,-0.0072173848748207,-0.001014991197735,0.5729178786277771,0.8195803165435791,0.0,0.0,0.0,9.25130589166656e-05,-0.0001406726223649,-3.335388555569807e-06,-0.0043567353859543,-0.0058417050167918,0.9854636788368224,0.1697299480438232,1.4030004357747364e-05,-3.199082890193256e-05,-6.9121572237912136e-12,0.0060491561889648,0.0044858455657958,0.0277166366577148,0,0,0,0
4.9,1788267179874,0.0,0.0,-0.0072160768322646,-0.0010156882926821,0.5729179382324219,0.8195803761482239,0.0,0.0,0.0,0.0,0.0,0.0,-0.0043564606457948,-0.0058412859216332,0.9854636788368224,0.1697299480438232,8.281830190271342e-06,-3.1434683933876625e-06,-4.0107888159724875e-13,0.0061940550804138,0.0080921649932861,0.0274896621704101,4,0,0,0
5.0,1788267179974,0.0,0.0,-0.0072160768322646,-0.0010156882926821,0.5729179382324219,0.8195803761482239,0.0,0.0,0.0,0.0,0.0,0.0,-0.0043553505092859,-0.005838974379003,0.9854636788368224,0.1697299480438232,8.931309365848e-05,-3.893960700797055e-05,-5.0281887051231377e-11,-0.0085917115211486,0.0073299407958984,0.0364131927490234,0,0,0,0
5.1,1788267180074,0.0,0.0,-0.0072160768322646,-0.0010156882926821,0.5729179382324219,0.8195803761482239,0.0,0.0,0.0,0.0,0.0,0.0,-0.0043508280068635,-0.0058341594412922,0.9854636788368224,0.1697299480438232,8.109170688911788e-05,-6.809840737267586e-05,-8.292375206604341e-11,-0.0139664411544799,-0.008481740951538,-0.012364387512207,0,0,0,0
5.2,1788267180174,0.0,0.0,-0.0072160768322646,-0.0010156882926821,0.5729179382324219,0.8195803761482239,0.0,0.0,0.0,0.0,0.0,0.0,-0.0043467935174703,-0.0058343410491943,0.9854636788368224,0.1697299480438232,-3.925085682651257e-05,-0.0001015455132742,5.348028524749722e-11,0.0164660215377807,0.0087750554084777,-0.0302133560180664,1,0,0,0
5.3,1788267180274,0.0,0.0,-0.0072160768322646,-0.0010156882926821,0.5729179382324219,0.8195803761482239,0.0,0.0,0.0,0.0,0.0,0.0,-0.0043430449441075,-0.0058381427079439,0.9854636788368224,0.1697299480438232,-8.466154670146992e-05,-0.0001001342488243,-1.0021563474661335e-06,-0.0107513666152954,-0.0125244259834289,-0.008768081665039,0,0,0,0
5.4,1788267180374,0.0,0.0,-0.0072160768322646,-0.0010156882926821,0.5729179382324219,0.8195803761482239,0.0,0.0,0.0,0.0,0.0,0.0,-0.004339343868196,-0.0058431830257177,0.9854636788368224,0.1697299480438232,-8.30612538912931e-05,-0.0001077422789169,-9.491309300944754e-07,-0.0093200206756591,0.0215096473693847,0.0044107437133789,0,0,0,0
5.5,1788267180474,0.0,0.0,-0.0072160768322646,-0.0010156882926821,0.5729179382324219,0.8195803761482239,0.0,0.0,0.0,0.0,0.0,0.0,-0.0043331868946552,-0.0058504119515419,0.9854636788368224,0.1697299629449844,-0.0001266861948442,-9.087272945929976e-05,-9.963761002742123e-07,0.0036311149597167,0.0114455819129943,-0.0325775146484375,0,0,0,0
5.6,1788267180574,0.0,0.0,-0.0072160768322646,-0.0010156882926821,0.5729179382324219,0.8195803761482239,0.0,0.0,0.0,0.0,0.0,0.0,-0.004332136362791,-0.0058557391166687,0.9854636788368224,0.1697299629449844,-0.0001106786287517,-1.3741558195437692e-05,2.278013076902215e-11,0.0077171325683593,0.009518563747406,-0.0192899703979492,0,0,0,0
5.7,1788267180674,0.0,0.0,-0.0072160768322646,-0.0010156882926821,0.5729179382324219,0.8195803761482239,0.0,0.0,0.0,0.0,0.0,0.0,-0.0043345680460333,-0.0058587966486811,0.9854636788368224,0.1697299629449844,-2.8368521032666963e-05,3.834255745269554e-05,-1.6301290576491055e-11,0.0025655031204223,0.0016044974327087,0.0025501251220703,2,0,0,0
5.8,1788267180774,0.0,0.0,-0.0072160768322646,-0.0010156882926821,0.5729179382324219,0.8195803761482239,0.0,0.0,0.0,0.0,0.0,0.0,-0.0043368535116314,-0.0058594401925802,0.9854636788368224,0.1697299629449844,-2.1826291142033788e-05,4.940268105389993e-05,-1.6678564140609207e-11,0.0099134445190429,-7.969141006469727e-05,-0.0066967010498046,0,0,0,0
5.9,1788267180874,0.0,0.0,-0.0072160768322646,-0.0010156882926821,0.5729179382324219,0.8195803761482239,0.0,0.0,0.0,0.0,0.0,0.0,-0.0043388828635215,-0.0058614630252122,0.9854636788368224,0.1697299629449844,-6.563404641549707e-05,4.588795639412848e-05,-4.517245503129493e-11,0.0027857422828674,-0.006943941116333,-0.0049705505371093,1,0,0,0
6.0,1788267180974,0.0,0.0,-0.0072160768322646,-0.0010156882926821,0.5729179382324219,0.8195803761482239,0.0,0.0,0.0,0.0,0.0,0.0,-0.004344149492681,-0.0058620190247893,0.9854636788368224,0.1697299629449844,-1.4654830722911076e-05,0.0001108291459015,9.956330966017077e-07,0.0015525221824645,0.0159744620323181,0.0038471221923828,4,0,0,0
6.1,1788267181074,0.0,0.0,-0.0072160768322646,-0.0010156882926821,0.5729179382324219,0.8195803761482239,0.0,0.0,0.0,0.0,0.0,0.0,-0.0043496070429682,-0.0058592734858393,0.9854636788368224,0.1697299629449844,7.43350375488464e-05,0.0001222941009964,9.41093735167784e-07,-0.0035706162452697,0.006230354309082,-0.0069046020507812,3,0,0,0
6.2,1788267181174,0.0,0.0,-0.0072220377624034,-0.0010254858061671,0.5729178786277771,0.8195803165435791,0.0,0.0,0.0,-0.0004114790644962,-0.0001808538800105,-3.5039297472394537e-06,-0.0043538277968764,-0.005852660164237,0.9854636788368224,0.1697299629449844,0.0001612702120009,0.0001104038794236,1.0317676723617655e-06,-0.0073376297950744,0.0287479758262634,0.007171630859375,1,0,0,0
6.3,1788267181274,0.0,0.0,-0.0072165648452937,-0.0010179779492318,0.5729179382324219,0.8195803761482239,0.0,0.0,0.0,0.0003440906584728,0.0001181536645162,2.3338996015809244e-06,-0.0043554985895752,-0.00584218185395,0.9854636788368224,0.1697299629449844,0.0002495688342646,7.93426851477263e-05,2.051977465181325e-06,-0.0019276142120361,0.0029151439666748,-0.0111141204833984,0,0,0,0
6.4,1788267181374,0.0,0.0,-0.0072165648452937,-0.0010179779492318,0.5729179382324219,0.8195803761482239,0.0,0.0,0.0,0.0,0.0,0.0,-0.0043599549680948,-0.005825069732964,0.9854636788368224,0.1697299629449844,0.0002565960018767,0.0001353592332666,1.9869905668390087e-06,0.0058395862579345,-0.0027679800987243,-0.014749526977539,0,0,0,0
6.5,1788267181474,0.0,0.0,-0.0072047929279506,-0.0009978699963539,0.5729180574417114,0.8195803761482239,0.0,0.0,0.0,0.0,0.0,0.0,-0.0043628243729472,-0.0058126039803028,0.985463798046112,0.1697299778461456,0.0002695129755884,7.768424310235892e-05,9.966642003087588e-07,0.0016848444938659,-0.0265877842903137,-0.0006866455078125,2,0,0,0
6.6,1788267181574,0.0,0.0,-0.0071900729089975,-0.0009839239064604,0.5729180574417114,0.8195804953575134,0.0,0.0,0.0,0.0007845604559406,0.00011724254,1.1658673884085149e-06,-0.0043597919866442,-0.0057982485741376,0.9854639172554016,0.1697299927473068,0.0002878515192325,-6.41208863070508e-05,1.10767197493827e-06,0.0115136504173278,0.0056099891662597,-0.0163869857788085,0,0,0,0
6.7,1788267181674,0.0,0.0,-0.0071795918047428,-0.0009816908277571,0.5729179978370667,0.819580614566803,4.138658334721458e-07,-4.820456581141019e-07,-3.482864844434768e-09,0.0003940495080314,-0.0001666259340709,-4.759147486765869e-06,-0.004352287389338,-0.0057889502495527,0.9854639172554016,0.1697299927473068,0.0002111806738965,-0.0001519879471648,-4.812695050073941e-10,-0.0036404728889465,0.0022009015083312,-0.0142383575439453,0,0,0,0
6.8,1788267181774,0.0,0.0,-0.0071795918047428,-0.0009816896636039,0.5729179382324219,0.8195806741714478,0.0,0.0,0.0,0.0,0.0,0.0,-0.0043433820828795,-0.0057814279571175,0.9854640364646912,0.169730007648468,0.0001823022772696,-0.0001641079447688,-4.655429200485212e-10,-0.0075153112411499,-0.0229420065879821,-0.0142774581909179,0,0,0,0
6.9,1788267181874,0.0,0.0,-0.0071795918047428,-0.0009816896636039,0.5729179382324219,0.8195806741714478,0.0,0.0,0.0,0.0,0.0,0.0,-0.0043316967785358,-0.0057743322104215,0.9854641556739808,0.1697300225496292,0.0001253199314182,-0.0001692269641715,-9.946738105156758e-07,0.0084285140037536,0.0078652501106262,-0.0081548690795898,0,0,0,0
7.0,1788267181974,0.0,0.0,-0.0071795918047428,-0.0009816896636039,0.5729179382324219,0.8195806741714478,0.0,0.0,0.0,0.0,0.0,0.0,-0.0043235886842012,-0.0057709999382495,0.9854641556739808,0.1697300225496292,0.0001035982356642,-0.0001616393065301,-2.510980243740222e-10,0.010139524936676,0.0061088800430297,-0.0084247589111328,0,0,0,0
7.1,1788267182074,0.0,0.0,-0.0071795918047428,-0.0009816896636039,0.5729179382324219,0.8195806741714478,0.0,0.0,0.0,0.0,0.0,0.0,-0.0043155550956726,-0.0057679275050759,0.9854642748832704,0.1697300374507904,8.852810202345571e-05,-0.00016341771394,-1.9313495512115304e-10,0.0030251741409301,0.0242278575897216,-0.0086669921875,0,0,0,0
7.2,1788267182174,0.0,0.0,-0.0071795918047428,-0.0009816896636039,0.5729179382324219,0.8195806741714478,0.0,0.0,0.0,0.0,0.0,0.0,-0.0043095685541629,-0.0057652285322546,0.9854642748832704,0.1697300374507904,8.068940751239026e-05,-0.0001289664330155,-1.5608213369399195e-10,-0.0221980214118957,-0.0512468814849853,-0.0111932754516601,0,0,0,0
7.3,1788267182274,0.0,0.0,-0.0071257343515753,-0.0009973084088414,0.5729182362556458,0.8195809125900269,0.0,0.0,0.0,8.573509694542736e-05,-0.0001721203152555,-2.9369980438787024e-06,-0.0043024187907576,-0.0057630138471722,0.9854643940925598,0.1697300523519516,6.68961293552575e-05,-8.657146151856853e-05,-8.840636122516392e-11,-0.0112614631652832,0.0043261647224426,-0.0036563873291015,2,0,0,0
7.4,1788267182374,0.0,0.0,-0.0071194525808095,-0.0010000974871218,0.5729184150695801,0.8195809125900269,0.0,0.0,0.0,1.7393685993738472e-05,-3.665285112219863e-05,1.1676369240376516e-06,-0.0042996723204851,-0.0057619111612439,0.9854643940925598,0.1697300523519516,1.1738870453220806e-05,-2.590958420663657e-05,-4.717448343150372e-12,0.0020527243614196,0.0176479220390319,-0.040872573852539,2,0,0,0
7.5,1788267182474,0.0,0.0,-0.0071193077601492,-0.0010000439360737,0.5729184150695801,0.8195809125900269,0.0,0.0,0.0,7.471831850125454e-06,-1.956007281478378e-06,0.0,-0.0043008588254451,-0.005761838518083,0.9854643940925598,0.1697300523519516,-2.0943429914656076e-05,6.017235056274995e-05,-1.8325030873061933e-11,0.0042797327041625,0.0068194270133972,0.0045423507690429,2,0,0,0
7.6,1788267182574,0.0,0.0,-0.0071254153735935,-0.000995235517621,0.5729184746742249,0.8195807337760925,-4.1333822639801945e-07,4.814318531252212e-07,3.473968156638608e-09,-4.204436845611781e-05,0.0001472713338444,2.3765419427945744e-06,-0.004309095442295,-0.0057630063965916,0.9854643940925598,0.1697300523519516,-5.268871051747451e-05,0.0001667388137442,-1.3160621812567864e-10,0.0087850093841552,-0.0090737342834472,0.0095720291137695,0,0,0,0
7.7,1788267182674,0.0,0.0,-0.0071295294910669,-0.0009926238562911,0.5729184746742249,0.8195806741714478,0.0,0.0,0.0,0.0,0.0,0.0,-0.0043184729292988,-0.0057662362232804,0.9854642748832704,0.1697300374507904,-0.000110068905553,0.0001919380830486,9.924126015879894e-07,-0.0141119956970214,0.0328237414360046,-0.0130386352539062,4,0,0,0
7.8,1788267182774,0.0,0.0,-0.0071429144591093,-0.0009846261236816,0.5729184746742249,0.819580614566803,-4.151095586201952e-07,4.834952920869326e-07,3.481334483740156e-09,-5.0053666200255975e-05,0.0001583816920174,-1.1933633459193516e-06,-0.0043286802247166,-0.0057679340243339,0.9854642748832704,0.1697300374507904,-4.754388617908283e-05,0.0001455526938646,-1.0370069732260208e-10,0.0162667036056518,0.0055697560310363,-0.0198211669921875,0,0,0,0
7.9,1788267182874,0.0,0.0,-0.0071466625668108,-0.000981947639957,0.5729184746742249,0.819580614566803,0.0,0.0,0.0,-3.2054791518021375e-05,8.963164145825431e-05,1.1898828233825045e-06,-0.0043326895684003,-0.0057686818763613,0.9854642748832704,0.1697300374507904,-2.3937551842604895e-05,5.934957791700917e-05,-2.2081787976381823e-11,-0.0060359239578247,0.0303012728691101,0.0104303359985351,0,0,0,0
8.0,1788267182974,0.0,0.0,-0.0071491282433271,-0.0009792586788535,0.5729185342788696,0.819580614566803,0.0,0.0,0.0,-3.5714492696570237e-06,9.036996925715356e-05,0.0,-0.0043356698006391,-0.0057681566104292,0.9854641556739808,0.1697300225496292,1.5613602903153052e-05,6.793081745939952e-05,1.6955158492263844e-11,0.0120759010314941,-0.018480360507965,0.0079936981201171,0,0,0,0
8.1,1788267183074,0.0,0.0,-0.0071498053148388,-0.0009777105879038,0.5729184150695801,0.8195806741714478,0.0,0.0,0.0,2.849877319022198e-06,1.4561831449100282e-05,0.0,-0.0043371776118874,-0.0057668443769216,0.9854641556739808,0.1697300225496292,4.533518831857787e-05,1.3445297106098573e-05,9.93657202408197e-07,0.0116959810256958,-0.004382312297821,0.0058612823486328,0,0,0,0
8.2,1788267183174,0.0,0.0,-0.0071485377848148,-0.000975000904873,0.5729184150695801,0.8195806741714478,0.0,0.0,0.0,3.513948468025774e-05,3.679737346828915e-05,0.0,-0.0043382570147514,-0.0057648085057735,0.9854641556739808,0.1697300225496292,2.005422857656515e-05,5.094199725211549e-05,1.563261376744272e-11,-0.0058313012123107,-0.0094127058982849,0.0003061294555664,6,0,0,0
8.3,1788267183274,0.0,0.0,-0.0071511510759592,-0.0009723375551402,0.5729183554649353,0.819580614566803,0.0,0.0,0.0,-2.8545206077978943e-05,0.0001062693627318,3.638323505583685e-06,-0.0043430551886558,-0.005765400826931,0.9854641556739808,0.1697300225496292,-6.676349659592157e-05,0.0001222645528782,-1.21838479842719e-10,-0.001788854598999,0.0234215259552001,0.0279979705810546,3,0,0,0
8.4,1788267183374,0.0,0.0,-0.0071598794311285,-0.0009687254205346,0.5729184150695801,0.8195805549621582,0.0,0.0,0.0,-0.000132540881168,0.0002042034466285,2.011856622630148e-06,-0.0043527046218514,-0.0057699717581272,0.9854641556739808,0.1697300225496292,-0.0001190007289744,0.0001345198964957,-2.401643902555759e-10,0.0057750344276428,-0.0135390758514404,-0.0125865936279296,1,0,0,0
8.5,1788267183474,0.0,0.0,-0.0071671814657747,-0.0009678078349679,0.5729184150695801,0.8195804357528687,-4.068593290878079e-07,4.738860590367825e-07,3.3965364171372153e-09,-9.145395597442985e-05,6.974011921556666e-05,-3.508936970320065e-06,-0.0043591670691967,-0.0057759843766689,0.9854640364646912,0.169730007648468,-0.0001901313702289,0.0001380707578216,-3.4963189672404217e-10,0.0004534721374511,-0.0184561610221862,-0.0109825134277343,5,0,0,0
8.6,1788267183574,0.0,0.0,-0.0071815615519881,-0.0009675193578004,0.5729182958602905,0.8195804357528687,-4.164957996749061e-07,4.85109833078308e-07,3.480131661709574e-09,-0.0001983739930437,0.0001420167536707,-3.592045686673373e-06,-0.0043675117194652,-0.0057840617373585,0.9854640364646912,0.169730007648468,-0.0002257135470656,0.0001622061825764,-5.232179169484425e-10,-0.0081453919410705,0.0018054246902465,0.0013923645019531,4,0,0,0
8.7,1788267183674,0.0,0.0,-0.0071923448704183,-0.0009668765123933,0.5729183554649353,0.8195803761482239,0.0,0.0,0.0,-0.0002108579647028,0.0001722135930322,1.2175950132586877e-06,-0.0043763294816017,-0.0057920943945646,0.9854639172554016,0.1697299927473068,-0.0002047096803227,0.0001498934893218,-4.574663840163353e-10,0.0188387036323547,0.0145595073699951,-0.0148887634277343,1,0,0,0
8.8,1788267183774,0.0,0.0,-0.0072029950097203,-0.0009666406549513,0.5729182362556458,0.8195803165435791,-4.385214381687918e-07,5.107637960892855e-07,3.6702040439743723e-09,-0.0002341075014555,0.0001790542301023,-2.521335773053579e-06,-0.0043838005512952,-0.0057974215596914,0.985463798046112,0.1697299778461456,1.8116121870801475e-06,0.0001049813027371,9.825714242136152e-07,0.029444932937622,0.0145712494850158,-0.0056686401367187,0,0,0,0
8.9,1788267183874,0.0,0.0,-0.0072035295888781,-0.0009619707707315,0.5729181170463562,0.8195803165435791,0.0,0.0,0.0,6.274075713008642e-05,6.165769445942715e-05,2.3850664092606166e-06,-0.0043874960392713,-0.005791263654828,0.985463798046112,0.1697299778461456,0.0001866776219208,0.0001193098575246,1.0923851368247346e-06,-0.0028142929077148,0.0024231672286987,0.0050258636474609,7,0,0,0
9.0,1788267183974,0.0,0.0,-0.0071950783021748,-0.0009486724156886,0.572918176651001,0.8195804357528687,0.0,0.0,0.0,0.0002647992223501,7.056854519760236e-05,1.1888357676070882e-06,-0.0043894285336136,-0.0057794507592916,0.9854639172554016,0.1697299927473068,0.0002656482980496,6.407471092615106e-05,1.9947981795338097e-06,-0.0120933055877685,-0.0127492547035217,0.0012712478637695,0,0,0,0
9.1,1788267184074,0.0,0.0,-0.0071881008334457,-0.0009413950610905,0.572918176651001,0.8195804953575134,0.0,0.0,0.0,0.0002399574732407,4.403111961437389e-05,-1.1955841046074056e-06,-0.0043895626440644,-0.0057681854814291,0.9854639172554016,0.1697299927473068,0.0002222957510721,2.580270136916726e-05,9.37306506624507e-07,0.0199888944625854,0.0016801357269287,-0.0042734146118164,2,0,0,0
9.2,1788267184174,0.0,0.0,-0.007178439758718,-0.0009485227055847,0.5729187726974487,0.8195801377296448,1.3817225705462077e-06,-1.6093493164125997e-06,-1.1439659383553442e-08,1.3344097169465384e-05,-0.00038266525371,1.5888785128481686e-05,-0.0043689487501978,-0.0057801948860287,0.9854688048362732,0.1697019338607788,-0.0009264340120077,-0.0012809944705277,0.0018226420522455,0.024396538734436,0.0263537764549255,0.0609092712402343,208,494,7095,11454
9.3,1788267184274,2.3380281925201416,3.774647951126098,-0.007097590714693,-0.0011085167061537,0.5747476816177368,0.8182992339134216,0.0784524501592074,0.0018166998745873,-1.4937321767123174e-05,-0.0014965812442824,0.0082241939380764,0.0681166648864746,-0.004327823407948,-0.0058206794783473,0.98577880859375,0.1678918600082397,-0.0039373849109455,0.0236924675241662,0.0796758580851861,0.6757954955101013,0.2270569205284118,-0.5606670379638672,107,490,10233,18639
9.4,1788267184374,4.056337833404541,6.309859275817871,-0.006232697982341,-0.0010156496427953,0.5849508047103882,0.8110441565513611,0.1488968124053948,0.0071927202660101,4.3764054890704825e-05,0.0252923853695392,-0.0120971528813242,0.2849828600883484,-0.0036430777981877,-0.005092978477478,0.9884018898010254,0.1517317593097686,0.0158408549668739,-0.0032973885980336,0.3421221425262549,0.5408053994178772,0.0250005722045898,0.6871471405029297,179,457,13292,24595
9.5,1788267184474,3.577464818954468,6.676056385040283,-0.0063456115312874,-0.0012721931561827,0.5975469350814819,0.8018078207969666,0.1790955376711435,0.012717526583941,7.580476672205474e-05,0.0003736365179065,-0.0118281533941626,0.3429017663002014,-0.0033137146383523,-0.0053591718897223,0.9906356930732728,0.1363867223262787,0.0136752038683315,-0.0120836478690027,0.3869360678824966,0.0614252686500549,0.2326590418815612,-0.2554006576538086,74,403,10699,24438
9.6,1788267184574,3.2676055431365967,6.084506988525391,-0.0069653531536459,-0.0013395354617387,0.6144058108329773,0.7889583110809326,0.1695778674056218,0.001986419056925,-3.353487223763854e-05,-0.0121755767613649,0.0064106415957212,0.440175712108612,-0.0039467178285121,-0.0059021078050136,0.993031680583954,0.1176339611411094,-0.0041326894994805,0.0056266431250615,0.4830636796089089,-0.7412793636322021,0.0682628750801086,0.4266595840454101,8,249,7790,19318
9.7,1788267184674,1.7183098793029783,3.211267709732056,-0.0069289896637201,-0.0017278422601521,0.6288911700248718,0.7774605751037598,0.0955157733571209,-0.0010390290527113,-5.900010098518383e-06,-0.0028478954918682,0.0003312283952254,0.286073625087738,-0.0035280818119645,-0.0061755217611789,0.9951083064079284,0.0985340550541877,-0.005135196781478,-0.0186390854367412,0.2228017184092782,-0.7490227818489075,-0.2789886593818664,-0.547551155090332,11,210,3905,12143
9.8,1788267184774,0.4788732528686523,0.8732394576072693,-0.0067814141511917,-0.0017835900653153,0.6348389983177185,0.7726125717163086,0.0289725671861143,-0.0005253019480749,1.6161185886484946e-07,0.0004444130172487,-0.0043432228267192,0.1220064684748649,-0.003534160554409,-0.0060746129602193,0.995713233947754,0.0922264978289604,0.0005402135919201,-0.0068735030853096,0.0980210259696149,-0.4011096358299255,-0.2031366825103759,0.3351593017578125,12,136,325,5255
9.9,1788267184874,0.0,0.0,-0.0067286794073879,-0.0018045247998088,0.6357346177101135,0.7718762755393982,-0.0013562322030235,-0.0022416910677497,-1.098605752203365e-06,0.0012202563229948,-0.0042496090754866,0.0256557129323482,-0.0033964524045586,-0.006074191071093,0.995767056941986,0.0916495397686958,-0.0020900659778186,-0.001364619976193,-0.011498914180676,0.1314204335212707,-0.0110217928886413,0.0504913330078125,2,0,0,0
10.0,1788267184974,0.0,0.0,-0.0067723761312663,-0.0018106058705598,0.635554313659668,0.7720243334770203,-0.0010024936049965,0.0011268111602065,-9.944090113721743e-07,-0.0014713087584823,0.0009788902243599,-0.0092949196696281,-0.003457193262875,-0.0060833767056465,0.995758593082428,0.0917384922504425,-0.0017173858992972,-0.0008657860070558,-0.000974519087768,0.0086182355880737,-0.0215376019477844,0.0550785064697265,2,0,0,0
10.1,1788267185074,0.0,0.0,-0.0067522567696869,-0.0018160727340728,0.6355754137039185,0.7720071077346802,0.000155557286136,0.0001615184934992,-8.409462513931702e-07,0.0,0.0,0.0,-0.0034779030829668,-0.0060615399852395,0.9957590699195862,0.0917335301637649,0.0013795446977905,-0.0002174711993273,0.0020210444723204,0.0109010338783264,0.0320053100585937,0.0482845306396484,1,0,0,0
10.2,1788267185174,0.0,0.0,-0.006800880189985,-0.0018105509225279,0.6355515718460083,0.7720262408256531,-0.0003216296961794,-9.405304189689543e-05,-4.6796574460480486e-07,-0.0020098371896892,0.0007748043863102,-0.0012532913824543,-0.0035204757004976,-0.0061014620587229,0.9957552552223206,0.091770514845848,-0.0001915037633943,0.0027865643197671,-0.0018440705615344,-0.0116080641746521,0.0168012976646423,0.0336790084838867,0,0,0,0
10.3,1788267185274,0.0,0.0,-0.0068479236215353,-0.0017886392306536,0.6355540156364441,0.7720239758491516,1.0287744624757507e-05,-1.197253992925462e-05,-9.311206197796709e-08,-0.00089728157036,0.0018741241656243,0.0001420387270627,-0.0035406630486249,-0.0061302259564399,0.9957550168037416,0.0917704254388809,-0.0003762004851533,-0.001256760885002,-0.001011604787606,0.0157496333122253,-0.0094538927078247,0.0210857391357421,1,0,0,0
10.4,1788267185374,0.0,0.0,-0.0068473881110548,-0.0017826296389102,0.6355442404747009,0.7720320224761963,-3.532934335620242e-05,4.137559331196034e-05,-1.6320134583023843e-06,0.0001399733300786,0.0001435788290109,-0.000414132111473,-0.003488247282803,-0.0060994867235422,0.9957584142684937,0.0917375534772872,0.0007979885477208,-0.0028458270138979,0.0007066052681558,0.0200464129447937,0.0381905436515808,0.042999267578125,0,0,0,0
10.5,1788267185474,0.0,0.0,-0.0067686485126614,-0.0018258350901305,0.6355676054954529,0.7720134258270264,0.0,0.0,0.0,2.8409345986801785e-08,-3.7879129166640275e-08,0.0,-0.0034758625552058,-0.0060645127668976,0.9957579374313354,0.0917452722787857,0.0018545456909915,0.0003125291117044,0.0007596386349393,-0.0165298581123352,0.0246026515960693,-0.002542495727539,0,0,0,0
10.6,1788267185574,0.0,0.0,-0.0067460122518241,-0.0017857819329947,0.6355668306350708,0.7720142602920532,-0.000234987543562,-0.0002046528649949,-1.3079170388819783e-06,0.000187615150935,0.0006642026710323,-0.0002000952226808,-0.0034786462783813,-0.0060495221987366,0.9957583546638488,0.0917424783110618,-0.0009114691986379,0.0017491868020725,-0.0004636882764718,0.0217549800872802,-0.0076900124549865,0.0408811569213867,62,130,2411,3899
10.7,1788267185674,1.4929577112197876,2.619718313217163,-0.0066407220438122,-0.001927277771756,0.6379500031471252,0.7700466513633728,0.0497823849775762,0.0011628973953786,1.0574855601883236e-05,-0.0001435605081496,-0.0044191526249051,0.1046226620674133,-0.0035663815215229,-0.0060181291773915,0.9962305426597596,0.0864629298448562,0.0013203058025121,0.0201032110044561,0.1716811298513659,0.8973468542098999,-0.1252461671829223,0.3002948760986328,198,514,10267,17178
10.8,1788267185774,3.7183098793029785,6.0,-0.0068604908883571,-0.0015010873321443,0.6480012536048889,0.7616068720817566,0.1414758948984646,0.0048136650214547,-2.7742200926039376e-05,-0.0024053617380559,0.0027223913930356,0.2705070972442627,-0.0037551112473011,-0.0059365881606936,0.9971737265586852,0.0748017132282257,-0.005730119397994,-0.004243472342126,0.2999584612947997,0.5779877305030823,0.0518169403076171,-0.3864908218383789,146,510,14168,25331
10.9,1788267185874,4.169013977050781,6.309859275817871,-0.0069971848279237,-0.0015688564162701,0.6612730026245117,0.7501109838485718,0.183958087936142,0.008831480558275,1.5766581304474938e-05,-0.0081633841618895,-0.0095231104642152,0.3509617149829864,-0.0037616193294525,-0.0060965688899159,0.9982438683509828,0.0588039234280586,-0.0106008362566105,-0.024972333073202,0.3327116132595861,-0.1252918839454651,-0.1611196398735046,-0.2053546905517578,62,386,11222,23729
11.0,1788267185974,3.88732385635376,5.97183084487915,-0.0082816313952207,-0.0013170833699405,0.6751258373260498,0.7376549243927002,0.1744840639942881,-0.0011559857448449,-8.10307803493724e-05,-0.0229805707931518,0.027574872598052,0.3633224070072174,-0.005231250077486,-0.0070925680920481,0.9992769956588744,0.0369849577546119,-0.041775494647883,0.0345272001700734,0.3340777169534697,-0.2029341459274292,0.2940130233764648,-0.3999748229980469,51,508,11871,25121
11.1,1788267186074,4.394366264343262,6.056337833404541,-0.0091123525053262,-0.0012803324498236,0.6872143149375916,0.7263963222503662,0.1836652618919462,0.0027731042551703,-3.383052638309311e-05,0.0217749569565057,-0.022230464965105,0.3945882320404053,-0.0052816830575466,-0.007160672917962,0.9997544288635254,0.0202988162636756,0.0396606518693005,-0.0584929013531816,0.3565949707252654,-0.378831148147583,-0.1946873664855957,-0.1655740737915039,67,379,12313,22520
11.2,1788267186174,4.366197109222412,6.0,-0.008559588342905,-0.0010176680516451,0.6964725852012634,0.7175315022468567,0.1777934349100021,0.0012103164453044,-7.807435990213554e-05,0.0065038776956498,0.0079247206449508,0.2477985918521881,-0.0054642166942358,-0.0065199555829167,0.999950110912323,0.005248824134469,0.0153337242699004,0.0117039066009675,0.2899321938657505,-0.1603471040725708,0.1384472846984863,0.010441780090332,53,446,12457,23604
11.3,1788267186274,4.309859275817871,6.197183132171631,-0.0078806914389133,-0.000659996876493,0.7075958251953125,0.7065731883049011,0.1744430702635756,0.0062390866574348,-0.0001053944750766,0.0062334225513041,0.0075664701871573,0.2824552357196808,0.0048675555735826,0.0059814313426613,-0.9999423623085022,0.0074814362451434,0.01158889557928,-0.0383730718564612,0.2808165226624069,0.0509582757949829,-0.0502150654792785,-0.3831081390380859,82,289,12599,21354
11.4,1788267186374,4.507042407989502,5.464788913726807,-0.0059507056139409,-0.000725059537217,0.7171261310577393,0.6969175934791565,0.1732232219972314,0.0050104338470095,2.372000417030667e-05,0.0383073277771472,-0.0262196995317935,0.2457369565963745,0.0035725040361285,0.0046129506081342,-0.9997931122779846,0.019484682008624,0.0627076375540915,-0.0566824816707819,0.2516084015133006,-0.1207966208457946,-0.0176314115524292,0.5194177627563477,99,331,13949,20538
11.5,1788267186474,4.760563373565674,5.380281925201416,-0.0045345844700932,-0.0011069396277889,0.7206013798713684,0.6933339834213257,0.1693443200016212,0.0028940930036288,-5.825274060843332e-05,-0.0006264388794079,0.0071199182420969,0.095535397529602,0.0024359561502933,0.0039784973487257,-0.9996942281723022,0.0242831967771053,0.0102952496071955,-0.014634846197526,0.1062071777149943,-0.0671053528785705,-0.2219799160957336,-0.7606029510498047,67,438,13036,22310
11.6,1788267186574,4.8450703620910645,5.464788913726807,-0.0043938886374235,-0.0006914731347933,0.7258710861206055,0.6878164410591125,0.1783907811117906,0.0032323215346087,-5.103058070227041e-05,0.0021390954498201,0.0149530665948987,0.1590016186237335,0.002793445251882,0.0039943922311067,-0.9994300603866576,0.0334055088460445,-0.0280622513886121,0.0095845794432717,0.1395401464118253,0.0954607129096984,0.5396923422813416,0.6934547424316406,57,398,13234,21185
11.7,1788267186674,4.8450703620910645,5.352112770080566,-0.0045636761933565,-0.0011815048055723,0.7302257418632507,0.6831897497177124,0.1723953421294436,0.0038181386685536,5.979082877596928e-06,-0.0035612327046692,-0.0103714950382709,0.0819970667362213,0.0025053257122635,0.0039424411952495,-0.9992475509643556,0.038504734635353,0.0207994973021335,-0.0029216400073633,0.057874682206093,0.1785245537757873,-0.5145737528800964,0.0219087600708007,85,294,14794,19230
11.8,1788267186774,5.014084339141846,5.239436626434326,-0.0042854584753513,-0.0014228119980543,0.7312288880348206,0.682117223739624,0.1721680638328111,0.0011409387969763,4.43314436563956e-05,0.0014125750167295,-0.0123195126652717,0.009974805638194,0.0015962924808263,0.0041837533935904,-0.99919456243515,0.0398787818849086,-0.0078119701308916,-0.0351734649293683,0.0358981924673847,0.0940138101577758,0.5308103561401367,1.0292978286743164,49,347,14051,19693
11.9,1788267186874,4.929577350616455,5.070422649383545,-0.0039944811724126,-0.0020327870734035,0.7331082224845886,0.6800972819328308,0.1813341570598806,-0.0005325676194129,-1.2870205641643192e-05,9.216352191288024e-05,-0.0122460564598441,0.0703250393271446,0.001259590499103,0.0042715119197964,-0.9990901947021484,0.0424134023487567,-0.0024840870936503,-0.0307408806428414,0.0344429262355712,-0.0120172500610351,-0.2547737956047058,-0.6365242004394531,88,344,14202,19893
12.0,1788267186974,5.014084339141846,5.211267471313477,-0.0037361097056418,-0.0026671825908124,0.7338559627532959,0.6792896389961243,0.1889542689258131,0.000409276434105,1.1520647456815944e-06,-0.0126308295875787,-0.019601734355092,0.0236919429153203,0.0006002811715006,0.0047589298337697,-0.9990317225456238,0.0437351129949092,-0.0181818800171192,-0.0164114794074257,0.0276130037238202,-0.0764886140823364,-0.0014792084693908,0.2738075256347656,71,369,13950,20489
12.1,1788267187074,4.788732528686523,5.239436626434326,-0.0059513878077268,-0.0032805511727929,0.7352166175842285,0.6777981519699097,0.1706078766091729,0.0015331889483721,-7.410596666674572e-05,-0.0474149510264396,0.0327259078621864,0.0436004847288131,0.0019354913383722,0.0066441027447581,-0.9989418387413024,0.04546769708395,-0.045903973638293,0.0378502041594333,0.0469133831984165,-0.1383954882621765,-0.0603857636451721,-0.3178443908691406,55,389,14399,20665
12.2,1788267187174,4.619718074798584,5.183098793029785,-0.0098665207624435,-0.0039288951084017,0.7365272045135498,0.6763244867324829,0.1717419200055559,0.0059836188146796,-0.0002140239662199,-0.0692327544093132,0.0595710575580596,0.0407323352992534,0.0041276942938566,0.0096775386482477,-0.9988353252410888,0.0470888316631317,-0.0735613707997552,0.0689933667182907,0.040462620284655,0.2197486162185669,0.1746926307678222,-0.5667629241943359,88,532,15494,22501
12.3,1788267187274,5.098591327667236,4.929577350616455,-0.0085807284340262,-0.0042988243512809,0.7374671101570129,0.6753149628639221,0.169063566215061,0.0008182153439222,-1.332079974956427e-06,4.7476259368295366e-08,-1.8990503392046776e-08,0.0,0.0026578335091471,0.0090587744489312,-0.9987447261810304,0.0491918623447418,-0.0023566005322812,-0.0201259122504376,0.0025707247875625,-0.0797719955444336,-0.2455791234970092,-0.0777406692504882,61,457,14656,21637
12.4,1788267187374,5.042253494262695,5.267605781555176,-0.0082406401634216,-0.0046315635554492,0.7381240129470825,0.6745988726615906,0.1772973443149258,0.0008876658811579,9.024913115932802e-05,-0.0009824057342484,-0.0170047543942928,0.0241267178207635,0.0025154957547783,0.0091089727357029,-0.9986943602561952,0.0502034053206443,0.0040865150531896,-0.006064456105338,0.0250913949679911,-0.0130099654197692,-0.1017015576362609,0.0458221435546875,60,369,15044,20523
12.5,1788267187474,5.098591327667236,5.239436626434326,-0.0082669099792838,-0.0043766237795352,0.7394787073135376,0.6731149554252625,0.1767084478330643,-0.0011352630967861,-1.1652618189663508e-05,0.0034997297916561,0.0113260857760906,0.0571979992091655,0.0029484555125236,0.0089527992531657,-0.9985898733139038,0.0522453226149082,-0.0004618936256235,0.0193464034217511,0.0456271551230524,-0.0141705870628356,0.0994061827659607,0.1300878524780273,77,283,14717,18870
12.6,1788267187574,5.154929637908936,4.873239517211914,-0.0077028982341289,-0.0039519192650914,0.7399498820304871,0.6726062893867493,0.1748743348716221,-8.661019358526664e-05,9.760799038753115e-08,0.0286945533007383,-0.0256155747920274,-0.0137403402477502,0.0023216139525175,0.0078006265684962,-0.9986024498939514,0.0522207245230674,0.0603245491328838,-0.0421184914572325,-0.02917104234187,-0.0942921042442321,-0.1358932852745056,-0.5634851455688477,68,429,14547,19959
12.7,1788267187674,4.929577350616455,4.957746505737305,-0.0043912786059081,-0.0040064402855932,0.739555299282074,0.6730694770812988,0.1789975478978078,9.920256999097411e-05,0.0001795317323778,0.0316345207393169,-0.0477735437452793,-0.0124257430434226,0.0005991319194436,0.006066177971661,-0.9986363649368286,0.05184818059206,-0.0126719114728024,0.0206911342511862,0.0051044511980018,0.1545703411102295,0.2416300773620605,0.0205965042114257,65,439,15287,21017
12.8,1788267187774,4.957746505737305,5.070422649383545,-0.0053024133667349,-0.0031338520348072,0.7399890422821045,0.6725906133651733,0.1784693387050026,0.0002514717986405,2.211485577614684e-06,0.0089976033195853,0.0369376204907894,0.0221807770431041,0.0012991959229111,0.0062314076349139,-0.998612940311432,0.0522660464048385,-0.0194374627799884,-0.0188944236976839,-0.0141841805191449,-0.1994125843048095,0.1212188601493835,0.3963661193847656,98,381,15455,20390
12.9,1788267187874,5.098591327667236,5.014084339141846,-0.005796518176794,-0.0032650092616677,0.7396565079689026,0.6729516386985779,0.1774384349752246,-0.000979927645338,-3.130769480596856e-07,0.0,0.0,0.0,0.0021270113065838,0.0066280765458941,-0.9986271262168884,0.0519171319901943,-0.0099145793167846,0.0200041778389048,-0.0135539646636699,0.1153310537338256,-0.1644800901412964,-0.3781156539916992,45,339,14739,19985
13.0,1788267187974,5.098591327667236,5.070422649383545,-0.0066061406396329,-0.002612599171698,0.7401689291000366,0.6723834872245789,0.1730065170452203,-0.0011291999742086,-0.0001011712217216,0.0047459686174988,0.0290788747370243,0.0093625802546739,0.0026708180084824,0.006648076698184,-0.9985768795013428,0.0528492256999015,-0.0051717737104355,0.0029287675857446,0.0165802698122904,-0.0491796135902404,0.064701497554779,0.3009300231933594,69,372,14421,19580
13.1,1788267188074,5.436619758605957,5.126760482788086,-0.0065473369322717,-0.0027605569921433,0.7395746111869812,0.6730369925498962,0.1835885427458721,0.0020940371944784,-2.198044474184242e-06,-0.0026863575913012,-0.0054907901212573,-0.0353504680097103,0.0026169335469603,0.0066068395972251,-0.9986407160758972,0.0516366735100746,0.0010465127558923,-0.0038856045215475,-0.047638122102312,-0.3055632710456848,-0.2695900797843933,0.3263387680053711,64,256,14587,17764
13.2,1788267188174,4.957746505737305,4.816901206970215,-0.0068552745506167,-0.0023822246585041,0.7386251091957092,0.6740773916244507,0.1853212756688531,-0.0008181166635344,-9.083765802353956e-05,0.0031509636901319,0.0249307639896869,-0.0140986070036888,0.0033926051110029,0.0067522916942834,-0.9987552165985109,0.0493055172264575,-0.006578789657524,0.0093608962064405,-0.0642719951963004,-0.0076253414154052,0.0049564838409423,-0.2966470718383789,59,410,15707,19723
13.3,1788267188274,5.267605781555176,4.816901206970215,-0.0076065175235271,-0.002717028139159,0.7367938756942749,0.6760691404342651,0.183356058004699,0.0046081116794608,1.665311913691541e-05,-0.020448500290513,-0.0014950941549614,-0.053236611187458,0.0034263152629137,0.0073362430557608,-0.9988317489624025,0.0476401820778846,-0.0169319148960364,0.0052615859636356,-0.0671665275246465,0.2395194768905639,-0.0666614770889282,-0.0099411010742187,76,359,15277,19645
13.4,1788267188374,5.267605781555176,4.507042407989502,-0.0092385355383157,-0.0025069424882531,0.7347396016120911,0.6782816648483276,0.1650881848070258,-0.0011656096371218,-4.501599850909945e-05,-0.0198826994746923,0.0410845763981342,-0.0704309716820716,0.0044602733105421,0.0081961387768387,-0.9989413619041444,0.0450461097061634,-0.0211820901734457,0.0444299946895319,-0.0681391886396941,-0.1534776091575622,-0.0169472098350524,0.6147623062133789,101,564,15365,21907
13.5,1788267188474,5.239436626434326,5.014084339141846,-0.0108880531042814,-0.0025294800288975,0.7332891225814819,0.6798250675201416,0.1899078862927215,0.0043671285802605,-0.0001227580973602,0.0052841980941593,-0.0017313462449237,-0.0162974037230014,0.0054450752213597,0.0091616017743945,-0.9990517497062684,0.0422128029167652,0.0389995266885314,-0.0563431988034362,-0.0278805616100369,-0.2323922514915466,-0.1326507925987243,-0.4929828643798828,65,369,15198,20114
13.6,1788267188574,5.211267471313477,4.8450703620910645,-0.0098946960642933,-0.0025315559469163,0.730997622013092,0.6823035478591919,0.1734525269504239,0.0018761912243034,0.0001158878735623,0.0114476596936583,-0.0197833999991416,-0.0746365338563919,0.0049716057255864,0.008743348531425,-0.99919593334198,0.0388129316270351,0.0083527197079967,-0.0113402823057642,-0.0658594910600922,0.0624883770942688,0.036330223083496,0.2639350891113281,98,483,15427,21962
13.7,1788267188674,3.802816867828369,4.169013977050781,-0.00917305983603,-0.0023465198464691,0.7294597625732422,0.6839581727981567,0.1539954640622449,-0.0021326515658402,3.890453666692523e-05,0.0127563215792179,-0.0103903375566005,-0.0344210155308246,0.0045610750094056,0.008108559064567,-0.9992830753326416,0.0366995632648468,0.0120039387225044,-0.0238362112138408,-0.0418009277143113,-1.6063835620880127,0.2040795683860778,-0.3459749221801758,46,301,5279,16055
13.8,1788267188774,1.154929518699646,2.7887322902679443,-0.0081346835941076,-0.0028884902130812,0.7365823984146118,0.6762927174568176,0.065188723936076,0.0049658035910027,1.062425767221966e-05,0.0011850021546706,-0.0151306614279747,0.2878009080886841,0.0036996910348534,0.0078194830566644,-0.9989105463027954,0.0458590649068355,0.0009401182515157,-0.0200087483849499,0.2723717580397265,-0.8418916463851929,0.0996494889259338,0.1444854736328125,28,239,0,12023
13.9,1788267188874,-1.5774648189544678,1.5492957830429075,-0.0079986546188592,-0.0029772818088531,0.7486500144004822,0.6629104614257812,0.0125213057345023,0.0007401726899526,3.257388446040576e-07,-0.0024701203219592,-0.0033507181797176,0.4179084002971649,0.0034553436562418,0.0077904369682073,-0.9974610209465028,0.070703700184822,-0.0055997790773174,-0.0027818116638066,0.4972129107086551,-0.2787778973579407,-0.0908942222595214,0.1015539169311523,209,209,-8674,8643
14.0,1788267188974,-1.5211267471313477,1.5211267471313477,-0.0076686642132699,-0.0030538665596395,0.7666993141174316,0.6419532895088196,0.0010363703189688,-0.0010679272817356,1.2927740165404804e-06,0.0023933658376336,-0.0063540870323777,0.4928071498870849,0.0032423632219433,0.0076021319255232,-0.9956108927726746,0.0932237654924392,0.001523086021183,-0.0033666798618846,0.4959622723392883,-0.0673692822456359,-0.1041886806488037,-0.0086889266967773,107,265,-6663,9121
14.1,1788267189074,-1.0985915660858154,1.3239436149597168,-0.0063777929171919,-0.00300850905478,0.781398355960846,0.6239927411079407,0.0003707521263382,-0.0026285140821128,-3.723333463446365e-07,0.0210583489388227,-0.026691947132349,0.4600345492362976,0.0019984282553195,0.006304046139121,-0.9927389025688172,0.1201077103614807,0.0287793456343203,-0.0364305506625738,0.4047599969773549,0.0676519870758056,-0.2449211478233337,-0.0773086547851562,29,221,-5213,7907
14.2,1788267189174,-0.9014084339141846,1.1267606019973757,-0.0045938855037093,-0.0027584808412939,0.7914724946022034,0.6111812591552734,0.003022637036569,-0.0029236670144767,7.23060673373339e-07,0.0217684768140316,-0.0192653369158506,0.2991466820240021,0.0012480849400162,0.0051594246178865,-0.9909595847129822,0.1340562105178833,0.0132418944504322,-0.0107144766032813,0.3218638376975493,-0.1197107434272766,0.1874932050704956,0.0610866546630859,115,278,-6257,9289
14.3,1788267189274,-1.154929518699646,1.0704225301742554,-0.0042817955836653,-0.0027592352125793,0.8019155263900757,0.5974156260490417,-0.001962477924129,-0.0036587222444311,1.3258369688295863e-06,0.0020366164389997,-0.0077909505926072,0.3935132026672363,0.0010182661935687,0.0049810567870736,-0.988507866859436,0.1510838717222213,-0.001155755610613,-0.0064314263283569,0.4144091548972224,0.0639628171920776,-0.0923038721084594,0.0260696411132812,65,363,-5355,9574
14.4,1788267189374,-1.2676056623458862,1.042253494262695,-0.0043829688802361,-0.0030062273144721,0.8126935958862305,0.5826670527458191,-0.0011687153633568,-0.0006526145232746,-3.9344084988072555e-07,-0.0068261898122727,-0.0018517778953537,0.3342101275920868,0.0010227710008621,0.0052995663136243,-0.9853039383888244,0.1707248389720916,-0.0059105647474408,0.0072722380358583,0.3350482144595192,0.1028050780296325,-0.0295023918151855,0.041121482849121,98,321,-4936,10415
14.5,1788267189474,-1.042253494262695,0.9295774698257446,-0.004441347438842,-0.0031303027644753,0.8228592872619629,0.5682191848754883,0.0030251715572626,0.0028980888955222,2.165411836132197e-07,-0.0018715460319072,-0.0053604342974722,0.3534311056137085,0.0008557811379432,0.0053694648668169,-0.9824957847595216,0.1862053424119949,-0.0024159823831024,-0.0083015048162962,0.3111159550989567,0.1282731294631958,-0.1270087361335754,0.0513668060302734,51,332,-3355,8472
14.6,1788267189574,-2.3380281925201416,2.3943662643432617,-0.0045134928077459,-0.0032571419142186,0.83477783203125,0.5505588054656982,-0.0034231023091633,0.0035598068575395,3.6262834023962173e-07,-0.0019894083961844,-0.002243623137474,0.5706222653388977,0.0008620973676443,0.0054988535121083,-0.9786090850830078,0.2056536674499511,-0.0007834210161972,-0.0076857901578144,0.6811606879685284,-0.2945597767829895,0.5804784893989563,0.3214902877807617,185,454,-11338,15951
14.7,1788267189674,-2.5915493965148926,2.563380241394043,-0.0041305492632091,-0.0034482015762478,0.8555824160575867,0.5176385641098022,0.0016560104367033,-0.0046122103781156,1.2266786112580196e-06,0.0023749761749058,-0.020053582265973,0.843461275100708,0.0004235059022903,0.0053517511114478,-0.969845414161682,0.2436620593070984,0.0030276334116342,-0.0258887812539651,0.8460262035066568,-0.0855366587638855,-0.030220627784729,0.2537527084350586,19,308,-6564,11779
14.8,1788267189774,-2.253521203994751,2.169013977050781,-0.004016303922981,-0.0037248556036502,0.8731049299240112,0.4875015020370483,0.0001000580945226,-0.0109246918587416,1.633762666369097e-07,-0.0050418684259057,0.0020985461305826,0.6438331604003906,0.0002076951786875,0.0055553186684846,-0.958977997303009,0.2834261059761047,-0.0077785609398954,0.0061594602021126,0.637828119721635,-0.2562870383262634,0.1592956185340881,-0.1356782913208007,82,369,-7385,12758
14.9,1788267189874,-2.169013977050781,2.366197109222412,-0.0046655945479869,-0.0040463861078023,0.8904411196708679,0.4550565183162689,0.0056654897101564,-6.649300301413715e-05,-2.683144316006595e-06,-0.0122684566304087,-0.0009803193388506,0.676024317741394,0.0004083598032593,0.0061623258516192,-0.949926257133484,0.3124131262302398,-0.0100872705249276,-0.0071274406393109,0.673183542615763,-0.2199137806892395,0.0968584418296814,0.0563020706176757,58,284,-7841,11768
15.0,1788267189974,-1.8309859037399288,2.0,-0.0044485419057309,-0.0043590171262621,0.905920386314392,0.4234023988246918,0.0042558109014656,-0.0028814641323018,1.402938261873842e-06,-0.0067198197357356,-0.0042631267569959,0.690601646900177,-1.4862976968288422e-05,0.0062987823039293,-0.9362905621528624,0.3511698246002197,-0.0089276249710749,-0.0019659261666124,0.6726629082068519,0.0836337804794311,0.0150059461593627,-0.3250408172607422,49,239,-6423,9594
15.1,1788267190074,0.3661971688270569,2.873239517211914,-0.0039614588022232,-0.0045941635034978,0.916228711605072,0.4006097316741943,0.0206074577028496,0.0031410537114516,1.019189403785482e-05,0.0025562245864421,-0.0216579418629407,0.5444276928901672,-0.000357930548489,0.0061818622052669,-0.927784025669098,0.3730661571025848,-0.0071385458324269,0.0065583570966095,0.4452416789593489,0.3587615489959717,-0.3050576448440552,0.3927984237670898,44,353,2467,14561
15.2,1788267190174,2.6478872299194336,4.056337833404541,-0.0039603426121175,-0.0047033834271132,0.9239272475242616,0.3825187385082245,0.0900251771132813,0.0012346832160963,1.8251291172967985e-05,0.0001862664212239,-0.0075225969776511,0.3115354180335998,-0.0005705961957573,0.0061342734843492,-0.921942174434662,0.3872786462306976,0.0005853562149755,-0.0137121386547071,0.2199259381689688,0.9995436668395996,-0.3908689618110657,0.356480598449707,236,477,12949,19761
15.3,1788267190274,5.070422649383545,4.929577350616455,-0.0040436051785945,-0.004073770251125,0.9267517328262328,0.3756305277347564,0.1790907234723495,-0.0035236038908015,-6.323703928474855e-06,0.0137819414958357,0.0059276134707033,0.1282853335142135,-0.0001553231850266,0.0057203210890293,-0.9193292856216432,0.3934475481510162,-0.0015876189811106,0.0034272955330469,-0.0377726323311785,0.0930476188659668,-0.3659185767173767,-0.3959789276123047,207,224,19371,17459
15.4,1788267190374,5.77464771270752,4.450704097747803,-0.0037592612206935,-0.0042491178028285,0.923181653022766,0.3843221664428711,0.1738905417610599,-0.0020837619288684,-3.0509001129543957e-05,0.0007614362402819,-0.0009619690827094,-0.2304249852895736,-0.000491352751851,0.0055895131081342,-0.9231587648391724,0.3843779265880584,0.0019565257247958,-0.020133442827711,-0.2344170014905449,-0.3425643444061279,-0.1347493529319763,0.5209321975708008,60,314,16357,17738
15.5,1788267190474,5.521126747131348,4.732394218444824,-0.0034504479262977,-0.0043201656080782,0.9199295043945312,0.3920448720455169,0.1588715077254575,-0.002904271798442,-6.61639104347932e-06,-0.0036080188583582,0.0098150642588734,-0.1684368252754211,-0.0006400048732757,0.0055484808981418,-0.9262315034866332,0.3769138157367706,-0.0092783328036779,0.0161258541068749,-0.1787820700821883,0.112979769706726,0.0427717566490173,-0.6192541122436523,30,456,12503,21677
15.6,1788267190574,5.014084339141846,4.535211086273193,-0.007277266588062,-0.0064484169706702,0.9191073179244996,0.3938872218132019,0.1663774446836965,-0.0018588796784172,-0.0001899809875303,-0.0895250812172889,0.065887726843357,-0.0081369616091251,0.000913924537599,0.0107877580448985,-0.9269586205482484,0.3750073909759521,-0.0573447956548356,0.0508434099390161,-0.0588416255948193,-0.196907103061676,-0.0983731746673584,0.4616947174072265,44,503,15562,21778
15.7,1788267190674,4.676056385040283,5.492957592010498,-0.0097974129021167,-0.0073849912732839,0.9189260005950928,0.3942389786243438,0.1679898262304522,0.0078153905511808,-0.000105627597578,0.0110073490068316,-0.0010250338818877,0.0427167117595672,0.0015866924077272,0.0118758250027894,-0.926640808582306,0.375757098197937,0.0634044400099921,-0.054099691579267,0.0800541187301934,0.0985608696937561,-0.3753806948661804,-0.192026138305664,52,392,14785,21114
15.8,1788267190774,5.521126747131348,4.422535419464111,-0.0096401060000061,-0.0074043702334165,0.9177563190460204,0.3969578742980957,0.164364515047415,0.000596656448799,0.0001149845711134,-0.0165205616503953,-0.0152732143178582,-0.1549712866544723,0.0015231734141707,0.0120596950873732,-0.9278692603111268,0.3727075159549713,-0.0234523691268736,0.0202022830340351,-0.1845850639450234,0.2344711422920227,-0.2294372320175171,-0.1721687316894531,99,485,16610,20859
15.9,1788267190874,5.352112770080566,4.985915660858154,-0.0088799763470888,-0.0070423427969217,0.9152570366859436,0.4027107954025268,0.1680799526700487,-0.0017584146299566,-1.8229859502258694e-05,0.0173393506556749,-0.0200625378638505,-0.1225292906165123,0.001477519981563,0.011110121384263,-0.9306461215019226,0.3657489717006683,0.0172882553515004,0.0074940958928623,-0.0836806967457795,-0.027700662612915,-0.0810310840606689,0.6892185211181641,62,407,14825,20390
16.0,1788267190974,5.098591327667236,5.126760482788086,-0.0085578542202711,-0.0063542178831994,0.9144156575202942,0.404636025428772,0.1907633454826909,0.0006702708632801,6.704097339452597e-05,0.0233310628682374,-0.0105293579399585,-0.0410344377160072,0.0009540133178234,0.0104262474924325,-0.9310409426689148,0.3647646903991699,-0.0016713773326584,-0.0369189769776252,-0.0194323027238894,-0.1864736080169677,0.290931761264801,0.4626302719116211,67,311,15561,18372
16.1,1788267191074,4.816901206970215,4.8450703620910645,-0.0051841540262103,-0.0052673686295747,0.9136694073677064,0.4063908457756042,0.1827027985093882,-0.0006495702955164,0.0001836735401055,0.0673329830169677,-0.0745386406779289,-0.0567170716822147,-5.679205060005188e-06,0.0074443342164158,-0.9317296743392944,0.3630762994289398,0.0953581910339508,-0.0827788782454365,-0.0726197013344565,0.2207666039466858,-0.157851755619049,-1.2036685943603516,42,439,14199,21351
16.2,1788267191174,4.535211086273193,5.549295902252197,-0.0025069932453334,-0.003950401674956,0.9151788949966432,0.4030208885669708,0.1715421713103472,0.0015617444013689,3.52298528227355e-05,0.0097582135349512,0.0045475247316062,0.1542166322469711,-0.0012905299663543,0.0043082870543003,-0.9297018647193908,0.3682856559753418,0.0027123473468406,-0.0231853175795957,0.1834652352312181,-0.2297283411026001,-0.3566556572914123,0.7931003570556641,49,478,12647,22843
16.3,1788267191274,4.591549396514893,5.633802890777588,-0.0020453981123864,-0.0039540035650134,0.9189638495445251,0.3943165242671966,0.1763829527340412,0.0031681878104769,-2.317024572542214e-06,-0.0074142459779977,0.0002596670237835,0.2129568606615066,-0.0014470163732767,0.0043849851936101,-0.9261894822120668,0.3770301043987274,-0.0173270199707034,-0.0052433871383188,0.1927091791746002,0.182849645614624,-0.0725598931312561,0.3377532958984375,79,393,13091,22061
16.4,1788267191374,4.507042407989502,5.6619720458984375,-0.0016723214648663,-0.004476464819163,0.9231780171394348,0.3843431174755096,0.181314129910897,0.0074642512635945,6.075297490081654e-06,-0.0020845453254878,0.0026624479796737,0.2004474699497223,-0.0020104115828871,0.0042740888893604,-0.9227737188339232,0.3853132128715515,0.0111448311824355,0.0092479458672705,0.2129060471971912,-0.2697060704231262,0.0389493107795715,0.1185855865478515,53,308,13445,20552
16.5,1788267191474,4.732394218444824,5.464788913726807,-0.0011969017796218,-0.0046059256419539,0.9261915683746338,0.3770232200622558,0.1760701171365245,0.0022089010110881,5.088557180044377e-05,0.0106799937784671,-0.0100485393777489,0.147719144821167,-0.0025352928787469,0.0039418386295437,-0.9192593693733216,0.393624484539032,0.0108473557965867,-0.0194281951133415,0.1066570526855414,0.3870484232902527,-0.4708017110824585,-0.4540300369262695,108,314,15515,19073
16.6,1788267191574,4.985915660858154,5.323943614959717,-0.0011174308601766,-0.0042590647935867,0.927230715751648,0.3744647800922394,0.1809985873248689,0.0038578477224302,-3.905701838083508e-07,0.0041243606247007,0.0106720738112926,0.0339665710926055,-0.0021563451737165,0.0038033472374081,-0.9184269309043884,0.3955665528774261,0.0079815943845353,0.0191830824214182,0.052373107987672,-0.022178828716278,0.2401082515716552,-0.4047794342041015,79,307,14437,19300
16.7,1788267191674,4.704225540161133,5.154929637908936,-0.0009863106533885,-0.0040978398174047,0.9278390407562256,0.3729571402072906,0.174018882268103,0.0030978176053085,2.226726553332845e-05,0.0042556379921734,-0.0059595326893031,0.029254512861371,-0.0020485436543822,0.0036178790032863,-0.9177171587944032,0.3972128927707672,0.0044792219914302,0.0101159428871698,0.0486255614242839,0.0795232057571411,-0.1104708313941955,-0.1839437484741211,68,387,15197,20647
16.8,1788267191774,5.070422649383545,5.183098793029785,-0.0031034394633024,-0.0048624319024384,0.929121732711792,0.3697290420532226,0.1789809787093423,0.0040518046822595,-0.0001258614238657,-0.056719072163105,0.0460794605314731,0.0952646434307098,-0.0010426202788949,0.0066687567159533,-0.9163162112236024,0.4003986716270447,-0.0569694698195478,0.0411043039510037,0.0330959990011768,0.0467163324356079,-0.1083861589431762,0.0619230270385742,101,398,13977,20915
16.9,1788267191874,4.704225540161133,5.746479034423828,-0.0070459144189953,-0.0066699758172035,0.9300723671913148,0.3672482669353485,0.1858752922168796,0.0091476362600651,-0.0002715485328983,-0.0417683459818363,0.0464013218879699,0.0806529000401496,0.0002254275605082,0.0096743972972035,-0.9152548909187316,0.4027592241764068,0.00416161848808,-0.0030291561226772,0.1326716940141968,-0.083368182182312,-0.4654309153556824,-0.3990430831909179,70,408,13023,22752
17.0,1788267191974,4.732394218444824,5.042253494262695,-0.0057978145778179,-0.0061333435587584,0.9319664835929872,0.362446129322052,0.1694204155530571,0.0046790950607485,3.374860822984219e-05,0.0065663354471325,-0.0109700532630085,0.0709913596510887,-0.0002776524052023,0.0084353722631931,-0.913349151611328,0.4070899486541748,0.0033754666331107,-0.016621528647878,0.0736474934431811,0.4298810958862304,-0.3080049753189087,-0.6465482711791992,68,510,14895,22554
17.1,1788267192074,4.985915660858154,5.408450603485107,-0.0059533468447625,-0.0058992244303226,0.9330471158027648,0.3596563935279846,0.190180624542722,0.0010225461928341,-5.328847215706952e-05,0.0046185660175979,0.002660239348188,0.0806788206100463,0.0001979926601052,0.008480136282742,-0.911701798439026,0.410765141248703,-0.0029928723282535,0.0246310954407118,0.0829001473998622,-0.0913851261138916,-0.0231814980506896,-0.4949712753295898,40,359,14162,20920
17.2,1788267192174,5.014084339141846,5.352112770080566,-0.0061646560207009,-0.0051407744176685,0.9346964359283448,0.3553562462329864,0.1798053678015711,-0.0001094998961901,-0.0001074672762339,0.0150962630286812,0.0171228870749473,0.0992205888032913,0.0006299903616309,0.0078467046841979,-0.910039722919464,0.4144464433193207,0.0048741041986618,-0.0124897966217195,0.0806815314990298,-0.1344876289367675,0.2051125764846801,0.645050048828125,73,274,14098,19058
17.3,1788267192274,4.929577350616455,5.014084339141846,-0.0024748528376221,-0.0027744791004806,0.9354662299156188,0.3533963561058044,0.1828090459410921,0.0025223156052642,0.0002333688330297,0.1005299091339111,-0.0810976922512054,0.0258795730769634,-0.0002871388569474,0.0039034150540828,-0.9094305634498596,0.4158373773097992,0.1144456970362189,-0.0883833117398544,0.0184088873920193,-0.1063660979270935,-0.5097289085388184,-0.1287803649902343,68,452,14214,21310
17.4,1788267192374,4.394366264343262,5.492957592010498,-0.0028082623612135,-0.0023317788727581,0.9358837604522704,0.3522901833057403,0.1827645851783517,0.0017626315917203,-8.970022277869717e-05,-0.0195444989949464,0.0463843159377574,0.0357228629291057,0.0002947654575109,0.003503224812448,-0.9085414409637452,0.4177799224853515,0.0073671926308782,0.0051618190373591,0.0686635631097284,-0.0303790569305419,0.0328534245491027,0.6999330520629883,75,467,13871,23228
17.5,1788267192474,4.732394218444824,5.211267471313477,-0.0042986283078789,-0.0023222083691507,0.9373628497123718,0.348320335149765,0.1764616654400785,0.0014494781031628,-2.3282106317248714e-05,-0.0214872155338525,0.0449102595448493,0.0791849792003631,0.0018805200234055,0.005086624994874,-0.9068431854248048,0.4214334189891815,-0.0205781669223126,0.0946579611894529,0.0768787726420761,0.2465922236442566,0.112559974193573,-0.8425817489624023,54,412,14813,21407
17.6,1788267192574,5.042253494262695,5.211267471313477,-0.0055807074531912,-0.0019877501763403,0.9383662343025208,0.3455916345119476,0.1801399425922002,0.0042474495904175,-0.0001239652338017,-0.0016884817741811,0.015846874564886,0.0353519320487976,0.0025761723518371,0.0054187942296266,-0.9056021571159364,0.4240859746932983,-0.001421784391586,-0.0028410804759022,0.0377555268915041,-0.0904558897018432,-0.1264104843139648,0.4236555099487304,62,345,13717,20330
17.7,1788267192674,4.957746505737305,5.295774459838867,-0.0060463580302894,-0.0018857192480936,0.939637303352356,0.3421133756637573,0.1810024979767814,-0.0020593840106285,6.889722860736999e-05,0.0008526595775038,-0.0156260952353477,0.0772354304790496,0.0028601260855793,0.0055875610560178,-0.9043668508529664,0.4267096817493438,0.0051841298741454,-0.0009123517308677,0.0745627683879962,0.1758860349655151,0.1233824491500854,-0.0525465011596679,101,334,14129,20122
17.8,1788267192774,4.816901206970215,5.014084339141846,-0.007015161216259,-0.0015852162614464,0.9406627416610718,0.3392667770385742,0.179281896449285,0.0017702445159894,-7.32541557265154e-05,0.0009212518343701,0.0200366042554378,0.0552237890660762,0.0038723610341548,0.0061058579012751,-0.9026987552642822,0.4302122890949249,0.0024268826055498,0.0042983796432269,0.0646186839636015,-0.0414274930953979,-0.2364163994789123,-0.1891803741455078,57,383,14714,20685
17.9,1788267192874,4.985915660858154,5.183098793029785,-0.0073910844512283,-0.0013405247591435,0.9413006901741028,0.337485671043396,0.1780444716089414,0.0037944667172875,-1.7852133937564477e-05,0.0015103480545803,0.0064306613057851,0.0285619031637907,0.0044432505965232,0.0064406963065266,-0.901880383491516,0.4319151639938354,-0.0095196033580215,0.0186419597878091,0.0466499950384858,0.0374097824096679,0.2385368347167968,0.8385524749755859,70,413,14176,20776
18.0,1788267192974,4.985915660858154,4.816901206970215,-0.0105326073244214,-0.00212112814188,0.9419652819633484,0.3355382084846496,0.1734340046838386,-0.001187490581323,-0.000213008223915,-0.0456961467862129,0.0694659054279327,0.0316530428826808,0.0060275318101048,0.0091832820326089,-0.901244580745697,0.4331714212894439,-0.0494880032850089,0.0756878648526237,0.0191211397619428,-0.0768347382545471,-0.1786698102951049,-0.0086593627929687,105,437,14421,21858
18.1,1788267193074,4.929577350616455,5.492957592010498,-0.0150840394198894,-0.0042328322306275,0.941834032535553,0.3357129096984863,0.1835431614678969,0.0094383083936186,-0.0003347045021439,-0.0623547695577144,0.0692476406693458,0.0377690345048904,0.0074054850265383,0.0133455274626612,-0.9010533094406128,0.4334397614002228,0.0130969198007302,-0.0265557305361603,0.0801687715926488,-0.0478444099426269,-0.3539009690284729,-0.2777433395385742,61,389,14197,21118
18.2,1788267193174,4.929577350616455,5.154929637908936,-0.0131321372464299,-0.0039815972559154,0.9423282742500304,0.3344085812568664,0.1765651724231551,-0.0025632568527382,7.222267729363966e-05,0.0181601289659738,-0.033441238105297,0.0182465817779302,0.0066728582605719,0.0122712990269064,-0.900626003742218,0.4343704283237457,0.0007476108127346,0.0021927409277001,0.0214018190478051,-0.0894960761070251,-0.2220826148986816,0.3277301788330078,51,494,14088,22582
18.3,1788267193274,5.014084339141846,5.408450603485107,-0.0118616465479135,-0.0040475027635693,0.9434929490089417,0.3311553299427032,0.1819997293872031,-0.0025513836475548,6.268250467167787e-05,0.0080257365480065,-0.0381253473460674,0.0840888917446136,0.0053166644647717,0.0111451456323266,-0.8991321921348572,0.4375030994415283,0.0159356964221691,-0.0649512860992614,0.0903043255177081,0.1372411847114563,0.172576904296875,-0.0890989303588867,66,354,13768,20927
18.4,1788267193374,4.957746505737305,5.211267471313477,-0.010663503780961,-0.0044914409518241,0.944552481174469,0.3281565904617309,0.1864361985448174,0.0039759163581534,0.0001216165920041,-0.000864271831233,-0.0236881338059902,0.0469853691756725,0.0041242633014917,0.0106162428855896,-0.8975494503974915,0.4407667517662048,0.0035214710687413,-0.0129783013937157,0.0469541617829862,0.0163632631301879,0.217048168182373,0.8074102401733398,78,324,13827,19827
18.5,1788267193474,5.042253494262695,4.8450703620910645,-0.0064777322113513,-0.0027272924780845,0.945015788078308,0.3269493579864502,0.1844988981161981,0.0010787653981688,0.0002955800031642,0.0808364748954773,-0.0936071798205375,0.0068961116485297,0.0024685012176632,0.0061121406033635,-0.8973250389099121,0.4413212239742279,0.1163985069600884,-0.1357942072187249,-0.0117602257946537,-0.0215996503829956,-0.4919534921646118,0.5530004501342773,67,409,13675,21281
18.6,1788267193574,4.873239517211914,5.070422649383545,-0.0043578105978667,-0.0024709599092602,0.9450294375419616,0.3269467353820801,0.1704966497922129,0.0023461981076078,0.0001136916840935,-0.0135540412738919,-0.0326503627002239,-0.0125985061749815,0.0010752994567155,0.0050274599343538,-0.8973503708839417,0.4412887990474701,-0.0218083516709897,-0.032099893867021,-0.0098865229873755,0.3060569167137146,-0.1842941641807556,-0.989314079284668,59,479,14070,22046
18.7,1788267193674,4.985915660858154,5.070422649383545,-0.0039811958558857,-0.0029955697245895,0.9457581043243408,0.3248335421085357,0.1784001934197689,0.0001848082938692,-3.4137469255350874e-05,-0.0095814429223537,-0.0104007497429847,0.062702938914299,0.0007591051980853,0.0053560715168714,-0.8961769342422485,0.4436638355255127,-0.0211372717673095,0.0254401535440168,0.016985229658748,-0.0378239750862121,0.1215554475784301,0.4450693130493164,61,407,14805,20736
18.8,1788267193774,5.211267471313477,5.042253494262695,-0.0041880491189658,-0.0036390288732945,0.9461407661437988,0.3237081468105316,0.1800413748034955,-0.000602980793934,-1.898800707330821e-06,-0.004930583294481,0.0093204034492373,0.0246395990252494,0.0001587783917784,0.0053396560251712,-0.8957544565200806,0.4445172548294067,0.0046968875688931,-0.0285440041266055,0.0211305716210424,0.1074221730232238,0.0559227466583251,0.2605247497558594,81,302,14655,19686
18.9,1788267193874,5.098591327667236,5.126760482788086,-0.0044144657440483,-0.0034583397209644,0.9458476305007936,0.3245624601840973,0.1858779206823455,-0.0020479064011875,2.3469565896233948e-05,-0.0015061616431921,-0.0043759145773947,-0.0180515684187412,0.0006232187151908,0.0055348947644233,-0.896272599697113,0.4434687793254852,-0.0085002137887013,-0.0237491727152287,0.0116208297048104,0.061180293560028,0.3095287084579468,0.5812549591064453,70,377,14623,20059
19.0,1788267193974,5.126760482788086,4.957746505737305,-0.004226142540574,-0.0036415422800928,0.945670247077942,0.3250795304775238,0.1811954110231876,-0.0017013850866465,1.7266254594939204e-06,-0.0044061499647796,-0.0093719745054841,-0.0218582469969987,0.0001901676878333,0.0055162962526082,-0.896525502204895,0.4429579377174377,-0.0080647858278055,-0.031336419367693,-0.0259640957628461,-0.179310142993927,-0.2102470397949218,-0.0277881622314453,76,388,14430,19924
19.1,1788267194074,5.042253494262695,4.901408672332764,-0.0041217729449272,-0.003619996830821,0.9454910159111024,0.3256021738052368,0.1798841086544651,-0.0038821924747969,-1.1228455345862003e-07,0.0022332547232508,-0.0035595854278653,-0.0220998711884021,0.0003423197194933,0.0054368926212191,-0.8968663215637207,0.4422682523727417,0.0057373848584263,0.0006269440300678,-0.0538417929734208,0.2582823038101196,0.0785298943519592,-0.2480344772338867,79,413,15079,20606
19.2,1788267194174,5.183098793029785,4.901408672332764,-0.0047537824138998,-0.0042237928137183,0.9453681707382202,0.3259423673152923,0.1759946877974391,0.0077966472796942,-4.029544714490707e-08,-0.0308510549366474,0.0160159394145011,-0.0143916625529527,0.000568201765418,0.0074756508693099,-0.8971279263496399,0.4417074024677276,-0.047858018618005,0.0402418982813332,-0.0376669075306505,-0.051145315170288,0.116908311843872,-0.5335807800292969,86,363,15493,19713
19.3,1788267194274,5.042253494262695,4.873239517211914,-0.0084973080083727,-0.0062812734395265,0.9444577693939208,0.3284628689289093,0.1722446290459921,-0.0018602561116889,-0.0001356866964982,-0.0801818370819091,0.0791569650173187,-0.0547901950776577,0.0020673442631959,0.0118926838040351,-0.8980143070220947,0.4398007690906524,-0.1101510453263178,0.1174087781774234,-0.0205471746916126,0.3397724032402038,-0.0720775127410888,0.3678264617919922,78,575,13833,23774
19.4,1788267194374,4.873239517211914,5.211267471313477,-0.0100773116573691,-0.0066639259457588,0.9452208280563354,0.3262079954147339,0.1844110174462636,-0.0027975009971122,0.0001126893893325,0.0225205980241298,-0.0238686129450798,0.0475757680833339,0.0026358040049672,0.0117667783051729,-0.8968464136123657,0.4421777129173279,0.0132527651206595,0.0284798904044042,0.0108631340400058,-0.1655102968215942,0.4188374280929565,-0.1703329086303711,54,402,14299,21581
19.5,1788267194474,4.985915660858154,5.323943614959717,-0.0100962789729237,-0.0062691243365406,0.9453108310699464,0.3259543478488922,0.1786990263213229,0.0013437433701323,-2.327707218448489e-06,0.0148517992347478,0.0058636697940528,0.0111154559999704,0.0024209041148424,0.0111181335523724,-0.8961234092712402,0.4436590373516083,0.0125267365476139,-0.0301517422386674,0.0697353948758507,0.1800651550292968,0.2379429340362548,-0.5756607055664062,66,480,13890,22256
19.6,1788267194574,4.985915660858154,5.521126747131348,-0.0095415031537413,-0.005676906555891,0.946776568889618,0.3216999769210815,0.1885066619913667,-0.002372498559512,-8.762495390982119e-06,0.0028932378627359,0.0017483120318502,0.0353400632739067,0.0022861184552311,0.0105629367753863,-0.8945772051811218,0.4467828869819641,-0.0005444582455416,-0.0283040997455923,0.0281214732073119,0.0969763398170471,-0.0846775770187377,0.3609304428100586,59,282,14037,19045
19.7,1788267194674,5.042253494262695,4.873239517211914,-0.0078422846272587,-0.0050632846541702,0.9477903246879578,0.3187575340270996,0.186097857573015,0.0002623796989186,6.807580967886524e-05,0.0342445932328701,-0.0295331105589866,0.0667737796902656,0.0018387492746114,0.0086900815367698,-0.8933587670326233,0.4492563307285309,0.0798804236548329,-0.0564486831171498,0.0495141900656263,-0.3365941047668457,-0.2511626482009887,-0.512516975402832,55,371,14684,19741
19.8,1788267194774,3.9718310832977295,4.676056385040283,-0.0036979787983,-0.0022290823981165,0.9485798478126526,0.3165083527565002,0.1730719761917504,-0.0017885230974977,0.0002166562861801,0.051679141819477,-0.0248454399406909,0.050441887229681,0.0010509146377444,0.0041491826996207,-0.8923707008361816,0.4512829780578613,0.0097482659160704,0.023777071164377,0.055356939049756,0.216007649898529,0.3394522666931152,-0.0257139205932617,11,404,9226,18567
19.9,1788267194874,1.408450722694397,3.0985915660858154,-0.0033169835805892,-0.0024920443538576,0.9497111439704896,0.3130998611450195,0.1112241987310742,0.0004980430207622,3.771104214582132e-06,0.0096545470878481,-0.0125314909964799,0.1589098423719406,0.0007662568241357,0.0043523451313376,-0.889595091342926,0.4567285478115082,-0.0084269166931964,0.0243933673582227,0.245236018146121,-1.023713231086731,0.3117546439170837,-0.1212739944458007,36,358,376,15057
20.0,1788267194974,-0.8169013857841492,1.887323975563049,-0.0032939137890934,-0.0027959109283983,0.9556287527084352,0.2945422530174255,0.0320935268738358,-0.0001962909163697,3.8002884413614143e-06,-0.0034259893000125,-0.0081158839166164,0.3894853591918945,0.0003315284848213,0.0043077925220131,-0.8817570209503174,0.471684068441391,-0.0075350767556956,-0.0045640114547647,0.3942357596558628,-0.5400285124778748,0.1346378922462463,-0.1412057876586914,215,347,-8473,10720
20.1,1788267195074,-1.887323975563049,1.5774648189544678,-0.0032427858095616,-0.0030623199418187,0.9621641635894777,0.27243372797966,-0.0083355936808064,0.0018737342443971,1.4068126694635246e-07,-0.0053530717268586,-0.0069205081090331,0.5149620175361633,3.580935299396515e-06,0.004410745576024,-0.8671983480453491,0.4979433417320251,-0.0016050982102683,-0.0116893461952835,0.5183359110117575,0.1031679511070251,-0.0210086107254028,0.019576072692871,39,316,-6099,10569
20.2,1788267195174,-1.2394366264343262,1.436619758605957,-0.0029810220003128,-0.0030021455604583,0.9685330986976624,0.2488489598035812,0.0038825643784138,-0.0001146137216969,-9.484022570041276e-07,0.0030290593858808,-0.0035054688341915,0.4762381315231323,-4.725996404886246e-05,0.0042193233966827,-0.8565276265144348,0.516083836555481,0.001395140678453,-0.0043745229314164,0.4112812090421167,0.2076893448829651,-0.2565926909446716,0.0562505722045898,31,215,-4745,8066
20.3,1788267195274,-1.0985915660858154,1.042253494262695,-0.0030755046755075,-0.0029690987430512,0.9723168015480042,0.2336271852254867,-0.0021948854991571,0.0028606750582615,-2.5454329504832595e-06,-0.0008798161288723,0.0014667300274595,0.3178789615631103,9.988714009523392e-05,0.0043142950162291,-0.8490462899208069,0.5283007621765137,-0.0019385586472311,0.0046524252980774,0.3246079470083665,-0.1164972186088562,-0.00563246011734,0.0489101409912109,108,342,-5884,9217
20.4,1788267195374,-1.154929518699646,1.183098554611206,-0.0028390001971274,-0.0030922594014555,0.9764456748962402,0.2157224863767624,-0.0030342655286497,0.0011457411536087,1.3985692441679815e-06,-0.0027648131363093,-0.0112866004928946,0.3781465590000152,-0.0002947319298982,0.0040996791794896,-0.8369755744934082,0.5472249388694763,0.0010350133336114,-0.0092733335539509,0.381575254354424,0.0413600802421569,-0.0852273106575012,0.0798282623291015,42,353,-5156,8906
20.5,1788267195474,-1.2394366264343262,0.98591548204422,-0.0023466125130653,-0.0031505222432315,0.980457365512848,0.1966925710439682,0.0002248970095959,0.0002326442424397,2.5454544449052702e-06,-0.0002767290861811,-0.0116497715935111,0.3373473882675171,-0.0006018783897161,0.0038764448836445,-0.8284942507743835,0.5599839091300964,-0.0002942520347043,-0.0108937688290113,0.3266546162213566,-0.1139164566993713,0.0470152497291564,0.0529146194458007,128,298,-5153,9729
20.6,1788267195574,-1.183098554611206,1.2957746982574463,-0.0021307487040758,-0.0032534557394683,0.9837517738342284,0.1794915497303009,-0.0002404175594522,0.0011452550433463,2.6353712393760775e-07,-0.0021745592821389,-0.0031566193792968,0.3563446998596191,-0.0008125528693199,0.0038057509809732,-0.819493293762207,0.5730756521224976,-0.0020456596474598,-0.0020635760795236,0.3652893428571384,-0.2082728147506714,-0.0129638314247131,-0.0019454956054687,87,320,-5378,8835
20.7,1788267195674,-0.9295774698257446,0.9295774698257446,-0.001815007533878,-0.0035162377171218,0.9864007830619812,0.1643104404211044,-0.0070050515752558,0.0007544640035385,5.048947778375972e-07,-0.0043899146839976,-0.0100842034444212,0.3239486217498779,-0.0012269336730241,0.0037610735744237,-0.8106182217597961,0.5855616927146912,-0.0015495336951477,-0.01261011520883,0.3013461294861607,0.0794897675514221,-0.0534132719039917,0.1288204193115234,6,294,-3517,7647
20.8,1788267195774,0.0,0.0,-0.0016923870425671,-0.0035390702541917,0.98777437210083,0.1558406203985214,0.0006690487918476,-0.0022128439840169,1.6137148452040723e-06,0.0008235666900873,-0.0039591416716575,0.0689943358302116,-0.0014376984909176,0.0036652013659477,-0.8059788942337036,0.5919312238693237,-0.0017026441704144,-0.0060085453090106,-0.05159169345954,0.1676115989685058,0.1561234593391418,0.0661783218383789,108,247,5255,7398
20.9,1788267195874,2.4788732528686523,3.014084577560425,-0.0014634254621341,-0.003278512507677,0.987966001033783,0.1546293795108795,0.0792214836721943,-0.00171883057741,4.02124444448792e-06,0.0117254806682467,-0.0076446598395705,0.0492819398641586,-0.0012974133715033,0.0033244211226701,-0.8050575852394104,0.5931859016418457,0.0162178878794807,-0.0045543504002301,0.0527495144617549,0.9252581000328064,0.353606641292572,-0.1542415618896484,144,513,10401,17717
21.0,1788267195974,4.084506988525391,5.85915470123291,-0.0013440968468785,-0.0029394424054771,0.989273965358734,0.1460360288619995,0.1621045614881603,0.0058161178961249,3.399870691430661e-06,0.0078766262158751,0.0021301119122654,0.2231926023960113,-0.0012318808585405,0.0030161319300532,-0.8005337119102478,0.5992788672447205,0.0080888245512963,0.0021516628497444,0.2185577451019725,0.582356870174408,-0.0410079360008239,-0.5344552993774414,185,468,14968,23754
21.1,1788267196074,4.732394218444824,5.605633735656738,-0.0020847469568252,-0.0030284256208688,0.9908091425895692,0.1352174431085586,0.1875274932613386,0.0069689335804027,-2.727774295409223e-05,-0.007231289986521,0.0108789512887597,0.2332321107387542,-0.0009340057149529,0.0036027859896421,-0.7918837666511536,0.6106606125831604,-0.0143657524300151,-0.0194664096110701,0.2218979236583243,-0.078201413154602,-0.1536940336227417,-0.6128625869750977,78,384,13454,21342
21.2,1788267196174,4.619718074798584,5.380281925201416,-0.0038875294849276,-0.0043098465539515,0.9918746948242188,0.1270858645439148,0.1803941735758632,0.0039801898454472,-0.0001342497990827,-0.0539157725870609,0.0419785194098949,0.1398206800222396,-0.0003616930916905,0.0062134126201272,-0.7879142761230469,0.6157535314559937,-0.0593582393909494,0.0386532377329753,0.1017852971090648,-0.1062032580375671,-0.0524387955665588,0.6881237030029297,90,446,13759,22516
21.3,1788267196274,4.816901206970215,5.85915470123291,-0.0094225015491247,-0.0084605636075139,0.9925659894943236,0.121047243475914,0.1778376708480502,0.0085784813612162,-0.0004899856326418,-0.101040780544281,0.114068403840065,0.1136321499943733,0.000661295838654,0.0122255031019449,-0.7832874655723572,0.6215391755104065,0.0078682055385049,-0.0065848583425098,0.1799419534976122,-0.3030024170875549,-0.2745466828346252,-0.3714723587036133,52,408,12701,22401
21.4,1788267196374,4.2253522872924805,5.436619758605957,-0.0082154320552945,-0.0073984591290354,0.9934600591659546,0.1136434227228164,0.1732037270655473,0.003277288578969,1.742634198570999e-05,0.0016512870788574,-0.0197934117168188,0.1228412538766861,0.0008650375530123,0.0112693030387163,-0.7793077826499939,0.6265393495559692,0.0021773562667457,0.0098736669707676,0.1280938108357291,0.1889324188232422,-0.3744171261787414,0.5195817947387695,80,536,14529,23847
21.5,1788267196474,4.591549396514893,5.88732385635376,-0.0083273416385054,-0.006879249587655,0.994295597076416,0.106111541390419,0.1839398691948933,0.0034289111713257,5.191040239189754e-06,0.0109208477661013,-0.0019892340060323,0.1706173568964004,0.0007670670747756,0.0105100637301802,-0.7744302153587341,0.6325715780258179,0.0203626078675804,-0.035401069838956,0.1751896172931482,0.1010586619377136,-0.1151921153068542,0.0824403762817382,34,325,13374,21149
21.6,1788267196574,4.478873252868652,5.85915470123291,-0.0074201449751853,-0.0064953998662531,0.995120644569397,0.0981712043285369,0.184847516817983,0.0015544929652152,7.613442013287857e-05,0.0144460722804069,-0.0122067667543888,0.1616668105125427,0.0004200190305709,0.0091150589287281,-0.7682624459266663,0.6400699019432068,0.027393097989973,-0.0423758007963561,0.1743789375182647,-0.2796133160591125,-0.3475090265274048,0.4123353958129883,61,287,13575,19563
21.7,1788267196674,4.507042407989502,5.352112770080566,-0.0016654210630804,-0.0022188627626746,0.9959522485733032,0.0898404493927955,0.178193398211978,0.0038081588385635,0.0004726011720693,0.1280539184808731,-0.1291887909173965,0.1398294419050216,-0.0005821855738759,0.0017905253916978,-0.7640838027000427,0.6451143026351929,0.1288910233070255,-0.1278617368757071,0.1615602443184408,-0.0888853669166565,0.5208442807197571,-0.0745744705200195,34,449,13379,22085
21.8,1788267196774,4.591549396514893,5.436619758605957,-0.0002457420923747,-0.0018132686382159,0.9966636896133424,0.0815973430871963,0.1704569676334297,0.0032391232853235,0.0001593394751615,0.00969760119915,-0.0292392149567604,0.1702699363231659,-0.0011153677478432,0.0014506159350275,-0.7593384981155396,0.6506931781768799,0.016706320550434,0.0052426156711241,0.1797131453831916,0.0463238358497619,0.0640827417373657,0.2337913513183593,57,486,13224,23126
21.9,1788267196874,4.2816901206970215,5.521126747131348,-0.0002397231291979,-0.0022670880425721,0.9972929954528807,0.0734942257404327,0.1723858115228153,0.0056834259763176,2.2723720067929862e-05,-0.016856774687767,0.0072442963719367,0.1678069233894348,-0.0013808738440275,0.0019019469618797,-0.7540416717529297,0.6568223834037781,-0.0252056051983602,0.0379108595954428,0.1619304644074542,0.2895431518554687,-0.0486479401588439,-0.4337806701660156,78,456,14526,22973
22.0,1788267196974,4.535211086273193,5.549295902252197,5.901565600652248e-05,-0.0022199898958206,0.9978911876678468,0.0648713931441307,0.1844713505585704,0.0043136315055346,0.0001115321051606,6.826710887253284e-05,-0.0236295834183692,0.1708867400884628,-0.0016743866726756,0.0014614472165703,-0.747248649597168,0.6645409464836121,-0.0032350831399669,0.002800132226893,0.1560910384915182,-0.2072966694831848,-0.0232117176055908,-0.3448801040649414,90,416,14243,21126
22.1,1788267197074,4.366197109222412,5.633802890777588,0.000882810272742,-0.0020109126344323,0.9982309341430664,0.0594154745340347,0.1823292694719557,0.0043305507632122,5.387088417739516e-05,0.0049826600588858,-0.0249097775667905,0.0660512447357177,-0.0020640874281525,0.0007700389251112,-0.7446478009223938,0.6674540042877197,0.0050657835484373,-0.0301547438469844,0.0647241622505315,-0.1043906807899475,0.1174650192260742,0.1400146484375,65,387,14329,21461
22.2,1788267197174,4.760563373565674,5.352112770080566,0.0009972265688702,-0.0023048156872391,0.9986523389816284,0.0518397502601146,0.1779227001786398,0.0040516538225255,3.234218881403716e-05,-0.0059641571715474,-0.0063689141534268,0.1692445576190948,-0.0027086958289146,0.0007729502394795,-0.738743782043457,0.6739805936813354,-0.0146870890527873,-0.0328447939643662,0.1522364037827194,0.0761584043502807,0.2946657538414001,-0.3156318664550781,87,451,12764,22779
22.3,1788267197274,4.507042407989502,5.549295902252197,0.0008648195653222,-0.0033953606616705,0.9989522695541382,0.0456291437149047,0.1744765192504961,0.0038611223571619,-2.85536752372358e-05,-0.0282485354691743,0.0188379008322954,0.1429979056119918,-0.0028832964599132,0.0025125592947006,-0.7343862056732178,0.6787211298942566,-0.0445164861955635,0.0555490876552351,0.1438039016815885,0.0315496325492858,-0.2057691216468811,0.4347658157348633,76,446,13823,22287
22.4,1788267197374,4.422535419464111,5.295774459838867,-0.0042609530501067,-0.0078198425471782,0.999203085899353,0.0389103442430496,0.1722893553424553,0.0018787940620962,-0.0003303371369751,-0.1003127545118331,0.1053666919469833,0.100211925804615,-0.0025129970163106,0.0085379350930452,-0.7308073043823242,0.6825257539749146,-0.1050561721940009,0.1266972510113667,0.0961863619137386,0.3436380624771118,0.4504273533821106,-0.0776529312133789,79,561,14237,24392
22.5,1788267197474,4.647887229919434,5.549295902252197,-0.0052714790217578,-0.0092069553211331,0.9994739890098572,0.0306431241333484,0.1891430328148938,0.0001949566149605,0.0001510544272947,0.0278293471783399,-0.0301014743745327,0.180751085281372,-0.0028133708983659,0.0099612176418304,-0.72434401512146,0.6893610954284668,0.0213169349988383,-0.0022985072927931,0.1124655009032628,0.0151363611221313,0.1279137730598449,-0.6725406646728516,48,414,13209,22665
22.6,1788267197574,4.197183132171631,5.633802890777588,-0.0048490292392671,-0.0094017591327428,0.999679148197174,0.023014098405838,0.1781174579187187,0.005468037136764,6.14677099988195e-05,-0.0022043208591639,0.0105542633682489,0.1730764955282211,-0.0031822035089135,0.010160363279283,-0.7191259264945984,0.6947981715202332,-0.0003466085546572,0.0461842509900585,0.1996503855890337,0.124436616897583,0.1813142895698547,-1.122272491455078,106,503,14792,23618
22.7,1788267197674,4.760563373565674,5.88732385635376,-0.0041408608667552,-0.0093290619552135,0.9998408555984496,0.0146330017596483,0.1835445101821476,0.0019403298713321,-4.520789131836436e-05,0.0059131295420229,-0.010963269509375,0.1918135583400726,-0.0038049332797527,0.0091391922906041,-0.7127761244773865,0.7013217806816101,0.0131992056998488,-0.0511169492792419,0.201972327641041,-0.0370882153511047,-0.0282508730888366,0.152231216430664,72,294,12634,20409
22.8,1788267197774,4.450704097747803,5.380281925201416,-0.0029807158280164,-0.0079724295064806,0.999948263168335,0.005577078089118,0.1789154124775765,0.006474562656015,0.0001083325585207,0.0404744036495685,-0.050850361585617,0.1559750586748123,-0.0033732838928699,0.0070200962945818,-0.7071348428726196,0.7070357799530029,0.1022510989465735,-0.0675170578167733,0.1279721802456546,-0.1180569529533386,-0.3767557740211487,0.4111795425415039,58,418,14634,21060
22.9,1788267197874,5.408450603485107,4.8450703620910645,0.0001947007112903,-0.0046905353665351,0.999983549118042,0.0032891687005758,0.1828942628758907,0.0001797868990353,-2.2441175381735645e-05,-0.0082693304866552,0.0022844905033707,-0.0647195801138877,-0.0036264061927795,0.0031426232308149,-0.7068062424659729,0.7073908448219299,-0.0134983488494087,-0.0351300046484008,-0.1093221751093072,-0.0465632677078247,-0.1519030332565307,-0.3897361755371094,60,418,15315,20477
23.0,1788267197974,5.126760482788086,4.901408672332764,-0.0001396940497215,-0.0046120914630591,0.9999709725379944,0.0060655423440039,0.1811549887586748,0.0019173170823072,-1.2253299670585514e-05,-0.0021559190936386,0.0025300374254584,-0.0330485180020332,-0.0033205412328243,0.003276951611042,-0.7081241607666016,0.7060725688934326,-0.0089175478461442,-0.0112397763500382,-0.0304885500372446,0.032254159450531,-0.2363499402999878,0.0393743515014648,83,393,15981,20286
23.1,1788267198074,5.352112770080566,4.985915660858154,-0.0009375397930853,-0.0050009209662675,0.9999552369117736,0.0079844407737255,0.1812939400102172,-0.0032135491947308,-4.923077070650395e-05,-0.0027902366127818,0.0111602088436484,-0.0318817421793937,-0.0029332106932997,0.0042453743517398,-0.7094947099685669,0.7046918869018555,-0.0045560507147035,0.006538958360123,-0.0217770162737289,-0.1716110110282898,0.2027917504310608,0.2998466491699219,94,373,14933,19634
23.2,1788267198174,4.957746505737305,4.8450703620910645,-0.0011777144391089,-0.0050564552657306,0.9999379515647888,0.0098561318591237,0.177783694403743,-0.0052183520578008,-4.252181640776368e-05,-0.0004998412332497,0.0141325807198882,-0.0376576073467731,-0.002630908973515,0.0043093590065836,-0.7107844948768616,0.7033917903900146,0.0103368608420764,0.0023428561233683,-0.0110308024052327,-0.0241701602935791,0.0846675038337707,0.7973947525024414,71,495,14044,22715
23.3,1788267198274,4.760563373565674,5.295774459838867,-0.0014654737897217,-0.0046132467687129,0.9999629259109496,0.007130010984838,0.1779020780468086,0.0027708874450213,-8.943870427571305e-05,0.0063013015314936,0.0101413214579224,0.0834992974996566,-0.0021596765145659,0.0043912101536989,-0.708512008190155,0.7056818604469299,0.0014487724867126,-0.0006228791194306,0.0827322024182314,-0.0458855032920837,-0.0760509967803955,0.6559886932373047,69,398,14597,21169
23.4,1788267198374,4.760563373565674,4.957746505737305,-0.0019413944100961,-0.0045210248790681,0.9999765753746032,0.0047663496807217,0.176048268791063,0.0022185641484821,-4.178170511519804e-05,-0.0009412327199243,0.0168267115950584,0.0432184636592865,-0.0018459614366292,0.0045608216896653,-0.7070783972740173,0.7071180939674377,0.0001096064704544,0.0256631967336157,0.0413088214929397,0.0444984436035156,-0.0188962817192077,-0.0974807739257812,54,467,14825,22416
23.5,1788267198474,4.732394218444824,5.323943614959717,-0.0024366446305066,-0.005372067913413,0.9999764561653136,0.0035103478003293,0.1809915508436677,0.0012832954032162,-6.633579177373992e-05,-0.0353181585669517,0.0289087127894163,0.0393492840230464,-0.0021302113309502,0.0053681470453739,-0.706232488155365,0.7079565525054932,-0.0380837051983454,0.0257752157091302,0.0203707470489319,0.1446320414543151,0.0316838026046752,-0.2922830581665039,52,407,14890,21003
23.6,1788267198574,4.732394218444824,4.985915660858154,-0.0058100675232708,-0.0093871066346764,0.9999348521232604,0.002892363583669,0.1784173481711416,-0.0032883831167408,-0.0001619056880093,-0.0865858644247055,0.0674934461712837,-0.0061190868727862,-0.0024115042760968,0.0122818686068058,-0.7058402299880981,0.7082604765892029,-0.0938726223686611,0.1095092330382534,-0.0221033536782918,0.2003229856491089,0.1119361519813537,0.4031028747558594,74,548,15094,23615
23.7,1788267198674,4.957746505737305,5.183098793029785,-0.0083275875076651,-0.0109013896435499,0.9999058842658995,0.000239479690208,0.1883961819253699,-0.0021758382988409,0.0001011062869549,0.0326779447495937,-0.0082722706720232,0.0697050839662551,-0.0019348822534084,0.0134076122194528,-0.7037610411643982,0.7103076577186584,0.0327087898661589,-0.0047537205159696,0.0824575882732329,-0.1977804899215698,-0.0908982753753662,-0.6996173858642578,76,457,14144,22059
23.8,1788267198774,4.760563373565674,5.295774459838867,0.0081548783928155,0.0110558122396469,-0.999904215335846,0.0017006968846544,0.1796449502512155,0.0008008936778589,-5.1471749261452966e-05,-0.0022495042067021,-0.0014988877810537,0.0759115070104599,-0.0014118393883109,0.0141814332455396,-0.7014599442481995,0.7125664353370667,0.0084226253192239,0.0627835987761599,0.1228332497192986,0.2101063728332519,0.085129976272583,-0.3023395538330078,68,473,14740,22577
23.9,1788267198874,5.070422649383545,5.6619720458984375,0.0082805268466472,0.0112397810444235,-0.9998831152915956,0.006226064171642,0.187625206290795,0.0017100534479651,5.330187682146554e-06,-0.0060078748501837,-0.0103929052129387,0.0784375965595245,-0.0028376625850796,0.0131461946293711,-0.6987310647964478,0.7152579426765442,-0.006566608222272,-0.0881682510844264,0.0753004759071346,-0.1104909181594848,-0.0012774467468261,1.2108383178710938,71,298,13835,19290
24.0,1788267198974,4.704225540161133,5.070422649383545,0.0070521682500839,0.0099296206608414,-0.9998733997344972,0.0102392807602882,0.1822495364305093,0.0006399724733199,3.359160330637917e-05,0.0334917902946472,-0.0184492412954568,0.0926300138235092,-0.0020442595705389,0.011604594066739,-0.696112334728241,0.7178361415863037,0.0520753712972795,-0.0282686614952641,0.0636184518107513,-0.0980671048164367,-0.2930604219436645,-0.8012218475341797,45,373,14904,20005
24.1,1788267199074,4.760563373565674,5.042253494262695,0.0021313277538865,0.0053131524473428,-0.999906063079834,0.0124547071754932,0.1711502832763192,-0.0004943886136271,0.0004844148123573,0.0816676840186119,-0.0832276344299316,0.0281937625259161,-0.0022689402103424,0.0054133245721459,-0.6944596767425537,0.7195077538490295,-0.0251510692561253,0.03162744364472,0.0183904724479523,-0.0103533267974853,0.0066877007484436,0.8739042282104492,76,457,14848,21897
24.2,1788267199174,4.760563373565674,5.239436626434326,0.0019791412632912,0.0055146375671029,-0.9998791217803956,0.0144018065184354,0.1782425412994054,-0.002798950188828,2.4560379290041983e-05,0.0003435766848269,-0.0081029599532485,0.044906735420227,-0.0024135438725352,0.0054474538192152,-0.6931237578392029,0.7207940220832825,-0.0022486177881828,0.0083846013599693,0.0590187185492792,0.1217404007911682,0.0548430085182189,-0.2964382171630859,66,439,14279,21481
24.3,1788267199274,5.154929637908936,5.014084339141846,0.0023987065069377,0.0057281581684947,-0.9998257160186768,0.0176079683005809,0.1840587200311439,0.0013306290036791,-5.937301743735539e-05,-0.0043489392846822,0.007583784405142,0.0822464749217033,-0.0024190200492739,0.0056701181456446,-0.6908783912658691,0.7229447364807129,0.0072177318240748,-0.0146768614411589,0.0726170158569309,-0.0901811718940734,-0.0315415263175964,-0.2402124404907226,95,330,15720,19153
24.4,1788267199374,5.154929637908936,4.816901206970215,0.0016383779002353,0.005991565529257,-0.9998378157615662,0.0169049687683582,0.1801089202822732,-0.002393669622246,6.211554408267522e-05,-0.0081923399120569,-0.004903906956315,-0.0307024233043193,-0.0027739470824599,0.0055656488984823,-0.6923314332962036,0.7215529084205627,0.007460353151869,0.0246112727867532,-0.0691464418482552,-0.2314587831497192,0.0411023497581481,0.6773290634155273,73,353,15895,19499
24.5,1788267199474,5.380281925201416,4.929577350616455,0.0017431052401661,0.0054824282415211,-0.9998928904533386,0.0134583171457052,0.1783460783567093,0.0005761725082699,2.7706193552162072e-05,0.0108559085056185,-0.0057707112282514,-0.069453939795494,-0.0026329671964049,0.0050467560067772,-0.6942670345306396,0.7196950912475586,0.0092168575706854,-0.0074447487612265,-0.0503135367864105,0.2378678321838379,0.0719432830810546,-0.3758411407470703,95,352,14991,19302
24.6,1788267199574,5.267605781555176,4.901408672332764,0.0021661263890564,0.0051990845240652,-0.9999240636825562,0.0109602026641368,0.1796440043750617,-0.0009340530253706,9.014597535208408e-06,0.0047106249257922,0.004737448412925,-0.0408848412334919,-0.0021695774048566,0.0051976460963487,-0.695867121219635,0.7181485891342163,0.0079185121060915,0.0269056500443943,-0.0348239557090927,-0.0170093178749084,0.1017698645591735,0.3736248016357422,71,390,14966,19441
24.7,1788267199674,5.267605781555176,4.929577350616455,0.0025898604653775,0.0050577991642057,-0.9999416470527648,0.0091869384050369,0.1836978847979514,-0.0001739719210855,-2.4699254783703025e-05,0.004200305789709,0.0055645876564085,-0.0546143874526023,-0.0018332386389374,0.0053455280140042,-0.6973515152931213,0.7167070508003235,-0.003857870216251,-0.0009797293304435,-0.0530099354104629,-0.1581109762191772,-0.2758638262748718,-0.1867103576660156,57,349,15067,19272
24.8,1788267199774,5.267605781555176,4.563380241394043,0.0033132589887827,0.0064820768311619,-0.9999584555625916,0.0054940897971391,0.175886676462658,-0.0013871896982122,-8.246853609857875e-05,-0.0476710200309753,0.0247961394488811,-0.0802094936370849,-0.0024656420573592,0.0076543670147657,-0.7004615068435669,0.7136449813842773,-0.0679146938714147,0.0334242597959338,-0.0996146562470018,-0.0752714276313781,-0.375079333782196,0.0503883361816406,64,443,15013,20805
24.9,1788267199874,5.211267471313477,5.154929637908936,0.0079078124836087,0.010589063167572,-0.9999121427536012,0.0010748874628916,0.1868173248925863,0.0013602881209212,-0.0004112590513121,-0.0564860329031944,0.0744184702634811,-0.0383039228618145,-0.002151763997972,0.0135997580364346,-0.7030361890792847,0.7110207676887512,-0.0740849853877306,0.0561349987686183,-0.028378462535224,0.0365309119224548,-0.1718989014625549,0.357426643371582,45,399,15479,20374
25.0,1788267199974,5.436619758605957,4.535211086273193,-0.0066378796473145,-0.0097030289471149,0.99992835521698,0.0022449407260864,0.1829520989574186,-0.0014045415486462,8.940213150652637e-05,0.007758452091366,-0.0171198286116123,-0.0837198942899704,-0.0025160182267427,0.0116047337651252,-0.7056663632392883,0.7084448337554932,-0.0213391471711199,0.0056939375726335,-0.0592691954604593,-0.0724747776985168,0.0151544213294982,-0.2424154281616211,67,542,14356,22273
25.1,1788267200074,5.070422649383545,5.239436626434326,-0.0064648054540157,-0.0096647730097174,0.9999285340309144,0.0027669749688357,0.1809583523463775,-0.0018927244489125,-2.4463846885372152e-05,0.0012811903143301,0.0097734173759818,0.0083157299086451,-0.002343425527215,0.0109245842322707,-0.7056543231010437,0.7084682583808899,0.0208774103509901,-0.0233772480052682,-0.0026284432025408,0.3239554762840271,0.03813236951828,0.2076072692871093,74,398,14770,20530
25.2,1788267200174,5.126760482788086,5.014084339141846,-0.005183239467442,-0.0093762585893273,0.9999402165412904,0.0021967871580272,0.1814677134925166,-0.0024032499999774,0.0001345721370468,0.0081888288259506,-0.0223801415413618,0.0033562937751412,-0.0025661839172244,0.0104267876595258,-0.7051571011543274,0.7089698314666748,0.0042385244264279,0.0164146486626108,0.0106408393941327,-0.1606473326683044,0.0474980473518371,0.8050909042358398,54,324,15368,18587
25.3,1788267200274,5.295774459838867,4.676056385040283,-0.0030288600828498,-0.0062341508455574,0.9999728202819824,0.002511779544875,0.1829474215577204,-0.0009863761377464,0.0002336201816102,0.0896700471639633,-0.0813057646155357,-0.0312955379486084,-0.0022825095802545,0.0054329102858901,-0.7057297825813293,0.7084566354751587,0.1093007667216083,-0.0896902199593651,-0.0466019610581403,0.0007999539375305,-0.1417661309242248,0.3177528381347656,58,402,15171,19763
25.4,1788267200374,5.239436626434326,4.816901206970215,-0.0009237406775355,-0.0046189478598535,0.999972641468048,0.0056961816735565,0.1734783752255264,0.0020739843608611,-4.126801661153052e-05,-0.0084870206192135,-0.0031651018653064,-0.0747313871979713,-0.0026602717116475,0.0039211986586451,-0.7079539895057678,0.7062427401542664,-0.0140830019776776,-0.0313422563852507,-0.060218417314041,-0.2540192008018493,-0.2630887627601623,0.6180534362792969,67,436,15336,20892
25.5,1788267200474,5.267605781555176,4.957746505737305,-0.0014527630992233,-0.0043903528712689,0.9999578595161438,0.007928118109703,0.1794927665838815,-0.0017449067531151,-4.553951422713879e-05,0.0052746646106243,0.013352476991713,-0.039289578795433,-0.0020611090585589,0.0041660983115434,-0.7096284031867981,0.7045608162879944,0.0014572919579898,0.0176751094570056,-0.043646959392331,0.3535882234573364,0.1070740818977356,-0.8023128509521484,109,441,15566,20610
25.6,1788267200574,5.239436626434326,4.8450703620910645,-0.0025866292417049,-0.0049459091387689,0.9999325275421144,0.0101887043565511,0.1814106718202631,-0.001258041222008,-8.088442698577884e-05,-0.0057312590070068,0.0131808258593082,-0.0226377714425325,-0.0016779974102973,0.0058042732998728,-0.7116325497627258,0.7025259733200073,-0.0128001979829257,0.0168243036127982,-0.0320192634859965,0.0845990180969238,0.0960240960121154,0.2079315185546875,69,395,15287,20365
25.7,1788267200674,5.126760482788086,4.816901206970215,-0.0033520662691444,-0.0051864935085177,0.9999159574508668,0.0113993203267455,0.1779061329371369,-0.0029766155699813,2.608913208549167e-06,0.0,0.0,0.0,-0.0013057487085461,0.0062285587191581,-0.7120260000228882,0.702124297618866,-0.0026084277559831,-0.0040547701255034,-0.0302462302975045,0.2961955666542053,-0.2794257402420044,-0.3802824020385742,74,411,15630,20391
25.8,1788267200774,5.295774459838867,5.154929637908936,-0.003795419819653,-0.004932296462357,0.9998902678489684,0.0134423011913895,0.1868259218159562,-0.0020692219874332,2.4916319726007547e-06,0.0068267229944467,0.0044933632016181,-0.0340631119906902,-0.0008334768936038,0.0061675012111663,-0.7131813764572144,0.7009520530700684,0.0066498219832614,-0.0042145755480958,-0.031689540734966,-0.2683115005493164,0.093154489994049,0.6521291732788086,53,317,15176,18742
25.9,1788267200874,5.098591327667236,5.070422649383545,-0.0036729127168655,-0.0049122632481157,0.999870240688324,0.0148929003626108,0.1797169582153699,0.0001547125355308,4.380508378376792e-06,0.0002627091889735,-0.0006335388170555,-0.033982403576374,-0.0009967256337404,0.0060594584792852,-0.7147201299667358,0.6993836164474487,-0.0010435111608808,-0.0050336369090513,-0.040049818883479,-0.0449592471122741,0.1491561532020568,-0.2151632308959961,73,418,14638,20649
26.0,1788267200974,5.126760482788086,5.014084339141846,-0.0037396876141428,-0.004978397861123,0.999854862689972,0.0158592239022254,0.1775876961872082,0.0022978567449389,-2.841882365288162e-05,-0.0008171364315785,0.0048579843714833,-0.0156486351042985,-0.0011944528669118,0.0069392286241054,-0.7147701978683472,0.6993240714073181,-0.0375928331278196,0.0082231645362987,-0.0022294806801412,0.0743760466575622,0.0380622744560241,0.8860721588134766,78,373,14463,20183
26.1,1788267201074,5.014084339141846,4.676056385040283,-0.0069716754369437,-0.0083895744755864,0.9997972846031188,0.0169267766177654,0.1706116841987573,-0.0013165677740509,-0.00020924015959,-0.0553339086472988,0.0678361058235168,-0.0325750894844532,-0.0009683696553111,0.010539568029344,-0.715503990650177,0.6985285878181458,-0.0377646579552913,0.0826046822419452,-0.0192458388824014,-0.0793870687484741,0.0414052605628967,-0.3357706069946289,115,526,14905,22474
26.2,1788267201174,5.154929637908936,5.239436626434326,-0.0090553257614374,-0.0110702896490693,0.9997437000274658,0.0175473056733608,0.1941472890722952,0.001335573066145,-0.000103237199595,-0.0077174045145511,-0.0004402960475999,0.0328554734587669,-0.0014793667942285,0.0137889981269836,-0.7159213423728943,0.698043167591095,0.0690470153833077,-0.0573285887348848,0.0195983712386016,-0.3049883842468261,-0.530997097492218,0.7933664321899414,67,369,14517,20325
26.3,1788267201274,4.422535419464111,4.985915660858154,-0.0089158974587917,-0.0104114403948187,0.999733030796051,0.0186000131070613,0.1738089829778356,0.0043629710404627,5.480972810576295e-05,0.0271686799824237,-0.0047033098526299,-0.0424705781042575,-0.0014122296124696,0.013552775606513,-0.7164786458015442,0.6974759697914124,-0.0084407725594531,-0.0190321361411935,0.0242227099458031,-0.220903992652893,0.1007158160209655,1.0942001342773438,20,404,9968,20412
26.4,1788267201374,1.774647831916809,4.2816901206970215,-0.0077346232719719,-0.0103385094553232,0.9998265504837036,0.0134193347766995,0.1393941237477754,0.0025526081779969,2.1295559497194734e-05,0.0025970838032662,-0.0252771470695734,0.1982454657554626,-0.0019720252603292,0.0126944920048117,-0.7125568985939026,0.7014967799186707,0.001051091867062,-0.0549177852673108,0.2673565628267023,-0.606587290763855,0.422767162322998,0.0252141952514648,55,357,1516,17743
26.5,1788267201474,0.0,3.549295663833618,0.0075107305310666,0.0102872550487518,-0.9998091459274292,0.0148133132606744,0.0718910992950588,0.0013147221501064,1.3196332091032986e-05,0.0006793789216317,-0.0143137266859412,0.5812084078788757,-0.0020235413685441,0.0125383362174034,-0.6898157000541687,0.7238736152648926,-0.0017922229766228,-0.0102366571968928,0.570269790411588,-0.3213744163513183,0.1518558263778686,0.3787841796875,97,288,-5231,14784
26.6,1788267201574,-3.014084577560425,2.873239517211914,0.0067562172189354,0.0094639332965016,-0.9985884428024292,0.0518264733254909,0.0103806619407362,-0.0007433184760671,4.243474502513409e-06,0.024884121492505,-0.0347608439624309,0.8256314992904663,-0.0019458839669823,0.0113660115748643,-0.6649142503738403,0.7468307614326477,0.0496489589515212,-0.0501173415835166,0.9442397164910312,-0.7572638988494873,0.0582594275474548,-0.1115713119506836,232,282,-12108,12999
26.7,1788267201674,-2.5352113246917725,2.422535181045532,0.0030644116923213,0.0053050154820084,-0.9958036541938782,0.0913098156452179,-0.0114048351655651,-0.0010325549506541,-2.392478789964804e-05,0.0930655002593994,-0.0977492108941078,0.8746998906135559,-0.0015537990257143,0.0056300144642591,-0.6342455744743347,0.7731095552444458,0.0862956184391219,-0.0831457901677261,0.8458929665266158,0.4585817456245422,-0.3469604849815368,-0.0237092971801757,52,387,-8947,14016
26.8,1788267201774,-2.563380241394043,2.5352113246917725,0.0016772372182458,0.0042676483280956,-0.9912407398223876,0.131987527012825,-0.0030528646400241,0.0043183979789422,-2.4868329692483138e-06,-0.0170792527496814,-0.0055680954828858,0.7148770093917847,-0.0017619049176573,0.0042798360809683,-0.5991962552070618,0.800588846206665,-0.0046316971300749,0.0096002256809365,0.7008840694645883,0.0740828514099121,-0.0645171999931335,-0.2647018432617187,68,380,-7922,14024
26.9,1788267201874,-2.08450698852539,2.2253520488739014,0.0020062290132045,0.0044269324280321,-0.9859915375709534,0.1667245477437973,-0.0001430253743888,0.002326776384301,-7.008009947006502e-07,-0.0084541719406843,0.0048685311339795,0.6612643599510193,-0.0017278296872973,0.0045656254515051,-0.5742912292480469,0.8186365365982056,-0.0083398060475586,0.0067920007960468,0.6618862864525176,-0.0511139631271362,-0.1368519067764282,-0.0252752304077148,82,387,-8180,13576
27.0,1788267201974,-1.97183096408844,2.08450698852539,0.0020332413259893,0.0042111580260097,-0.9799817800521852,0.1990325301885604,0.0029488268803649,0.0004374399251427,8.987353446475562e-07,0.0012199204647913,-0.004386207088828,0.6563223004341125,-0.0015371143817901,0.0044231871142983,-0.5494320392608643,0.8355253338813782,0.0009810849018884,-0.0043462584336669,0.6584741313967235,-0.1070567965507507,-0.0827417373657226,0.066375732421875,78,335,-6491,11271
27.1,1788267202074,-1.8591549396514893,1.774647831916809,0.0016240829136222,0.0044858288019895,-0.9746187925338744,0.2238201349973678,-0.0041844690413467,0.0018392613105964,-4.556177720718067e-07,-0.0078249908983707,-0.0053380699828267,0.5564174056053162,-0.0020333705469965,0.0044025843963027,-0.5208321213722229,0.853645384311676,-0.0047519484117585,0.0040034512793937,0.5623334083728625,-0.0637635588645935,-0.0824808478355407,0.1384868621826172,57,345,-6873,12335
27.2,1788267202174,-1.8591549396514893,1.8309859037399288,0.0017726860241964,0.0048645730130374,-0.9683648347854614,0.2494849413633346,-0.0019477634268238,0.0001132605157536,7.593006433805678e-07,-0.0119377858936786,0.0028066092636436,0.5573095679283142,-0.0023305369541049,0.0048176255077123,-0.4991590678691864,0.8664939403533936,-0.0192372136420208,0.0029852187420295,0.5769501403411004,0.0111652016639709,0.0552542209625244,0.0447168350219726,57,385,-7126,12303
27.3,1788267202274,-1.436619758605957,1.6056338548660278,0.0014255900168791,0.0052852351218461,-0.9595314264297484,0.2815483808517456,-0.0015544755582433,0.0007365786982369,1.638148858784248e-06,-0.0070534283295273,-0.0073971441015601,0.5959527492523193,-0.0028167003765702,0.0047262525185942,-0.4692233502864837,0.883062481880188,-0.0056166496568848,-0.0055578726371648,0.5137092643840463,0.2407222986221313,-0.0048745274543762,0.1821727752685547,52,259,-5865,9794
27.4,1788267202374,-1.3239436149597168,1.5211267471313477,0.0017941707046702,0.0056266509927809,-0.953041970729828,0.3027805089950561,0.0049491914427644,-0.0001135088681087,-7.609558924251204e-07,-0.0066056167706847,0.0082966163754463,0.4244642555713653,-0.0027423044666647,0.0052349204197525,-0.4521363079547882,0.8919293284416199,-0.0038708903354102,0.0025233912690218,0.44856526898317,-0.139011800289154,0.0589057803153991,0.0977582931518554,60,347,-6526,10231
27.5,1788267202474,-1.5492957830429075,1.5774648189544678,0.0018969785887748,0.0055681760422885,-0.9458394050598145,0.3245817124843597,-0.0005623710133453,0.0009473211357475,1.8357420900465894e-07,0.001130920019932,-0.0054337414912879,0.4779113829135895,-0.0026261424645781,0.0052562998607754,-0.4329247176647186,0.9014109373092652,-0.0004361620314245,0.0007361090784583,0.4427655821697869,0.0374924540519714,-0.0728978514671325,-0.0224742889404296,63,277,-6153,9866
