time_s,timestamp_ms,wheel_vels__velocity_left,wheel_vels__velocity_right,odom__orient_x,odom__orient_y,odom__orient_z,odom__orient_w,odom__lin_x,odom__lin_y,odom__lin_z,odom__ang_x,odom__ang_y,odom__ang_z,imu__orient_x,imu__orient_y,imu__orient_z,imu__orient_w,imu__angvel_x,imu__angvel_y,imu__angvel_z,imu__acc_x,imu__acc_y,imu__acc_z,wheel_status__current_ma_left,wheel_status__current_ma_right,wheel_status__pwm_left,wheel_status__pwm_right
0.0,1788523806022,0.0,0.0,0.0020390565041452,0.0043727750889956,-0.9830328226089478,0.1833661794662475,0.0,0.0,0.0,0.0,0.0,0.0,0.0021408852189779,0.0043690679594874,-0.9870941042900084,0.1600674092769622,-5.391801784946544e-05,0.0016442853464098,0.0002229884743591,-0.0019530057907104,0.0144537687301635,0.0159244537353515,4,0,0,0
0.1,1788523806122,0.0,0.0,0.0020390565041452,0.0043727750889956,-0.9830328226089478,0.1833661794662475,0.0,0.0,0.0,0.0,0.0,0.0,0.0021408852189779,0.0043690679594874,-0.9870941042900084,0.1600674092769622,-5.391801784946544e-05,0.0016442853464098,0.0002229884743591,-0.0019530057907104,0.0144537687301635,0.0159244537353515,4,0,0,0
0.2,1788523806222,0.0,0.0,0.0020390565041452,0.0043727750889956,-0.9830328226089478,0.1833661794662475,0.0,0.0,0.0,0.0,0.0,0.0,0.0021408852189779,0.0043690679594874,-0.9870941042900084,0.1600674092769622,-5.391801784946544e-05,0.0016442853464098,0.0002229884743591,-0.0019530057907104,0.0144537687301635,0.0159244537353515,4,0,0,0
0.3,1788523806322,0.0,0.0,0.0020390565041452,0.0043727750889956,-0.9830328226089478,0.1833661794662475,0.0,0.0,0.0,0.0,0.0,0.0,0.0021408852189779,0.0043690679594874,-0.9870941042900084,0.1600674092769622,-5.391801784946544e-05,0.0016442853464098,0.0002229884743591,-0.0019530057907104,0.0144537687301635,0.0159244537353515,4,0,0,0
0.4,1788523806422,0.0,0.0,0.0020390565041452,0.0043727750889956,-0.9830328226089478,0.1833661794662475,0.0,0.0,0.0,0.0,0.0,0.0,0.0021408852189779,0.0043690679594874,-0.9870941042900084,0.1600674092769622,-5.391801784946544e-05,0.0016442853464098,0.0002229884743591,-0.0019530057907104,0.0144537687301635,0.0159244537353515,4,0,0,0
0.5,1788523806522,0.0,0.0,0.0020390565041452,0.0043727750889956,-0.9830328226089478,0.1833661794662475,0.0,0.0,0.0,0.0,0.0,0.0,0.0021408852189779,0.0043690679594874,-0.9870941042900084,0.1600674092769622,-5.391801784946544e-05,0.0016442853464098,0.0002229884743591,-0.0019530057907104,0.0144537687301635,0.0159244537353515,4,0,0,0
0.6,1788523806622,0.0,0.0,0.0020390565041452,0.0043727750889956,-0.9830328226089478,0.1833661794662475,0.0,0.0,0.0,0.0,0.0,0.0,0.0021408852189779,0.0043690679594874,-0.9870941042900084,0.1600674092769622,-5.391801784946544e-05,0.0016442853464098,0.0002229884743591,-0.0019530057907104,0.0144537687301635,0.0159244537353515,4,0,0,0
0.7,1788523806722,0.0,0.0,0.0020390565041452,0.0043727750889956,-0.9830328226089478,0.1833661794662475,0.0,0.0,0.0,0.0,0.0,0.0,0.0021408852189779,0.0043690679594874,-0.9870941042900084,0.1600674092769622,-5.391801784946544e-05,0.0016442853464098,0.0002229884743591,-0.0019530057907104,0.0144537687301635,0.0159244537353515,4,0,0,0
0.8,1788523806822,0.0,0.0,0.0020390565041452,0.0043727750889956,-0.9830328226089478,0.1833661794662475,0.0,0.0,0.0,0.0,0.0,0.0,0.0021408852189779,0.0043690679594874,-0.9870941042900084,0.1600674092769622,-5.391801784946544e-05,0.0016442853464098,0.0002229884743591,-0.0019530057907104,0.0144537687301635,0.0159244537353515,4,0,0,0
0.9,1788523806922,0.0,0.0,0.0020390565041452,0.0043727750889956,-0.9830328226089478,0.1833661794662475,0.0,0.0,0.0,0.0,0.0,0.0,0.0021408852189779,0.0043690679594874,-0.9870941042900084,0.1600674092769622,-5.391801784946544e-05,0.0016442853464098,0.0002229884743591,-0.0019530057907104,0.0144537687301635,0.0159244537353515,4,0,0,0
1.0,1788523807022,0.0,0.0,0.0020390565041452,0.0043727750889956,-0.9830328226089478,0.1833661794662475,0.0,0.0,0.0,0.0,0.0,0.0,0.0021408852189779,0.0043690679594874,-0.9870941042900084,0.1600674092769622,-5.391801784946544e-05,0.0016442853464098,0.0002229884743591,-0.0019530057907104,0.0144537687301635,0.0159244537353515,4,0,0,0
1.1,1788523807122,0.0,0.0,0.0020390565041452,0.0043727750889956,-0.9830328226089478,0.1833661794662475,0.0,0.0,0.0,0.0,0.0,0.0,0.0021408852189779,0.0043690679594874,-0.9870941042900084,0.1600674092769622,-5.391801784946544e-05,0.0016442853464098,0.0002229884743591,-0.0019530057907104,0.0144537687301635,0.0159244537353515,4,0,0,0
1.2,1788523807222,0.0,0.0,0.0020390565041452,0.0043727750889956,-0.9830328226089478,0.1833661794662475,0.0,0.0,0.0,0.0,0.0,0.0,0.0021408852189779,0.0043690679594874,-0.9870941042900084,0.1600674092769622,-5.391801784946544e-05,0.0016442853464098,0.0002229884743591,-0.0019530057907104,0.0144537687301635,0.0159244537353515,4,0,0,0
1.3,1788523807322,0.0,0.0,0.0020390565041452,0.0043727750889956,-0.9830328226089478,0.1833661794662475,0.0,0.0,0.0,0.0,0.0,0.0,0.0021408852189779,0.0043690679594874,-0.9870941042900084,0.1600674092769622,-5.391801784946544e-05,0.0016442853464098,0.0002229884743591,-0.0019530057907104,0.0144537687301635,0.0159244537353515,4,0,0,0
1.4,1788523807422,0.0,0.0,0.0020390565041452,0.0043727750889956,-0.9830328226089478,0.1833661794662475,0.0,0.0,0.0,0.0,0.0,0.0,0.0021408852189779,0.0043690679594874,-0.9870941042900084,0.1600674092769622,-5.391801784946544e-05,0.0016442853464098,0.0002229884743591,-0.0019530057907104,0.0144537687301635,0.0159244537353515,4,0,0,0
1.5,1788523807522,0.0,0.0,0.0020390565041452,0.0043727750889956,-0.9830328226089478,0.1833661794662475,0.0,0.0,0.0,0.0,0.0,0.0,0.0021408852189779,0.0043690679594874,-0.9870941042900084,0.1600674092769622,-5.391801784946544e-05,0.0016442853464098,0.0002229884743591,-0.0019530057907104,0.0144537687301635,0.0159244537353515,4,0,0,0
1.6,1788523807622,0.0,0.0,0.0020390565041452,0.0043727750889956,-0.9830328226089478,0.1833661794662475,0.0,0.0,0.0,0.0,0.0,0.0,0.0021408852189779,0.0043690679594874,-0.9870941042900084,0.1600674092769622,-5.391801784946544e-05,0.0016442853464098,0.0002229884743591,-0.0019530057907104,0.0144537687301635,0.0159244537353515,4,0,0,0
1.7,1788523807722,0.0,0.0,0.0020390565041452,0.0043727750889956,-0.9830328226089478,0.1833661794662475,0.0,0.0,0.0,0.0,0.0,0.0,0.0021408852189779,0.0043690679594874,-0.9870941042900084,0.1600674092769622,-5.391801784946544e-05,0.0016442853464098,0.0002229884743591,-0.0019530057907104,0.0144537687301635,0.0159244537353515,4,0,0,0
1.8,1788523807822,0.0,0.0,0.0020390565041452,0.0043727750889956,-0.9830328226089478,0.1833661794662475,0.0,0.0,0.0,0.0,0.0,0.0,0.0021408852189779,0.0043690679594874,-0.9870941042900084,0.1600674092769622,-5.391801784946544e-05,0.0016442853464098,0.0002229884743591,-0.0019530057907104,0.0144537687301635,0.0159244537353515,4,0,0,0
1.9,1788523807922,0.0,0.0,0.0020390565041452,0.0043727750889956,-0.9830328226089478,0.1833661794662475,0.0,0.0,0.0,0.0,0.0,0.0,0.0021408852189779,0.0043690679594874,-0.9870941042900084,0.1600674092769622,-5.391801784946544e-05,0.0016442853464098,0.0002229884743591,-0.0019530057907104,0.0144537687301635,0.0159244537353515,4,0,0,0
2.0,1788523808022,0.0,0.0,0.0020390565041452,0.0043727750889956,-0.9830328226089478,0.1833661794662475,0.0,0.0,0.0,0.0,0.0,0.0,0.0021408852189779,0.0043690679594874,-0.9870941042900084,0.1600674092769622,-5.391801784946544e-05,0.0016442853464098,0.0002229884743591,-0.0019530057907104,0.0144537687301635,0.0159244537353515,4,0,0,0
2.1,1788523808122,0.0,0.0,0.0020390565041452,0.0043727750889956,-0.9830328226089478,0.1833661794662475,0.0,0.0,0.0,0.0,0.0,0.0,0.0021408852189779,0.0043690679594874,-0.9870941042900084,0.1600674092769622,-5.391801784946544e-05,0.0016442853464098,0.0002229884743591,-0.0019530057907104,0.0144537687301635,0.0159244537353515,4,0,0,0
2.2,1788523808222,0.0,0.0,0.0020390565041452,0.0043727750889956,-0.9830328226089478,0.1833661794662475,0.0,0.0,0.0,0.0,0.0,0.0,0.0021408852189779,0.0043690679594874,-0.9870941042900084,0.1600674092769622,-5.391801784946544e-05,0.0016442853464098,0.0002229884743591,-0.0019530057907104,0.0144537687301635,0.0159244537353515,4,0,0,0
2.3,1788523808322,0.0,0.0,0.0020390565041452,0.0043727750889956,-0.9830328226089478,0.1833661794662475,0.0,0.0,0.0,0.0,0.0,0.0,0.0021408852189779,0.0043690679594874,-0.9870941042900084,0.1600674092769622,-5.391801784946544e-05,0.0016442853464098,0.0002229884743591,-0.0019530057907104,0.0144537687301635,0.0159244537353515,4,0,0,0
2.4,1788523808422,0.0,0.0,0.0020390565041452,0.0043727750889956,-0.9830328226089478,0.1833661794662475,0.0,0.0,0.0,0.0,0.0,0.0,0.0021408852189779,0.0043690679594874,-0.9870941042900084,0.1600674092769622,-5.391801784946544e-05,0.0016442853464098,0.0002229884743591,-0.0019530057907104,0.0144537687301635,0.0159244537353515,4,0,0,0
2.5,1788523808522,0.0,0.0,0.0020390565041452,0.0043727750889956,-0.9830328226089478,0.1833661794662475,0.0,0.0,0.0,0.0,0.0,0.0,0.0021408852189779,0.0043690679594874,-0.9870941042900084,0.1600674092769622,-5.391801784946544e-05,0.0016442853464098,0.0002229884743591,-0.0019530057907104,0.0144537687301635,0.0159244537353515,4,0,0,0
2.6,1788523808622,0.0,0.0,0.0020390565041452,0.0043727750889956,-0.9830328226089478,0.1833661794662475,0.0,0.0,0.0,0.0,0.0,0.0,0.0021408852189779,0.0043690679594874,-0.9870941042900084,0.1600674092769622,-5.391801784946544e-05,0.0016442853464098,0.0002229884743591,-0.0019530057907104,0.0144537687301635,0.0159244537353515,4,0,0,0
2.7,1788523808722,0.0,0.0,0.0020390565041452,0.0043727750889956,-0.9830328226089478,0.1833661794662475,0.0,0.0,0.0,0.0,0.0,0.0,0.0021408852189779,0.0043690679594874,-0.9870941042900084,0.1600674092769622,-5.391801784946544e-05,0.0016442853464098,0.0002229884743591,-0.0019530057907104,0.0144537687301635,0.0159244537353515,4,0,0,0
2.8,1788523808822,0.0,0.0,0.0020390565041452,0.0043727750889956,-0.9830328226089478,0.1833661794662475,0.0,0.0,0.0,0.0,0.0,0.0,0.0021408852189779,0.0043690679594874,-0.9870941042900084,0.1600674092769622,-5.391801784946544e-05,0.0016442853464098,0.0002229884743591,-0.0019530057907104,0.0144537687301635,0.0159244537353515,4,0,0,0
2.9,1788523808922,0.0,0.0,0.0020390565041452,0.0043727750889956,-0.9830328226089478,0.1833661794662475,0.0,0.0,0.0,0.0,0.0,0.0,0.0021408852189779,0.0043690679594874,-0.9870941042900084,0.1600674092769622,-5.391801784946544e-05,0.0016442853464098,0.0002229884743591,-0.0019530057907104,0.0144537687301635,0.0159244537353515,4,0,0,0
3.0,1788523809022,0.0,0.0,0.0020390565041452,0.0043727750889956,-0.9830328226089478,0.1833661794662475,0.0,0.0,0.0,0.0,0.0,0.0,0.0021408852189779,0.0043690679594874,-0.9870941042900084,0.1600674092769622,-5.391801784946544e-05,0.0016442853464098,0.0002229884743591,-0.0019530057907104,0.0144537687301635,0.0159244537353515,4,0,0,0
3.1,1788523809122,0.0,0.0,0.0020390565041452,0.0043727750889956,-0.9830328226089478,0.1833661794662475,0.0,0.0,0.0,0.0,0.0,0.0,0.0021408852189779,0.0043690679594874,-0.9870941042900084,0.1600674092769622,-5.391801784946544e-05,0.0016442853464098,0.0002229884743591,-0.0019530057907104,0.0144537687301635,0.0159244537353515,4,0,0,0
3.2,1788523809222,0.0,0.0,0.0020390565041452,0.0043727750889956,-0.9830328226089478,0.1833661794662475,0.0,0.0,0.0,0.0,0.0,0.0,0.0021408852189779,0.0043690679594874,-0.9870941042900084,0.1600674092769622,-5.391801784946544e-05,0.0016442853464098,0.0002229884743591,-0.0019530057907104,0.0144537687301635,0.0159244537353515,4,0,0,0
3.3,1788523809322,0.0,0.0,0.0020390565041452,0.0043727750889956,-0.9830328226089478,0.1833661794662475,0.0,0.0,0.0,0.0,0.0,0.0,0.0021408852189779,0.0043690679594874,-0.9870941042900084,0.1600674092769622,-5.391801784946544e-05,0.0016442853464098,0.0002229884743591,-0.0019530057907104,0.0144537687301635,0.0159244537353515,4,0,0,0
3.4,1788523809422,0.0,0.0,0.0020390565041452,0.0043727750889956,-0.9830328226089478,0.1833661794662475,0.0,0.0,0.0,0.0,0.0,0.0,0.0021408852189779,0.0043690679594874,-0.9870941042900084,0.1600674092769622,-5.391801784946544e-05,0.0016442853464098,0.0002229884743591,-0.0019530057907104,0.0144537687301635,0.0159244537353515,4,0,0,0
3.5,1788523809522,0.0,0.0,0.0020390565041452,0.0043727750889956,-0.9830328226089478,0.1833661794662475,0.0,0.0,0.0,0.0,0.0,0.0,0.0021408852189779,0.0043690679594874,-0.9870941042900084,0.1600674092769622,-5.391801784946544e-05,0.0016442853464098,0.0002229884743591,-0.0019530057907104,0.0144537687301635,0.0159244537353515,4,0,0,0
3.6,1788523809622,0.0,0.0,0.0020390565041452,0.0043727750889956,-0.9830328226089478,0.1833661794662475,0.0,0.0,0.0,0.0,0.0,0.0,0.0021157814189791,0.0043546482920646,-0.987097442150116,0.1600473821163177,0.0008128812370421,0.0025856651654342,-0.001127622233997,0.0084013938903808,-0.0269312858581542,-0.0022716522216796,0,0,0,0
3.7,1788523809722,0.0,0.0,0.0020306534133851,0.0044091022573411,-0.9830261468887328,0.1834011673927307,0.0001167011102096,-0.0001407113361001,-4.4952534921973045e-07,-0.0014706486836075,-6.846025644335896e-05,0.0013986866688355,0.0021429937332868,0.0043581025674939,-0.9870941042900084,0.1600681692361831,-0.0002478040288921,0.0015170287694348,-0.0011382294970828,0.0069727301597595,-0.0074163675308227,0.028390884399414,0,0,0,0
3.8,1788523809822,0.0,0.0,0.0020483117550611,0.0044082961976528,-0.9830316305160522,0.1833716928958892,-0.0001030841172535,0.0001194577006953,3.6829683586269643e-07,0.0001601795083843,0.0006746356375515,-0.0011642563622444,0.0021361634135246,0.0043374802917242,-0.9870873093605042,0.1601097881793975,0.0007586406506271,-0.0007157739395979,0.0015121745649047,0.0140212178230285,-0.0023490190505981,0.019484519958496,0,0,0,0
3.9,1788523809922,0.0,0.0,0.0020399123895913,0.0044026528485119,-0.9830251336097716,0.1834070384502411,0.0,0.0,0.0,0.0,0.0,0.0,0.0021636793389916,0.0043476670980453,-0.987089216709137,0.1600976735353469,-7.951845908481193e-05,0.0017131752937807,0.0007453296529677,0.0021906495094299,0.0087383985519409,-0.0092496871948242,0,0,0,0
4.0,1788523810022,0.0,0.0,0.0020399123895913,0.0044026528485119,-0.9830251336097716,0.1834070384502411,0.0,0.0,0.0,0.0,0.0,0.0,0.0021611107513308,0.0043609719723463,-0.9870916604995728,0.1600828319787979,-0.000777783236565,0.0004625667831306,-0.0015104951066312,0.00574791431427,0.0215345621109008,-0.0037479400634765,0,0,0,0
4.1,1788523810122,0.0,0.0,0.0020399123895913,0.0044026528485119,-0.9830251336097716,0.1834070384502411,0.0,0.0,0.0,0.0,0.0,0.0,0.0022116899490356,0.0043361792340874,-0.987088143825531,0.1601036787033081,0.0017235720792167,0.0003620929033578,0.0015551264976572,0.0065602660179138,0.0064039826393127,0.0123138427734375,0,0,0,0
4.2,1788523810222,0.0,0.0,0.0020968064200133,0.0043996931053698,-0.983035683631897,0.1833496689796447,-0.000130755297689,0.0001498484369112,4.2742197373702556e-07,-0.000718483235687,0.0003114181163255,-0.0015306415734812,0.0022332360967993,0.0043297577649354,-0.9870917201042176,0.1600821167230606,0.0007982274996016,-9.114278141303656e-05,0.0018681294653114,-0.0163325667381286,-0.0009154081344604,0.0031471252441406,0,0,0,0
4.3,1788523810322,0.0,0.0,0.0020874037872999,0.0043787639588117,-0.9830371737480164,0.1833423227071762,-0.0001187702246667,0.000135826456203,3.756307306065994e-07,-0.0001736379927024,-0.0014207971980795,-0.0013329407665878,0.0022307643666863,0.0043405825272202,-0.987102508544922,0.160015195608139,-5.860340278989954e-05,0.0020668726878489,-0.0012134101426981,0.0051428079605102,-0.027715265750885,0.0138616561889648,6,0,0,0
4.4,1788523810422,0.0,0.0,0.0021342770196497,0.0043874364346265,-0.9830422401428224,0.1833142191171646,0.0,0.0,0.0,0.0,0.0,0.0,0.0022403812035918,0.0043127862736582,-0.987103283405304,0.1600111126899719,0.000660708176103,0.0001043125417568,-0.0006313233603631,0.010708212852478,-0.0030552744865417,0.001495361328125,0,0,0,0
4.5,1788523810522,0.0,0.0,0.0021792033221572,0.0043930206447839,-0.9830389618873596,0.1833309978246688,6.450757676400201e-05,-7.086916486848594e-05,-1.780135814234635e-07,-0.0009010428329929,0.0018531553214415,0.0007142866379581,0.0022797156125307,0.0043375929817557,-0.9871009588241576,0.1600242704153061,-0.0005877936971677,0.001605766552631,0.0016159369550734,0.0115641355514526,-0.0224441289901733,-0.000432014465332,1,0,0,0
4.6,1788523810622,0.0,0.0,0.0021556844003498,0.0043816133402287,-0.9830417037010192,0.1833171844482422,-7.002196058591487e-05,7.693493995070552e-05,1.89480373938656e-07,0.0004176013171672,-0.0013475224841386,-0.0008164842729456,0.0022847196087241,0.0043477769941091,-0.9871004819869996,0.1600265204906463,-0.000911012400288,0.0010821112027266,0.0014126860128503,0.0117260217666625,-0.0096590518951416,-0.0057249069213867,0,0,0,0
4.7,1788523810722,0.0,0.0,0.0021765148267149,0.0044014761224389,-0.9830365777015686,0.1833438128232956,2.770777896145656e-05,-3.5580969770498166e-05,-1.153939954244473e-07,-0.0001770528615452,-0.0002654811250977,0.000357217475539,0.0022931955754756,0.0043600471690297,-0.987099826335907,0.1600300669670105,-0.0005970598670111,0.0009907240934795,-0.0009696577868382,0.0461702942848205,0.0122396945953369,-0.0251264572143554,1,0,0,0
4.8,1788523810822,0.0,0.0,0.0021671364083886,0.0043802610598504,-0.9830385446548462,0.1833338588476181,4.234855626302435e-05,-5.301592731397872e-05,-1.6659008141966873e-07,0.0009976384462788,-0.000970393710304,0.0005439791129902,0.0022636940702795,0.0043208114802837,-0.9871003031730652,0.1600289046764373,0.0009386958458878,-0.0012493680554834,8.184252719330285e-05,-0.0048194527626037,0.018754243850708,-0.0253820419311523,2,0,0,0
4.9,1788523810922,0.0,0.0,0.0021935664117336,0.0043823970481753,-0.9830475449562072,0.1832852065563202,-6.304540726161005e-05,7.561216502541976e-05,2.2245237413352878e-07,-0.0001028672486427,0.0017023801337927,-0.0007177549414336,0.0022852681577205,0.0042979111894965,-0.9871042966842652,0.1600046753883361,0.0010301284624931,-0.0006998888041789,0.0004445851928711,0.0348492860794067,0.0018559694290161,0.0052680969238281,0,0,0,0
5.0,1788523811022,0.0,0.0,0.0021868234034627,0.0043616169132292,-0.9830529093742372,0.1832571029663086,-0.0001308350723784,0.0001527865641334,4.129460438843154e-07,-0.0002501219569239,-2.813872015394736e-05,-0.0015428799670189,0.0022959019988775,0.0043108128011226,-0.9871124625205994,0.1599535495042801,-0.0004225176029571,0.0005014781017986,-0.0006187340756279,-0.0169790387153625,-0.0410042405128479,0.0010709762573242,0,0,0,0
5.1,1788523811122,0.0,0.0,0.0021968802902847,0.0043428824283182,-0.9830511808395386,0.1832668185234069,2.8887794105493747e-05,-3.708450033823016e-05,-1.1791306642704065e-07,0.0006840924033895,0.0002168985083699,0.0003370862687006,0.0022992771118879,0.004294030368328,-0.9871116876602172,0.1599584817886352,0.000517250679144,-3.708267640009986e-05,-0.0002185862311271,0.0101215243339538,-0.0178154110908508,-0.0237436294555664,2,0,0,0
5.2,1788523811222,0.0,0.0,0.0022271140478551,0.0043764929287135,-0.9830579161643982,0.183229386806488,-4.307108210943087e-05,4.7304696456805584e-05,1.1115655288606045e-07,-0.0004643279826268,0.0006988575914874,-0.0004750569933094,0.0023768516257405,0.0043253619223833,-0.9871116280555724,0.1599574238061905,-6.357611121080416e-05,0.0004319066077163,-0.000417496624616,0.0241908431053161,0.0039840936660766,-0.0073261260986328,2,0,0,0
5.3,1788523811322,0.0,0.0,0.0022878306917846,0.0043888790532946,-0.983055293560028,0.1832423657178878,-6.427400229231157e-05,7.059726236272274e-05,1.5801798792147053e-07,-0.0004191861953586,0.0006294093327596,-0.0007163599366322,0.0024257414042949,0.0043361438438296,-0.9871091842651368,0.1599716395139694,0.0013358540290285,0.0009734382111519,0.0009885985627692,0.0179466605186462,0.0165696144104003,-0.0018749237060546,2,0,0,0
5.4,1788523811422,0.0,0.0,0.0023169592022895,0.0043982630595564,-0.9830504655838012,0.1832676529884338,3.3847545571924006e-05,-4.345149687862887e-05,-1.3194946784693976e-07,0.0005231082905083,0.0004070075519848,0.0004480938951019,0.0023892046883702,0.0043365443125367,-0.9871148467063904,0.1599365621805191,-0.0001516688105352,-0.000427129758048,-0.0011500318308193,0.0064173340797424,-0.0372247099876403,0.0030736923217773,4,0,0,0
5.5,1788523811522,0.0,0.0,0.0022687863092869,0.0043805288150906,-0.9830549955368042,0.1832446157932281,-2.314483550894946e-05,2.5420838442475124e-05,5.6946766934859946e-08,0.0002999065909534,-0.0007524089887738,-0.0002690571127459,0.0023701703175902,0.0043242750689387,-0.987113356590271,0.1599466800689697,0.0007778606682821,-0.0003184345218581,0.0008561212050352,0.0185960531234741,0.0057283639907836,-0.000136375427246,8,0,0,0
5.6,1788523811622,0.0,0.0,0.0022888630628585,0.0044096009805798,-0.9830617904663086,0.1832071393728256,-5.663436355285577e-05,6.863617295063953e-05,1.91616281495596e-07,-0.0002579697757028,0.0004950732109136,-0.0006992298876866,0.0023838933557271,0.0043416060507297,-0.9871191382408142,0.1599100828170776,0.0013230221936764,-8.978001126223418e-05,0.000621489017928,0.0064000487327575,0.0097023844718933,-0.0127410888671875,0,0,0,0
5.7,1788523811722,0.0,0.0,0.0022365725599229,0.0044037937186658,-0.9830619692802428,0.1832067370414734,-5.75164613824331e-05,6.316509986112436e-05,1.4335179771505153e-07,-0.000743648444768,-0.0012877855915576,-0.0006357500096783,0.0023467214778065,0.0043538613244891,-0.9871250987052916,0.1598737090826034,-5.683313071473159e-05,0.0005857042579758,-0.0013929086801957,0.0091547966003417,0.0009136795997619,0.0105762481689453,2,0,0,0
5.8,1788523811822,0.0,0.0,0.0022799018770456,0.004393967334181,-0.9830649495124816,0.1831903010606765,3.429274984304019e-05,-4.400870814407122e-05,-1.3950552141060845e-07,0.0009562690975144,0.0016858610324561,0.0004580822132993,0.0023974245414137,0.0043370984494686,-0.987130880355835,0.1598376184701919,-0.0004083165477406,0.0015576479139075,-0.0022006051697703,0.0011802911758422,-0.0210146903991699,-0.0039854049682617,0,0,0,0
5.9,1788523811922,0.0,0.0,0.002350710099563,0.0044036391191184,-0.983076810836792,0.1831257194280624,-0.0001681262672555,0.000195385808123,5.015057205653167e-07,-0.0002950642083305,0.0030255930032581,-0.0019125523976981,0.0024098539724946,0.0043342839926481,-0.9871293306350708,0.1598468720912933,-7.646962158528842e-05,-0.0020516381710154,0.0009627053467894,0.0158815383911132,-0.0030159950256347,-0.0217237472534179,2,0,0,0
6.0,1788523812022,0.0,0.0,0.0022712713107466,0.0043845036998391,-0.983077347278595,0.1831246465444564,-7.567572107172693e-05,8.928558612508566e-05,2.3034066134153165e-07,-3.719961750903167e-05,-0.0014001396484673,-0.0008984829764813,0.00241887755692,0.0043039042502641,-0.9871377944946288,0.1597958505153656,0.0016311836753873,0.0012765820474632,-0.0002365547835441,0.0139497518539428,0.0284604430198669,0.0126266479492187,2,0,0,0
6.1,1788523812122,0.0,0.0,0.0022853885311633,0.0043099229224026,-0.983077585697174,0.1831245869398117,4.3241400451115046e-05,-4.746709813671427e-05,-1.0067317988324627e-07,0.0014894582564011,-0.0013056852621957,0.0004450932028703,0.002374923788011,0.0042603276669979,-0.9871364235877992,0.1598059833049774,0.000283251580974,0.0011460750784254,-0.0002569031732559,-0.0103814601898193,-0.0171167254447937,0.0085792541503906,0,0,0,0
6.2,1788523812222,0.0,0.0,0.0022926172241568,0.004304296337068,-0.9830806255340576,0.1831080615520477,-7.177555757179311e-06,7.87885268345742e-06,1.7176068242283117e-08,0.0007423517527058,0.0013587285066023,-7.507116242777556e-05,0.0023915618658065,0.0042174393311142,-0.9871388673782348,0.1597914397716522,0.0008529009106978,-0.0001937514941433,-0.0009743010539267,0.0168957710266113,-0.0034387111663818,-0.0180931091308593,0,0,0,0
6.3,1788523812322,0.0,0.0,0.0022934882435947,0.004252731334418,-0.983086109161377,0.1830801367759704,-7.98580482480723e-05,9.277834979511124e-05,2.1829599786667133e-07,0.0010448223911225,-0.0002107453474309,-0.0009306846768595,0.0023908484727144,0.0041798641905188,-0.9871333837509156,0.1598266363143921,0.0006302829329519,-6.116608530618742e-05,0.0009782729762646,-0.0119243264198303,0.0012933611869812,-0.0272026062011718,0,0,0,0
6.4,1788523812422,0.0,0.0,0.0022866283543407,0.004233828280121,-0.9830784797668456,0.1831212043762207,-2.112213365077301e-05,2.318760109970049e-05,4.5923904898467095e-08,0.000270973338047,-0.0002634574775584,-0.0002536585379857,0.002410240471363,0.0041835568845272,-0.9871416091918944,0.1597756445407867,-6.998820276739926e-05,0.0015062941351665,-0.0007868581589486,0.0098790526390075,0.006549596786499,-0.0054731369018554,0,0,0,0
6.5,1788523812522,0.0,0.0,0.002287165261805,0.0042162211611866,-0.9830840229988098,0.1830922216176986,5.54009446302855e-05,-6.710036520423155e-05,-1.6485572696322037e-07,0.0007327825878746,-0.0010883236536756,0.0006517572910524,0.0023854486644268,0.0041683800518512,-0.9871395230293274,0.1597888022661209,-0.0003984468678034,-0.0009122218107831,-0.0002539497708308,0.0308896303176879,-0.013431966304779,-0.0036859512329101,0,0,0,0
6.6,1788523812622,0.0,0.0,0.0022999555803835,0.0042522442527115,-0.9830888509750366,0.183065265417099,-5.888935958078706e-05,6.463551000015564e-05,1.2804263587082378e-07,-0.0005475744837895,0.0006299550877884,-0.0006305565475486,0.0023775221779942,0.0041754581034183,-0.9871398210525512,0.1597871482372284,0.0008937200864476,-0.0008667274779122,0.0013820811372045,0.0108224749565124,-0.0098702907562255,0.0249671936035156,0,0,0,0
6.7,1788523812722,0.0,0.0,0.0022871911060065,0.0042216018773615,-0.9830847382545472,0.1830880045890808,6.509007019064457e-05,-7.677038649007799e-05,-1.815306805675019e-07,0.0009338545496575,-0.0006147173698991,0.0007791770040057,0.0023888507857918,0.0041685029864311,-0.9871440529823304,0.1597610861063003,0.0001014925364717,-0.0001013054248088,-8.670001757212417e-05,0.0131351947784423,-0.0114287137985229,-0.0306997299194335,0,0,0,0
6.8,1788523812822,0.0,0.0,0.0022931224666535,0.0042213010601699,-0.9830877780914308,0.183071494102478,0.0,0.0,0.0,0.0,0.0,0.0,0.0023787161335349,0.0041609480977058,-0.987147867679596,0.1597375571727752,-0.0006035670968017,0.0006255593328833,-0.002043512732623,0.0092250704765319,-0.0170198082923889,-0.0163793563842773,0,0,0,0
6.9,1788523812922,0.0,0.0,0.0022827058564871,0.004195338115096,-0.9830912351608276,0.1830542981624603,-5.490504781961611e-05,6.025941047638186e-05,1.1829556953691269e-07,0.0005176894483156,0.0003712182806339,-0.000611315423157,0.002342477440834,0.0041259080171585,-0.9871509075164796,0.1597201228141784,0.0002609238060965,-0.0017626160470824,-0.0019585289180751,0.0117938518524169,0.0163080692291259,0.0180006027221679,0,0,0,0
7.0,1788523813022,0.0,0.0,0.002263632370159,0.004198529291898,-0.9830982089042664,0.1830168515443802,-0.0001382427622587,0.000158212828996,3.400627645590273e-07,-0.0002673397248145,-0.0007398189045488,-0.0015668843407183,0.0023787068203091,0.0041060224175453,-0.9871481657028198,0.1597374826669693,0.0018711011367587,-0.0004691678127166,0.0013498556703852,0.0090512037277221,0.0052900910377502,-0.0180158615112304,0,0,0,0
7.1,1788523813122,0.0,0.0,0.0022854527924209,0.0041555832140147,-0.9830954670906068,0.1830319166183471,4.6821407401393136e-05,-5.137667832902352e-05,-1.0121149779756425e-07,0.0015049120411276,0.0004411899135448,0.0005051537882536,0.0023610088974237,0.0040901573374867,-0.9871574640274048,0.1596807241439819,0.0011542032403298,7.776238975240616e-05,-0.0006066976080367,0.0029294490814208,-0.0133066773414611,0.0374984741210937,0,0,0,0
7.2,1788523813222,0.0,0.0,0.0022636209614574,0.0041448497213423,-0.9831050038337708,0.1829814314842224,0.0,0.0,0.0,0.0,0.0,0.0,0.002308452501893,0.0040694149211049,-0.9871544241905212,0.1597003787755966,-7.524802250451116e-05,-0.0009094597391604,-0.0009078589409297,0.0074114203453063,-0.0043439269065856,0.007054328918457,0,0,0,0
7.3,1788523813322,0.0,0.0,0.002251845318824,0.004137810319662,-0.9831000566482544,0.1830085813999176,7.91406579753939e-06,-8.683671202287697e-06,-1.6930906434934962e-08,-0.0005373148014768,0.0018837625393643,8.735290612094104e-05,0.002334869466722,0.0040608886629343,-0.9871495366096495,0.1597302705049514,0.0013248526801927,-0.0011791240286872,0.0015080258576202,-0.002887487411499,0.0169583559036254,0.0089397430419921,0,0,0,0
7.4,1788523813422,0.0,0.0,0.0022145558614283,0.0041217301040887,-0.9830998182296752,0.1830102950334549,5.0245226524504965e-06,-5.51317624922777e-06,-1.0454163914248068e-08,0.0002512738283257,-0.0011083908611908,4.503460877458565e-05,0.0023142918944358,0.0040840152651071,-0.9871432781219482,0.1597691625356674,0.0006137720152001,-0.0015300771487553,0.0011468866568153,-0.0102285146713256,0.0105003714561462,-0.0198860168457031,0,0,0,0
7.5,1788523813522,0.0,0.0,0.0022145558614283,0.0041217301040887,-0.9830998182296752,0.1830102950334549,5.0245226524504965e-06,-5.51317624922777e-06,-1.0454163914248068e-08,0.0002512738283257,-0.0011083908611908,4.503460877458565e-05,0.0022954791784286,0.0040624905377626,-0.9871467351913452,0.1597486436367035,0.0007320539032064,-0.0008772188269537,-0.0008331589410524,0.0322598814964294,-0.0152163505554199,0.0107192993164062,0,0,0,0
7.6,1788523813622,0.0,0.0,0.0022179163061082,0.0041204933077096,-0.9830948114395142,0.183037519454956,-0.0001161789587107,0.0001340094200071,2.989887320814244e-07,0.0007010420667938,-8.923152927309275e-05,-0.0013368477812036,0.0022954791784286,0.0040624905377626,-0.9871467351913452,0.1597486436367035,0.0007320539032064,-0.0008772188269537,-0.0008331589410524,0.0322598814964294,-0.0152163505554199,0.0107192993164062,0,0,0,0
7.7,1788523813722,0.0,0.0,0.0022179163061082,0.0041204933077096,-0.9830948114395142,0.183037519454956,-0.0001161789587107,0.0001340094200071,2.989887320814244e-07,0.0007010420667938,-8.923152927309275e-05,-0.0013368477812036,0.002265959046781,0.0040636416524648,-0.9871436953544616,0.1597675830125808,0.0008731700981607,-0.0016607519099014,0.0014972244104838,0.028153121471405,-0.0060288310050964,-1.52587890625e-05,0,0,0,0
7.8,1788523813822,0.0,0.0,0.002144836820662,0.0041096820496022,-0.9830915331840516,0.1830557733774185,4.585870994697923e-05,-5.032471063753644e-05,-1.0135367535344121e-07,0.0005507059395313,-0.0016585405683144,0.0004985969280824,0.0022444985806941,0.0040644854307174,-0.98714941740036,0.1597326099872589,-0.0003008484651729,0.0002085427440602,-0.0011464439329231,-0.0046037435531616,0.0012383460998535,0.0016374588012695,0,0,0,0
7.9,1788523813922,0.0,0.0,0.002144836820662,0.0041096820496022,-0.9830915331840516,0.1830557733774185,0.0,0.0,0.0,0.0,0.0,0.0,0.002251231111586,0.0040494380518794,-0.987151563167572,0.1597197204828262,0.0003645650297879,0.0010089223762757,-0.0014063546256962,0.0133137702941894,-0.0243619084358215,0.0231189727783203,0,0,0,0
8.0,1788523814022,0.0,0.0,0.0021548357326537,0.0041015460155904,-0.9830982089042664,0.1830204129219055,-8.723006906708734e-05,0.0001022668298338,2.492289179393707e-07,0.0005899926181882,0.00067152781412,-0.0010089316638186,0.0023116515949368,0.0040423637256026,-0.9871464371681212,0.1597506254911422,0.0006088865165125,0.0010190912612977,0.0015219204331582,-0.0068498849868774,0.0133136510848999,-0.0162487030029296,0,0,0,0
8.1,1788523814122,0.0,0.0,0.0022154073230922,0.0040959017351269,-0.9830923080444336,0.1830511391162872,0.0,0.0,0.0,0.0,0.0,0.0,0.0023732120171189,0.0040551917627453,-0.987150013446808,0.1597272455692291,0.0011315150059585,-0.0010008149303233,0.0017629926037488,0.024749755859375,-0.0029869079589843,0.0125598907470703,0,0,0,0
8.2,1788523814222,0.0,0.0,0.0022154073230922,0.0040959017351269,-0.9830923080444336,0.1830511391162872,0.0,0.0,0.0,0.0,0.0,0.0,0.002368732355535,0.0040555763989686,-0.9871523976325988,0.1597124338150024,-0.000410236570978,0.0015607174782921,-0.0010636869191861,-0.0005107522010803,-0.0460952520370483,0.0174951553344726,0,0,0,0
8.3,1788523814322,0.0,0.0,0.0022154073230922,0.0040959017351269,-0.9830923080444336,0.1830511391162872,0.0,0.0,0.0,0.0,0.0,0.0,0.002375797368586,0.0040337918326258,-0.987148940563202,0.1597344875335693,-0.0002581415538631,-0.0016517598721486,-0.0007872321743537,0.0302129983901977,-0.0248373746871948,-0.0019302368164062,0,0,0,0
8.4,1788523814422,0.0,0.0,0.0022154073230922,0.0040959017351269,-0.9830923080444336,0.1830511391162872,0.0,0.0,0.0,0.0,0.0,0.0,0.0023391637951135,0.0040019964799284,-0.9871456027030944,0.159755989909172,0.0004135069109624,-0.0016602830211363,0.0011120984215336,0.0025158524513244,-0.0234665870666503,-0.0110635757446289,0,0,0,0
8.5,1788523814522,0.0,0.0,0.0022154073230922,0.0040959017351269,-0.9830923080444336,0.1830511391162872,0.0,0.0,0.0,0.0,0.0,0.0,0.0023247404024004,0.004010041244328,-0.987146258354187,0.1597525179386139,-0.000440303746872,0.0010845532842789,0.0006874395724784,0.002408742904663,-0.006914734840393,-0.0360937118530273,0,0,0,0
8.6,1788523814622,0.0,0.0,0.0022154073230922,0.0040959017351269,-0.9830923080444336,0.1830511391162872,0.0,0.0,0.0,0.0,0.0,0.0,0.0022921254858374,0.0039962232112884,-0.9871447682380676,0.1597620695829391,-4.981215234927404e-05,-0.0018460266130518,-0.0007382019832881,0.0105658769607543,-0.0144324898719787,-0.0109519958496093,0,0,0,0
8.7,1788523814722,0.0,0.0,0.0022154073230922,0.0040959017351269,-0.9830923080444336,0.1830511391162872,0.0,0.0,0.0,0.0,0.0,0.0,0.0023181522265076,0.0040120678022503,-0.9871416687965392,0.1597805917263031,0.0013103619940051,0.0004179456167613,0.00098577651936,0.0147684812545776,0.0217869281768798,-0.0196485519409179,0,0,0,0
8.8,1788523814822,0.0,0.0,0.0022154073230922,0.0040959017351269,-0.9830923080444336,0.1830511391162872,0.0,0.0,0.0,0.0,0.0,0.0,0.0022791270166635,0.0040193647146224,-0.9871426820755004,0.1597745418548584,0.0001786055341918,-0.0011059746742024,0.000865227934977,0.0193800926208496,-0.0031333565711975,-0.0126113891601562,0,0,0,0
8.9,1788523814922,0.0,0.0,0.0022154073230922,0.0040959017351269,-0.9830923080444336,0.1830511391162872,0.0,0.0,0.0,0.0,0.0,0.0,0.0023078061640262,0.0040636826306581,-0.9871499538421632,0.1597286313772201,-0.0001710464845193,0.0005151234216195,0.0008426916102544,0.0183193087577819,-0.0382229089736938,-0.0200510025024414,0,0,0,0
9.0,1788523815022,0.0,0.0,0.0022154073230922,0.0040959017351269,-0.9830923080444336,0.1830511391162872,0.0,0.0,0.0,0.0,0.0,0.0,0.002292270772159,0.0040678801015019,-0.9871429204940796,0.15977144241333,-0.0003778695642338,-0.0008293885025288,0.002423810688542,0.0036343336105346,0.0211427211761474,-0.0143289566040039,6,0,0,0
9.1,1788523815122,0.0,0.0,0.0021338006481528,0.0041110212914645,-0.9830865859985352,0.1830827295780182,8.80544038250669e-05,-0.0001015608342218,-2.1994142350376959e-07,-0.000930294743739,-0.0024140279274433,0.0009876773692667,0.0022255340591073,0.0040583321824669,-0.9871384501457214,0.1598002463579177,0.0003878334400655,-0.0006289234363831,0.002971360616983,-0.0014622211456298,-0.0059805512428283,0.0159845352172851,5,0,0,0
9.2,1788523815222,0.0,0.0,0.0021064230240881,0.0041139437817037,-0.9830828905105592,0.1831027120351791,-5.925397862753667e-05,7.277517003612352e-05,1.9746142212105177e-07,-0.0005929740145802,0.0005770595162175,-0.0007115142652764,0.0022177807986736,0.0040362039580941,-0.9871416091918944,0.159781664609909,0.0012499596908077,-0.0011234908924511,0.000764129297059,0.0020068287849426,0.0027223825454711,-9.72747802734375e-05,3,0,0,0
9.3,1788523815322,0.0,0.0,0.0021289866417646,0.0040665660053491,-0.9830841422080994,0.1830970048904419,7.616784904233435e-05,-8.983946046820041e-05,-2.221841690880992e-07,0.0013995636254549,-6.912354729138315e-05,0.0009012315422296,0.0022556446492671,0.0040275696665048,-0.9871474504470824,0.1597456187009811,-0.0004052321011677,7.234651174593662e-05,-0.0012714968434903,-0.0044162273406982,0.0132843255996704,-0.0090436935424804,5,0,0,0
9.4,1788523815422,0.0,0.0,0.0021682770457118,0.0040854890830814,-0.983090341091156,0.1830627024173736,2.7295328074861388e-05,-3.501012419988112e-05,-9.623752514659597e-08,-0.0001179030659841,0.0001410108088748,0.0003549731336534,0.0022466126829385,0.0040180850774049,-0.9871429204940796,0.1597736477851867,0.0005609085802198,-0.0009345437928087,0.0005385624249212,0.0296029448509216,-0.0136966705322265,-0.0251960754394531,3,0,0,0
9.5,1788523815522,0.0,0.0,0.0021557710133492,0.004071325995028,-0.9830887317657472,0.1830719113349914,0.0,0.0,0.0,0.0,0.0,0.0,0.0022655222564935,0.0039908625185489,-0.9871423840522766,0.1597774028778076,0.0009518347624725,6.254960147774989e-05,0.0015257374173023,0.0080556869506835,-0.0289749503135681,0.0212669372558593,7,0,0,0
9.6,1788523815622,0.0,0.0,0.0021768677979707,0.0040276581421494,-0.9830865263938904,0.1830848604440689,0.0,0.0,0.0,0.0,0.0,0.0,0.0023287143558263,0.0039920303970575,-0.9871429800987244,0.1597728729248047,-0.0007577803282625,0.002690696589537,9.747855478759388e-05,-0.003189742565155,-0.0362117290496826,0.0049848556518554,2,0,0,0
9.7,1788523815722,0.0,0.0,0.002230632584542,0.0040457318536937,-0.9830893278121948,0.1830685138702392,0.0,0.0,0.0,0.0,0.0,0.0,0.0023065404966473,0.0039852363988757,-0.9871386289596558,0.159800037741661,-0.0001042193677539,-0.0002722706366397,-0.0013302959728745,0.0035239458084106,-0.0237196683883667,0.0087051391601562,6,0,0,0
9.8,1788523815822,0.0,0.0,0.002230632584542,0.0040457318536937,-0.9830893278121948,0.1830685138702392,0.0,0.0,0.0,0.0,0.0,0.0,0.0023273648694157,0.0039866426959633,-0.9871381521224976,0.1598027646541595,0.0008855778150693,0.0003967745942231,0.0005916480537023,-0.0104234218597412,-0.0201454162597656,0.0068531036376953,5,0,0,0
9.9,1788523815922,0.0,0.0,0.002230632584542,0.0040457318536937,-0.9830893278121948,0.1830685138702392,0.0,0.0,0.0,0.0,0.0,0.0,0.0023256074637174,0.003988460637629,-0.987144410610199,0.1597643345594406,-0.0004644517462543,0.0002601405902822,-0.0009740597253214,-0.0015860795974731,-0.0579526424407959,0.0263957977294921,1,0,0,0
10.0,1788523816022,0.0,0.0,0.002230632584542,0.0040457318536937,-0.9830893278121948,0.1830685138702392,0.0,0.0,0.0,0.0,0.0,0.0,0.002347944304347,0.003975074738264,-0.9871417880058287,0.1597807109355926,-0.0003212638214943,-0.0009634625969235,-0.0012692191306362,0.0315265655517578,-0.0240326523780822,-0.0037040710449218,3,0,0,0
10.1,1788523816122,0.0,0.0,0.002230632584542,0.0040457318536937,-0.9830893278121948,0.1830685138702392,0.0,0.0,0.0,0.0,0.0,0.0,0.0023089032620191,0.0039511257782578,-0.9871429800987244,0.1597746163606643,-0.0003469395763116,-0.0016452521086854,-0.0001021924559639,0.0090090632438659,-0.0008386969566345,-0.0144481658935546,0,0,0,0
10.2,1788523816222,0.0,0.0,0.002230632584542,0.0040457318536937,-0.9830893278121948,0.1830685138702392,0.0,0.0,0.0,0.0,0.0,0.0,0.0023237513378262,0.0039155958220362,-0.9871369004249572,0.1598124355077743,0.0009211432529173,-0.001499228010076,0.0012992909691868,-0.006979763507843,0.0056071281433105,-0.012709617614746,0,0,0,0
10.3,1788523816322,0.0,0.0,0.002230632584542,0.0040457318536937,-0.9830893278121948,0.1830685138702392,0.0,0.0,0.0,0.0,0.0,0.0,0.0023528393357992,0.003955646418035,-0.9871397614479064,0.1597932428121566,-0.0007204472938712,0.0028905408244723,0.0009593245941305,0.0259778499603271,-0.0243104696273803,-0.0019569396972656,1,0,0,0
10.4,1788523816422,0.0,0.0,0.002230632584542,0.0040457318536937,-0.9830893278121948,0.1830685138702392,0.0,0.0,0.0,0.0,0.0,0.0,0.0023654075339436,0.0039408588781952,-0.9871389865875244,0.1597986668348312,-0.0002137181300283,0.001188923392823,-0.0007726501837291,0.0118428468704223,0.0005555748939514,-0.0072603225708007,0,0,0,0
10.5,1788523816522,0.0,0.0,0.002230632584542,0.0040457318536937,-0.9830893278121948,0.1830685138702392,0.0,0.0,0.0,0.0,0.0,0.0,0.0024124113842844,0.0039330795407295,-0.9871349334716796,0.1598225086927414,0.0009546292756137,-0.0004404904963627,0.0015106697137862,0.0167010426521301,-0.0094136595726013,0.0155410766601562,45,59,-2355,2377
10.6,1788523816622,-2.366197109222412,2.507042169570923,0.0025455518625676,0.0040408140048384,-0.98208886384964,0.1883578598499298,0.0002246236915077,-0.0028428077701943,-2.4236120692870364e-07,0.0013324755709618,0.0082715479657053,0.1538266837596893,0.0022129109129309,0.0038624452427029,-0.9842528700828552,0.176710233092308,-0.0001220893498389,-0.0314376851110371,0.7500957502426552,-0.5511751770973206,1.1627005338668823,-0.1160449981689453,291,320,-12628,11681
10.7,1788523816722,-3.3521127700805664,3.690140962600708,0.001844382379204,0.0040706568397581,-0.9726121425628662,0.2323911488056183,0.0069282344397332,-0.0062255767688312,6.338591113324198e-06,-0.0101595316082239,-0.0126375500112771,1.1295720338821411,0.0017270175740122,0.0039679463952779,-0.9742534160614014,0.2254142612218856,-0.0032390566756305,-0.0184169535538809,0.9867852376392406,-0.1152509450912475,0.0844831466674804,-0.3653631210327148,43,43,-10950,9297
10.8,1788523816822,-3.211267709732056,3.2676055431365967,0.0013540789950639,0.0042577343992888,-0.9594168066978456,0.2819566130638122,0.0028154414157314,-0.0161655339636553,3.7501151734310633e-06,-0.0123268645256757,-0.0077030262909829,1.0400826930999756,0.000875499099493,0.0041019394993782,-0.9573169350624084,0.2890099883079529,-0.0029282249891024,-0.0300544668657496,1.0285900625872495,0.0985979437828064,-0.1470629572868347,-0.0944976806640625,93,108,-10727,9874
10.9,1788523816922,-3.0422534942626958,3.211267709732056,0.0005168026546016,0.0038969190791249,-0.943954348564148,0.3300528228282928,0.00415989286755,-0.0038413372591049,2.65247787269623e-06,0.0019271555356681,-0.0209275782108306,1.0089943408966064,0.0001780856400728,0.0034258570522069,-0.9434787034988404,0.331415444612503,0.0132529870131393,-0.0475659834618247,1.0870155278821203,0.0153620839118957,0.129804253578186,-0.2492599487304687,119,92,-11237,9780
11.0,1788523817022,-3.183098554611206,3.183098554611206,0.0001257382100448,0.0037206418346613,-0.9284595847129822,0.3714147508144378,0.0052993731863879,-0.0082074881909827,7.291564267399838e-07,-0.0086199920624494,-0.0079037984833121,0.968946933746338,0.0003026975318789,0.0038695447146892,-0.9317850470542908,0.3629899322986603,-0.0115255748394073,0.0041415060658321,0.9409608605088624,-0.0512804388999938,-0.2545745372772217,0.1373672485351562,89,137,-10701,10305
11.1,1788523817122,-3.0422534942626958,3.2957746982574463,0.0002915784716606,0.0043784286826848,-0.9070181250572203,0.4210688471794128,0.004014142639644,-0.0018564595653404,1.1841276900699016e-07,-0.0162214916199445,0.0047992216423153,0.9779505133628844,0.0005025016143918,0.0044591687619686,-0.914591908454895,0.4043531417846679,-0.0120831461856541,0.0223642724932485,1.0301009072443448,-0.2439315915107727,-0.273104190826416,-0.0004329681396484,92,117,-10530,9640
11.2,1788523817222,-2.4788732528686523,2.366197109222412,0.0005713759455829,0.0042320033535361,-0.8853172063827515,0.4649680852890014,0.0084654376742237,-0.0058485939917659,-2.037435546289629e-06,0.0011593281524255,0.0078350501134991,0.970172107219696,0.0006765760481357,0.004220007918775,-0.8958569765090942,0.444321870803833,-0.0005598140046958,0.0047499732798563,0.9929360180179492,-0.3712194561958313,-0.146688163280487,0.0769338607788086,11,13,-4697,4443
11.3,1788523817322,0.0,0.0,0.0003558780299499,0.004243868868798,-0.8641101121902466,0.5032848715782166,0.0064907053994772,-0.0091934155810787,1.0697434129763442e-06,-0.0050204191356897,0.0012216810137033,0.7716649174690247,0.0002803187817335,0.0040732081979513,-0.8731012344360352,0.4875218868255615,0.0037801546471971,-0.0155224248289077,0.4258139696542939,0.4798252582550049,-0.8614980578422546,-0.0972976684570312,3,6,0,0
11.4,1788523817422,0.0,0.0,4.288682248443365e-05,0.0040376521646976,-0.8616710901260376,0.5074512362480164,0.0012792659057624,-0.0020407578573681,-2.90697638627991e-08,-0.0013363151811063,-0.0056814653798937,-0.0201991107314825,-6.250012665987015e-05,0.0039346115663647,-0.8736169338226318,0.4865984320640564,-0.0003978324054155,-0.0062119684616933,-0.0017159850307987,0.0505695939064025,-0.1549419164657592,0.1943502426147461,0,0,0,0
11.5,1788523817522,0.0,0.0,-4.603585693985224e-05,0.0039778109639883,-0.861564576625824,0.5076323747634888,0.0017636724615248,0.0007962892180112,3.102175941281439e-07,0.0,3.527635294986453e-09,0.0,6.384681910276413e-05,0.0039952779188752,-0.8732433915138245,0.4872680008411407,0.0007580097002639,-0.010336367914363,-0.0154213097672737,-0.027401328086853,0.1721602082252502,-0.1163368225097656,1,0,0,0
11.6,1788523817622,0.0,0.0,-4.603585693985224e-05,0.0039778109639883,-0.861564576625824,0.5076323747634888,0.0,0.0,0.0,0.0,2.8814335362170596e-09,0.0,9.692646563053132e-05,0.0040041739121079,-0.8732580542564392,0.4872414469718933,0.0009583609268615,-0.0003627395498383,-0.0004158164926492,0.0317612290382385,0.0076530575752258,0.0103797912597656,3,0,0,0
11.7,1788523817722,0.0,0.0,1.0215211659669876e-05,0.0040098093450069,-0.8614888191223145,0.5077606439590454,0.0001011159794383,-0.0001150583809182,7.868558051250891e-07,-0.0002301335334777,0.0006357546662911,0.001219293102622,0.0001495666801929,0.0040197102352976,-0.8732766509056091,0.4872079789638519,0.0011767677600588,0.0010195186400049,0.0015209841241963,-0.0428288578987121,-0.0359255075454711,0.0437536239624023,0,0,0,0
11.8,1788523817822,0.0,0.0,6.292958278208971e-05,0.0040104095824062,-0.8614946007728577,0.5077508687973022,0.0001994521941275,-0.0002338546693224,-7.888936217559459e-07,0.0012620267225429,0.0006516800494864,0.002337893936783,0.0001488486304879,0.0039869649335742,-0.8732541799545288,0.4872487485408783,0.0018197489404996,-0.001082374614115,0.0030094018286868,-0.0053696036338806,0.0138828754425048,0.0335502624511718,2,0,0,0
11.9,1788523817922,0.0,0.0,3.178848419338465e-05,0.0040016341954469,-0.8615060448646545,0.5077314972877502,-3.37920530920444e-05,3.622592830498608e-05,1.0958115862768578e-07,-0.0003132261626888,0.0004095285839866,-0.000391497509554,0.0001207208260893,0.0039530349895358,-0.8732441663742065,0.4872669875621795,0.0015217369750938,-0.0018146521056474,0.0023827974490932,-0.0097337961196899,0.0136082172393798,0.0281343460083007,0,0,0,0
12.0,1788523818022,0.0,0.0,1.045549288392067e-05,0.003938169684261,-0.8614871501922607,0.5077641010284424,-9.630973449231732e-05,0.0001136580899375,3.808918857171641e-07,8.202905155485496e-05,-0.0005536004900932,-0.0011443170951679,0.0001148292794823,0.0039284080266952,-0.8732417225837708,0.4872713685035705,0.0013551351213965,0.0008412111499223,0.0022405983092395,-0.0189325809478759,-0.017149806022644,0.0081071853637695,2,0,0,0
12.1,1788523818122,0.0,0.0,2.408702857792377e-05,0.0039200019091367,-0.8614652156829834,0.507801353931427,7.770154100894219e-05,-9.022190293390022e-05,-2.958608238458248e-07,0.0003948839439544,-0.0001342365285381,0.0009264646796509,0.0001384476199746,0.003969207406044,-0.8732615113258362,0.487235814332962,-0.001345644034423,0.0017527113992777,-0.0025252916596149,0.03496915102005,-0.037972092628479,-0.0038461685180664,1,0,0,0
12.2,1788523818222,0.0,0.0,4.456215538084507e-05,0.0039713708683848,-0.8614972233772278,0.5077467560768127,0.0,0.0,0.0,0.0,-4.294874678123506e-09,0.0,0.00014413241297,0.0039390195161104,-0.8732194304466248,0.4873114228248596,-0.0002342228270369,-0.0010605966506057,0.0021088797042021,0.0179758071899414,0.0321306586265563,0.0014152526855468,0,0,0,0
12.3,1788523818322,0.0,0.0,4.624587018042803e-05,0.0039447657763957,-0.8614704608917236,0.5077922940254211,-7.788121362614959e-05,9.192206767738688e-05,3.016468268789691e-07,-0.0002167584752896,0.0001419934560544,-0.0009047524072229,0.0001657819375395,0.003931688144803,-0.8732356429100037,0.4872822165489197,0.0015371953777903,-0.0003981150365694,0.0015192359647547,-0.0311222076416015,-0.0037678480148315,-0.0011777877807617,0,0,0,0
12.4,1788523818422,0.0,0.0,7.303664460778236e-05,0.0039195767603814,-0.861483097076416,0.5077711343765259,-0.0001663177251045,0.0001919639069407,-5.991645512849855e-07,-0.0001595439243828,-0.0002367678825976,-0.0019234124338254,0.0001869080588221,0.0039324192330241,-0.873259961605072,0.4872387945652008,-0.0002194267883988,0.001750590988143,-0.0016637581423981,0.0065211653709411,-0.0070281028747558,-0.0010223388671875,2,0,0,0
12.5,1788523818522,0.0,0.0,9.536184370517732e-05,0.0039009870961308,-0.861466109752655,0.5078000426292419,0.0001505462332465,-0.0001717563952425,-5.218162680831883e-07,0.0007647565216757,-0.0001879097690107,0.0017599927959963,0.0001664329320192,0.0039216140285134,-0.8732587099075317,0.4872411787509918,-0.0016387532362543,-1.5085200932730492e-05,-0.0024096648530335,0.0073519945144653,-0.004714548587799,0.0023155212402343,0,0,0,0
12.6,1788523818622,0.0,0.0,7.278961129486561e-05,0.0039249225519597,-0.8614909052848816,0.5077577829360962,-4.927526708964221e-05,5.958753354993792e-05,1.9396997143380354e-07,-0.0006151096895337,-6.313480844255537e-05,-0.0006281718378886,0.000170630402863,0.003895535133779,-0.87324059009552,0.4872738122940063,0.001719939465635,-0.000579623250105,0.0020579341818986,-0.0037823319435119,0.0238898992538452,-0.0065021514892578,0,0,0,0
12.7,1788523818722,0.0,0.0,3.551959525793791e-05,0.0039802305400371,-0.8614850044250488,0.5077672600746155,-0.0001083153878208,0.0001302368141927,4.294826782674221e-07,-0.0023206670302897,0.0005758931511081,-0.0012262201635167,0.0001244042068719,0.0040150294080376,-0.8732519149780273,0.4872526228427887,-0.0016531855816677,0.0003875084190722,8.20655586045993e-05,-0.0138143301010131,-0.0238494873046875,0.0020713806152343,0,0,0,0
12.8,1788523818822,0.0,0.0,1.8433784134685997e-05,0.0040636900812387,-0.8614751100540161,0.5077835917472839,0.000105210459242,-0.0001197164299333,-3.8818365862235757e-07,-0.002145807724446,0.0004394018324092,0.0012601691996678,0.0001065544784069,0.0041228681802749,-0.8732579946517944,0.4872406423091888,-0.0020921538177817,0.0007710984650102,-0.001299994351531,0.0019774436950683,0.0051040649414062,0.0058698654174804,0,0,0,0
12.9,1788523818922,0.0,0.0,-1.045165117830038e-05,0.0041518057696521,-0.8614689111709595,0.5077932476997375,0.0001631331174421,-0.0001882350911926,5.215205559142414e-07,-0.0013269025366753,-0.0001166293877759,0.0018944792682304,3.900378942489624e-05,0.004192660562694,-0.8732471466064453,0.4872594773769378,-0.0024041903222075,-0.0010310447162883,-0.0017310512267468,0.0115495324134826,0.0143905878067016,0.0114240646362304,0,0,0,0
13.0,1788523819022,0.0,0.0,-7.702060975134373e-05,0.0042233457788825,-0.8614821434020996,0.5077703595161438,-6.691017474796631e-05,7.681659502294471e-05,-6.120688376074545e-07,-0.0017893518088385,-7.103740063030273e-05,-0.0007506174151785,4.92483377456665e-06,0.0042207268998026,-0.8732295632362366,0.4872907996177673,-0.0003854849458924,-0.0011227727560972,0.00231426960191,0.0037658214569091,0.0015974640846252,-0.0174713134765625,0,0,0,0
13.1,1788523819122,0.0,0.0,-0.0001362138427793,0.004236199427396,-0.8614744544029236,0.5077831745147705,4.223121955465498e-05,-5.108155241998956e-05,8.176714693893205e-07,-0.0014057483058422,-0.0015205177478492,0.0005028015584684,5.324371159076691e-06,0.0042870277538895,-0.8732394576072693,0.4872726500034332,-0.0005446602457604,0.0027869703314779,0.0016588218687548,-0.0248245596885681,-0.0113797187805175,-0.0105409622192382,0,0,0,0
13.2,1788523819222,0.0,0.0,-9.940669406205416e-05,0.0042869253084063,-0.8614622950553894,0.5078032612800598,0.0001389763692622,-0.0001625644816029,5.557491716673474e-07,-0.0004261420399416,0.0003270400338806,0.0016524456441402,-1.5469267964363098e-06,0.0043339282274246,-0.8732462525367737,0.4872598052024841,-0.0014595199839597,-0.0001531463159757,-0.0024085352616406,0.005729854106903,-0.011669635772705,-0.0014162063598632,0,0,0,0
13.3,1788523819322,0.0,0.0,-8.672184776514769e-05,0.0043917275033891,-0.8614782094955444,0.5077754855155945,7.548432911636773e-05,-8.763694761253456e-05,-3.4533350704465425e-07,-0.0013859445462003,0.0015609192196279,0.0008693000418134,-4.31109219789505e-06,0.0044292295351624,-0.8732380867004395,0.4872735738754272,-0.0021820906215722,-0.0005551926887541,-0.0013441978368513,0.000877559185028,0.0084941387176513,0.0022659301757812,0,0,0,0
13.4,1788523819422,0.0,0.0,-0.0001094323815777,0.0044330973178148,-0.8614839315414429,0.507765531539917,-0.0001482610149744,0.0001691949618243,-5.3768071086938e-07,-0.0014989261981099,-0.0002382571547059,-0.0016988713759928,2.241972833871841e-05,0.0044645136222243,-0.8732447624206543,0.4872612953186035,-3.318365473872885e-05,0.0016786826986113,0.0009990888588142,-0.0184385180473327,-0.0082128047943115,0.030776023864746,0,0,0,0
13.5,1788523819522,0.0,0.0,-9.788165334612132e-05,0.0044799959287047,-0.8614670634269714,0.507793664932251,0.000158399290123,-0.0001839154788284,4.963916012968733e-07,-0.0008835238986648,0.0006521401810459,0.0018526938511058,-2.350658178329468e-06,0.0045284498482942,-0.873262345790863,0.487229436635971,-0.0020508340103568,0.000780959138754,-0.0023905328194076,-0.0111752152442932,-0.0200299620628356,0.007338523864746,0,0,0,0
13.6,1788523819622,0.0,0.0,-9.45643987506628e-05,0.0045303096994757,-0.861488938331604,0.5077561736106873,5.887561665990249e-05,-6.654236059335857e-05,-2.6688628092075285e-07,0.0001926012046169,0.000579938176088,0.0007107374840416,-4.217401146888733e-05,0.0045209489762783,-0.873261034488678,0.4872318208217621,-0.0011101114500202,0.0005691702484334,-0.0022482602459425,0.0310513973236084,-0.0186092853546142,-0.0121841430664062,0,0,0,0
13.7,1788523819722,0.0,0.0,-0.0001108283177018,0.0045271832495927,-0.8614944815635681,0.5077468752861023,-1.81090629548215e-05,2.2819931888817905e-05,1.028392479122039e-07,0.0003921272582374,0.0017933765193447,-0.0001736135891405,-2.2077932953834534e-05,0.0045088762417435,-0.8732331991195679,0.4872816503047943,-0.0006011145061698,-0.0008620552942364,0.0011510271312471,0.0219838023185729,0.014378547668457,0.0167083740234375,0,0,0,0
13.8,1788523819822,0.0,0.0,-0.0001267660409212,0.0045220693573355,-0.861477255821228,0.5077759623527527,-4.676234721230849e-06,8.447097268499335e-06,4.6063594670617376e-08,-0.0008450083550997,-0.0001436298043699,-8.810361759969965e-05,-1.7031095921993256e-05,0.0045673567801713,-0.8732589483261108,0.4872351288795471,-0.0013877788622199,9.285378228808509e-05,-0.0002971978178353,-0.0204047560691833,-0.0224819183349609,-0.0107316970825195,0,0,0,0
13.9,1788523819922,0.0,0.0,-0.0001172802876681,0.0045724157243967,-0.861457884311676,0.5078083872795105,0.0002040532259013,-0.000235903432701,2.5027220897608947e-08,-0.0002197992725996,0.0001250739733222,0.0023905425332486,1.16787850856781e-06,0.0046142861247062,-0.8732467293739319,0.4872563481330871,-0.0015039442834872,0.0014401611198164,-0.0023425883487171,0.0286654233932495,0.0099796056747436,-0.001230239868164,0,0,0,0
14.0,1788523820022,0.0,0.0,-8.994340896606445e-05,0.0046489052474498,-0.8614996671676636,0.5077367424964905,-5.831850558707395e-05,6.591591188073655e-05,2.689356875871941e-07,-0.0003869376669172,0.0008541092975065,-0.0006789727485738,1.16787850856781e-06,0.0046142861247062,-0.8732467293739319,0.4872563481330871,-0.0015039442834872,0.0014401611198164,-0.0023425883487171,0.0286654233932495,0.0099796056747436,-0.001230239868164,2,0,0,0
14.1,1788523820122,0.0,0.0,-0.0001078133936971,0.0046705766580998,-0.8615105748176575,0.507718026638031,-0.0001870365026119,0.0002177774401388,-2.980957718433225e-07,-0.0008863029070198,-7.829142123227939e-05,-0.0021435001399368,2.499762922525406e-05,0.0046852892264723,-0.8732624053955078,0.4872278273105621,-5.989117756541049e-05,0.0016664303271572,0.0016367917785601,-0.029814064502716,0.0066438913345336,0.0002212524414062,0,0,0,0
14.2,1788523820222,0.0,0.0,-0.0001044678501784,0.0046952762641012,-0.8614826202392578,0.5077654123306274,0.0001025996132972,-0.0001167360225101,-4.795164573550665e-07,-0.0007471580756828,-0.0004288177588023,0.0011790249263867,1.863855868577957e-05,0.0047215223312377,-0.8732736706733704,0.4872072041034698,-0.0001701428031532,0.0006688632553958,-0.001327792996738,-0.018970251083374,-0.0289875864982604,0.0036573410034179,2,0,0,0
14.3,1788523820322,0.0,0.0,-6.911600939929485e-05,0.0046996418386697,-0.8614727854728699,0.507781982421875,0.000233121758873,-0.0002733892507022,2.1891993194612722e-07,0.0007310946821235,-5.814225369249471e-05,0.0027576151769608,4.899129271507263e-05,0.0047078877687454,-0.8732420206069946,0.4872639179229736,-0.0003069770742981,-0.0002361727603783,-0.0009731206874912,0.004671573638916,0.0043376684188842,0.0004758834838867,0,0,0,0
14.4,1788523820422,0.0,0.0,-6.087170913815498e-05,0.004713880829513,-0.8614906668663025,0.5077515840530396,-9.377970040828936e-05,0.0001106656555755,4.663757765149599e-07,-0.0001784306805348,0.0001791146496543,-0.0011142194271087,8.363183587789536e-05,0.0046994555741548,-0.8732317686080933,0.4872824549674988,0.0002569545017424,-0.0002562353690502,-0.0002617625925551,-0.0113120675086975,-0.0003153085708618,0.0327463150024414,5,0,0,0
14.5,1788523820522,0.0,0.0,-1.5800585970282555e-05,0.0047145634889602,-0.8614838719367981,0.5077629089355469,-5.390417812930947e-05,6.518618798318019e-05,2.754969279326524e-07,0.0004119567747693,0.0001336038694716,-0.0006144440267235,0.0001271329820156,0.0047276737168431,-0.8732360601425171,0.4872744679450989,-8.513939637638745e-05,0.0004055496262812,0.0028579344622838,0.0077477693557739,-0.0038194060325622,0.0023355484008789,0,0,0,0
14.6,1788523820622,0.0,0.0,1.2121396139264108e-05,0.0047344542108476,-0.8614598512649536,0.5078036189079285,0.0001656244630584,-0.0001911217172392,4.22459177001268e-07,-0.0001225593296112,0.0013555567711591,0.0018925509648397,0.0001283632591366,0.0047548878937959,-0.8732530474662781,0.4872438609600067,-0.0010966864155095,0.0009828285005383,-0.0030998887652802,-0.002644658088684,-0.0176782608032226,-0.0265102386474609,0,0,0,0
14.7,1788523820722,0.0,0.0,4.7839246690273285e-05,0.0047884248197078,-0.8615047335624695,0.5077272057533264,-0.0002535482534203,0.0002944471859748,1.831454562414635e-07,-0.0009354601497761,0.001945762312971,-0.0029401767533272,0.000167679041624,0.0047668404877185,-0.8732353448867798,0.4872753024101257,0.0001234724815923,-0.0006420427588363,0.002326783187573,-0.0056354403495788,0.0124034285545349,-0.0064830780029296,0,0,0,0
14.8,1788523820822,0.0,0.0,3.302423283457756e-05,0.0047537819482386,-0.86147141456604,0.5077837705612183,0.0,0.0,0.0,0.0,3.563441319798244e-09,0.0,0.0001857681199908,0.0047843540087342,-0.8732447624206543,0.4872584342956543,0.0008801387753998,-0.0008230776005914,0.0019783898300186,0.0161858797073364,-0.0003466606140136,0.0098438262939453,1,0,0,0
14.9,1788523820922,0.0,0.0,5.189678631722927e-05,0.004784476943314,-0.8614938259124756,0.507745623588562,5.091149388794351e-05,-5.842557299105196e-05,-2.2418808994866893e-07,0.0004644206783268,-0.0016417520819231,0.000550725206267,0.0001764707267284,0.0048031862825155,-0.873273491859436,0.4872065484523773,-0.0006278499100917,0.0009962864516002,-0.0015020170925888,-0.01807701587677,0.0034468173980712,0.0241003036499023,1,0,0,0
15.0,1788523821022,0.0,0.0,6.59693032503128e-05,0.0047984602861106,-0.8614872694015503,0.5077565312385559,3.20046695462171e-05,-3.673008431450382e-05,-1.424992695490338e-07,-0.0001408089156029,0.0005472143529914,0.0003657788911368,0.0001624394208192,0.004792015068233,-0.8732424378395081,0.4872623383998871,-0.0003491804875243,-0.0017577549764559,0.0022124669407736,-0.0039871931076049,-0.0001698732376098,0.0080146789550781,4,0,0,0
15.1,1788523821122,0.0,0.0,6.316835060715675e-05,0.0048357215709984,-0.8615010976791382,0.5077327489852905,-7.827725134211128e-05,9.236366212015276e-05,3.67122947616044e-07,-0.001110584125854,0.0005517263780348,-0.0009141531190834,0.0001910757273435,0.0048484969884157,-0.8732563853263855,0.4872367680072784,0.0003610248417658,-0.0008396792777575,0.0021401003416194,0.0025448203086853,0.016732633113861,-0.0205249786376953,2,0,0,0
15.2,1788523821222,0.0,0.0,5.805329419672489e-05,0.0048343064263463,-0.8614785671234131,0.5077709555625916,0.0,0.0,0.0,0.0,4.485459559333549e-09,0.0,0.0001694438979029,0.0048232264816761,-0.8732504844665527,0.4872477948665619,0.0012393160925072,-0.0006125128712542,0.0019085446400045,-0.0089842677116394,0.0019139647483825,-0.0098724365234375,3,0,0,0
15.3,1788523821322,0.0,0.0,4.40916046500206e-05,0.0048055658116936,-0.8614821434020996,0.5077650547027588,0.0001650535238774,-0.0001916180603548,5.260213276050006e-07,0.001582080963999,-0.0013973008608445,0.0019136245828121,0.0001652184873819,0.0048121446743607,-0.8732649683952332,0.487221896648407,-0.000271689675959,0.0007373870500893,-0.0023831489988838,0.0105354189872741,-0.0072970390319824,-0.0062084197998046,0,0,0,0
15.4,1788523821422,0.0,0.0,8.928240276873112e-05,0.0048227319493889,-0.8615094423294067,0.507718563079834,-0.0001302018586365,0.0001516035071318,-2.4036073829835374e-07,0.0002346668479731,0.0013548748102039,-0.001520003308542,0.0001797676086425,0.0047854334115982,-0.8732607960700989,0.4872294962406158,0.0003222152793126,-0.001045739276726,-0.0010633941385281,0.0194188952445983,0.0171284079551696,0.0012331008911132,1,0,0,0
15.5,1788523821522,0.0,0.0,6.369524635374546e-05,0.0047918343916535,-0.8615127205848694,0.5077133774757385,-1.5077844723258188e-05,1.8997323530381604e-05,7.998422640642227e-08,0.0004563587135635,-0.0012611910933628,-0.0002093331422656,0.0002132952213287,0.0047969268634915,-0.8732820153236389,0.487191379070282,0.0003689957692616,0.0011400234604148,1.3825878433020613e-05,-0.007049560546875,-0.0083670616149902,0.0278644561767578,0,0,0,0
15.6,1788523821622,0.0,0.0,0.0001015441957861,0.0047888690605759,-0.861511766910553,0.507715106010437,0.0,0.0,0.0,0.0,2.3211108590714957e-09,0.0,0.0002757990732789,0.0047917999327182,-0.8732796907424927,0.4871957302093506,0.000949226903828,0.0013660416365797,0.0012349731929422,-0.0167527794837951,-0.0215197801589965,0.0079879760742187,2,0,0,0
15.7,1788523821722,0.0,0.0,0.0001015441957861,0.0047888690605759,-0.861511766910553,0.507715106010437,0.0,0.0,0.0,0.0,2.3607462651398237e-09,0.0,0.0002880645915865,0.0047912839800119,-0.8732686042785645,0.4872154891490936,0.0004112093462129,0.000669548538099,0.001466518326017,0.0033138990402221,-0.0017534494400024,-0.0115041732788085,2,0,0,0
15.8,1788523821822,0.0,0.0,0.0001015441957861,0.0047888690605759,-0.861511766910553,0.507715106010437,0.0,0.0,0.0,0.0,1.6554899673337784e-09,0.0,0.0002764388918876,0.0047811279073357,-0.8732754588127136,0.4872032105922699,0.0004455195469569,-0.0010993750889019,0.0009081783751814,0.0083125829696655,0.0179234743118286,-0.007730484008789,0,0,0,0
15.9,1788523821922,0.0,0.0,0.0001015441957861,0.0047888690605759,-0.861511766910553,0.507715106010437,0.0,0.0,0.0,0.0,1.934273852199908e-09,0.0,0.0002680029720067,0.0047281803563237,-0.8732768893241882,0.4872012436389923,0.0007905127278599,-0.0005706757311877,0.0026360315940708,0.0273656249046325,-0.0134303569793701,-0.0078182220458984,5,0,0,0
16.0,1788523822022,0.0,0.0,0.0001015441957861,0.0047888690605759,-0.861511766910553,0.507715106010437,0.0,0.0,0.0,0.0,2.330186710253201e-09,0.0,0.000311273150146,0.0047534620389342,-0.8733059763908386,0.4871487915515899,8.645659205156515e-05,0.0009533103594535,-0.0010107413578121,-0.0058813095092773,-0.0206387042999267,0.0009422302246093,4,0,0,0
16.1,1788523822122,0.0,0.0,0.0001015441957861,0.0047888690605759,-0.861511766910553,0.507715106010437,0.0,0.0,0.0,0.0,2.281767441658644e-09,0.0,0.0002953549847006,0.0047372914850711,-0.8732937574386597,0.4871708452701568,0.0004199101512056,-0.0014578381513395,0.0016759307290841,0.0026373267173767,-0.0153960585594177,0.0046339035034179,1,0,0,0
16.2,1788523822222,0.0,0.0,0.0001015441957861,0.0047888690605759,-0.861511766910553,0.507715106010437,0.0,0.0,0.0,0.0,1.6568869609656643e-09,0.0,0.0003113411366939,0.0047589773312211,-0.873315691947937,0.4871314465999603,-0.0001355441569824,0.0019479109411397,-0.0014264809464469,-0.0437262654304504,-0.0080752372741699,0.0188112258911132,4,0,0,0
16.3,1788523822322,0.0,0.0,0.0001015441957861,0.0047888690605759,-0.861511766910553,0.507715106010437,0.0,0.0,0.0,0.0,1.9513290983041998e-09,0.0,0.0003758249804377,0.0047839460894465,-0.873325526714325,0.4871134757995605,-7.955548716483971e-05,0.0027934521569799,-0.0025467829603149,0.0259628295898437,-0.0206586718559265,-0.0041990280151367,0,0,0,0
16.4,1788523822422,0.0,0.0,0.0001015441957861,0.0047888690605759,-0.861511766910553,0.507715106010437,0.0,0.0,0.0,0.0,2.3553938799381054e-09,0.0,0.0004067635163664,0.0047370148822665,-0.8733326196670532,0.4871010780334472,0.0006177016416987,0.0005371514549151,-0.0019473677112039,-0.002658188343048,-0.0108277797698974,-0.0240373611450195,1,0,0,0
16.5,1788523822522,0.0,0.0,0.0001015441957861,0.0047888690605759,-0.861511766910553,0.507715106010437,0.0,0.0,0.0,0.0,3.84247167417584e-09,0.0,0.0004322938621044,0.0046937894076108,-0.8733004927635193,0.4871590137481689,0.0012846968533687,8.59852615747305e-05,0.0017299254838049,0.0134610533714294,0.0082514882087707,-0.0202112197875976,0,0,0,0
16.6,1788523822622,-0.9295774698257446,-1.2394366264343262,0.0003111690748482,0.0047164652496576,-0.8615529537200928,0.5076457262039185,0.0,0.0,0.0,0.0,-9.36222877001569e-10,0.0,0.0003877207636833,0.0047131916508078,-0.8738226890563965,0.4862217307090759,-0.0005111325117234,0.0005691159843407,-0.0611484813647443,-1.7292790412902832,0.0045861005783081,-0.0018987655639648,156,172,-8740,-7518
16.7,1788523822722,0.0,0.0,0.0001695326063781,0.0046582212671637,-0.862240195274353,0.506477952003479,-0.0467855054140038,0.0007782488130798,-6.6189102612765776e-06,0.0005493072094395,-0.0029694228433072,-0.0126327276229858,-0.0002276543527841,0.0042524393647909,-0.8739858269691467,0.4859329164028168,0.0037902964081363,-0.033471451164366,0.0107149807785339,2.9559428691864014,-0.1791531443595886,0.0425748825073242,0,39,-25039,-27066
16.8,1788523822822,0.0,0.0,-0.0002335676690563,0.0043337307870388,-0.863074779510498,0.5050575137138367,0.010788153985002,0.0008345521409632,-1.5941159747177625e-07,0.0,1.8583112826320303e-09,0.0,0.0003112740814685,0.0045733926817774,-0.8741245269775391,0.4856803715229034,-0.000956217036169,0.0234605674459648,0.065568632281188,-0.3803408145904541,0.2429496645927429,-0.1592531204223632,0,0,-32575,-32575
16.9,1788523822922,0.0,0.0,0.000146982492879,0.0045714741572737,-0.8623552918434143,0.5062829852104187,-0.0074484933271344,0.0006910294072976,-1.1092821150303035e-07,0.0,-1.026315565866298e-08,0.0,0.0003627873957157,0.0046044290065765,-0.8737929463386536,0.4862763285636902,0.0011088414811963,0.0038412963680034,0.0055706328764791,0.1053555011749267,0.0933057069778442,-0.0784006118774414,1,0,0,0
17.0,1788523823022,0.0,0.0,0.0001957358326762,0.004592312965542,-0.862189769744873,0.5065644979476929,0.0,0.0,0.0,0.0,-1.7720438449941867e-09,0.0,0.000324766151607,0.004588633775711,-0.8738479018211365,0.4861776828765869,-0.0001504502850637,0.0009638216085013,0.0007361521253983,0.0518203377723693,0.0172090530395507,0.0285139083862304,3,0,0,0
17.1,1788523823122,0.0,0.0,0.0001957358326762,0.004592312965542,-0.862189769744873,0.5065644979476929,-0.0002119575213315,0.0002045705745506,5.217312776471619e-07,0.0,-1.8433139459261838e-09,0.0,0.0003228615969419,0.0045684901997447,-0.8738293647766113,0.4862110912799835,0.0001207803039827,0.0001420741446451,8.775170295432415e-05,0.0535119175910949,0.0547369718551635,0.0090341567993164,3,0,0,0
17.2,1788523823222,0.0,0.0,0.0001957358326762,0.004592312965542,-0.862189769744873,0.5065644979476929,0.0,0.0,0.0,0.0,-1.8440340365799559e-09,0.0,0.0003035981208086,0.0045415544882416,-0.8738316893577576,0.4862073063850403,0.0015220086902483,-0.0002328946828521,0.0032867811218283,0.0077358484268188,-0.0213156342506408,0.0567197799682617,0,0,0,0
17.3,1788523823322,0.0,0.0,0.0001957358326762,0.004592312965542,-0.862189769744873,0.5065644979476929,0.0,0.0,0.0,0.0,-1.822022199782225e-09,0.0,0.000310375355184,0.0045405207201838,-0.8738404512405396,0.4861915409564972,0.0010744830694252,0.001094122329601,0.0005776898010622,-0.0315660238265991,-0.0338405966758728,0.038435935974121,0,0,0,0
17.4,1788523823422,0.0,0.0,0.0001957358326762,0.004592312965542,-0.862189769744873,0.5065644979476929,0.0,0.0,0.0,0.0,-1.3555105926599254e-09,0.0,0.0002744123339653,0.004543762654066,-0.8738516569137573,0.4861713051795959,-0.0002082359355547,-5.296431990470443e-06,-0.0036079481427595,-0.0069014430046081,-0.0315192341804504,0.0206384658813476,0,0,0,0
17.5,1788523823522,0.0,0.0,0.0001957358326762,0.004592312965542,-0.862189769744873,0.5065644979476929,0.0,0.0,0.0,0.0,-2.645602403816838e-09,0.0,0.0002462975680828,0.0045174583792686,-0.8738282918930054,0.4862135052680969,-0.0004264333098628,-0.0015199369090184,-0.0002165001975932,0.0247523188591003,0.0150551795959472,0.0121755599975585,0,0,0,0
17.6,1788523823622,0.0,0.0,0.0001957358326762,0.004592312965542,-0.862189769744873,0.5065644979476929,0.0,0.0,0.0,0.0,-1.7734523849455284e-09,0.0,0.0002270266413688,0.0045005343854427,-0.8738337755203247,0.4862039089202881,-0.000404399921939,-0.0003817034764828,-0.0008072495187041,0.0170865654945373,0.0185546278953552,0.0103588104248046,0,0,0,0
17.7,1788523823722,0.0,0.0,0.0001957358326762,0.004592312965542,-0.862189769744873,0.5065644979476929,0.0,0.0,0.0,0.0,-1.8208318186552221e-09,0.0,0.0002471152693033,0.0045052729547023,-0.8738420605659485,0.4861888885498047,0.0010863487715529,0.0012989118611908,0.0022380435047903,0.0051993727684021,-0.0121259093284606,0.0144815444946289,0,0,0,0
17.8,1788523823822,0.0,0.0,0.0001957358326762,0.004592312965542,-0.862189769744873,0.5065644979476929,0.0,0.0,0.0,0.0,-1.822031414633329e-09,0.0,0.0002232920378446,0.00450309086591,-0.8738545775413513,0.486166387796402,-0.0007134243124951,0.0011536756250826,-0.0014180528667353,-0.0063263177871704,-0.011921226978302,0.0135974884033203,0,0,-6309,-6309
17.9,1788523823922,0.0,0.0,0.0001957358326762,0.004592312965542,-0.862189769744873,0.5065644979476929,0.0,0.0,0.0,0.0,-1.3798351350402527e-09,0.0,0.0002263914793729,0.0045010671019554,-0.8738205432891846,0.4862276017665863,-0.0002206289861336,-0.0017893037216589,-0.0016969183191716,0.0168697237968444,-0.021198570728302,0.0460004806518554,0,0,-29746,-29746
18.0,1788523824022,0.0,0.0,0.0001957358326762,0.004592312965542,-0.862189769744873,0.5065644979476929,0.0,0.0,0.0,0.0,-1.7869237201040276e-09,0.0,0.0002458710223436,0.0044903652742505,-0.8738159537315369,0.4862359464168548,0.0009011573838233,-0.0003697541350471,0.0026629219656821,0.0154871344566345,0.0145689845085144,0.0157098770141601,0,0,-32767,-32767
18.1,1788523824122,0.0,0.0,0.0001957358326762,0.004592312965542,-0.862189769744873,0.5065644979476929,0.0,0.0,0.0,0.0,-1.8526629119719475e-09,0.0,0.0002485811710357,0.0045021884143352,-0.8738350868225098,0.486201524734497,0.0005230581505034,-0.0004311106199601,0.0006859531432087,-0.0114040970802307,-0.0212993025779724,0.0332584381103515,0,0,-32767,-32767
18.2,1788523824222,0.0,0.0,0.0001957358326762,0.004592312965542,-0.862189769744873,0.5065644979476929,0.0,0.0,0.0,0.0,-1.362018497985673e-09,0.0,0.0002246741205453,0.0044726822525262,-0.8738360404968262,0.4862000346183777,-3.67292354059402e-05,-1.2746414506643706e-05,-0.0024669983895044,0.014814019203186,-0.046760618686676,0.0386228561401367,3,0,-32767,-32767
18.3,1788523824322,0.0,0.0,0.0001957358326762,0.004592312965542,-0.862189769744873,0.5065644979476929,0.0,0.0,0.0,0.0,-1.8319762373764086e-09,0.0,0.0001960275694727,0.0044347709044814,-0.8738008737564087,0.4862636029720306,-0.0007700029008563,-0.0014588817369684,0.0011376359225274,-0.0057465434074401,-0.0237399935722351,0.0314798355102539,0,0,-32767,-32767
18.4,1788523824422,0.0,0.0,0.0001957358326762,0.004592312965542,-0.862189769744873,0.5065644979476929,0.0,0.0,0.0,0.0,-1.8155408287867654e-09,0.0,0.0002433899790048,0.0044454308226704,-0.8738258481025696,0.4862185418605804,0.0002741894109556,0.0004613111454791,0.0021175152351781,-0.0065697431564331,-0.0167459845542907,0.0207471847534179,0,0,-32767,-32767
18.5,1788523824522,0.0,0.0,0.0001957358326762,0.004592312965542,-0.862189769744873,0.5065644979476929,0.0,0.0,0.0,0.0,-1.8145807079150702e-09,0.0,0.0002415711060166,0.004434946924448,-0.8738343119621277,0.4862034618854522,-0.0009331428752793,0.000889804606518,-0.003325816679448,0.0147547721862792,-0.026002824306488,0.0369729995727539,0,0,-32767,-32767
18.6,1788523824622,0.0,0.0,0.0001957358326762,0.004592312965542,-0.862189769744873,0.5065644979476929,0.0,0.0,0.0,0.0,-1.3680486743439244e-09,0.0,0.0002458859235048,0.0044403076171875,-0.873810350894928,0.4862466156482696,0.0001179747616084,-0.0023451576403844,0.0009630926876528,0.0274344682693481,-0.0062239170074462,0.0407781600952148,0,0,-32767,-32767
18.7,1788523824722,0.0,0.0,0.0001957358326762,0.004592312965542,-0.862189769744873,0.5065644979476929,0.0,0.0,0.0,0.0,-1.820217088166487e-09,0.0,0.0002940455451607,0.0044334661215543,-0.8738232851028442,0.4862233400344848,0.0004692720750636,-0.0003969857199656,0.0015108411634534,0.018200933933258,-0.0067002773284912,-0.0003156661987304,0,0,-32767,-32767
18.8,1788523824822,0.0,0.0,0.0001957358326762,0.004592312965542,-0.862189769744873,0.5065644979476929,0.0,0.0,0.0,0.0,-1.816480632577111e-09,0.0,0.0003032926470041,0.0044198203831911,-0.87385493516922,0.4861665666103363,0.0001210354239982,0.0006561557534904,-0.0002516809366065,0.0052453279495239,0.0086864829063415,0.0321855545043945,0,0,-32767,-32767
18.9,1788523824922,0.0,0.0,0.0001957358326762,0.004592312965542,-0.862189769744873,0.5065644979476929,0.0,0.0,0.0,0.0,-1.8157517711614446e-09,0.0,0.0002442551776766,0.004390712827444,-0.8738474249839783,0.4861804842948913,-0.0007517372874452,-0.0009051491032844,-0.0018732754145133,-0.0098612904548645,0.0091145038604736,-0.0255336761474609,1,0,-32767,-32767
19.0,1788523825022,0.0,0.0,0.0001957358326762,0.004592312965542,-0.862189769744873,0.5065644979476929,0.0,0.0,0.0,0.0,-1.8083350372677387e-09,0.0,0.0002606296911835,0.0043633067980408,-0.8738170266151428,0.4862352311611175,0.0007754211230472,-0.0003552316452802,-0.0005728402801208,0.0081779360771179,-0.015104055404663,0.0085535049438476,0,0,-32767,-32767
19.1,1788523825122,0.0,0.0,0.0001957358326762,0.004592312965542,-0.862189769744873,0.5065644979476929,0.0,0.0,0.0,0.0,-1.360952461837428e-09,0.0,0.0002825548872351,0.0043812217190861,-0.8738252520561218,0.4862203299999237,0.0015358559573399,0.0010219121513067,0.0018891213792408,-0.0128928422927856,-0.0132182240486145,0.0173873901367187,2,0,-32767,-32767
19.2,1788523825222,0.0,0.0,0.0001957358326762,0.004592312965542,-0.862189769744873,0.5065644979476929,0.0,0.0,0.0,0.0,-1.7904930871281975e-09,0.0,0.0002715894952416,0.004402463324368,-0.8738412857055664,0.4861912727355957,-0.0028855692619293,-0.0007485849833512,-0.002769233856718,0.0089111924171447,-0.0077069401741027,0.0262699127197265,0,0,-32767,-32767
19.3,1788523825322,0.0,0.0,0.0001957358326762,0.004592312965542,-0.862189769744873,0.5065644979476929,0.0,0.0,0.0,0.0,-1.872738852881639e-09,0.0,0.0002375245094299,0.0044040903449058,-0.873836100101471,0.4862004518508911,-0.0002850575769406,0.0016621930341589,-0.0022118432481088,0.0146249532699584,-0.0100128650665283,0.0116567611694335,0,0,-32767,-32767
19.4,1788523825422,0.0,0.0,0.0001957358326762,0.004592312965542,-0.862189769744873,0.5065644979476929,0.0,0.0,0.0,0.0,-1.8093222475812354e-09,0.0,0.0002194521948695,0.0044611021876335,-0.8738211989402771,0.4862270057201385,-0.0009337229983673,-0.0006115063247518,0.0030681333726943,-0.0042259097099304,0.0319752097129821,-0.0133333206176757,0,0,-32767,-32767
19.5,1788523825522,0.0,0.0,0.0001957358326762,0.004592312965542,-0.862189769744873,0.5065644979476929,0.0,0.0,0.0,0.0,-1.362639001634136e-09,0.0,0.0001851767301559,0.0045041125267744,-0.8738487362861633,0.4861769080162048,-0.0009365092495139,0.0008212550902045,-0.0002403615306302,-0.0022329092025756,-0.0125996470451354,-0.0135927200317382,2,0,-32767,-32767
19.6,1788523825622,0.0,0.0,0.0001957358326762,0.004592312965542,-0.862189769744873,0.5065644979476929,0.0,0.0,0.0,0.0,-1.8174298732631651e-09,0.0,0.0001592962071299,0.0045415526255965,-0.873857855796814,0.4861603677272796,-0.0011927828818854,0.0019669207624061,-0.0025007926594241,-0.010870337486267,-0.016239583492279,-0.0135354995727539,0,0,-32767,-32767
19.7,1788523825722,0.0,0.0,0.0001957358326762,0.004592312965542,-0.862189769744873,0.5065644979476929,0.0,0.0,0.0,0.0,-1.8557765324445086e-09,0.0,0.0001283669844269,0.0045372005552053,-0.873832643032074,0.4862057566642761,-0.0018939793228444,-0.0015305011132147,0.0002479906705936,0.0245664715766906,0.0138615369796752,0.0139074325561523,1,0,-32767,-32767
19.8,1788523825822,0.0,0.0,0.0001957358326762,0.004592312965542,-0.862189769744873,0.5065644979476929,0.0,0.0,0.0,0.0,-1.7898567072904823e-09,0.0,0.0001798346638679,0.004557286389172,-0.8738446235656738,0.4861840009689331,0.0011861782612751,-0.000451413359583,0.0020654549254299,-0.0064160823822021,0.0080265998840332,-0.0024404525756835,0,0,-32767,-32767
19.9,1788523825922,0.0,0.0,0.0001957358326762,0.004592312965542,-0.862189769744873,0.5065644979476929,0.0,0.0,0.0,0.0,-1.3593215442142535e-09,0.0,0.0001328010112047,0.0045687835663557,-0.8738536238670349,0.4861677587032318,-8.386861807705707e-06,0.0003220086837432,0.0016824254557542,-0.0105834603309631,-0.0043983459472656,0.0047063827514648,0,0,-32767,-32767
20.0,1788523826022,0.0,0.0,0.0001957358326762,0.004592312965542,-0.862189769744873,0.5065644979476929,0.0,0.0,0.0,0.0,-1.345383471296202e-09,0.0,0.0001369724050164,0.0045790532603859,-0.8738464117050171,0.4861806631088257,-0.000845867706681,0.0006873251111467,-0.0018654044669479,0.0166569352149963,0.0044474005699157,0.0049695968627929,5,0,-32767,-32767
20.1,1788523826122,0.0,0.0,0.0001957358326762,0.004592312965542,-0.862189769744873,0.5065644979476929,0.0,0.0,0.0,0.0,-1.8607846374862902e-09,0.0,0.0001267744228243,0.0045947721228003,-0.873833954334259,0.4862026870250702,-0.0002884793843777,-0.0013842006619159,0.0024368814003295,-0.0046131014823913,0.0424737334251403,-0.020033836364746,0,0,-32767,-32767
20.2,1788523826222,0.0,0.0,0.0001957358326762,0.004592312965542,-0.862189769744873,0.5065644979476929,0.0,0.0,0.0,0.0,-1.7131507323853155e-09,0.0,0.000121678225696,0.0046035321429371,-0.8738377690315247,0.4861958026885986,0.0004505942707377,0.0015795893546108,0.0025878907004702,-0.0225639939308166,-0.0261064767837524,0.0063467025756835,0,0,-32767,-32767
20.3,1788523826322,0.0,0.0,0.0001957358326762,0.004592312965542,-0.862189769744873,0.5065644979476929,0.0,0.0,0.0,0.0,-1.3653754793452322e-09,0.0,0.0001120632514357,0.0046276412904262,-0.8738601803779602,0.4861551821231842,-0.0012585513335079,0.0002135184550769,-0.0031088989359825,0.0044092535972595,-0.0079832673072814,0.0246105194091796,2,0,-32767,-32767
20.4,1788523826422,0.0,0.0,0.0001957358326762,0.004592312965542,-0.862189769744873,0.5065644979476929,0.0,0.0,0.0,0.0,-1.8211389063438326e-09,0.0,0.0001193769276142,0.0046268310397863,-0.8738310933113098,0.4862076640129089,-0.0002132164505886,0.000207931055795,0.0012516968710427,0.0279510617256164,0.0151067972183227,0.0231275558471679,3,0,-32767,-32767
20.5,1788523826522,0.0,0.0,0.0001957358326762,0.004592312965542,-0.862189769744873,0.5065644979476929,0.0,0.0,0.0,0.0,-1.895075874003282e-09,0.0,9.309500455856325e-05,0.0046391626819968,-0.8738349080085754,0.4862007200717926,-3.3629354161565797e-06,-0.0012245122986212,0.002558479430516,-0.0008127689361572,0.0192674398422241,-0.0200614929199218,4,0,-32767,-32767
20.6,1788523826622,0.0,0.0,0.0001957358326762,0.004592312965542,-0.862189769744873,0.5065644979476929,0.0,0.0,0.0,0.0,-1.7934940199637595e-09,0.0,6.29723072052002e-05,0.004669239744544,-0.8738638758659363,0.4861482977867126,0.0002151544327546,-0.0008406985194405,-0.0009674005905522,-0.0370726585388183,-0.0412986874580383,0.0026874542236328,0,0,-32767,-32767
20.7,1788523826722,0.0,0.0,0.0001957358326762,0.004592312965542,-0.862189769744873,0.5065644979476929,0.0,0.0,0.0,0.0,-1.3762392336857943e-09,0.0,1.5455298125743866e-05,0.0046384297311306,-0.8738609552383423,0.4861537516117096,-0.0006600385951313,5.2656465813275646e-05,-0.0015274886906075,0.026575744152069,-0.0127094984054565,-0.0021038055419921,0,0,-32767,-32767
20.8,1788523826822,0.0,0.0,0.0001957358326762,0.004592312965542,-0.862189769744873,0.5065644979476929,0.0,0.0,0.0,0.0,-1.7905280591534731e-09,0.0,6.355438381433487e-05,0.0046655097976326,-0.8738446235656738,0.4861830174922943,0.0004038246128116,0.0005640927456693,0.0024064082912673,0.0331446528434753,0.0267480015754699,-0.0071563720703125,0,0,-32767,-32767
20.9,1788523826922,0.0,0.0,0.0001957358326762,0.004592312965542,-0.862189769744873,0.5065644979476929,0.0,0.0,0.0,0.0,-1.7853089007147103e-09,0.0,0.0001191543415188,0.004703439772129,-0.8738507032394409,0.4861715137958526,6.873888351636758e-05,0.0021604518244442,0.0024084278441289,-0.0104206204414367,-0.0110428929328918,-0.0040550231933593,0,0,-32767,-32767
21.0,1788523827022,0.0,0.0,0.0001957358326762,0.004592312965542,-0.862189769744873,0.5065644979476929,0.0,0.0,0.0,0.0,-1.7060635126853183e-09,0.0,9.035691618919373e-05,0.0047006541863083,-0.8738694190979004,0.4861378967761993,-0.0004550811325698,0.0008593961567205,-0.0029894739924486,0.0178008675575256,-0.0127568840980529,-0.0020761489868164,0,0,-32767,-32767
21.1,1788523827122,0.0,0.0,0.0001957358326762,0.004592312965542,-0.862189769744873,0.5065644979476929,0.0,0.0,0.0,0.0,-1.35403743772855e-09,0.0,6.56982883810997e-05,0.0046846149489283,-0.8738430142402649,0.4861856997013092,0.0012082701437194,-0.0023301005781931,0.0013671613940154,0.0082888603210449,0.0517730116844177,-0.0070276260375976,0,0,-32767,-32767
21.2,1788523827222,0.0,0.0,0.0001957358326762,0.004592312965542,-0.862189769744873,0.5065644979476929,0.0,0.0,0.0,0.0,-1.786942260828539e-09,0.0,0.0001098830252885,0.0047002062201499,-0.8738530278205872,0.4861673414707184,0.0006331370205633,0.0013998153730745,0.0016256912060453,0.0057199597358703,0.0192455053329467,-0.0234222412109375,0,0,-32767,-32767
21.3,1788523827322,0.0,0.0,0.0001957358326762,0.004592312965542,-0.862189769744873,0.5065644979476929,0.0,0.0,0.0,0.0,-1.7859114187501744e-09,0.0,0.0001015774905681,0.0046940706670284,-0.8738718032836914,0.4861338436603546,0.0003284516570872,0.0007773148614573,-7.769664274447672e-05,-0.0214484930038452,-0.0312277674674987,-0.0167427062988281,0,0,-32767,-32767
21.4,1788523827422,0.0,0.0,0.0001957358326762,0.004592312965542,-0.862189769744873,0.5065644979476929,0.0,0.0,0.0,0.0,-1.8358567999143813e-09,0.0,0.0001083388924598,0.0046714833006262,-0.8738569021224976,0.4861607849597931,-0.0005344845609131,0.0013176048280563,-0.0014979869224531,0.0250846743583679,0.0076190829277038,-1.1444091796875e-05,0,0,-32767,-32767
21.5,1788523827522,0.0,0.0,0.0001957358326762,0.004592312965542,-0.862189769744873,0.5065644979476929,0.0,0.0,0.0,0.0,-1.3598925319158182e-09,0.0,0.0001313285902142,0.0047150366008281,-0.873851478099823,0.4861702024936676,-0.0007158499111102,6.684118400091075e-05,9.241563220672207e-05,-0.0028049349784851,0.0188549757003784,-0.0054655075073242,0,0,-32767,-32767
21.6,1788523827622,0.0,0.0,0.0001957358326762,0.004592312965542,-0.862189769744873,0.5065644979476929,0.0,0.0,0.0,0.0,-1.851228947913341e-09,0.0,0.0001027751713991,0.0047289645299315,-0.8738623261451721,0.4861503839492798,0.0003597673705864,-0.0006571676469607,0.0016849841671834,-0.0105090141296386,-0.0168090462684631,0.0193910598754882,0,0,-32767,-32767
21.7,1788523827722,0.0,0.0,0.0001957358326762,0.004592312965542,-0.862189769744873,0.5065644979476929,0.0,0.0,0.0,0.0,-1.8467364304441958e-09,0.0,6.173737347126007e-05,0.0047324327751994,-0.8738707900047302,0.4861352443695068,-0.0007955146035106,-0.0007513432628474,-0.0025877455407188,-0.0020591020584106,-0.0234574079513549,-0.0039453506469726,0,0,-32767,-32767
21.8,1788523827822,0.0,0.0,0.0001957358326762,0.004592312965542,-0.862189769744873,0.5065644979476929,0.0,0.0,0.0,0.0,-1.82808634896503e-09,0.0,1.3199634850025175e-05,0.0046913474798202,-0.873856782913208,0.486160933971405,-0.0006870601768144,-0.0004604092784075,-0.0023014621771729,-0.0104652643203735,-0.002266526222229,0.0015506744384765,0,0,-32767,-32767
21.9,1788523827922,0.0,0.0,0.0001957358326762,0.004592312965542,-0.862189769744873,0.5065644979476929,0.0,0.0,0.0,0.0,-1.3537528875673386e-09,0.0,7.463525980710983e-05,0.00470248516649,-0.8738481402397156,0.4861762821674347,0.0007102946790812,0.0004008006529615,0.0025036548059592,0.0033228397369384,0.0044971108436584,-0.0019140243530273,0,0,-32767,-32767
22.0,1788523828022,0.0,0.0,0.0001957358326762,0.004592312965542,-0.862189769744873,0.5065644979476929,0.0,0.0,0.0,0.0,-1.803512228448767e-09,0.0,6.384775042533875e-05,0.0046720318496227,-0.8738753199577332,0.4861277043819427,0.0017544001261484,0.0002481538657086,0.000615321331672,-0.0168859362602233,-0.0032062530517578,0.0015068054199218,0,0,-32767,-32767
22.1,1788523828122,0.0,0.0,0.0001957358326762,0.004592312965542,-0.862189769744873,0.5065644979476929,0.0,0.0,0.0,0.0,-1.8357284581327347e-09,0.0,0.0001212488859891,0.004686084575951,-0.8738769888877869,0.4861244261264801,-0.0006384273036983,0.0016834356734879,-0.0018392534411914,0.01471608877182,-0.0162321329116821,0.0159645080566406,0,0,-32767,-32767
22.2,1788523828222,0.0,0.0,0.0001957358326762,0.004592312965542,-0.862189769744873,0.5065644979476929,0.0,0.0,0.0,0.0,-1.852086484177562e-09,0.0,0.0001496924087405,0.0046809781342744,-0.8738465905189514,0.4861792623996734,0.0006272963579963,-0.0006717666266408,0.0010493256758305,0.0331791043281555,-0.0058168768882751,0.0107450485229492,0,0,-32767,-32767
22.3,1788523828322,0.0,0.0,0.0001957358326762,0.004592312965542,-0.862189769744873,0.5065644979476929,0.0,0.0,0.0,0.0,-1.329823806628383e-09,0.0,0.0001504523679614,0.0046993223950266,-0.873869001865387,0.4861385822296142,-0.0001226904911102,0.0018768027568397,0.0010013084839732,-0.0060749053955078,-0.0503780841827392,0.0012121200561523,6,0,-32767,-32767
22.4,1788523828422,0.0,0.0,0.0001957358326762,0.004592312965542,-0.862189769744873,0.5065644979476929,0.0,0.0,0.0,0.0,-1.813741823397663e-09,0.0,0.0001357588917016,0.0046893926337361,-0.8738718628883362,0.4861336946487427,-7.462473338375246e-05,0.0025829254833278,-0.0003670505794749,-0.0152735114097595,-0.0143899321556091,-0.0165529251098632,0,0,-32767,-32767
22.5,1788523828522,0.0,0.0,0.0001957358326762,0.004592312965542,-0.862189769744873,0.5065644979476929,0.0,0.0,0.0,0.0,-1.8184169725543597e-09,0.0,0.0001174621284008,0.004654767923057,-0.8738570213317871,0.4861606657505035,-0.000615276585768,-0.0007475875533733,-0.0016359748793442,0.0038254857063293,-0.0022879242897033,-0.0109729766845703,1,0,-32767,-32767
22.6,1788523828622,0.0,0.0,0.0001957358326762,0.004592312965542,-0.862189769744873,0.5065644979476929,0.0,0.0,0.0,0.0,-1.839753016597001e-09,0.0,0.0001254519447684,0.0046712979674339,-0.8738278150558472,0.4862129390239715,0.0004034711481372,-0.0015235908854634,0.0031148668161545,-0.0029970407485961,0.0087471008300781,-0.0181150436401367,3,0,-32767,-32767
22.7,1788523828722,0.0,0.0,0.0001957358326762,0.004592312965542,-0.862189769744873,0.5065644979476929,0.0,0.0,0.0,0.0,-1.8575219140615214e-09,0.0,0.0001629143953323,0.0046791546046733,-0.8738527894020081,0.4861679077148437,0.0005706349137651,0.0004301616632253,-0.0005723244007168,-0.0113298296928405,-0.0113310813903808,-0.0039253234863281,3,0,-32767,-32767
22.8,1788523828822,0.0,0.0,0.0001957358326762,0.004592312965542,-0.862189769744873,0.5065644979476929,0.0,0.0,0.0,0.0,-1.816810701882332e-09,0.0,0.0001605823636054,0.0046579213812947,-0.8738503456115723,0.4861727356910705,-0.0001094929483693,0.0001383780053182,-0.0024981023087841,-0.0026381611824035,-0.0117639303207397,0.0069246292114257,0,0,-32767,-32767
22.9,1788523828922,0.0,0.0,0.0001957358326762,0.004592312965542,-0.862189769744873,0.5065644979476929,0.0,0.0,0.0,0.0,-1.8500765364137806e-09,0.0,0.00017277803272,0.0046126199886202,-0.8738225102424622,0.4862229824066162,0.0009523058996869,-0.0004380898930831,0.0015151874213398,0.0026255249977111,-0.0089795589447021,-0.0073785781860351,2,0,-32767,-32767
23.0,1788523829022,0.0,0.0,0.0001957358326762,0.004592312965542,-0.862189769744873,0.5065644979476929,0.0,0.0,0.0,0.0,-1.828022733185719e-09,0.0,0.0001732092350721,0.0046274103224277,-0.8738308548927307,0.486207902431488,0.0005646688873495,-0.0009327508962363,0.0021318764924849,-0.0044389963150024,-0.0500821471214294,-0.0023136138916015,0,0,-32767,-32767
23.1,1788523829122,0.0,0.0,0.0001957358326762,0.004592312965542,-0.862189769744873,0.5065644979476929,0.0,0.0,0.0,0.0,-1.3457047698395286e-09,0.0,0.0002067033201456,0.0046408977359533,-0.8738488554954529,0.4861756563186645,7.747916579524148e-05,0.001176976881654,-0.0007868512593571,-0.0269214510917663,-0.005086600780487,-0.0272483825683593,4,0,-32767,-32767
23.2,1788523829222,0.0,0.0,0.0001957358326762,0.004592312965542,-0.862189769744873,0.5065644979476929,0.0,0.0,0.0,0.0,-1.8201598006584163e-09,0.0,0.0002318639308214,0.0046332450583577,-0.8738377690315247,0.4861955940723419,-0.0013378030747842,0.0026037694236712,-0.0016672878289799,0.0342132449150085,-0.0058228969573974,0.0234346389770507,1,0,-32767,-32767
23.3,1788523829322,0.0,0.0,0.0001957358326762,0.004592312965542,-0.862189769744873,0.5065644979476929,0.0,0.0,0.0,0.0,-1.8566748138937326e-09,0.0,0.0002711564302444,0.0046413177624344,-0.8738014101982117,0.4862608015537262,-0.0004675438127328,-0.0009594493309703,0.0006124969529126,0.0207716822624206,0.0264674425125122,-0.005110740661621,3,0,-32767,-32767
23.4,1788523829422,0.0,0.0,0.0001957358326762,0.004592312965542,-0.862189769744873,0.5065644979476929,0.0,0.0,0.0,0.0,-1.7865711132714066e-09,0.0,0.0002462221309542,0.0046144146472215,-0.8738150000572205,0.4862364828586578,0.000776173641345,-0.001317117310421,0.0011505860926931,-0.0176256299018859,-0.0312173962593078,-0.0075054168701171,2,0,-32767,-32767
23.5,1788523829522,0.0,0.0,0.0001957358326762,0.004592312965542,-0.862189769744873,0.5065644979476929,0.0,0.0,0.0,0.0,-1.8219822317533383e-09,0.0,0.0002470919862389,0.0045958142727613,-0.8738299608230591,0.4862100183963775,-9.573000656949188e-05,0.0012646171242397,-0.0027209032188134,0.0342451930046081,-0.0459686517715454,-8.20159912109375e-05,2,0,-32767,-32767
23.6,1788523829622,0.0,0.0,0.0001957358326762,0.004592312965542,-0.862189769744873,0.5065644979476929,0.0,0.0,0.0,0.0,-1.902635826667165e-09,0.0,0.0002660937607288,0.0045803878456354,-0.873816967010498,0.4862334132194519,-0.0002748229382313,0.000299423975352,-0.0018614319460435,0.016405701637268,-0.0195198655128479,0.0072278976440429,4,0,-32767,-32767
23.7,1788523829722,0.0,0.0,0.0001957358326762,0.004592312965542,-0.862189769744873,0.5065644979476929,0.0,0.0,0.0,0.0,-1.8153527570063943e-09,0.0,0.0003081494942307,0.0045909192413091,-0.8738122582435608,0.4862417578697204,0.0002252811268614,0.0007541950518914,0.0019357354362867,0.0191540122032165,0.0325173139572143,-0.0157146453857421,0,0,-32767,-32767
23.8,1788523829822,0.0,0.0,0.0001957358326762,0.004592312965542,-0.862189769744873,0.5065644979476929,0.0,0.0,0.0,0.0,-1.8156732783936038e-09,0.0,0.0003204410895705,0.0045787757262587,-0.8738322257995605,0.4862059354782104,0.000430488540587,-6.654867087226819e-05,-0.0009703373024074,0.0138128995895385,-0.0307034850120544,-0.0107860565185546,1,0,-32767,-32767
23.9,1788523829922,0.0,0.0,0.0001957358326762,0.004592312965542,-0.862189769744873,0.5065644979476929,0.0,0.0,0.0,0.0,-1.8233818899204834e-09,0.0,0.0003367215394973,0.0045893564820289,-0.8738164901733398,0.4862339198589325,-0.000272596382283,0.0011692743580855,-0.0018393410189031,0.023093819618225,-0.0307523012161254,7.534027099609375e-05,6,0,-32767,-32767
24.0,1788523830022,0.0,0.0,0.0001957358326762,0.004592312965542,-0.862189769744873,0.5065644979476929,0.0,0.0,0.0,0.0,-1.856280240630781e-09,0.0,0.0003352221101522,0.0045517729595303,-0.873787522315979,0.4862863719463348,0.0013188084014059,-0.0008187914515459,0.0024317367297225,0.0101096034049987,0.0242756605148315,0.0039987564086914,3,0,-32767,-32767
24.1,1788523830122,0.0,0.0,0.0001957358326762,0.004592312965542,-0.862189769744873,0.5065644979476929,0.0,0.0,0.0,0.0,-1.8183604622024063e-09,0.0,0.0003245072439312,0.0045695509761571,-0.8738036751747131,0.4862572848796844,-0.0002959553340682,0.0015098741985478,0.0013388604737244,-0.0113176107406616,-0.029011845588684,-0.0216379165649414,2,0,-32767,-32767
24.2,1788523830222,0.0,0.0,0.0001957358326762,0.004592312965542,-0.862189769744873,0.5065644979476929,0.0,0.0,0.0,0.0,-1.7896707449338576e-09,0.0,0.00028514303267,0.0045704646036028,-0.8737998604774475,0.4862642288208008,-0.0007209093531284,-0.0010846721645665,-0.0011135941522019,-0.0211652517318725,-0.0036947727203369,0.0108308792114257,5,0,-32767,-32767
24.3,1788523830322,0.0,0.0,0.0001957358326762,0.004592312965542,-0.862189769744873,0.5065644979476929,0.0,0.0,0.0,0.0,-1.8176250504708942e-09,0.0,0.0003229435533285,0.0045820055529475,-0.873774528503418,0.4863096475601196,-0.000215602060641,0.0009678545623438,0.0001989933948247,0.0210338234901428,0.0304300189018249,-0.0102252960205078,3,0,-32767,-32767
24.4,1788523830422,0.0,0.0,0.0001957358326762,0.004592312965542,-0.862189769744873,0.5065644979476929,0.0,0.0,0.0,0.0,-1.8595012196698235e-09,0.0,0.0003839842975139,0.0046125380322337,-0.873785138130188,0.4862900972366333,0.0009066974572311,8.087760418280187e-05,0.0019860376284245,0.0061573386192321,0.0051890611648559,-0.0033063888549804,1,0,-32767,-32767
24.5,1788523830522,0.0,0.0,0.0001957358326762,0.004592312965542,-0.862189769744873,0.5065644979476929,0.0,0.0,0.0,0.0,-1.851883757453265e-09,0.0,0.0004109842702746,0.0046416139230132,-0.8737901449203491,0.4862809181213379,0.0005889829656975,0.0023984342207282,0.0008247177114042,-0.0038701891899108,-0.0107017159461975,-0.0070562362670898,1,0,-32767,-32767
24.6,1788523830622,0.0,0.0,0.0001957358326762,0.004592312965542,-0.862189769744873,0.5065644979476929,0.0,0.0,0.0,0.0,-1.7799848262001203e-09,0.0,0.000460353679955,0.0046598128974437,-0.8737815022468567,0.4862961769104004,-0.0001058730193261,0.000638627514277,-0.0016797964664554,-0.0082649588584899,-0.0108841657638549,-0.0034799575805664,0,0,-32767,-32767
24.7,1788523830722,0.0,0.0,0.0001957358326762,0.004592312965542,-0.862189769744873,0.5065644979476929,0.0,0.0,0.0,0.0,-1.3800049991630203e-09,0.0,0.0004695076495409,0.0046406099572777,-0.8737536668777466,0.4863463342189789,0.0012464080325647,-0.0019054493438168,0.0026918074649356,0.0276756882667541,-0.0112413763999938,-0.0122404098510742,5,0,-32767,-32767
24.8,1788523830822,0.0,0.0,0.0001957358326762,0.004592312965542,-0.862189769744873,0.5065644979476929,0.0,0.0,0.0,0.0,-1.8665082812674427e-09,0.0,0.0004814602434635,0.0045974217355251,-0.8737485408782959,0.4863560199737549,0.0016234125952611,-0.0025759528463084,0.0034291302912561,-0.0013133883476257,0.0273918509483337,-0.0085258483886718,6,0,-32767,-32767
24.9,1788523830922,0.0,0.0,0.0001957358326762,0.004592312965542,-0.862189769744873,0.5065644979476929,0.0,0.0,0.0,0.0,-1.820013806330678e-09,0.0,0.0004676505923271,0.0046197362244129,-0.8737749457359314,0.4863083958625793,-0.0006320166350796,-0.0002518690284052,-0.0024020994193751,0.0021247863769531,-0.0350809693336486,0.0090341567993164,4,0,-32767,-32767
25.0,1788523831022,0.0,0.0,0.0001957358326762,0.004592312965542,-0.862189769744873,0.5065644979476929,0.0,0.0,0.0,0.0,-1.8166438353617311e-09,0.0,0.0004654936492443,0.0046092728152871,-0.8737586736679077,0.4863375425338745,0.0004218592225241,0.0009684239490956,-0.0002541416214874,0.0145443081855773,-0.0316488146781921,0.0091524124145507,6,0,-32767,-32767
25.1,1788523831122,0.0,0.0,0.0001957358326762,0.004592312965542,-0.862189769744873,0.5065644979476929,0.0,0.0,0.0,0.0,-1.8004517876590851e-09,0.0,0.0004977602511644,0.0045835571363568,-0.8737637996673584,0.486328661441803,0.00140422904671,-0.0007859950776028,0.0021225621550936,0.0220851898193359,0.0323454737663269,-0.0028982162475585,0,0,-32767,-32767
25.2,1788523831222,0.0,0.0,0.0001957358326762,0.004592312965542,-0.862189769744873,0.5065644979476929,0.0,0.0,0.0,0.0,-1.857145326411569e-09,0.0,0.0005375826731324,0.0046236161142587,-0.8737913370132446,0.4862787425518036,0.000401406295369,0.0028324339564983,0.0001081440592042,-0.0164253115653991,-0.0140913724899292,0.0037441253662109,3,0,-32767,-32767
25.3,1788523831322,0.0,0.0,0.0001957358326762,0.004592312965542,-0.862189769744873,0.5065644979476929,0.0,0.0,0.0,0.0,-1.8554807690307482e-09,0.0,0.0005318969488143,0.0046083331108093,-0.8737842440605164,0.4862915873527527,-0.0011760908853573,0.0002686744541161,-0.0015127580159547,-0.0004444122314453,-0.0142124891281127,-0.0087223052978515,3,0,-32767,-32767
25.4,1788523831422,0.0,0.0,0.0001957358326762,0.004592312965542,-0.862189769744873,0.5065644979476929,0.0,0.0,0.0,0.0,-1.813464378663809e-09,0.0,0.0005796663463115,0.0045971050858497,-0.8737816214561462,0.486296534538269,0.0002407900776669,0.0006121564199732,-0.0004388820881671,0.0217715501785278,-0.0041151642799377,-0.0031147003173828,2,0,-32767,-32767
25.5,1788523831522,0.0,0.0,0.0001957358326762,0.004592312965542,-0.862189769744873,0.5065644979476929,0.0,0.0,0.0,0.0,-1.879323141551481e-09,0.0,0.0006087534129619,0.0046284478157758,-0.8737949132919312,0.4862722158432007,5.220547214903497e-05,0.0013054259277123,0.000982329751751,0.0083001852035522,-0.0108909606933593,-0.0229930877685546,1,0,-32767,-32767
25.6,1788523831622,0.0,0.0,0.0001957358326762,0.004592312965542,-0.862189769744873,0.5065644979476929,0.0,0.0,0.0,0.0,-1.748238442900174e-09,0.0,0.0005878889933228,0.0046290280297398,-0.8738020658493042,0.4862593710422516,-0.0002611865447187,0.001058592984637,-0.0020343331437763,0.0131028294563293,-0.0468474626541137,0.0127134323120117,5,0,-32767,-32767
25.7,1788523831722,0.0,0.0,0.0001957358326762,0.004592312965542,-0.862189769744873,0.5065644979476929,0.0,0.0,0.0,0.0,-1.8200416729285958e-09,0.0,0.0005802372470498,0.0045964373275637,-0.8737969398498535,0.4862688183784485,-0.0004552835391007,0.0007942442753729,-0.0027489902291689,0.0361384153366088,-0.0148131251335144,-0.0120620727539062,1,0,-32767,-32767
25.8,1788523831822,0.0,0.0,0.0001957358326762,0.004592312965542,-0.862189769744873,0.5065644979476929,0.0,0.0,0.0,0.0,-1.8160559722701919e-09,0.0,0.000635259784758,0.0045908270403742,-0.8737781047821045,0.486302763223648,0.0018290216875336,0.0007657944623337,0.0018945388684603,0.0100458264350891,0.0168636441230773,-0.0065956115722656,2,0,-32767,-32767
25.9,1788523831922,0.0,0.0,0.0001957358326762,0.004592312965542,-0.862189769744873,0.5065644979476929,0.0,0.0,0.0,0.0,-1.8639492171956813e-09,0.0,0.0006384961307048,0.0045805163681507,-0.8738071322441101,0.4862506985664367,0.0004175851340214,0.0014906481682857,-0.0007820758374755,-0.0009323358535766,-0.0427684187889099,0.0162773132324218,1,0,-32767,-32767
26.0,1788523832022,0.0,0.0,0.0001957358326762,0.004592312965542,-0.862189769744873,0.5065644979476929,0.0,0.0,0.0,0.0,-1.8260823964055815e-09,0.0,0.0006880080327391,0.0045921318233013,-0.8738133907318115,0.4862392246723175,-0.0001063119565584,0.0034539708828019,-0.0027291370227002,0.0179839134216308,0.0036838054656982,0.0149307250976562,2,0,-32767,-32767
26.1,1788523832122,0.0,0.0,0.0001957358326762,0.004592312965542,-0.862189769744873,0.5065644979476929,0.0,0.0,0.0,0.0,-1.8515566857502106e-09,0.0,0.0007120175287127,0.004581706598401,-0.8737958073616028,0.4862708449363708,5.103909345599969e-05,0.0004536770003285,0.0010909050162341,0.0238499045372009,-0.0018995404243469,-0.013808250427246,0,0,-32767,-32767
26.2,1788523832222,0.0,0.0,0.0004869161639362,0.004595807287842,-0.8620999455451965,0.5067172646522522,0.0,0.0,0.0,0.0,1.2102673307978762e-09,0.0,0.0006879940629005,0.0045868614688515,-0.8738133311271667,0.4862394034862518,0.0005765570676575,-0.0013733235379999,0.0015024001738045,-0.0035926699638366,-0.0538049936294555,0.0072183609008789,7,0,-32767,-32767
26.3,1788523832322,0.0,0.0,0.0004869161639362,0.004595807287842,-0.8620999455451965,0.5067172646522522,0.0,0.0,0.0,0.0,1.2254494086150203e-09,0.0,0.0006891237571835,0.0045848209410905,-0.8738216757774353,0.4862243831157684,-0.0007907988618604,-0.0006033247075419,-0.002471084587121,0.037773311138153,0.0019133687019348,-0.0029172897338867,8,0,-32767,-32767
26.4,1788523832422,0.0,0.0,0.0004869161639362,0.004595807287842,-0.8620999455451965,0.5067172646522522,0.0,0.0,0.0,0.0,1.231986623828618e-09,0.0,0.0006854934617877,0.0045490758493542,-0.8738178610801697,0.486231654882431,-0.0008282556757541,0.0005918060305138,-0.0009738988822168,-0.0020681619644165,-0.003937542438507,-0.0175666809082031,0,0,-32767,-32767
26.5,1788523832522,0.0,0.0,0.0004869161639362,0.004595807287842,-0.8620999455451965,0.5067172646522522,0.0,0.0,0.0,0.0,1.2133456461782544e-09,0.0,0.0007118918001651,0.0045323343947529,-0.8738106489181519,0.486244648694992,0.0006411018946536,-0.0016441490038664,0.0023900224660864,0.0021886825561523,-0.0036739706993103,0.03704833984375,1,0,-32183,-32183
26.6,1788523832622,0.0,0.0,0.0004869161639362,0.004595807287842,-0.8620999455451965,0.5067172646522522,0.0,0.0,0.0,0.0,1.2107371771818976e-09,0.0,0.0007175942882895,0.0045238425955176,-0.8738274574279785,0.4862145781517029,-0.0002302735442632,0.0004765953622618,0.0011213915687343,-0.0012932419776916,-0.0109415054321289,0.0208110809326171,2,0,0,0
26.7,1788523832722,0.0,0.0,0.0004869161639362,0.004595807287842,-0.8620999455451965,0.5067172646522522,0.0,0.0,0.0,0.0,9.2522400851891e-10,0.0,0.0007269596680998,0.0045043118298053,-0.8738448023796082,0.4861834943294525,-3.873895132512728e-05,0.0016375123754682,-0.0028288644629205,0.0201992988586425,-0.01858651638031,0.0262727737426757,4,0,0,0
26.8,1788523832822,0.0,0.0,0.0004869161639362,0.004595807287842,-0.8620999455451965,0.5067172646522522,0.0,0.0,0.0,0.0,1.2098164692275761e-09,0.0,0.0008171861991286,0.0045086275786161,-0.8738400340080261,0.4861920773983001,0.0010785099719501,0.0001477543525687,0.0016349825484018,0.0145702362060546,-0.0122265815734863,0.0316705703735351,2,0,0,0
26.9,1788523832922,0.0,0.0,0.0004869161639362,0.004595807287842,-0.8620999455451965,0.5067172646522522,0.0,0.0,0.0,0.0,1.2662023651799359e-09,0.0,0.0008130054920911,0.0044795246794819,-0.8738464713096619,0.4861806333065033,0.0015273485540625,-0.0012877624976929,0.0022180169528447,0.0357091426849365,0.0231593251228332,0.042825698852539,1,0,0,0
27.0,1788523833022,0.0,0.0,0.0004869161639362,0.004595807287842,-0.8620999455451965,0.5067172646522522,0.0,0.0,0.0,0.0,1.2105264568518235e-09,0.0,0.0007988736033439,0.0044530117884278,-0.8738639950752258,0.486149400472641,0.0002863916977599,-0.0001853533479466,-0.0012300991475088,-0.0060866475105285,-0.0382091999053955,0.0403470993041992,1,0,0,0
27.1,1788523833122,0.0,0.0,0.0004869161639362,0.004595807287842,-0.8620999455451965,0.5067172646522522,0.0,0.0,0.0,0.0,9.114097254681041e-10,0.0,0.0007539447396993,0.0044818120077252,-0.8738413453102112,0.4861898422241211,-0.001644230017599,-0.0006821088152002,-0.0013455062737469,0.0033174157142639,0.0165201425552368,0.0066747665405273,0,0,0,0
27.2,1788523833222,0.0,0.0,0.0004869161639362,0.004595807287842,-0.8620999455451965,0.5067172646522522,0.0,0.0,0.0,0.0,1.195627263861354e-09,0.0,0.0006500743329524,0.0044766580685973,-0.8738362789154053,0.4861991107463836,-0.0007399414681178,-0.0031676760056169,0.0009316852686733,0.0109151005744934,0.0249316692352294,0.0161867141723632,0,0,0,0
27.3,1788523833322,0.0,0.0,0.0004869161639362,0.004595807287842,-0.8620999455451965,0.5067172646522522,0.0,0.0,0.0,0.0,1.236334035148445e-09,0.0,0.0005788151174783,0.0044992994517087,-0.8738628029823303,0.4861513674259186,-0.0014581135852953,-0.0003790103897199,0.0007963173732251,-0.0296013951301574,0.0030748844146728,-0.0130643844604492,0,0,0,0
27.4,1788523833422,0.0,0.0,0.0004869161639362,0.004595807287842,-0.8620999455451965,0.5067172646522522,0.0,0.0,0.0,0.0,1.21022603050136e-09,0.0,0.0005245925858616,0.0045303152874112,-0.8738764524459839,0.4861268103122711,-0.0010010584356857,0.0006755142044719,-0.0028301202835626,0.0191725492477417,-0.030061662197113,0.0122556686401367,3,0,0,0
27.5,1788523833522,0.0,0.0,0.0004869161639362,0.004595807287842,-0.8620999455451965,0.5067172646522522,0.0,0.0,0.0,0.0,9.091384867154772e-10,0.0,0.0004479214549064,0.004538582637906,-0.8738661408424377,0.4861452877521515,-0.0004258937455975,-0.0021618519660295,-0.001124922161496,-0.011866271495819,0.0488935708999633,-8.0108642578125e-05,0,0,0,0
27.6,1788523833622,0.0,0.0,0.0004869161639362,0.004595807287842,-0.8620999455451965,0.5067172646522522,0.0,0.0,0.0,0.0,1.2134148130726883e-09,0.0,0.00040671415627,0.0045579476282,-0.8738629221916199,0.4861508011817932,7.547069412556384e-05,-0.0008480731657851,0.003103004115827,-0.0103918313980102,0.0219698548316955,-0.0238533020019531,0,0,0,0
27.7,1788523833722,0.0,0.0,0.0004869161639362,0.004595807287842,-0.8620999455451965,0.5067172646522522,0.0,0.0,0.0,0.0,1.2369706370307654e-09,0.0,0.0003533214330673,0.0045776274055242,-0.8738700151443481,0.4861379265785217,-0.001073641662054,0.0005750154208692,-0.0017953728611276,-0.0150490403175354,-0.0275403261184692,0.012129783630371,2,0,0,0
27.8,1788523833822,0.0,0.0,0.0004869161639362,0.004595807287842,-0.8620999455451965,0.5067172646522522,0.0,0.0,0.0,0.0,1.2332029841743972e-09,0.0,0.0003117872402071,0.0045402543619275,-0.8738493919372559,0.4861752688884735,0.0003786190380878,-0.0003614784065078,-0.0013233945444493,0.0171621441841125,0.0004966259002685,0.002349853515625,0,0,0,0
27.9,1788523833922,0.0,0.0,0.0004869161639362,0.004595807287842,-0.8620999455451965,0.5067172646522522,0.0,0.0,0.0,0.0,9.186518767911878e-10,0.0,0.0002510854974389,0.0045121433213353,-0.8738243579864502,0.4862206876277923,-0.0002052251823274,-0.0030410165931926,0.0029295637396323,-0.0072613358497619,-0.0010125041007995,0.007796287536621,0,0,0,0
28.0,1788523834022,0.0,0.0,0.0004869161639362,0.004595807287842,-0.8620999455451965,0.5067172646522522,0.0,0.0,0.0,0.0,1.212640099446105e-09,0.0,0.0002169087529182,0.0045180581510066,-0.8738559484481812,0.4861637949943542,-0.0002270000313031,-0.0013286135240365,-0.000102810346952,-0.0218381285667419,-0.0237774848937988,0.0147390365600585,3,0,0,0
28.1,1788523834122,0.0,0.0,0.0004869161639362,0.004595807287842,-0.8620999455451965,0.5067172646522522,0.0,0.0,0.0,0.0,1.2373122526554423e-09,0.0,0.0001668892800807,0.0045130942016839,-0.8738611936569214,0.4861546158790588,-0.0012938174544157,0.000319774436712,-0.0018609873786303,-0.0059552192687988,-0.0068169236183166,-0.0118789672851562,4,0,0,0
28.2,1788523834222,0.0,0.0,0.0004869161639362,0.004595807287842,-0.8620999455451965,0.5067172646522522,0.0,0.0,0.0,0.0,1.210572642129648e-09,0.0,0.000140231102705,0.0045105535537004,-0.8738255500793457,0.486218512058258,-0.0002216850748117,-0.0008481361550603,8.511020436907982e-05,0.004797339439392,0.005783200263977,0.0027408599853515,0,0,0,0
28.3,1788523834322,0.0,0.0,0.0002041874686256,0.0045457477681338,-0.8620930910110474,0.5067295432090759,3.884543837322215e-05,-4.674193571178156e-05,-1.3379097888155378e-07,-0.0031363971065729,-0.0084297144785523,0.000399481941713,9.931065142154694e-05,0.004534306935966,-0.8738148212432861,0.4862375855445862,-0.0002728973002618,-0.0007583652123754,0.0035130247434689,-0.0081526041030883,0.0282267928123474,-0.0003480911254882,1,0,0,0
28.4,1788523834422,0.0,0.0,0.0002041874686256,0.0045457477681338,-0.8620930910110474,0.5067295432090759,0.0,0.0,0.0,0.0,1.1927879794981775e-09,0.0,6.346218287944794e-05,0.0045454362407326,-0.8738310933113098,0.4862085282802582,0.0002741075361968,-0.0007898825223113,-0.0008010932650064,-0.0296854972839355,0.0020090341567993,0.0067434310913085,1,0,0,0
28.5,1788523834522,0.0,1.4647886753082275,0.0002041874686256,0.0045457477681338,-0.8620930910110474,0.5067295432090759,0.0,0.0,0.0,0.0,1.2354949285864334e-09,0.0,3.31830233335495e-06,0.0045877592638134,-0.8735057711601257,0.4867921769618988,-0.005522620507148,-0.0030039892327227,0.0387421470954502,0.8569484949111938,0.2687200307846069,-0.0601177215576171,0,385,-18122,9537
28.6,1788523834622,0.0,3.577464818954468,0.0001169866882264,0.0046806302852928,-0.8578546047210693,0.5138711929321289,0.0391786273988536,-0.0051032898310687,-1.7448454234821796e-06,-0.0032224666792899,0.0030107737984508,0.3156048953533172,0.0001793829724192,0.0048435255885124,-0.8603671789169312,0.5096516013145447,-0.0066872406559715,-0.0059372556845161,0.5193654861248311,-0.0153069496154785,0.0476983189582824,-0.1063776016235351,0,79,-32767,10442
28.7,1788523834722,0.0,3.3521127700805664,7.539894431829453e-05,0.0047657983377575,-0.8429304361343384,0.5380014181137085,0.0642849488326906,-0.001007957393219,1.2420434445096415e-05,-0.0006570040131919,-0.004523096140474,0.5050466656684875,0.0001385994255542,0.0048615988343954,-0.849015474319458,0.5283457636833191,-0.0084458345133432,-0.0031014496664448,0.4637517714957301,-0.0520046353340148,0.0811375975608825,-0.0686426162719726,0,115,-32767,10169
28.8,1788523834822,0.0,2.422535181045532,3.9411475881934166e-05,0.0049356231465935,-0.8299230337142944,0.5578561425209045,0.0524470683639038,-0.0004529945613202,1.762229269358993e-06,-0.0034172190353274,-0.0006447651539929,0.4986097514629364,9.07769426703453e-05,0.0049602156504988,-0.8367525339126587,0.5475589036941528,-0.0052129875413509,-0.0105994213349854,0.4934239847336605,-0.0010071992874145,0.1666291356086731,0.1621742248535156,2,13,-32767,4242
28.9,1788523834922,0.0,0.0,0.0001580754760652,0.0054038227535784,-0.8181144595146179,0.5750300884246826,0.0424315851855166,-0.0048264793704464,-6.831342415623611e-06,-0.0097623234614729,0.008362328633666,0.3643569946289062,0.0002200854942202,0.005443169735372,-0.8292277455329895,0.5588843822479248,-0.0045160361961671,-0.0002365982076287,0.0034307872443447,-0.195456326007843,-0.0392376184463501,-0.1475706100463867,3,0,0,0
29.0,1788523835022,0.0,0.0,3.981613554060459e-05,0.0053976504132151,-0.8161553144454956,0.5778074264526367,-0.0032798241426965,0.0010866886120932,5.191482237647129e-07,-0.0010567030403763,-0.0044250576756894,-0.0215102788060903,3.043748438358307e-05,0.0052147051319479,-0.8299463987350464,0.5578187108039856,0.0040484931457899,0.003867501075796,0.0056750825188664,0.0582345724105834,0.0944439768791198,0.0309028625488281,4,0,0,0
29.1,1788523835122,0.0,0.0,-6.504054181277752e-05,0.0053288456983864,-0.8163977861404419,0.577465295791626,-0.0006452145526587,0.0009321036341456,5.0617233889344e-07,0.0,-1.956707240680089e-09,0.0,6.125308573246002e-05,0.0052649332210421,-0.8297896385192871,0.558051347732544,-0.001269663996974,0.0005277040631276,-0.0039887401330037,0.0284668207168579,-0.0706956386566162,0.0816478729248046,2,0,0,0
29.2,1788523835222,0.0,0.0,-6.504054181277752e-05,0.0053288456983864,-0.8163977861404419,0.577465295791626,0.0,0.0,0.0,0.0,-2.5460293873180717e-09,0.0,0.0001069968566298,0.0053028482943773,-0.8297745585441589,0.5580734610557556,-0.0005379302698399,-7.054292513436507e-06,-0.0032922477807605,-0.0005962252616882,-0.0181258916854858,0.0297584533691406,4,0,0,0
29.3,1788523835322,0.0,0.0,-6.504054181277752e-05,0.0053288456983864,-0.8163977861404419,0.577465295791626,0.0,0.0,0.0,0.0,-2.545998079028777e-09,0.0,0.0001250496134161,0.0052732145413756,-0.829747200012207,0.5581143498420715,0.0013559721863793,-0.0012861347299718,0.001681685799669,-0.020262062549591,-0.0132794976234436,0.0099172592163085,2,0,0,0
29.4,1788523835422,0.0,0.0,-6.504054181277752e-05,0.0053288456983864,-0.8163977861404419,0.577465295791626,0.0,0.0,0.0,0.0,-2.594857217985691e-09,0.0,0.0001241052523255,0.0052817603573203,-0.8297671675682068,0.5580846667289734,0.0002957855211239,-3.886071991939779e-05,0.0009860572316187,-0.0167759656906127,-0.0492650866508483,0.0402173995971679,4,0,0,0
29.5,1788523835522,0.0,0.0,-6.504054181277752e-05,0.0053288456983864,-0.8163977861404419,0.577465295791626,0.0,0.0,0.0,0.0,-1.94632154837393e-09,0.0,0.0001067817211151,0.005270785652101,-0.829768717288971,0.558082640171051,0.0008329468819053,0.0012057945714772,-0.0023409124284835,-0.0226193666458129,-0.016988456249237,0.0493907928466796,3,0,0,0
29.6,1788523835622,0.0,0.0,-6.504054181277752e-05,0.0053288456983864,-0.8163977861404419,0.577465295791626,0.0,0.0,0.0,0.0,-2.621352468423765e-09,0.0,0.0001357179135084,0.00526774674654,-0.8297337889671326,0.5581345558166504,-4.792173253041577e-05,-0.0007348471002849,-0.0009834099039273,0.0174004435539245,0.004269003868103,0.03900146484375,2,0,0,0
29.7,1788523835722,0.0,0.0,-6.504054181277752e-05,0.0053288456983864,-0.8163977861404419,0.577465295791626,0.0,0.0,0.0,0.0,-2.5818682747313915e-09,0.0,0.0001684604212641,0.0053022531792521,-0.8297371864318848,0.5581290125846863,0.000432181115617,-0.0005423781075237,0.002398192080905,-0.0070757269859313,-0.0109162926673889,0.012984275817871,0,0,0,0
29.8,1788523835822,0.0,0.0,-6.504054181277752e-05,0.0053288456983864,-0.8163977861404419,0.577465295791626,0.0,0.0,0.0,0.0,-2.5793349678338014e-09,0.0,0.0001783873885869,0.005303157493472,-0.8297430872917175,0.5581201910972595,0.0002980530274654,0.0008493141367267,0.0004550226013174,-0.018451988697052,-0.0348358154296875,-0.00347900390625,0,0,0,0
29.9,1788523835922,0.0,0.0,-6.504054181277752e-05,0.0053288456983864,-0.8163977861404419,0.577465295791626,0.0,0.0,0.0,0.0,-1.937269011875742e-09,0.0,0.0001685749739408,0.0052770525217056,-0.8297409415245056,0.5581236481666565,-0.0003672226957108,-0.0001798697268118,-0.0022328724594435,-0.003071129322052,-0.0189593434333801,-0.0105676651000976,0,0,0,0
30.0,1788523836022,0.0,0.0,-6.504054181277752e-05,0.0053288456983864,-0.8163977861404419,0.577465295791626,0.0,0.0,0.0,0.0,-2.563411927170023e-09,0.0,0.0001328140497207,0.0052409498021006,-0.8297248482704163,0.5581480860710144,-5.055433182256935e-05,-0.0019780915548632,-0.000453523378917,0.0133503675460815,-0.0103415846824646,0.0323390960693359,4,0,0,0
30.1,1788523836122,0.0,0.0,-6.504054181277752e-05,0.0053288456983864,-0.8163977861404419,0.577465295791626,0.0,0.0,0.0,0.0,-2.5957496152528847e-09,0.0,0.0001435196027159,0.0052414713427424,-0.8297210931777954,0.5581536293029785,0.0018664919610836,0.0004795527228355,0.0022130820205837,-0.0061467289924621,0.0294965505599975,-0.0018682479858398,1,0,0,0
30.2,1788523836222,0.0,0.0,-6.504054181277752e-05,0.0053288456983864,-0.8163977861404419,0.577465295791626,0.0,0.0,0.0,0.0,-2.643815166791796e-09,0.0,0.000151184387505,0.0052302312105894,-0.8297366499900818,0.5581305623054504,-0.0003978928388593,0.0009677051889072,-0.0020377041420097,0.0226747989654541,0.0236345529556274,-0.0036649703979492,2,0,0,0
30.3,1788523836322,0.0,0.0,-6.504054181277752e-05,0.0053288456983864,-0.8163977861404419,0.577465295791626,0.0,0.0,0.0,0.0,-1.9146471075259797e-09,0.0,0.0001311590895056,0.0052140746265649,-0.8297181129455566,0.558158278465271,-0.0007063137438609,-0.0006214766023341,0.0004474498698632,0.0081294178962707,0.0033828616142272,-0.0165071487426757,1,0,0,0
30.4,1788523836422,0.0,0.0,-6.504054181277752e-05,0.0053288456983864,-0.8163977861404419,0.577465295791626,0.0,0.0,0.0,0.0,-2.592597692085974e-09,0.0,8.88453796505928e-05,0.0052221966907382,-0.8297063112258911,0.5581756830215454,0.0004766197841946,-0.0014414077836085,0.0031973423888485,0.0201954841613769,-0.0003705620765686,0.0104360580444335,1,0,0,0
30.5,1788523836522,0.0,0.0,-6.504054181277752e-05,0.0053288456983864,-0.8163977861404419,0.577465295791626,0.0,0.0,0.0,0.0,-2.569906509819475e-09,0.0,7.516518235206604e-05,0.0052732387557625,-0.8297468423843384,0.5581149458885193,-0.0002181057212308,0.001261697366896,-0.0011797624905579,-0.0204246044158935,-0.0228151082992553,-0.0241880416870117,1,0,0,0
30.6,1788523836622,0.0,0.0,-6.504054181277752e-05,0.0053288456983864,-0.8163977861404419,0.577465295791626,0.0,0.0,0.0,0.0,-2.629806372667076e-09,0.0,8.490588515996933e-05,0.0053005348891019,-0.8297162055969238,0.5581602454185486,-0.000858794951219,0.0010220531674786,-0.0007516972295402,0.0105649232864379,0.0093596577644348,0.0174779891967773,4,0,0,0
30.7,1788523836722,0.0,0.0,-6.504054181277752e-05,0.0053288456983864,-0.8163977861404419,0.577465295791626,0.0,0.0,0.0,0.0,-1.890981371488465e-09,0.0,0.0001324228942394,0.0053457245230674,-0.829700767993927,0.5581828355789185,-0.0004971608326095,0.0009069061563669,0.0003733414988699,0.0032166838645935,0.0435316562652587,-0.0004291534423828,4,0,0,0
30.8,1788523836822,0.0,0.0,-6.504054181277752e-05,0.0053288456983864,-0.8163977861404419,0.577465295791626,0.0,0.0,0.0,0.0,-2.5709976370080767e-09,0.0,0.000177726149559,0.0053881546482443,-0.8297122120857239,0.5581653118133545,0.0002331680711132,0.0005761029948491,0.0018719312035405,-0.0044424533843994,0.0181467533111572,0.0063552856445312,0,0,0,0
30.9,1788523836922,0.0,0.0,-6.504054181277752e-05,0.0053288456983864,-0.8163977861404419,0.577465295791626,0.0,0.0,0.0,0.0,-2.583447011872408e-09,0.0,0.0001862552016973,0.0053947363048791,-0.8297411203384399,0.5581223964691162,0.0009433803885032,-0.0005925338925871,-0.0019080240529568,0.0011743903160095,0.0052637457847595,0.0098066329956054,0,0,0,0
31.0,1788523837022,0.0,0.0,-6.504054181277752e-05,0.0053288456983864,-0.8163977861404419,0.577465295791626,0.0,0.0,0.0,0.0,-2.577459579100605e-09,0.0,0.0001653749495744,0.0053832400590181,-0.8297285437583923,0.5581411719322205,-0.0005635832989675,0.0002542398922259,-0.0013313080446993,-0.0099525451660156,0.014139711856842,-0.004612922668457,1,0,0,0
31.1,1788523837122,0.0,0.0,-6.504054181277752e-05,0.0053288456983864,-0.8163977861404419,0.577465295791626,0.0,0.0,0.0,0.0,-2.577307700590836e-09,0.0,0.0001741405576467,0.0053897714242339,-0.8297262191772461,0.5581445097923279,0.0006962860590316,-0.0010102343981975,0.0018646300077205,-0.0187111496925354,-0.0130672454833984,-0.0013084411621093,0,0,0,0
31.2,1788523837222,0.0,0.0,-6.504054181277752e-05,0.0053288456983864,-0.8163977861404419,0.577465295791626,0.0,0.0,0.0,0.0,-2.573769197766751e-09,0.0,0.0001495303586125,0.0054575307294726,-0.8297468423843384,0.5581132769584656,-0.0011220676612282,0.0006492032759114,0.0006817978323735,-0.0273942947387695,0.0023150444030761,0.004063606262207,0,0,0,0
31.3,1788523837322,0.0,0.0,-6.504054181277752e-05,0.0053288456983864,-0.8163977861404419,0.577465295791626,0.0,0.0,0.0,0.0,-2.6289164178905366e-09,0.0,0.0001697530969977,0.0054613519459962,-0.8297488689422607,0.5581101775169373,8.46565921591069e-05,0.0009685985793871,-0.0022074385191906,0.0089319944381713,0.0073583126068115,-0.0029487609863281,0,0,0,0
31.4,1788523837422,0.0,0.0,-6.504054181277752e-05,0.0053288456983864,-0.8163977861404419,0.577465295791626,0.0,0.0,0.0,0.0,-2.625903050557099e-09,0.0,0.0001619402319192,0.0054654721170663,-0.8297414183616638,0.5581212043762207,0.000876770114138,-0.0014501908803569,-0.0006747331745214,0.0107225179672241,0.0001938343048095,-0.0174217224121093,0,0,0,0
31.5,1788523837522,0.0,0.0,-6.504054181277752e-05,0.0053288456983864,-0.8163977861404419,0.577465295791626,0.0,0.0,0.0,0.0,-2.5495958677623776e-09,0.0,0.0001952219754457,0.0054782005026936,-0.8297553062438965,0.5581004023551941,0.0009969532008427,0.0004080537104314,0.0008039598411234,0.0183778405189514,0.0194206237792968,0.0150766372680664,3,0,0,0
31.6,1788523837622,0.0,0.0,-6.504054181277752e-05,0.0053288456983864,-0.8163977861404419,0.577465295791626,0.0,0.0,0.0,0.0,-2.575699653561969e-09,0.0,0.0001517329365015,0.0054478105157613,-0.8297800421714783,0.5580640435218811,-0.0005360506390721,-0.0004449299275001,-0.0021564229020871,-0.0221332907676696,0.0211432576179504,0.00048828125,2,0,0,0
31.7,1788523837722,0.0,0.0,-6.504054181277752e-05,0.0053288456983864,-0.8163977861404419,0.577465295791626,0.0,0.0,0.0,0.0,-2.620369254913157e-09,0.0,0.000146260485053,0.0054423762485384,-0.8297532200813293,0.5581038594245911,-0.0010662971932639,-0.0002968643344208,-0.0011638909059801,0.0099804997444152,-0.0383894443511962,0.003849983215332,0,0,0,0
31.8,1788523837822,0.0,0.0,-6.504054181277752e-05,0.0053288456983864,-0.8163977861404419,0.577465295791626,0.0,0.0,0.0,0.0,-2.524223496891409e-09,0.0,0.0001311423256993,0.0054161110892891,-0.8297333717346191,0.5581337809562683,0.0010581792268746,-0.0017382946692299,0.001860100630674,0.0201892256736755,0.0151004791259765,0.0060882568359375,0,0,0,0
31.9,1788523837922,0.0,0.0,-6.504054181277752e-05,0.0053288456983864,-0.8163977861404419,0.577465295791626,0.0,0.0,0.0,0.0,-1.940861693583429e-09,0.0,0.0001878039911389,0.0054689776152372,-0.8297677636146545,0.5580819249153137,-0.0001652938738901,0.0022269230532433,-0.0008775541486511,-0.0032739043235778,0.0118909478187561,-0.0299949645996093,2,0,0,0
