time_s,timestamp_ms,wheel_vels__velocity_left,wheel_vels__velocity_right,odom__orient_x,odom__orient_y,odom__orient_z,odom__orient_w,odom__lin_x,odom__lin_y,odom__lin_z,odom__ang_x,odom__ang_y,odom__ang_z,imu__orient_x,imu__orient_y,imu__orient_z,imu__orient_w,imu__angvel_x,imu__angvel_y,imu__angvel_z,imu__acc_x,imu__acc_y,imu__acc_z,wheel_status__current_ma_left,wheel_status__current_ma_right,wheel_status__pwm_left,wheel_status__pwm_right
0.0,1788261984551,0.0,0.0,-0.0073716659098863,0.0002754351589828,0.33633753657341,0.9417126178741456,0.0,0.0,0.0,0.0,0.0,0.0,-0.0047925561666488,-0.0056134890764951,0.946892499923706,0.3214658200740814,-0.0002030701930322,-0.0001100358877373,-2.022156274419153e-06,0.0177432894706726,-0.0188227891921997,4.38690185546875e-05,1,0,0,0
0.1,1788261984651,0.0,0.0,-0.0073716659098863,0.0002754351589828,0.33633753657341,0.9417126178741456,0.0,0.0,0.0,0.0,0.0,0.0,-0.0047925561666488,-0.0056134890764951,0.946892499923706,0.3214658200740814,-0.0002030701930322,-0.0001100358877373,-2.022156274419153e-06,0.0177432894706726,-0.0188227891921997,4.38690185546875e-05,1,0,0,0
0.2,1788261984751,0.0,0.0,-0.0073716659098863,0.0002754351589828,0.33633753657341,0.9417126178741456,0.0,0.0,0.0,0.0,0.0,0.0,-0.0047925561666488,-0.0056134890764951,0.946892499923706,0.3214658200740814,-0.0002030701930322,-0.0001100358877373,-2.022156274419153e-06,0.0177432894706726,-0.0188227891921997,4.38690185546875e-05,1,0,0,0
0.3,1788261984851,0.0,0.0,-0.0073716659098863,0.0002754351589828,0.33633753657341,0.9417126178741456,0.0,0.0,0.0,0.0,0.0,0.0,-0.0047925561666488,-0.0056134890764951,0.946892499923706,0.3214658200740814,-0.0002030701930322,-0.0001100358877373,-2.022156274419153e-06,0.0177432894706726,-0.0188227891921997,4.38690185546875e-05,1,0,0,0
0.4,1788261984951,0.0,0.0,-0.0073716659098863,0.0002754351589828,0.33633753657341,0.9417126178741456,0.0,0.0,0.0,0.0,0.0,0.0,-0.0047925561666488,-0.0056134890764951,0.946892499923706,0.3214658200740814,-0.0002030701930322,-0.0001100358877373,-2.022156274419153e-06,0.0177432894706726,-0.0188227891921997,4.38690185546875e-05,1,0,0,0
0.5,1788261985051,0.0,0.0,-0.0073716659098863,0.0002754351589828,0.33633753657341,0.9417126178741456,0.0,0.0,0.0,0.0,0.0,0.0,-0.0047925561666488,-0.0056134890764951,0.946892499923706,0.3214658200740814,-0.0002030701930322,-0.0001100358877373,-2.022156274419153e-06,0.0177432894706726,-0.0188227891921997,4.38690185546875e-05,1,0,0,0
0.6,1788261985151,0.0,0.0,-0.0073716659098863,0.0002754351589828,0.33633753657341,0.9417126178741456,0.0,0.0,0.0,0.0,0.0,0.0,-0.0047925561666488,-0.0056134890764951,0.946892499923706,0.3214658200740814,-0.0002030701930322,-0.0001100358877373,-2.022156274419153e-06,0.0177432894706726,-0.0188227891921997,4.38690185546875e-05,1,0,0,0
0.7,1788261985251,0.0,0.0,-0.0073716659098863,0.0002754351589828,0.33633753657341,0.9417126178741456,0.0,0.0,0.0,0.0,0.0,0.0,-0.0047925561666488,-0.0056134890764951,0.946892499923706,0.3214658200740814,-0.0002030701930322,-0.0001100358877373,-2.022156274419153e-06,0.0177432894706726,-0.0188227891921997,4.38690185546875e-05,1,0,0,0
0.8,1788261985351,0.0,0.0,-0.0073716659098863,0.0002754351589828,0.33633753657341,0.9417126178741456,0.0,0.0,0.0,0.0,0.0,0.0,-0.0047925561666488,-0.0056134890764951,0.946892499923706,0.3214658200740814,-0.0002030701930322,-0.0001100358877373,-2.022156274419153e-06,0.0177432894706726,-0.0188227891921997,4.38690185546875e-05,1,0,0,0
0.9,1788261985451,0.0,0.0,-0.0073716659098863,0.0002754351589828,0.33633753657341,0.9417126178741456,0.0,0.0,0.0,0.0,0.0,0.0,-0.0047925561666488,-0.0056134890764951,0.946892499923706,0.3214658200740814,-0.0002030701930322,-0.0001100358877373,-2.022156274419153e-06,0.0177432894706726,-0.0188227891921997,4.38690185546875e-05,1,0,0,0
1.0,1788261985551,0.0,0.0,-0.0073716659098863,0.0002754351589828,0.33633753657341,0.9417126178741456,0.0,0.0,0.0,0.0,0.0,0.0,-0.0047925561666488,-0.0056134890764951,0.946892499923706,0.3214658200740814,-0.0002030701930322,-0.0001100358877373,-2.022156274419153e-06,0.0177432894706726,-0.0188227891921997,4.38690185546875e-05,1,0,0,0
1.1,1788261985651,0.0,0.0,-0.0073716659098863,0.0002754351589828,0.33633753657341,0.9417126178741456,0.0,0.0,0.0,0.0,0.0,0.0,-0.0047925561666488,-0.0056134890764951,0.946892499923706,0.3214658200740814,-0.0002030701930322,-0.0001100358877373,-2.022156274419153e-06,0.0177432894706726,-0.0188227891921997,4.38690185546875e-05,1,0,0,0
1.2,1788261985751,0.0,0.0,-0.0073716659098863,0.0002754351589828,0.33633753657341,0.9417126178741456,0.0,0.0,0.0,0.0,0.0,0.0,-0.0047925561666488,-0.0056134890764951,0.946892499923706,0.3214658200740814,-0.0002030701930322,-0.0001100358877373,-2.022156274419153e-06,0.0177432894706726,-0.0188227891921997,4.38690185546875e-05,1,0,0,0
1.3,1788261985851,0.0,0.0,-0.0073716659098863,0.0002754351589828,0.33633753657341,0.9417126178741456,0.0,0.0,0.0,0.0,0.0,0.0,-0.0047925561666488,-0.0056134890764951,0.946892499923706,0.3214658200740814,-0.0002030701930322,-0.0001100358877373,-2.022156274419153e-06,0.0177432894706726,-0.0188227891921997,4.38690185546875e-05,1,0,0,0
1.4,1788261985951,0.0,0.0,-0.0073716659098863,0.0002754351589828,0.33633753657341,0.9417126178741456,0.0,0.0,0.0,0.0,0.0,0.0,-0.0047925561666488,-0.0056134890764951,0.946892499923706,0.3214658200740814,-0.0002030701930322,-0.0001100358877373,-2.022156274419153e-06,0.0177432894706726,-0.0188227891921997,4.38690185546875e-05,1,0,0,0
1.5,1788261986051,0.0,0.0,-0.0073716659098863,0.0002754351589828,0.33633753657341,0.9417126178741456,0.0,0.0,0.0,0.0,0.0,0.0,-0.0047925561666488,-0.0056134890764951,0.946892499923706,0.3214658200740814,-0.0002030701930322,-0.0001100358877373,-2.022156274419153e-06,0.0177432894706726,-0.0188227891921997,4.38690185546875e-05,1,0,0,0
1.6,1788261986151,0.0,0.0,-0.0073716659098863,0.0002754351589828,0.33633753657341,0.9417126178741456,0.0,0.0,0.0,0.0,0.0,0.0,-0.0047925561666488,-0.0056134890764951,0.946892499923706,0.3214658200740814,-0.0002030701930322,-0.0001100358877373,-2.022156274419153e-06,0.0177432894706726,-0.0188227891921997,4.38690185546875e-05,1,0,0,0
1.7,1788261986251,0.0,0.0,-0.0073716659098863,0.0002754351589828,0.33633753657341,0.9417126178741456,0.0,0.0,0.0,0.0,0.0,0.0,-0.0047925561666488,-0.0056134890764951,0.946892499923706,0.3214658200740814,-0.0002030701930322,-0.0001100358877373,-2.022156274419153e-06,0.0177432894706726,-0.0188227891921997,4.38690185546875e-05,1,0,0,0
1.8,1788261986351,0.0,0.0,-0.0073716659098863,0.0002754351589828,0.33633753657341,0.9417126178741456,0.0,0.0,0.0,0.0,0.0,0.0,-0.0047925561666488,-0.0056134890764951,0.946892499923706,0.3214658200740814,-0.0002030701930322,-0.0001100358877373,-2.022156274419153e-06,0.0177432894706726,-0.0188227891921997,4.38690185546875e-05,1,0,0,0
1.9,1788261986451,0.0,0.0,-0.0073716659098863,0.0002754351589828,0.33633753657341,0.9417126178741456,0.0,0.0,0.0,0.0,0.0,0.0,-0.0047925561666488,-0.0056134890764951,0.946892499923706,0.3214658200740814,-0.0002030701930322,-0.0001100358877373,-2.022156274419153e-06,0.0177432894706726,-0.0188227891921997,4.38690185546875e-05,1,0,0,0
2.0,1788261986551,0.0,0.0,-0.0073716659098863,0.0002754351589828,0.33633753657341,0.9417126178741456,0.0,0.0,0.0,0.0,0.0,0.0,-0.0047925561666488,-0.0056134890764951,0.946892499923706,0.3214658200740814,-0.0002030701930322,-0.0001100358877373,-2.022156274419153e-06,0.0177432894706726,-0.0188227891921997,4.38690185546875e-05,1,0,0,0
2.1,1788261986651,0.0,0.0,-0.0073716659098863,0.0002754351589828,0.33633753657341,0.9417126178741456,0.0,0.0,0.0,0.0,0.0,0.0,-0.0047925561666488,-0.0056134890764951,0.946892499923706,0.3214658200740814,-0.0002030701930322,-0.0001100358877373,-2.022156274419153e-06,0.0177432894706726,-0.0188227891921997,4.38690185546875e-05,1,0,0,0
2.2,1788261986751,0.0,0.0,-0.0073716659098863,0.0002754351589828,0.33633753657341,0.9417126178741456,0.0,0.0,0.0,0.0,0.0,0.0,-0.0047925561666488,-0.0056134890764951,0.946892499923706,0.3214658200740814,-0.0002030701930322,-0.0001100358877373,-2.022156274419153e-06,0.0177432894706726,-0.0188227891921997,4.38690185546875e-05,1,0,0,0
2.3,1788261986851,0.0,0.0,-0.0073716659098863,0.0002754351589828,0.33633753657341,0.9417126178741456,0.0,0.0,0.0,0.0,0.0,0.0,-0.0047925561666488,-0.0056134890764951,0.946892499923706,0.3214658200740814,-0.0002030701930322,-0.0001100358877373,-2.022156274419153e-06,0.0177432894706726,-0.0188227891921997,4.38690185546875e-05,1,0,0,0
2.4,1788261986951,0.0,0.0,-0.0073716659098863,0.0002754351589828,0.33633753657341,0.9417126178741456,0.0,0.0,0.0,0.0,0.0,0.0,-0.0047925561666488,-0.0056134890764951,0.946892499923706,0.3214658200740814,-0.0002030701930322,-0.0001100358877373,-2.022156274419153e-06,0.0177432894706726,-0.0188227891921997,4.38690185546875e-05,1,0,0,0
2.5,1788261987051,0.0,0.0,-0.0073716659098863,0.0002754351589828,0.33633753657341,0.9417126178741456,0.0,0.0,0.0,0.0,0.0,0.0,-0.0047925561666488,-0.0056134890764951,0.946892499923706,0.3214658200740814,-0.0002030701930322,-0.0001100358877373,-2.022156274419153e-06,0.0177432894706726,-0.0188227891921997,4.38690185546875e-05,1,0,0,0
2.6,1788261987151,0.0,0.0,-0.0073716659098863,0.0002754351589828,0.33633753657341,0.9417126178741456,0.0,0.0,0.0,0.0,0.0,0.0,-0.0047925561666488,-0.0056134890764951,0.946892499923706,0.3214658200740814,-0.0002030701930322,-0.0001100358877373,-2.022156274419153e-06,0.0177432894706726,-0.0188227891921997,4.38690185546875e-05,1,0,0,0
2.7,1788261987251,0.0,0.0,-0.0073716659098863,0.0002754351589828,0.33633753657341,0.9417126178741456,0.0,0.0,0.0,0.0,0.0,0.0,-0.0047925561666488,-0.0056134890764951,0.946892499923706,0.3214658200740814,-0.0002030701930322,-0.0001100358877373,-2.022156274419153e-06,0.0177432894706726,-0.0188227891921997,4.38690185546875e-05,1,0,0,0
2.8,1788261987351,0.0,0.0,-0.0073716659098863,0.0002754351589828,0.33633753657341,0.9417126178741456,0.0,0.0,0.0,0.0,0.0,0.0,-0.0047925561666488,-0.0056134890764951,0.946892499923706,0.3214658200740814,-0.0002030701930322,-0.0001100358877373,-2.022156274419153e-06,0.0177432894706726,-0.0188227891921997,4.38690185546875e-05,1,0,0,0
2.9,1788261987451,0.0,0.0,-0.0073716659098863,0.0002754351589828,0.33633753657341,0.9417126178741456,0.0,0.0,0.0,0.0,0.0,0.0,-0.0047925561666488,-0.0056134890764951,0.946892499923706,0.3214658200740814,-0.0002030701930322,-0.0001100358877373,-2.022156274419153e-06,0.0177432894706726,-0.0188227891921997,4.38690185546875e-05,1,0,0,0
3.0,1788261987551,0.0,0.0,-0.0073716659098863,0.0002754351589828,0.33633753657341,0.9417126178741456,0.0,0.0,0.0,0.0,0.0,0.0,-0.0047925561666488,-0.0056134890764951,0.946892499923706,0.3214658200740814,-0.0002030701930322,-0.0001100358877373,-2.022156274419153e-06,0.0177432894706726,-0.0188227891921997,4.38690185546875e-05,1,0,0,0
3.1,1788261987651,0.0,0.0,-0.0073716659098863,0.0002754351589828,0.33633753657341,0.9417126178741456,0.0,0.0,0.0,0.0,0.0,0.0,-0.0047925561666488,-0.0056134890764951,0.946892499923706,0.3214658200740814,-0.0002030701930322,-0.0001100358877373,-2.022156274419153e-06,0.0177432894706726,-0.0188227891921997,4.38690185546875e-05,1,0,0,0
3.2,1788261987751,0.0,0.0,-0.0073716659098863,0.0002754351589828,0.33633753657341,0.9417126178741456,0.0,0.0,0.0,0.0,0.0,0.0,-0.0047925561666488,-0.0056134890764951,0.946892499923706,0.3214658200740814,-0.0002030701930322,-0.0001100358877373,-2.022156274419153e-06,0.0177432894706726,-0.0188227891921997,4.38690185546875e-05,1,0,0,0
3.3,1788261987851,0.0,0.0,-0.0073716659098863,0.0002754351589828,0.33633753657341,0.9417126178741456,0.0,0.0,0.0,0.0,0.0,0.0,-0.0047925561666488,-0.0056134890764951,0.946892499923706,0.3214658200740814,-0.0002030701930322,-0.0001100358877373,-2.022156274419153e-06,0.0177432894706726,-0.0188227891921997,4.38690185546875e-05,1,0,0,0
3.4,1788261987951,0.0,0.0,-0.0073716659098863,0.0002754351589828,0.33633753657341,0.9417126178741456,0.0,0.0,0.0,0.0,0.0,0.0,-0.0047925561666488,-0.0056134890764951,0.946892499923706,0.3214658200740814,-0.0002030701930322,-0.0001100358877373,-2.022156274419153e-06,0.0177432894706726,-0.0188227891921997,4.38690185546875e-05,1,0,0,0
3.5,1788261988051,0.0,0.0,-0.0073716659098863,0.0002754351589828,0.33633753657341,0.9417126178741456,0.0,0.0,0.0,0.0,0.0,0.0,-0.0047925561666488,-0.0056134890764951,0.946892499923706,0.3214658200740814,-0.0002030701930322,-0.0001100358877373,-2.022156274419153e-06,0.0177432894706726,-0.0188227891921997,4.38690185546875e-05,1,0,0,0
3.6,1788261988151,0.0,0.0,-0.0073716659098863,0.0002754351589828,0.33633753657341,0.9417126178741456,0.0,0.0,0.0,0.0,0.0,0.0,-0.0047925561666488,-0.0056134890764951,0.946892499923706,0.3214658200740814,-0.0002030701930322,-0.0001100358877373,-2.022156274419153e-06,0.0177432894706726,-0.0188227891921997,4.38690185546875e-05,1,0,0,0
3.7,1788261988251,0.0,0.0,-0.0073716659098863,0.0002754351589828,0.33633753657341,0.9417126178741456,0.0,0.0,0.0,0.0,0.0,0.0,-0.0047925561666488,-0.0056134890764951,0.946892499923706,0.3214658200740814,-0.0002030701930322,-0.0001100358877373,-2.022156274419153e-06,0.0177432894706726,-0.0188227891921997,4.38690185546875e-05,1,0,0,0
3.8,1788261988351,0.0,0.0,-0.0073716659098863,0.0002754351589828,0.33633753657341,0.9417126178741456,0.0,0.0,0.0,0.0,0.0,0.0,-0.0047925561666488,-0.0056134890764951,0.946892499923706,0.3214658200740814,-0.0002030701930322,-0.0001100358877373,-2.022156274419153e-06,0.0177432894706726,-0.0188227891921997,4.38690185546875e-05,1,0,0,0
3.9,1788261988451,0.0,0.0,-0.0073716659098863,0.0002754351589828,0.33633753657341,0.9417126178741456,0.0,0.0,0.0,0.0,0.0,0.0,-0.0047925561666488,-0.0056134890764951,0.946892499923706,0.3214658200740814,-0.0002030701930322,-0.0001100358877373,-2.022156274419153e-06,0.0177432894706726,-0.0188227891921997,4.38690185546875e-05,1,0,0,0
4.0,1788261988551,0.0,0.0,-0.0073761707171797,0.0002682430204004,0.3363375067710876,0.9417126178741456,0.0,0.0,0.0,-0.0002644964552018,-0.0002087631000904,-3.550109795469325e-06,-0.004794186912477,-0.0056285550817847,0.9468923807144164,0.321465790271759,-0.0003566440670945,-1.8930816191243555e-05,1.0130595013068903e-10,-0.0191587209701538,-0.0010607838630676,-0.0122108459472656,2,0,0,0
4.1,1788261988651,0.0,0.0,-0.0073761707171797,0.0002682430204004,0.3363375067710876,0.9417126178741456,0.0,0.0,0.0,0.0,0.0,0.0,-0.0048027327284216,-0.0056433044373989,0.946892261505127,0.3214657604694366,-0.0003545035134205,9.53315636501411e-05,-5.092673366348626e-10,-0.0219674706459045,0.0080592632293701,-0.0015125274658203,5,0,0,0
4.2,1788261988751,0.0,0.0,-0.0073761707171797,0.0002682430204004,0.3363375067710876,0.9417126178741456,0.0,0.0,0.0,0.0,0.0,0.0,-0.0048138005658984,-0.0056563699617981,0.9468921422958374,0.3214657306671142,-0.0003481721317801,0.0001666751731252,-8.696668384916081e-10,-0.0049735903739929,0.0119885802268981,-0.0253210067749023,4,0,0,0
4.3,1788261988851,0.0,0.0,-0.0073761707171797,0.0002682430204004,0.3363375067710876,0.9417126178741456,0.0,0.0,0.0,0.0,0.0,0.0,-0.0048293638974428,-0.0056684389710426,0.946892023086548,0.3214657008647918,-0.0002396815874306,0.0001905295698376,-6.926542557061969e-10,0.0097430944442749,-0.0172866582870483,-0.0165786743164062,0,0,0,0
4.4,1788261988951,0.0,0.0,-0.0073761707171797,0.0002682430204004,0.3363375067710876,0.9417126178741456,0.0,0.0,0.0,0.0,0.0,0.0,-0.0048396233469247,-0.0056727593764662,0.9468919038772584,0.3214656710624695,-0.0001435345393014,0.0001856780137909,-3.7222347037337065e-10,0.0133824944496154,-0.0070340037345886,-0.0319452285766601,2,0,0,0
4.5,1788261989051,0.0,0.0,-0.0073761707171797,0.0002682430204004,0.3363375067710876,0.9417126178741456,0.0,0.0,0.0,0.0,0.0,0.0,-0.0048482809215784,-0.0056758485734462,0.9468917846679688,0.3214656412601471,-0.0001200212717963,0.0001500578127609,-2.686037832187684e-10,0.0183289647102355,-0.0128349661827087,0.0222930908203125,5,0,0,0
4.6,1788261989151,0.0,0.0,-0.0073761707171797,0.0002682430204004,0.3363375067710876,0.9417126178741456,0.0,0.0,0.0,0.0,0.0,0.0,-0.0048533203080296,-0.0056782187893986,0.9468917846679688,0.3214656412601471,-6.480680774188072e-05,6.755714543629224e-05,2.0231724066643377e-06,0.0159751176834106,0.0208141803741455,0.0274791717529296,6,0,0,0
4.7,1788261989251,0.0,0.0,-0.0073761707171797,0.0002682430204004,0.3363375067710876,0.9417126178741456,0.0,0.0,0.0,0.0,0.0,0.0,-0.0048548150807619,-0.0056770462542772,0.9468917846679688,0.3214656412601471,4.13417918385888e-05,3.175440436641975e-05,2.002132288745248e-11,-0.0090998411178588,-0.0048297047615051,-0.0051956176757812,5,0,0,0
4.8,1788261989351,0.0,0.0,-0.0073761707171797,0.0002682430204004,0.3363375067710876,0.9417126178741456,0.0,0.0,0.0,0.0,0.0,0.0,-0.0048560965806245,-0.0056719835847616,0.9468917846679688,0.3214656412601471,0.0001348669809439,6.384198387967097e-05,1.9816461540123084e-06,-0.0105330348014831,0.008823812007904,-0.0261793136596679,2,0,0,0
4.9,1788261989451,0.0,0.0,-0.0074580889195203,0.0002846177667379,0.3363372087478637,0.941711962223053,-5.048330165610428e-07,5.3071082203831e-07,4.554154691632321e-09,0.0001282387675018,4.852703204960562e-05,-4.36095979239326e-06,-0.0048554511740803,-0.0056602274999022,0.9468919038772584,0.3214656710624695,0.0002172167443241,2.683338256200013e-05,1.990048883224707e-06,0.0285571813583374,-0.0100927352905273,-0.0095911026000976,1,0,0,0
5.0,1788261989551,0.0,0.0,-0.0074580889195203,0.0002846177667379,0.3363372087478637,0.941711962223053,0.0,0.0,0.0,0.0,0.0,0.0,-0.0048514027148485,-0.0056522209197282,0.9468919038772584,0.3214656710624695,0.0001817139005308,-4.20032815041386e-05,-1.1440235819560785e-10,0.0226633548736572,0.0008183717727661,-0.0043373107910156,4,0,0,0
5.1,1788261989651,0.0,0.0,-0.0074580889195203,0.0002846177667379,0.3363372087478637,0.941711962223053,0.0,0.0,0.0,0.0,0.0,0.0,-0.0048459470272064,-0.0056470166891813,0.946892023086548,0.3214657008647918,0.000115337595795,-8.703647174219694e-05,-1.5559280990543502e-10,-0.0101307034492492,-0.0077835917472839,0.0062065124511718,7,0,0,0
5.2,1788261989751,0.0,0.0,-0.0074580889195203,0.0002846177667379,0.3363372087478637,0.941711962223053,0.0,0.0,0.0,0.0,0.0,0.0,-0.0048405900597572,-0.0056444145739078,0.946892023086548,0.3214657008647918,6.542336718619879e-05,-7.782604426808426e-05,-7.856956868116124e-11,-0.0173618793487548,-0.0003307461738586,-0.0019359588623046,6,0,0,0
5.3,1788261989851,0.0,0.0,-0.0074580889195203,0.0002846177667379,0.3363372087478637,0.941711962223053,0.0,0.0,0.0,0.0,0.0,0.0,-0.0048369830474257,-0.0056436751037836,0.946892023086548,0.3214657008647918,3.38088707119073e-05,-5.311140775277047e-05,-2.8416988901395277e-11,0.0258917212486267,-0.0127824544906616,0.0044822692871093,0,0,0,0
5.4,1788261989951,0.0,0.0,-0.0074580889195203,0.0002846177667379,0.3363372087478637,0.941711962223053,0.0,0.0,0.0,0.0,0.0,0.0,-0.0048339366912841,-0.0056451000273227,0.946892023086548,0.3214657008647918,-5.3605647911382585e-05,-7.888486987462948e-05,-1.9899377482662635e-06,-0.0137665271759033,-0.0082055926322937,-0.0054311752319335,1,0,0,0
5.5,1788261990051,0.0,0.0,-0.0074580889195203,0.0002846177667379,0.3363372087478637,0.941711962223053,0.0,0.0,0.0,0.0,0.0,0.0,-0.0048321429640054,-0.0056522013619542,0.946892023086548,0.3214657008647918,-0.0001534224825177,-0.0001063111834501,-1.9886231840401487e-06,-0.0088034868240356,-0.0021360516548156,0.0024671554565429,2,0,0,0
5.6,1788261990151,0.0,0.0,-0.0074580889195203,0.0002846177667379,0.3363372087478637,0.941711962223053,0.0,0.0,0.0,0.0,0.0,0.0,-0.0048308763653039,-0.0056626731529831,0.946892023086548,0.3214657008647918,-0.0001387909933944,-3.513341514401363e-05,7.296681010271459e-11,-0.0011791586875915,-0.016646385192871,0.0230093002319335,2,0,0,0
5.7,1788261990251,0.0,0.0,-0.0074580889195203,0.0002846177667379,0.3363372087478637,0.941711962223053,0.0,0.0,0.0,0.0,0.0,0.0,-0.0048316307365894,-0.0056673791259527,0.946892023086548,0.3214657008647918,-8.894624429509216e-05,-7.42513402951614e-06,9.899097581824093e-12,-0.0006937384605407,0.0318687558174133,-0.0254468917846679,4,0,0,0
5.8,1788261990351,0.0,0.0,-0.0074580889195203,0.0002846177667379,0.3363372087478637,0.941711962223053,0.0,0.0,0.0,0.0,0.0,0.0,-0.0048313550651073,-0.0056652147322893,0.946892023086548,0.3214657008647918,0.0001053340909312,1.7443834116216411e-06,2.146939355564101e-06,0.0081317424774169,-0.0164520144462585,0.0035533905029296,0,0,0,0
5.9,1788261990451,0.0,0.0,-0.0074580889195203,0.0002846177667379,0.3363372087478637,0.941711962223053,0.0,0.0,0.0,0.0,0.0,0.0,-0.0048285964876413,-0.0056592766195535,0.946892023086548,0.3214657008647918,0.000167268575999,-3.121725513074354e-05,-7.827995292798335e-11,-0.0029789805412292,-0.0207776427268981,0.0089368820190429,6,0,0,0
6.0,1788261990551,0.0,0.0,-0.0074580889195203,0.0002846177667379,0.3363372087478637,0.941711962223053,0.0,0.0,0.0,0.0,0.0,0.0,-0.0048254746943712,-0.0056531121954321,0.946892023086548,0.3214657008647918,0.0001455473823371,-3.503592636408336e-06,1.900243493315545e-06,0.0118329524993896,0.0188724398612976,-0.0155754089355468,0,0,0,0
6.1,1788261990651,0.0,0.0,-0.0074580889195203,0.0002846177667379,0.3363372087478637,0.941711962223053,0.0,0.0,0.0,0.0,0.0,0.0,-0.004824430681765,-0.0056458348408341,0.946892023086548,0.3214657008647918,5.011351522822068e-05,3.943916481564708e-05,2.965996353166979e-11,0.0194108486175537,0.0180193185806274,-0.029672622680664,3,0,0,0
6.2,1788261990751,0.0,0.0,-0.0074580889195203,0.0002846177667379,0.3363372087478637,0.941711962223053,0.0,0.0,0.0,0.0,0.0,0.0,-0.0048247734084725,-0.0056451661512255,0.9468921422958374,0.3214657306671142,4.955785526422952e-06,-1.0818120120980576e-05,-8.26162787360457e-13,-0.0082044005393981,0.0053794384002685,0.0154485702514648,6,0,0,0
6.3,1788261990851,0.0,0.0,-0.0074580889195203,0.0002846177667379,0.3363372087478637,0.941711962223053,0.0,0.0,0.0,0.0,0.0,0.0,-0.0048225112259387,-0.0056445756927132,0.9468921422958374,0.3214657306671142,5.961519308389391e-05,-6.978762199503634e-05,-2.162966590200136e-06,0.0111328959465026,-0.0399298667907714,0.0040931701660156,5,0,0,0
6.4,1788261990951,0.0,0.0,-0.0074580889195203,0.0002846177667379,0.3363372087478637,0.941711962223053,0.0,0.0,0.0,0.0,0.0,0.0,-0.0048173554241657,-0.0056435447186231,0.9468921422958374,0.3214657306671142,4.058299600568605e-05,-7.151078958484664e-05,-4.338964765381775e-11,0.0037761926651,0.0085539817810058,0.016977310180664,8,0,0,0
6.5,1788261991051,0.0,0.0,-0.0074580889195203,0.0002846177667379,0.3363372087478637,0.941711962223053,0.0,0.0,0.0,0.0,0.0,0.0,-0.0048137689009308,-0.0056430492550134,0.9468921422958374,0.3214657306671142,1.9655136858271207e-05,-6.174371778913337e-05,-1.8916411876694775e-06,-0.019424557685852,0.0142386555671691,-0.0028572082519531,6,0,0,0
6.6,1788261991151,0.0,0.0,-0.0074580889195203,0.0002846177667379,0.3363372087478637,0.941711962223053,0.0,0.0,0.0,0.0,0.0,0.0,-0.0048115868121385,-0.0056430427357554,0.9468921422958374,0.3214657306671142,1.400777921522469e-05,-4.3855834154300286e-05,-9.210307549095831e-12,0.0201291441917419,-0.0396581888198852,0.004439353942871,4,0,0,0
6.7,1788261991251,0.0,0.0,-0.0074580889195203,0.0002846177667379,0.3363372087478637,0.941711962223053,0.0,0.0,0.0,0.0,0.0,0.0,-0.0048103462904691,-0.0056472392752766,0.9468921422958374,0.3214657306671142,-8.535368837616132e-05,-3.2228986067347225e-05,-1.8888349587340544e-06,0.0166839957237243,0.0062942504882812,-0.0158252716064453,5,0,0,0
6.8,1788261991351,0.0,0.0,-0.0074580889195203,0.0002846177667379,0.3363372087478637,0.941711962223053,0.0,0.0,0.0,0.0,0.0,0.0,-0.0048105577006936,-0.0056548416614532,0.9468921422958374,0.3214657306671142,-0.0001983915014413,-4.516963522818458e-05,-1.9245324177640696e-06,-0.0140413045883178,0.0179908871650695,-0.0011043548583984,3,0,0,0
6.9,1788261991451,0.0,0.0,-0.0074580889195203,0.0002846177667379,0.3363372087478637,0.941711962223053,0.0,0.0,0.0,0.0,0.0,0.0,-0.0048121847212314,-0.0056641055271029,0.946892023086548,0.3214657008647918,-0.0002025449200019,-2.3430889043352935e-05,-1.9678763089684075e-06,0.0112123489379882,-0.0357698202133178,0.005803108215332,4,0,0,0
7.0,1788261991551,0.0,0.0,-0.0074329497292637,0.0002499846741557,0.3363372683525085,0.941712200641632,1.1959963567387103e-06,-1.364667548598902e-06,-1.2267956171519414e-08,0.0004815720894839,-0.0016444593202322,-1.0739630852185655e-05,-0.0048153912648558,-0.0056754844263195,0.946892023086548,0.3214657008647918,-0.0001808927428431,-4.837243262657455e-06,1.2129803639562054e-11,-0.0137140750885009,0.0037158131599426,-0.0044574737548828,5,0,0,0
7.1,1788261991651,0.0,0.0,-0.0074329511262476,0.0002499846741557,0.3363372683525085,0.941712200641632,0.0,0.0,0.0,0.0,0.0,0.0,-0.0048201717436313,-0.0056821554899215,0.9468919038772584,0.3214656710624695,-0.0001830727839175,8.656377699536292e-05,-2.3818824359476543e-10,-0.005715012550354,-0.0121090412139892,-0.0151567459106445,6,0,0,0
7.2,1788261991751,0.0,0.0,-0.0074329511262476,0.0002499846741557,0.3363372683525085,0.941712200641632,0.0,0.0,0.0,0.0,0.0,0.0,-0.004826103337109,-0.005687728524208,0.9468919038772584,0.3214656710624695,-0.0001386644565417,6.902383826091272e-05,-1.5174104760429326e-10,-0.0042833685874938,-0.0090062022209167,0.0332107543945312,4,0,0,0
7.3,1788261991851,0.0,0.0,-0.0074329511262476,0.0002499846741557,0.3363372683525085,0.941712200641632,0.0,0.0,0.0,0.0,0.0,0.0,-0.0048300083726644,-0.0056894784793257,0.9468919038772584,0.3214656710624695,1.2412750996765905e-05,2.734539574572825e-05,5.0807398598726275e-12,0.0063703656196594,0.0043533444404602,0.0042695999145507,2,0,0,0
7.4,1788261991951,0.0,0.0,-0.0074329511262476,0.0002499846741557,0.3363372683525085,0.941712200641632,0.0,0.0,0.0,0.0,0.0,0.0,-0.0048301815986633,-0.005685145035386,0.9468919038772584,0.3214656710624695,0.0001382623834834,4.34477338815186e-05,1.972186232751737e-06,0.0012331008911132,-0.0181952714920043,-0.0100831985473632,1,0,0,0
7.5,1788261992051,0.0,0.0,-0.0074329511262476,0.0002499846741557,0.3363372683525085,0.941712200641632,0.0,0.0,0.0,0.0,0.0,0.0,-0.0048304982483386,-0.0056780716404318,0.9468919038772584,0.3214656710624695,0.0001221578738895,7.852775160282936e-05,2.070062442064379e-06,0.0355380177497863,0.0248901844024658,0.0176506042480468,0,0,0,0
7.6,1788261992151,0.0,0.0,-0.0074482634663581,0.0002619260922074,0.3363372385501861,0.9417120814323424,-3.4350923244917014e-07,3.611173800745508e-07,3.1157825368951436e-09,-0.0003453122626524,0.0005441581015475,2.967376531159971e-06,-0.0048334691673517,-0.005671864375472,0.9468919038772584,0.3214656710624695,0.0001025601702463,0.00010818114089,1.7188212495144417e-10,-0.0288193225860595,-0.0038827657699584,0.020512580871582,6,0,0,0
7.7,1788261992251,0.0,0.0,-0.0074453609995543,0.0002697037998586,0.3363372683525085,0.9417120814323424,0.0,0.0,0.0,0.0001147265647887,0.0001451500720577,1.2169522278782097e-06,-0.0048380959779024,-0.0056641930714249,0.9468919038772584,0.3214656710624695,0.0001107945092274,0.0001156426165773,2.169958198032605e-06,-0.0087479948997497,-0.0162721276283264,-0.0231742858886718,1,0,0,0
7.8,1788261992351,0.0,0.0,-0.0074421586468815,0.0002761827781796,0.3363372683525085,0.9417121410369872,0.0,0.0,0.0,0.0001036361136357,9.33921182877384e-05,1.1682000149448868e-06,-0.0048407912254333,-0.0056583117693662,0.9468919038772584,0.3214656710624695,0.0001018136985412,0.0001065492038375,1.6214458930904504e-10,0.0307433605194091,0.0319645404815673,0.0005254745483398,4,0,0,0
7.9,1788261992451,0.0,0.0,-0.0074393809773027,0.0002811355516314,0.336337149143219,0.941712200641632,0.0,0.0,0.0,0.0001081080117728,8.369351417059079e-05,-3.5016678339161444e-06,-0.0048423307016491,-0.0056511359289288,0.946892023086548,0.3214657008647918,8.805415154077215e-05,3.9574233295016224e-05,1.887351068176712e-06,-0.0072312951087951,0.0195489525794982,-0.0229511260986328,4,0,0,0
8.0,1788261992551,0.0,0.0,-0.0074352212250232,0.0002852294128388,0.3363371789455414,0.9417122602462769,0.0,0.0,0.0,6.680991646135226e-05,3.0268864065874368e-05,1.5005479099272634e-06,-0.0048426585271954,-0.0056471712887287,0.946892023086548,0.3214657008647918,6.897724679251057e-05,3.0026483442022796e-05,3.112431249671743e-11,-0.0111087560653686,0.0014494657516479,0.0163850784301757,2,0,0,0
8.1,1788261992651,0.0,0.0,-0.0074327760376036,0.0002889791503548,0.3363371193408966,0.9417122602462769,-4.226791502355171e-07,4.4434565423902766e-07,3.794223047611311e-09,6.808766192989424e-05,7.97005559434183e-05,-1.2170927448096336e-06,-0.0048450510948896,-0.0056436145678162,0.946892023086548,0.3214657008647918,6.212247383349985e-05,9.733245430971406e-05,1.9890040690680224e-06,0.0237953066825866,0.0033943057060241,-0.0175285339355468,5,0,0,0
8.2,1788261992751,0.0,1.3239436149597168,-0.0074302018620073,0.0002914823126047,0.3363350927829742,0.9417130351066588,-7.5303803490932944e-06,8.666666550562393e-06,7.78346235776305e-08,6.423097511287779e-05,-3.66223139280919e-05,-8.696287113707513e-05,-0.0047305319458246,-0.0057182442396879,0.9471045732498168,0.3208395540714264,-0.0023266695318323,-0.0085774555677279,0.0451397084306151,0.9088166356086732,-0.0401053428649902,0.4195890426635742,290,186,7421,9146
8.3,1788261992851,2.0,4.2816901206970215,-0.0072954734787344,-2.6211608201265332e-05,0.3403502702713012,0.9402704238891602,0.055457207736045,-0.0003331154630254,2.2522402710497635e-05,0.0007044902886264,-0.0133002316579222,0.1698728650808334,-0.0047010080888867,-0.0056332200765609,0.9503819942474364,0.3109986484050751,0.0062337429973998,-0.0214414807330133,0.2893303668980649,0.5750960111618042,0.3590326905250549,0.2910957336425781,111,203,8612,15243
8.4,1788261992951,3.323943614959717,6.647887229919434,-0.0072064800187945,0.0004370382521301,0.3561436533927917,0.934403359889984,0.1268315568237789,0.0035334163899199,2.858847349379977e-06,0.0095928478986024,-0.0106136836111545,0.4155834317207336,-0.0048270570114254,-0.0052948808297514,0.956280529499054,0.2923631370067596,-0.0004035740759052,-0.0012542648104281,0.4557466532479327,0.5517318248748779,-0.0191146731376647,0.2433347702026367,109,237,10295,20868
8.5,1788261993051,3.126760482788086,7.070422649383545,-0.0070572225376963,0.0008366084657609,0.3835665881633758,0.9234858155250548,0.1790381616509631,0.0021663466661879,-6.30521764952759e-06,0.0043590809218585,0.0031459804158657,0.5947418212890625,-0.0045540668070316,-0.0049675656482577,0.9658747911453248,0.2589216530323028,0.0116218604963027,-0.0299265401855744,0.5842638073975066,-0.2869123816490173,0.2199185490608215,0.3675270080566406,49,106,10413,19197
8.6,1788261993151,3.0985915660858154,6.957746505737305,-0.006461483426392,0.0003142990171909,0.4105978012084961,0.91179358959198,0.1722696161632425,0.000915504960481,2.030462537565337e-06,0.0050319624133408,-0.0138368522748351,0.5891466736793518,-0.0039622690528631,-0.004624712280929,0.972352921962738,0.2334367781877517,0.0184687254943964,-0.0265274943076442,0.5419620505207922,-0.0370202660560607,0.1425638198852539,0.1151552200317382,79,92,11765,17629
8.7,1788261993251,3.4647886753082275,6.450704097747803,-0.0060047758743166,0.0002567141782492,0.4322539567947387,0.9017319083213806,0.1702656346688884,0.0035669599415457,1.800357475914893e-05,0.0025992167647928,-0.0068304347805678,0.4915745854377746,-0.0035494938492774,-0.0043911710381507,0.9770302176475524,0.213026076555252,0.0137076209431725,-0.0145422974656263,0.434582659933202,-0.147132933139801,0.1678749918937683,0.3212184906005859,51,117,11201,18516
8.8,1788261993351,3.436619758605957,6.676056385040283,-0.0054697962477803,2.794200554490089e-06,0.4518468379974365,0.8920787572860718,0.1697720057323306,0.0009380423582271,-1.4766934429599795e-05,0.0028884552884846,-0.0013680882984772,0.4451672732830047,-0.0032520657405257,-0.0042808195576071,0.982441544532776,0.1864931881427765,-0.0017104205145558,-0.0114215916049903,0.4548332254678944,-0.2638753056526184,0.1154848933219909,0.4764118194580078,58,83,11045,17861
8.9,1788261993451,3.6619718074798575,6.619718074798584,-0.0050309607759118,-0.0004607605515047,0.4745275378227234,0.880226194858551,0.165382331372178,-0.0033794466973629,5.547677792804984e-05,0.0041655120439827,-0.0208397265523672,0.4607543647289276,-0.0027002906426787,-0.004272511228919,0.9848849773406982,0.173135831952095,-0.007649760236062,-0.0254268194994652,0.477015571824904,0.1823952794075012,0.4069904088973999,0.2763681411743164,66,99,10220,17919
9.0,1788261993551,4.02816915512085,5.915493011474609,-0.0050997561775147,7.662409916520119e-05,0.4914839565753937,0.8708716630935669,0.1742860945035044,-0.0018984781208467,-6.430569137772051e-05,0.0135800736024975,0.0016261545242741,0.3697338700294494,-0.0036659203469753,-0.0039039179682731,0.9884809255599976,0.151250809431076,0.0013607630206308,0.0385866317323368,0.2062164561972204,-0.3986914753913879,-0.3571735024452209,0.1722850799560547,88,99,13922,16031
9.1,1788261993651,4.2253522872924805,5.88732385635376,-0.0053889099508523,0.0002601607702672,0.5001047849655151,0.8659480214118958,0.1698758536528591,-0.0002577955093214,-2.1237046914030315e-05,-0.006619987078011,0.0002266902592964,0.201472669839859,-0.0036738058552145,-0.0041630696505308,0.989920437335968,0.1415161937475204,-0.0086142199746972,0.0174455629693249,0.2539366277680527,-0.0146873593330383,-0.0118913650512695,-0.0187692642211914,89,160,12513,16796
9.2,1788261993751,4.478873252868652,5.97183084487915,-0.0053628087043762,0.0004484748933464,0.5129579901695251,0.8583968877792358,0.1683081768488976,0.0051387221623034,-6.897215022822906e-05,0.0080417059361934,0.026880083605647,0.2829111516475677,-0.0035439291968941,-0.0040504047647118,0.9921115040779114,0.125243529677391,-0.0097865725697011,0.0075274147443835,0.2277984192257495,-0.0202406048774719,0.2288898229598999,0.4876174926757812,82,92,11870,16237
9.3,1788261993851,4.309859275817871,5.830986022949219,-0.0053908815607428,0.0002183127216994,0.5238655209541321,0.8517839312553406,0.1667849127296697,0.0007784406375644,1.182472806951825e-05,-0.0031531988643109,0.0011284139472991,0.247730553150177,-0.0030010510236024,-0.0040062330663204,0.9934497475624084,0.1141600832343101,0.0100711977688418,-0.0360497710679488,0.2512511782866312,-0.0527962446212768,0.1783536672592163,0.1350183486938476,65,115,12214,16855
9.4,1788261993951,4.14084529876709,5.915493011474609,-0.0049972855485975,-0.0001310911029577,0.5344135165214539,0.8452083468437195,0.1678586241466311,0.0023237148015638,3.490281972003263e-05,-0.0045267678797245,-0.0080241421237587,0.2609696686267853,-0.0032910443842411,-0.0038842093199491,0.9947192668914796,0.1025075688958168,0.0050156712417346,0.0194082082108067,0.2605749486458827,-0.0048326253890991,-0.3774914741516113,0.170877456665039,109,120,12951,16534
9.5,1788261994051,4.478873252868652,5.577464580535889,-0.0049009751528501,0.0001377395819872,0.5441792011260986,0.8389546871185303,0.1724921917188982,0.0033172032741373,5.674730324591165e-05,0.0038274750113487,-0.0056250989437103,0.2446954846382141,-0.0028881300240755,-0.0037600146606564,0.99594247341156,0.0898681059479713,0.0008016087517979,-0.0203659228753642,0.1436042989428733,-0.1814392209053039,-0.0199372768402099,0.3699359893798828,65,95,14100,15087
9.6,1788261994151,4.2253522872924805,5.915493011474609,-0.0046784617006778,1.3225246220827104e-05,0.5502294301986694,0.8350003957748413,0.1686993196475443,-0.00236467155314,2.251838597416824e-05,0.0040978020988404,-0.0017646286869421,0.1193363294005394,-0.0026946011930704,-0.0037640435621142,0.996432363986969,0.0842691585421562,-0.0074702996265174,0.0065922212922979,0.1373957745801123,-0.0697051286697387,-0.2624260783195495,0.0437812805175781,60,133,12148,16779
9.7,1788261994251,4.14084529876709,5.915493011474609,-0.0042092087678611,-0.0001141263637691,0.5593698620796204,0.8289074897766113,0.1704094480153641,0.002651482952862,7.205235670772193e-05,0.0125383837148547,-0.0050328429788351,0.2624994814395904,-0.0021877596154809,-0.0033094612881541,0.9973763227462769,0.0722828358411789,0.0060530627101712,-0.0262594879066041,0.3015190617833908,0.3457023501396179,0.1184220910072326,0.3740568161010742,77,110,12590,16622
9.8,1788261994351,4.309859275817871,5.943662166595459,-0.0038691360969096,-9.842624422162773e-05,0.5712646245956421,0.8207567930221558,0.1687130097224253,0.0040582708915156,4.514151778753528e-05,0.0081813130527734,-0.0085756126791238,0.2849545776844024,-0.0022506518289446,-0.0031412029638886,0.9984129667282104,0.0561846904456615,-0.0014325016796022,-0.0122333580786857,0.2424573294393761,0.1164880990982055,-0.2065933346748352,0.0722303390502929,53,112,12263,16331
9.9,1788261994451,4.2816901206970215,5.830986022949219,-0.003897369839251,-0.0002252638805657,0.5808660984039307,0.8139897584915161,0.1749374260105585,-0.0008304236601651,3.842245724257255e-06,-0.0026765747461467,-0.0013331040972843,0.270017921924591,-0.0019034864380955,-0.0029059117659926,0.9990328550338744,0.04383210465312,0.0179420342924295,-0.0271143480366001,0.2824779468836018,0.280085027217865,-0.0694389939308166,-0.0228052139282226,124,29,14582,14461
10.0,1788261994551,4.450704097747803,5.436619758605957,-0.0038379523903131,-0.0001300843432545,0.589974582195282,0.8074126839637756,0.1685650812835808,-0.00214930325573,2.425379550457864e-05,-0.0109879672527313,0.0145301884040236,0.1844343990087509,-0.0020471811294555,-0.0031866887584328,0.999271810054779,0.0379669107496738,0.0007718601117718,-0.0312453006074021,0.0814371982610236,0.3214111924171448,0.0337345600128173,-0.1332025527954101,65,140,14207,15887
10.1,1788261994651,4.535211086273193,5.605633735656738,-0.0041169617325067,-0.000224971328862,0.5948605537414551,0.80381840467453,0.1703818341790822,0.0028991505019097,7.399035710202863e-05,-0.0046656751073896,-0.0057652019895613,0.1365684121847152,-0.0024139378219842,-0.0033989623188972,0.9995526671409608,0.0296172071248292,-0.0035511514757382,-0.0078960848753406,0.1549454338119407,0.1816697716712951,0.0380699634552001,-0.4267921447753906,76,123,13581,15457
10.2,1788261994751,4.169013977050781,5.915493011474609,-0.0043686078861355,-0.0003750964533537,0.6005919575691223,0.7995436787605286,0.1709237343865988,0.002951525274359,-6.9950049727075e-05,-0.0105997556820511,-0.0005555034149438,0.1419711261987686,-0.0029268497601151,-0.003765694797039,0.9997594952583312,0.021404905244708,-0.0018002847321037,0.0111009462633225,0.2500230506084908,-0.2872563004493713,0.1035481095314025,0.4510059356689453,40,135,12464,17027
10.3,1788261994851,4.02816915512085,6.3380279541015625,-0.0050142016261816,-0.0001930140424519,0.6100638508796692,0.7923363447189331,0.1748869355000922,0.0047520750523666,-2.8302864400951297e-05,-0.0096558248624205,0.0077630118466913,0.2782495319843292,-0.002812648192048,-0.0045960284769535,0.9999825358390808,0.0024329666048288,-0.0262084913915913,-0.0052625122821076,0.3778707228212355,-0.1430346965789795,0.0518151521682739,0.517974853515625,55,121,10839,17504
10.4,1788261994951,4.197183132171631,5.88732385635376,-0.0055786073207855,-0.0005963933654129,0.6245712041854858,0.7809476852416992,0.1638750810426207,0.0010511508023511,-1.704113955505463e-05,-0.0097476281225681,0.0090975742787122,0.395928293466568,0.0033639511093497,0.0045791361480951,-0.999906837940216,0.0124111697077751,0.0113908892653137,0.0345074534877278,0.2424450025486803,-0.1195300221443176,-0.3072829842567444,-0.1903200149536132,92,124,13102,16355
10.5,1788261995051,4.197183132171631,5.943662166595459,-0.0059894057922065,-0.0001645274460315,0.6357982158660889,0.7718321084976196,0.1727830447663661,0.0015843799514967,1.4457245423388645e-07,-0.0085113011300563,0.0090032489970326,0.237524464726448,0.003919418901205,0.0047619808465242,-0.9997081160545348,0.0233596786856651,0.0045315630605522,0.0149744226399785,0.2556166785714735,0.0913800001144409,0.0831242203712463,-0.4233760833740234,92,116,12932,16533
10.6,1788261995151,4.0,5.85915470123291,-0.0065300366841256,-0.0002659345045685,0.6451910138130188,0.7639933824539185,0.1790686781488923,0.0018734342978511,1.1968889050588062e-05,-0.0145628247410058,-0.0036890853662043,0.2501234114170074,0.0037620766088366,0.0053550507873296,-0.999359369277954,0.0351873040199279,-0.0061852046253787,-0.0070163654992706,0.2809403327648735,-0.0941852927207946,0.2309452295303344,0.0094709396362304,71,98,13259,16718
10.7,1788261995251,4.197183132171631,5.85915470123291,-0.0064849811606109,-0.0003306190483272,0.6545310020446777,0.756007194519043,0.1710095188329231,-0.0007543504667843,-6.359794448268972e-05,0.0043059922754764,0.0113453147932887,0.260405957698822,0.0033065229654312,0.0054190065711736,-0.998727321624756,0.0500357449054718,0.0083296811040455,-0.0186550710264306,0.2444797765049896,-0.0508807897567749,-0.1060951352119445,0.2498159408569336,58,105,12656,16716
10.8,1788261995351,4.3380279541015625,6.0,-0.0062701073475182,-0.0012412664946168,0.6640169024467468,0.7476902008056641,0.1642213098824819,-0.0030068047445546,1.4871261436763706e-05,-0.01996810734272,-0.0182068739086389,0.257075697183609,0.0029150387272238,0.0056118415668606,-0.9980366230010986,0.0623132027685642,0.012042321684535,0.0015282537378321,0.2955437266927668,0.0114068984985351,-0.3226987719535827,-0.3907756805419922,81,132,12118,16354
10.9,1788261995451,4.2253522872924805,5.97183084487915,-0.0062156589701771,-0.001005130354315,0.6752564311027527,0.7375562191009521,0.1657953898767758,0.0076950413099517,-1.982506556160524e-05,0.0031955179292708,0.0099211726337671,0.2645469307899475,0.0029913317412137,0.0054053328931331,-0.9972177743911744,0.0742867887020111,0.0057591427757807,-0.0060326099762882,0.2370588554035645,-0.0147716999053955,-0.0300514698028564,0.2002677917480468,73,108,12749,16206
11.0,1788261995551,4.2816901206970215,5.97183084487915,-0.0056739430874586,-0.0012642133515328,0.6840492486953735,0.7294126749038696,0.1766012090208969,0.0038508019742844,6.591093355106781e-07,0.0071697789244353,-0.0195513051003217,0.250744879245758,0.0019314596429467,0.0049378741532564,-0.9960023164749146,0.0891701653599739,0.0051955698162479,-0.0345902228918867,0.2525976656687599,-0.1358793973922729,-0.1434664130210876,0.5902910232543945,50,78,12391,16140
11.1,1788261995651,4.2253522872924805,6.084506988525391,-0.005597973242402,-0.0015487724449485,0.6922540068626404,0.7216305732727051,0.1673198357217127,0.0018039912183999,-0.0001106736530432,-0.016284491866827,0.0109593672677874,0.2301767170429229,0.0022992519661784,0.005182116292417,-0.9949458241462708,0.1002530008554458,0.0137556841098192,0.0066503895468339,0.2638775564025477,-0.0275225639343261,-0.0343754887580871,0.139073371887207,95,109,12644,15834
11.2,1788261995751,4.647887229919434,5.633802890777588,-0.0050150486640632,-0.0016050770645961,0.7015107870101929,0.7126394510269165,0.1682510457090416,0.0079107232919656,-7.88531475686696e-05,0.0062775495462119,0.0151305198669433,0.2460970878601074,0.002249551936984,0.0050390912219882,-0.9936707019805908,0.1121973320841789,-0.0053314423253645,0.0480894750866847,0.2207606385118066,-0.3527358174324035,-0.0377058982849121,0.1371107101440429,72,84,13713,15031
11.3,1788261995851,4.535211086273193,5.492957592010498,-0.0045701572671532,-0.0013771987287327,0.7088823318481445,0.7053106427192688,0.1739549812678114,-0.0015956536874067,-4.434501666373409e-05,0.0150497676804661,-0.0055970260873436,0.1494606286287307,0.0014255344867706,0.004215233027935,-0.992863953113556,0.1191697642207145,0.0154578632426818,-0.0464619127214409,0.1350540376642866,0.1429570913314819,0.1937254071235656,-0.3504638671875,77,116,13801,15681
11.4,1788261995951,4.619718074798584,5.436619758605957,-0.0039328536950051,-0.0011465122224763,0.7140280604362488,0.7001050114631653,0.1668117306185287,-0.00069023806456,6.388329214639217e-05,0.0157025754451751,-0.0076337233185768,0.1615158766508102,0.001554399728775,0.0037244958803057,-0.9917475581169128,0.1281425207853317,-0.0032418083391855,0.0163475400626334,0.1439359547609766,-0.0327982902526855,0.3424227237701416,0.5458250045776367,94,127,13604,15980
11.5,1788261996051,4.563380241394043,5.605633735656738,-0.0037644032854586,-0.0010779867880046,0.7189164161682129,0.6950855851173401,0.1714831126477037,0.0046956351464537,1.796820846007497e-05,0.0030776152852922,-0.0007450272678397,0.1551003903150558,0.0013885162770748,0.0035140607506036,-0.9907653331756592,0.1355349570512771,0.0009082087182172,-0.0119715808804211,0.165321786477618,-0.0747742056846618,-0.0675647258758544,-0.199131965637207,88,100,13640,15485
11.6,1788261996151,4.619718074798584,5.464788913726807,-0.0033455973025411,-0.0011350698769092,0.7248650193214417,0.6888818740844727,0.1683498702597265,-0.0001158722420166,5.649249467458598e-05,0.005743300076574,-0.0099848862737417,0.1687641590833664,0.0011146254837512,0.0029974747449159,-0.9894188046455384,0.1450527310371399,0.0107623524807511,0.0045908618599117,0.1424539945556119,0.2012436389923095,-0.0413566827774047,0.0721387863159179,138,48,15556,13730
11.7,1788261996251,4.732394218444824,5.408450603485107,-0.0029026244301348,-0.0010080488864332,0.7286534309387207,0.6848757863044739,0.1727782203575822,0.0015625212067323,2.0627921207626437e-05,0.0042593940161168,-0.0037609934806823,0.0311886128038167,0.000645007006824,0.0025545740500092,-0.9891318082809448,0.1470079571008682,0.010781366017292,-0.020930190832734,0.0449755067125923,-0.197328507900238,0.1305518150329589,0.1303138732910156,38,153,13019,16242
11.8,1788261996351,4.535211086273193,5.605633735656738,-0.0021693557500839,-0.0012812458444386,0.7324612140655518,0.6808041334152222,0.1614688687941323,0.0013950825115299,5.005361849313701e-05,0.0007915591122582,-0.0155827365815639,0.148687481880188,0.0002221083268523,0.0025479514151811,-0.988128423690796,0.1536086350679397,-0.0042307836052083,-0.007017642801194,0.1574229264127568,0.0240182876586914,-0.1831908226013183,-0.0627508163452148,105,111,13419,15465
11.9,1788261996451,4.760563373565674,5.549295902252197,-0.0018455411773175,-0.0012195265153422,0.7371500134468079,0.675725519657135,0.1667245678408095,0.0022217263102316,2.966714098862994e-05,0.0122397253289818,0.0012146604713052,0.1567326486110687,-0.0001015495508909,0.0020426586270332,-0.9867351651191713,0.1623257398605346,0.017493476734182,-0.0103196868147419,0.143605979810214,-0.1498608589172363,-0.1270161867141723,0.1396408081054687,93,111,14498,15493
12.0,1788261996551,4.563380241394043,5.549295902252197,-0.0013921136269345,-0.0016314265085384,0.7418311834335327,0.6705832481384277,0.1741594883942025,0.0005687185061638,1.0079302285048878e-05,-0.0116813136264681,-0.0160991549491882,0.1366398483514785,-0.0005247294902801,0.0022085541859269,-0.9856802225112916,0.1686103492975235,0.0037986052261063,0.00262203720175,0.1686103408879226,-0.1079267263412475,-0.0349172353744506,-0.2994890213012695,76,119,13459,15687
12.1,1788261996651,4.985915660858154,5.183098793029785,-0.0014401321532204,-0.0017505449941381,0.7472736239433289,0.664512574672699,0.1703383773462108,0.0047463444255094,5.989306657512479e-06,0.0032830680720508,0.0075702033936977,0.1531681418418884,-0.0010622031986713,0.0021950770169496,-0.9847743511199952,0.1738205552101135,-0.0087152902903613,-0.0416597863536822,0.0468566994708526,0.0699689984321594,0.2548748254776001,0.091653823852539,80,96,14356,14414
12.2,1788261996751,4.873239517211914,5.183098793029785,-0.0012643933296203,-0.0027220244519412,0.7480635046958923,0.6636203527450562,0.1618901828579738,-0.0046976181168444,8.382928952336302e-05,-0.0209409780800342,-0.0169021002948284,0.0144054796546697,-0.0016987901180982,0.0028550401329994,-0.9847126007080078,0.1741555482149124,-0.0196339342013772,-0.0164865322862475,0.0051854510607573,-0.0150997638702392,-0.3637534976005554,0.0221633911132812,77,122,14313,15134
12.3,1788261996851,4.8450703620910645,5.154929637908936,-0.0010095764882862,-0.0032235155813395,0.7497508525848389,0.661711573600769,0.172899659227775,-0.0001678841109444,8.173438749760693e-06,0.0012668870622292,-0.0103215808048844,0.0829121321439743,-0.002460241317749,0.0029622400179505,-0.9840243458747864,0.1779922544956207,-0.0045490846883612,-0.03743662240207,0.0352634832800866,-0.0164677500724792,-0.1256412267684936,0.3041667938232422,76,91,14701,14962
12.4,1788261996951,5.014084339141846,5.070422649383545,-0.0010740663856267,-0.0039533320814371,0.7513831257820129,0.659853458404541,0.1735638174721475,-0.0005445977512374,-3.260888297402749e-05,-0.0131113287061452,0.0004577839572448,0.0399260781705379,-0.0025229379534721,0.0036778692156076,-0.9837310910224916,0.1795922219753265,-0.0176650782295351,0.0180958899648467,0.0368870621972832,-0.2467482089996338,-0.0681087970733642,0.0014419555664062,119,79,14974,14191
12.5,1788261997051,5.042253494262695,5.042253494262695,-0.0008977710967883,-0.0047692079097032,0.7518744468688965,0.6592884659767151,0.1745263523489144,-2.3015525349741342e-05,0.0001121401402843,-0.0035703328903764,-0.0216112043708562,0.0014489054447039,-0.0031496761366724,0.0036011235788464,-0.9837287664413452,0.1795958876609802,0.006584414699846,0.0051938982181436,0.007559946583955,-0.1467451453208923,-0.0967254042625427,-0.1668777465820312,80,108,14993,14368
12.6,1788261997151,5.239436626434326,5.070422649383545,-0.0008977710967883,-0.0047692079097032,0.7518744468688965,0.6592884659767151,0.1699543879698429,-0.000117179708329,-2.0999289499640938e-07,0.0,-2.327395387524689e-09,0.0,-0.003177766688168,0.00368492025882,-0.9837601184844972,0.1794224083423614,0.0025643690684125,0.0029517407710615,0.0009801054147061,-0.1258370876312255,-0.0182477831840515,-0.1015329360961914,104,107,14249,14286
12.7,1788261997251,4.873239517211914,4.985915660858154,-0.0008228691294789,-0.0050378269515931,0.7516899704933167,0.6594969034194946,0.1694065013434367,-0.0030443644919591,-2.379566354070781e-07,-0.0053861895576119,-0.009529928676784,-0.0027709391433745,-0.0033199358731508,0.003737324848771,-0.9837319850921632,0.1795728206634521,0.0023710588837268,0.0033994646064597,0.0123960512568265,0.1290578842163086,-0.0846172571182251,0.1007099151611328,74,145,15558,14713
12.8,1788261997351,4.901408672332764,5.042253494262695,-0.0007788270013406,-0.0047578359954059,0.7522060871124268,0.65891033411026,0.1725254662322725,-0.0011675920601024,-2.9756395391944545e-06,0.0079898592084646,0.002081305719912,0.0252694692462682,-0.0028571188449859,0.0036999862641096,-0.9834092259407043,0.1813408881425857,-0.00582622802216,0.0211774159216329,0.0410846276056549,0.0854676961898803,-0.0403734445571899,-0.1274480819702148,60,119,15425,14461
12.9,1788261997451,5.070422649383545,5.183098793029785,-0.0009285707492381,-0.0047036400064826,0.7532498240470886,0.6577170491218567,0.1730555431074171,0.0014900893013492,2.6098578582634748e-05,0.0002159663854399,-0.0123089551925659,0.0165387950837612,-0.0028871614485979,0.0034411344677209,-0.9832478761672974,0.1822182387113571,0.0149416518237744,-0.0074472004694658,0.0131678331914515,-0.0991830229759216,0.0849831104278564,-0.011880874633789,116,99,15142,13873
13.0,1788261997551,5.126760482788086,5.070422649383545,-0.0010725398315116,-0.0042244149371981,0.7535543441772461,0.6573711037635803,0.1693063724048127,0.0006945837465194,-7.978398538805134e-05,0.003150480100885,0.0147667424753308,-0.002298530191183,-0.002571347169578,0.0035245222970843,-0.9833247661590576,0.181806206703186,-0.0059157015887094,0.0164606763608013,-0.0039402735652972,-0.0532847642898559,-0.1011897921562194,0.1369504928588867,98,110,14765,14369
13.1,1788261997651,5.070422649383545,5.014084339141846,-0.0011365547543391,-0.0042007863521575,0.7535509467124939,0.657375156879425,0.1717472687585545,-0.0012159852264715,2.809560380343938e-07,0.0001473836891818,-0.0008225352503359,0.0132685182616114,-0.0023080613464117,0.0036412933841347,-0.9832565784454346,0.1821759045124054,0.0017100067164514,0.0255041354663234,-0.0041856521466464,-0.2742171883583069,-0.1339197158813476,-0.0814189910888671,126,117,14816,14436
13.2,1788261997751,5.070422649383545,4.985915660858154,-0.0013366478960961,-0.0037964803632348,0.7536659240722656,0.6572454571723938,0.171168592036216,-0.003614225846718,-7.032875809428435e-05,0.0191281959414482,0.0332752577960491,0.0043916190043091,-0.0014881156384944,0.0033254846930503,-0.983361005783081,0.1816255152225494,0.0076666636565812,0.0283378742411323,-0.02372515559788,0.1441302299499511,0.0475302934646606,-0.2933187484741211,89,107,15144,14453
13.3,1788261997851,4.901408672332764,5.380281925201416,-0.0017912200419232,-0.0031890207901597,0.7530790567398071,0.6579197645187378,0.1752972884745019,-0.0002066353762297,-2.387029279803723e-05,-0.0011383678065612,0.0070351376198232,-0.0105799715965986,-0.0008663740009069,0.0035956902429461,-0.9834223389625548,0.1812921464443206,-0.0064746019533378,0.0114041221358799,0.0041631601509578,-0.046430230140686,0.0785923600196838,0.0519075393676757,37,149,12393,16520
13.4,1788261997951,4.2253522872924805,5.915493011474609,-0.0020773611031472,-0.0023238742724061,0.7566445469856262,0.6538190841674805,0.1758825513043546,0.0042681131490659,-0.0001005207109389,0.0220006834715604,0.0140951685607433,0.2214907258749008,0.0002450868487358,0.003831123933196,-0.9809409379959106,0.1942683309316635,-0.0188404631932443,0.0083372460368108,0.3342139588857304,0.3736633658409118,-0.1280443668365478,0.3653516769409179,63,112,12064,16868
13.5,1788261998051,4.535211086273193,5.88732385635376,-0.0037493593990802,-0.0020212484523653,0.7651640176773071,0.6438212394714355,0.1741932848878772,0.0031924949385671,-3.424185733899181e-05,-0.0149192158132791,0.021271551027894,0.3000146746635437,0.0012810844928026,0.0043296422809362,-0.9783180356025696,0.2070589363574981,-0.0063484825303686,0.0450442166335093,0.2850430013896812,-0.1550516486167907,0.1631456017494201,-0.2141504287719726,90,99,11594,16614
13.6,1788261998151,4.422535419464111,5.85915470123291,-0.004916813224554,-0.0014323433861136,0.7738618850708008,0.633333683013916,0.167773255195301,0.005384945838307,-4.13075312810361e-05,-0.0127165773883461,0.0701415315270423,0.2660766839981079,0.0020208386704325,0.0049092303961515,-0.9758410453796388,0.2184173613786697,-0.0141976607487555,0.0015391044498325,0.2548454081916021,0.4313875436782837,0.3553552627563476,-0.4374303817749023,80,130,12200,16756
13.7,1788261998251,4.169013977050781,5.943662166595459,-0.0060290116816759,-0.0010773590765893,0.7826713919639587,0.6224050521850586,0.1693730624263933,0.0038052564166324,1.940538760337781e-05,-0.0108294552192091,0.0165018644183874,0.2593564689159393,0.0033740550279617,0.0056198723614215,-0.9723694324493408,0.2333551347255706,-0.0086540232839716,0.0421708903200095,0.2617771921971243,-0.0550814867019653,-0.0697401165962219,0.3883676528930664,76,103,12828,16360
13.8,1788261998351,4.788732528686523,5.380281925201416,-0.0070650740526616,-0.0009236072655767,0.7904552817344666,0.6124783158302307,0.1668732360776589,0.0027921689940733,-1.915751796290364e-05,-0.0178114511072635,0.0174930766224861,0.2409016191959381,0.0040239226073026,0.0061935978010296,-0.9701772332191468,0.2422840148210525,0.0015383294800558,0.0178546866051541,0.1478184315123065,0.2314180135726928,0.0937877893447876,-0.4115800857543945,94,120,13138,15830
13.9,1788261998451,4.676056385040283,5.577464580535889,-0.0077602369710803,-0.000183445867151,0.7946315407752991,0.6070423722267151,0.1765056014150646,0.0030461509658122,-7.616695705916986e-05,0.006191121879965,0.0253482684493064,0.1455468088388443,0.0048513701185584,0.0061595411971211,-0.9686294794082642,0.2483857572078704,1.1824059523097731e-05,0.0060937874117709,0.1423730446707651,-0.1709805130958557,-0.0161495804786682,-0.0985422134399414,73,99,13160,15365
14.0,1788261998551,4.760563373565674,5.605633735656738,-0.0079418886452913,7.230695337057114e-05,0.7989689707756042,0.6013197898864746,0.1727890883476352,0.0013348921006179,1.4613490566474111e-05,0.0007596011273562,0.003239068435505,0.1504421830177307,0.0049355402588844,0.0063022309914231,-0.9662248492240906,0.257576048374176,-0.0049726723594896,0.013812007450827,0.1676142811119326,-0.1633817553520202,0.0965937972068786,0.371124267578125,73,87,12776,15419
14.1,1788261998651,4.985915660858154,5.211267471313477,-0.007428471930325,8.547864854335785e-05,0.8046077489852905,0.5937602519989014,0.174297184420401,0.0016790658912249,1.6454374825640856e-06,0.0143138114362955,-0.0077973729930818,0.1756966412067413,0.0048286654055118,0.0055968835949897,-0.9649012684822084,0.2625089585781097,0.0084191807630649,-0.0045412071465296,0.0243402181680326,-0.1469341516494751,-0.049668550491333,0.3593511581420898,90,71,14561,14172
14.2,1788261998751,4.873239517211914,5.154929637908936,-0.0075327502563595,0.0003152808640152,0.8049719333648682,0.5932649374008179,0.1680463147912482,-0.0019492849807494,-4.856191380898758e-07,0.0,0.0,0.0,0.0046110022813081,0.0052306689321994,-0.9646185040473938,0.2635576128959656,0.000599313814568,-0.0061578656340774,0.0572328584801073,-0.1028526425361633,0.0453251600265502,-0.1965694427490234,88,109,14373,14766
14.3,1788261998851,5.605633735656738,4.591549396514893,-0.0068251001648604,0.0003797376994043,0.8067337870597839,0.590875506401062,0.169657836021506,0.0001585178245695,1.9493047181231088e-05,0.00378382159397,-0.0040254439227283,0.0693128108978271,0.0039681289345026,0.0046042772009968,-0.9640747904777528,0.2655614912509918,0.0011590123440781,-0.0115619930543533,-0.0373216488277099,0.1152721643447876,-0.3913486003875732,0.1230735778808593,129,29,16675,11942
14.4,1788261998951,5.6619720458984375,4.253520965576172,-0.0059486264362931,0.0001050559803843,0.8045151829719543,0.5939022898674011,0.1705473675012192,-0.0025334198654077,2.9099548695586264e-05,-0.0011330879060551,-0.0113582797348499,-0.1883875131607055,0.003241853788495,0.0045536719262599,-0.9663952589035034,0.2569999694824219,-0.0048974649390565,-0.0315079424787812,-0.2174631236486142,0.1240003705024719,0.3076207637786865,-0.1719398498535156,85,141,15837,13737
14.5,1788261999051,5.464788913726807,4.619718074798584,-0.0051719667389988,-0.0004042705986648,0.7990720272064209,0.6012129187583923,0.1651693299895217,-0.0009889393590936,4.371527141414868e-05,0.0088680265471339,-0.0139503749087452,-0.1474966257810592,0.0028243083506822,0.0039190119132399,-0.9680385589599608,0.2507549822330475,0.0226243059887627,-0.0098461606436674,-0.1238334799290318,0.1577286720275879,0.1505882143974304,0.3785514831542969,90,67,16584,12508
14.6,1788261999151,5.380281925201416,4.535211086273193,-0.0043814470991492,-0.0003928823862224,0.7945035099983215,0.6072437167167664,0.1667007761557063,-0.0039400196643213,-9.914611180998322e-06,-0.0038407193496823,0.0019219198729842,-0.1693129986524582,0.0022501116618514,0.0038987537845969,-0.970571219921112,0.2407720535993576,-0.0060273340669721,0.0102923820830525,-0.1784387599466837,-0.2281936407089233,0.1471099853515625,0.7965288162231445,57,114,16800,13085
14.7,1788261999251,5.267605781555176,4.676056385040283,-0.0042204177007079,-0.0004864828661084,0.7897374629974365,0.6134303212165833,0.1675641895227995,-0.0013359230651561,5.355227761385707e-05,0.0086856465786695,-0.0024395866785198,-0.1592469811439514,0.0018255822360515,0.0036675557494163,-0.9722644686698914,0.2338483333587646,-0.0012019967127845,-0.0006970818639958,-0.1689718511854435,-0.0686380267143249,0.0484851002693176,0.7410993576049805,52,159,14950,14648
14.8,1788261999351,5.098591327667236,4.985915660858154,-0.0039854226633906,-0.0012793404748663,0.7857688665390015,0.6185060143470764,0.1678192390033395,0.0006067006033417,0.0001150671902974,-0.0121860895305871,-0.0189782064408063,-0.0565359480679035,0.0011964719742536,0.0037834038957953,-0.9728254675865172,0.2315057963132858,0.0055028770810042,-0.0255730816050022,0.0043924008303819,0.1246879696846008,-0.0707242488861084,1.3143911361694336,94,89,15267,13794
14.9,1788261999451,5.267605781555176,4.788732528686523,-0.0034537799656391,-0.0014123077271506,0.7853578329086304,0.6190308928489685,0.171839264470963,-0.0042453015160118,-6.446017558236113e-07,0.0090998616069555,-0.020047128200531,-0.0269037839025259,0.0013874880969524,0.0038335844874382,-0.9732359051704408,0.2297721803188324,-0.0136629009849837,-0.0116230200534646,-0.0473160225637377,-0.1176257133483886,0.0278851985931396,1.6171979904174805,97,121,15198,14131
15.0,1788261999551,5.239436626434326,4.873239517211914,-0.0038743242621421,-0.0012416697572916,0.7839177846908569,0.6208512783050537,0.167362744642424,-0.0021305418115443,4.362405806865165e-05,0.0011660683667287,0.0014458789955824,-0.0487590171396732,0.0013081701472401,0.0040415339171886,-0.973764717578888,0.2275174111127853,-0.012920386205815,0.006907473481227,-0.0549620283263842,-0.2973994612693786,-0.1764446496963501,0.9123859405517578,86,102,15226,13882
15.1,1788261999651,5.211267471313477,4.901408672332764,-0.0041216444224119,-0.0014096476370468,0.7826900482177734,0.6223964691162109,0.1604608830916589,0.0001854575587879,-3.928598178072696e-05,-0.003279804252088,0.0133295617997646,-0.0442332103848457,0.0013315882533788,0.0039815716445446,-0.9741841554641724,0.2257160395383834,0.0044441067302857,-0.0184442526458022,-0.0422464018606538,0.2429576516151428,0.2127782106399536,0.0615720748901367,86,101,15445,13800
15.2,1788261999751,5.183098793029785,4.957746505737305,-0.0040371725335717,-0.0013923025690019,0.7809628248214722,0.6245629191398621,0.1654809170572002,0.001336925688069,-1.496142319318067e-05,0.0009013341623358,0.0007936811889521,-0.0757544189691543,0.0010550394654273,0.0042009018361568,-0.974905252456665,0.2225784361362457,-0.0086007330655551,-0.0220270085930302,-0.0582250333852483,0.0587389469146728,0.1701033115386963,-0.2325878143310547,104,100,15386,13667
15.3,1788261999851,5.126760482788086,4.816901206970215,-0.003879917319864,-0.0017664215993136,0.7797408699989319,0.6260877847671509,0.1775074632352944,-0.0022890705002102,2.0211651481136304e-05,0.0015886676264926,-0.0039388709701597,-0.0324559845030307,0.0008013332262635,0.0040076412260532,-0.9753791093826294,0.220497116446495,-0.0022483299678134,-0.0132993942974346,-0.0563470062724283,0.1176413893699646,-0.0715265274047851,0.053450584411621,85,122,15698,14030
15.4,1788261999951,5.239436626434326,5.042253494262695,-0.0034283213317394,-0.0017385957762598,0.7781999707221985,0.6280048489570618,0.1701278635229285,-0.0029057967482502,3.266863584611586e-06,0.0087299859151244,-0.0010286656906828,-0.022750599309802,0.000568239018321,0.0036633126437664,-0.975852906703949,0.2183971852064132,0.004192589670138,-0.0031652284532199,-0.0621021710456531,-0.1728966832160949,-0.0832211375236511,0.1648216247558593,81,131,14082,14319
15.5,1788262000051,5.352112770080566,4.901408672332764,-0.003229108871892,-0.0018296362832188,0.777388334274292,0.629010021686554,0.1687501094748412,-0.0010509538264665,6.870960476354921e-07,0.0,0.0,0.0,0.0009301099926233,0.0036814911291003,-0.976106822490692,0.2172579616308212,-0.0032071091865845,0.0166758654026125,-0.045067255538287,-0.1753031015396118,-0.2332239747047424,-0.0532598495483398,125,71,15203,13609
15.6,1788262000151,5.267605781555176,4.8450703620910645,-0.0035892059095203,-0.0014911985490471,0.775763988494873,0.6310111284255981,0.167805403133123,-0.0008617395031539,-6.109774470847371e-05,-8.79298968357034e-05,0.0137572428211569,-0.0758840069174766,0.0007896125316619,0.0035954555496573,-0.9766219854354858,0.2149325609207153,0.003611650904077,-0.0194951457929954,-0.0421359990636187,0.1256109476089477,0.1735939383506775,-0.0620698928833007,78,83,15127,13904
15.7,1788262000251,5.126760482788086,5.014084339141846,-0.0033457579556852,-0.0013892613351345,0.7740641832351685,0.6330966353416443,0.1708382884652391,-0.0002255208695181,-4.772469372255137e-06,0.0063320687040686,0.0073111611418426,-0.0692055523395538,0.0009704614058136,0.003254578448832,-0.9770655035972596,0.2129120826721191,0.0147677107128967,-0.0044430392636148,-0.0259324486626665,0.1569455862045288,-0.0689218640327453,-0.0137805938720703,95,92,15895,13398
15.8,1788262000351,5.323943614959717,4.8450703620910645,-0.0030753160826861,-0.0012997864978387,0.7728469371795654,0.6345837712287903,0.1695473352085186,-0.0008983692001112,-5.19815019796574e-05,-0.0008116872049868,0.0070226890966296,-0.0409407019615173,0.0006140023469924,0.002897466532886,-0.9777007699012756,0.2099822014570236,0.0161616908191297,-0.0139117211715086,-0.0590906994736468,-0.0040674209594726,-0.1089872121810913,0.3160982131958008,101,84,14966,13813
15.9,1788262000451,5.380281925201416,4.760563373565674,-0.0027512591332197,-0.001189671922475,0.770937442779541,0.6369037628173828,0.1582471029840237,-0.0005838140869743,9.775960972833432e-05,0.0083913262933492,-0.0036081308498978,-0.0825763791799545,0.0007900223135948,0.0032676691189408,-0.9785036444664,0.2062021493911743,-0.0110049235866168,-0.0161156374897894,-0.092082687104516,0.0823323726654052,-0.1595612168312072,0.3257617950439453,106,123,14931,14598
16.0,1788262000551,5.323943614959717,4.788732528686523,-0.0030940887518227,-0.0014748242683708,0.7685253620147705,0.6398101449012756,0.1731340008190285,-0.0006626412871148,4.051423328301431e-05,-0.0090408399701118,-0.0416565313935279,-0.0565534010529518,0.0014307154342532,0.0035688066855072,-0.9789056181907654,0.204276755452156,-0.0045732630481946,0.0427886336366911,-0.0221440071326169,0.0530439019203186,0.1426391005516052,0.1875553131103515,119,86,14963,14127
16.1,1788262000651,5.239436626434326,4.873239517211914,-0.0042811636812984,-0.0007957412162795,0.7671289443969727,0.6414780020713806,0.1633872045038585,0.0013655833613351,-8.215005690838403e-05,-0.0071748257614672,0.0310162361711263,-0.057004876434803,0.0026165079325437,0.0039113340899348,-0.9795581698417664,0.2011061757802963,-0.0031839803776987,0.0352526793593437,-0.0539615362600397,-0.2152194380760193,0.2259902954101562,0.2597932815551758,57,93,15387,13898
16.2,1788262000751,3.802816867828369,4.309859275817871,-0.0045448681339621,-0.0003175667952746,0.7653704881668091,0.6435738205909729,0.1714344928725104,0.0011950829846706,6.930911359407461e-05,0.0057997391559183,-0.0027221667114645,-0.0463980883359909,0.002585906535387,0.0039782635867595,-0.9799002408981324,0.1994318217039108,-0.0117734341524911,-0.0031924057816699,-0.0294753545673506,-0.529054582118988,-0.0554353594779968,0.1107683181762695,9,44,7389,10540
16.3,1788262000851,1.2676056623458862,2.985915422439575,-0.0046853031963109,-0.0002379345241934,0.7663962841033936,0.642350971698761,0.1164302401603382,-0.0009931197902884,-2.6824612333622127e-05,0.0063000065274536,0.0060371160507202,0.0771916583180427,0.0027243997901678,0.0039453050121665,-0.9786070585250854,0.205682560801506,-0.010098316107268,0.0021178949730988,0.2238338647979298,-0.9396181106567384,-0.1239753365516662,0.1779012680053711,59,41,0,8480
16.4,1788262000951,-1.2676056623458862,2.11267614364624,-0.0048836339265108,-0.0003610108979046,0.7777373790740967,0.6285703182220459,0.0383899876477172,-0.0024297368994154,-4.362401185534687e-06,-0.0030516034457832,0.0001199291073135,0.4058837294578552,0.002872971817851,0.0043445732444524,-0.9732114672660828,0.2298528552055359,-0.010375341765513,0.0085824504882689,0.4575770832554897,-1.0446534156799316,-0.2658804655075073,0.1583194732666015,106,83,-7875,6428
16.5,1788262001051,-2.2253520488739014,1.8028168678283687,-0.0049710646271705,-0.0006032940000295,0.7933135628700256,0.6087926626205444,-0.0102376501586953,-0.0022550981501198,-1.3829761886736626e-06,-0.0022212679032236,-0.0115993041545152,0.5609949231147766,0.0025266679003834,0.0043567353859543,-0.9668720364570618,0.2552119195461273,-0.0082186742827316,-0.0011593214321607,0.6415017423088198,0.1313497424125671,-0.3638916015625,0.0478448867797851,42,158,-6732,7327
16.6,1788262001151,-1.8591549396514893,1.8309859037399288,-0.0049105072394013,-0.000752808060497,0.810925304889679,0.5851286053657532,0.0032544178618286,-0.0019582231691274,7.324051420336221e-07,-0.0012600063346326,-0.0037574942689388,0.5749199986457825,0.0024825036525726,0.0043108584359288,-0.9600089192390442,0.2799251675605774,-0.0012575161369308,-0.0005838899615897,0.551825874188155,0.1354804039001464,-0.1904881000518798,0.0742444992065429,93,106,-7658,7047
16.7,1788262001251,-1.6338027715682983,1.380281686782837,-0.0048616579733788,-0.0008266302756965,0.8254205584526062,0.5644968152046204,0.0043406760817691,-0.0048201621616089,-6.360590040923673e-07,-0.0035591267514973,-0.0063806655816733,0.5667117238044739,0.0021217847242951,0.0043496154248714,-0.950739860534668,0.3099523782730102,-0.0049006939388412,-0.0055236219803513,0.4812279645209844,0.126448392868042,-0.2787185907363891,-0.0539674758911132,59,94,-5751,6186
16.8,1788262001351,-1.5774648189544678,1.5211267471313477,-0.0047346674837172,-0.0010589667363092,0.8381521701812744,0.5454151034355164,0.0006773200369217,-0.0029044972967801,7.165867903917143e-07,-0.0027119317092001,-0.0023033069446682,0.4226173758506775,0.0022124908864498,0.0043943608179688,-0.9445472359657288,0.3283387422561645,-0.00125445821682,0.0039160088566268,0.4406850091979535,-0.1330529451370239,0.0105430483818054,0.0399446487426757,126,100,-6737,6228
16.9,1788262001451,-1.7464789152145386,1.4929577112197876,-0.0048559373244643,-0.0011976163368672,0.8518964648246765,0.5236863493919373,0.0018598186601347,-0.0013553528763324,2.980183217363046e-07,-0.0082997102290391,-0.0039530787616968,0.4706092476844787,0.0019956892356276,0.0046232482418417,-0.93734210729599,0.3483741581439972,-0.0091244836927624,-0.0065731063159491,0.4694840195838769,0.1041658520698547,-0.0722561478614807,0.1503305435180664,73,94,-5702,6318
17.0,1788262001551,-1.1267606019973757,1.2394366264343262,-0.0047930628061294,-0.0015388015890493,0.863554060459137,0.5042310953140259,0.0022843484496564,-0.0036795598310552,-2.999062244645887e-07,-0.0063096731901168,-0.0084160799160599,0.4562103152275085,0.0017768470570445,0.0047828163951635,-0.929140567779541,0.369691401720047,-0.0039180067700164,0.0015635629330188,0.2560194044917123,0.0944041013717651,-0.176582932472229,0.0758924484252929,62,83,-5282,4704
17.1,1788262001651,-1.154929518699646,1.2394366264343262,-0.0048664095811545,-0.0016216973308473,0.8708139061927795,0.4915860891342163,0.0031997091662287,-0.0011946572760815,7.176278256663434e-07,-0.0032318772282451,-0.0015073679387569,0.3096456527709961,0.0016129212453961,0.0048653436824679,-0.9228047728538512,0.3852339088916778,-0.0053847151036029,-0.0089219919267311,0.3803491545503538,-0.0213720202445983,0.0534451603889465,0.0301322937011718,87,121,-5913,5255
17.2,1788262001751,-1.211267590522766,1.183098554611206,-0.0047466522082686,-0.0019302981672808,0.8798505663871765,0.4752227962017059,0.0001546875905162,-0.0018918278136593,1.197438575969491e-06,-0.0058966833166778,-0.006844101473689,0.3877995908260345,0.0014084260910749,0.0049869092181324,-0.9161557555198668,0.4007890820503235,-0.0056390037499514,-0.0027307589029389,0.4106424403944089,0.013563334941864,-0.0115962028503417,-0.0473546981811523,101,121,-5164,5250
17.3,1788262001851,-1.1267606019973757,1.2394366264343262,-0.0047885687090456,-0.0020848722197115,0.8889527916908264,0.4579691886901855,0.0033822763483256,-0.0039851442169961,7.558436822384799e-07,-0.0032736645080149,-0.0022066142410039,0.3384898602962494,0.0013838438317179,0.0050883227959275,-0.907641053199768,0.4197140038013458,-0.0020210362601664,0.0013216609697274,0.3591788060864119,0.0618250370025634,-0.0007038712501525,0.0284509658813476,59,152,-5853,5278
17.4,1788262001951,-0.8450704216957092,0.8732394576072693,-0.004758910741657,-0.0021337775979191,0.8968367576599121,0.4423309862613678,0.002645987239888,-0.0013545828712193,-1.4972193734033268e-07,-0.0017069111345335,-0.0056594698689877,0.3667586147785187,0.0011770315468311,0.0050721419975161,-0.9013062715530396,0.4331512749195099,-0.0045799302687723,-0.004971600112804,0.2512064238192552,0.0504566431045532,-0.2442123293876648,-0.0128583908081054,14,61,-2780,2218
17.5,1788262002051,1.183098554611206,1.2676056623458862,-0.0046793483197689,-0.0022436180151998,0.9006576538085938,0.4344983696937561,-0.0005749713302373,-0.0025705907279673,1.4451877797003857e-06,-0.0002432557957945,-0.0014984342269599,0.11476781219244,0.0010524466633796,0.0050224931910634,-0.8999810218811035,0.4358989000320434,-0.0013768479148448,-0.0034451337776449,-0.0217885075897559,0.7317468523979187,0.0333896875381469,0.09912109375,159,313,8376,11598
17.6,1788262002151,3.1549296379089355,4.647887229919434,-0.004575949627906,-0.0021802722476422,0.9018871188163756,0.4319420754909515,0.069668264885603,0.001242579944097,4.84961662826741e-05,0.0033133148681372,-0.0014223422622308,0.105349063873291,0.0010977620258927,0.0047645466402173,-0.8969530463218689,0.4420989155769348,0.0063819904445518,0.01152259189145,0.1456096060561765,0.4922895431518554,0.1864667534828186,0.0466890335083007,149,226,13022,16075
17.7,1788262002251,4.507042407989502,6.14084529876709,-0.0042903749272227,-0.0018605751683935,0.9061537384986876,0.4229224622249603,0.151375527385355,0.0041011298454659,1.410476856296309e-06,0.0099939182400703,0.0015447180485352,0.2263520210981369,0.000946800224483,0.0041479207575321,-0.8926821947097778,0.4506667554378509,0.0091893422420263,-0.0273170571560929,0.1830008428889091,0.0469956994056701,-0.1119840741157531,-0.3154993057250976,82,108,13153,17301
17.8,1788262002351,4.2816901206970215,6.02816915512085,-0.0034904503263533,-0.0017085880972445,0.9106647968292236,0.4131276905536651,0.1800423232719568,-0.0004145906378044,6.613950359686225e-05,0.0083554089069366,-0.0211138483136892,0.2442076206207275,0.0006187064573168,0.0034063979983329,-0.8875652551651001,0.4606689810752868,0.0159740109015001,-0.0253415172355896,0.276729181393034,-0.2470048666000366,-0.0999079346656799,0.0421009063720703,74,73,12243,16087
17.9,1788262002451,4.422535419464111,5.802816867828369,-0.0026450401637703,-0.001668470678851,0.9157800078392028,0.4016680419445038,0.1672558462635224,0.0060805806677692,2.8000113279148665e-05,0.0032723944168537,-0.0165191609412431,0.2694162130355835,0.0002104435116052,0.0027313511818647,-0.881046712398529,0.4730212986469269,0.006416124448835,-0.009338425911751,0.1644177573694616,-0.2909850478172302,0.138435959815979,0.1926536560058593,42,153,12224,16604
18.0,1788262002551,4.535211086273193,5.549295902252197,-0.0014291896950453,-0.0013061652425676,0.9198049306869508,0.392371118068695,0.1665420803907717,0.0072704374826857,5.227390731260412e-05,0.0233256556093692,-0.0296786036342382,0.2154159694910049,-0.000219888985157,0.0019984832033514,-0.8764285445213318,0.481527715921402,-0.0240178699119912,0.0125432053776125,0.1617806070537601,-0.2909003496170044,-0.1973990201950073,-0.0431461334228515,99,53,13790,15028
18.1,1788262002651,4.704225540161133,5.549295902252197,-0.0011852167081087,-0.0015961192548274,0.9229504466056824,0.384913682937622,0.1582366512444364,0.000886942734676,6.942878666578756e-05,-6.59887446090579e-05,-0.0108550516888499,0.1005695462226867,-0.0010870145633816,0.0015896940603852,-0.874126672744751,0.4856942892074585,0.0004697886701739,-0.049434016027709,0.1300122538089755,0.1037478446960449,-0.1303215026855468,0.5435171127319336,70,100,13005,15533
18.2,1788262002751,4.619718074798584,5.577464580535889,-0.0007447298266924,-0.0020898003131151,0.9256381392478944,0.3784034252166748,0.1709239402629953,0.002854772135281,-5.065215269179315e-06,-0.0084661832079291,-0.0013611243339255,0.1504660099744796,-0.0013680467382073,0.0020609050989151,-0.8697928786277771,0.4934109151363373,-0.0026591649812836,-0.0328324571345899,0.1509253540686974,0.5578729510307312,0.039427101612091,-0.600367546081543,87,102,13323,15613
18.3,1788262002851,4.197183132171631,5.830986022949219,-0.0010466448729857,-0.0024155480787158,0.9281155467033386,0.3722828924655914,0.1722986809286037,0.0027662117041017,-7.104190211519102e-05,-0.0079310936853289,0.0065785092301666,0.1426774859428405,-0.0011689532548189,0.0027562100440263,-0.8655348420143127,0.5008396506309509,-0.0201820838419986,0.0240730816345637,0.2600146550295391,-0.1467396020889282,0.0395236611366272,-0.2346105575561523,52,166,12291,17310
18.4,1788262002951,4.02816915512085,6.02816915512085,-0.001492500770837,-0.0028513965662568,0.9330862164497375,0.3596383929252624,0.1641623340214241,0.0033010549204548,-4.190913271199749e-05,-0.0121073508635163,0.0163717195391654,0.2961523234844208,-0.001254316419363,0.0032981019467115,-0.8569090962409973,0.515455424785614,-0.0039374763471132,-0.0024042706825526,0.258805237644775,0.0435887575149536,-0.0195741057395935,0.6228399276733398,103,120,13493,16360
18.5,1788262003051,4.563380241394043,5.605633735656738,-0.0018138175364583,-0.0031115845777094,0.9382052421569824,0.3460606038570404,0.17275290155186,0.0007497269927859,-2.555928786355099e-05,-0.0036042623687535,-0.0023474041372537,0.2603663802146911,-0.0013850955292582,0.0034201769158244,-0.8509595990180969,0.5252181887626648,-0.0047222997176332,-0.000894385992466,0.2454195663929081,-0.0236961841583251,-0.1745086908340454,0.130990982055664,166,20,16368,12710
18.6,1788262003151,5.154929637908936,4.704225540161133,-0.0019091747235506,-0.0035251174122095,0.9409359097480774,0.3385609984397888,0.1801350808149745,-0.0051758889884685,-1.7402312337669963e-05,-0.0129893384873867,-0.0033246609382331,0.0766968801617622,-0.0016381153836846,0.0038720481097698,-0.8508698344230652,0.5253598093986511,-0.0085196206563987,0.0068182301882355,-0.1246736543547075,-0.2433944940567016,-0.0948444008827209,-0.3026199340820312,77,90,15988,13777
18.7,1788262003251,5.295774459838867,4.8450703620910645,-0.0022502613719552,-0.0034047192893922,0.939578115940094,0.3423102498054504,0.1653108566149442,-0.0032310167240132,-4.838759148851941e-05,0.0063206749036908,0.0167673751711845,-0.0699366256594657,-0.0012059472501277,0.0040625566616654,-0.8532512784004211,0.5214829444885254,-0.0054303469331395,0.018669934370284,-0.0619772190321758,0.1039206981658935,-0.0662803053855896,-0.4440898895263672,113,115,15223,13997
18.8,1788262003351,5.239436626434326,4.901408672332764,-0.0024136886931955,-0.0037076890002936,0.9382707476615906,0.345873475074768,0.1683453375116066,0.0007137281875983,4.701981911854849e-05,-0.0128146391361951,-0.0057386015541851,-0.0752547159790992,-0.0017541665583848,0.004315597936511,-0.8545680642127991,0.5193185806274414,0.0009688845759085,-0.0210251148132901,-0.0383888988476986,0.1315932869911193,-0.0186120271682739,-0.2010622024536132,89,109,14994,13992
18.9,1788262003451,5.408450603485107,4.929577350616455,-0.0022873294074088,-0.0042382762767374,0.9375745058059692,0.3477510511875152,0.1692095763181202,-0.0032501528270151,6.81310706958489e-07,-0.0043237758800387,-0.0001644071744522,-0.0370922982692718,-0.0017394851893186,0.0047931568697094,-0.8555536270141602,0.5176892280578613,-0.0127713150789208,0.0215557546974224,-0.0573380955609151,-0.2786831855773926,-0.1356937289237976,0.4530715942382812,80,112,14751,13847
19.0,1788262003551,5.183098793029785,4.816901206970215,-0.0026110769249498,-0.0045066536404192,0.9366569519042968,0.3502094745635986,0.1688857734682292,-0.0021682135747189,-2.227230197618165e-05,-0.0024180465843528,0.010851883329451,-0.0503368526697158,-0.0018980773165822,0.0049670813605189,-0.8567274808883667,0.5157420635223389,-0.0065033976966813,0.0051175459881772,-0.0546442862788367,-0.0424908399581909,-0.1455636620521545,0.7166624069213867,95,100,15434,14121
19.1,1788262003651,4.901408672332764,5.211267471313477,-0.0024413373321294,-0.0047028600238263,0.9359565377235411,0.352075845003128,0.1654615464355699,-0.0022653922029308,6.451148165625018e-05,-0.0039564445614814,-0.0186840388923883,-0.0466997101902961,-0.0018897885456681,0.0051508536562323,-0.8570895195007324,0.5151382088661194,0.0018429988967784,-0.0072327825277472,0.0604251782580699,-0.1256880164146423,-0.1714290976524353,0.2292299270629882,84,75,15105,13815
19.2,1788262003751,4.957746505737305,4.985915660858154,-0.0025454806163907,-0.0044519044458866,0.9363465309143066,0.3510394692420959,0.1727312279574664,0.0003376987266243,-7.310444435208447e-07,0.014418370090425,-0.0201476272195577,0.0216506905853748,-0.0017395680770277,0.0052117118611931,-0.8565467000007629,0.5160402059555054,-0.0227112280204002,0.0319757889879087,0.0145178939683507,0.0712836980819702,0.0023064613342285,-0.0288314819335937,95,122,15300,14563
19.3,1788262003851,4.985915660858154,5.211267471313477,-0.0033056209795176,-0.0045505133457481,0.9365639090538024,0.3504518568515777,0.1719279715412116,-0.0016867827001314,-4.073293754765762e-05,-0.0023644673638045,0.0119788590818643,0.0084463972598314,-0.0014490177854895,0.0052850442007184,-0.8563323616981506,0.5163961052894592,0.012757394315619,-0.0148642033377262,0.0038453984184677,0.0192912817001342,0.0237217545509338,0.0015201568603515,87,102,13996,14807
19.4,1788262003951,4.563380241394043,5.605633735656738,-0.0032845009118318,-0.0044359709136188,0.936978042125702,0.3493444323539734,0.1706263876014404,0.0014626170121515,1.0502740854477636e-05,0.0003875555121339,-0.0012667233822867,0.0449664816260337,-0.0015821820124983,0.0054720034822821,-0.8553265333175659,0.5180580019950867,0.0046304546136197,-0.0163329115639927,0.0422414896385093,-0.0124937295913696,0.055554986000061,0.1901721954345703,42,148,13219,15810
19.5,1788262004051,4.535211086273193,5.352112770080566,-0.0034162218216806,-0.0045439898967742,0.9384413957595824,0.3453918993473053,0.1679652513814711,0.003174744594101,-4.768885695062711e-05,0.0018242098158225,0.0017608102643862,0.1410566717386245,-0.0013747820630669,0.0056226029992103,-0.8513453602790833,0.524573802947998,-0.0082623441028656,0.0196841844278709,0.1752749663404549,0.0972259044647216,0.0323659777641296,-0.0644121170043945,161,44,16675,13402
19.6,1788262004151,4.957746505737305,5.014084339141846,-0.0033420785330235,-0.0045146844349801,0.9406316876411438,0.3393824398517608,0.1755253426052247,-0.0009412170570327,2.535787686669904e-05,0.0036582842003554,-0.0032344658393412,0.0681710839271545,-0.0013791443780064,0.005554536357522,-0.8502858281135559,0.5262899994850159,-0.0064498885593636,-0.008422235344834,-0.0099441576934593,0.2334949374198913,0.2341959476470947,0.1856937408447265,91,144,14326,15125
19.7,1788262004251,5.042253494262695,5.211267471313477,-0.0035560592077672,-0.0044993748888373,0.9410657286643982,0.3381750285625458,0.1731269762017848,-0.0002881465082787,-3.6651333758132777e-05,-0.0024226310197263,0.0080184657126665,0.0515905916690826,-0.0012316880747675,0.005653727799654,-0.8494293093681335,0.5276708006858826,-0.0042195635451081,0.0057555313571139,0.007709563348085,-0.1627537608146667,-0.0649193525314331,0.0770397186279296,78,120,14077,14813
19.8,1788262004351,5.070422649383545,5.014084339141846,-0.0035090849269181,-0.0044773621484637,0.9413726329803468,0.3373208045959472,0.1620107868526016,-0.0008296722721789,5.355725707844711e-06,0.0013422244228422,-0.001601563533768,0.0348586663603782,-0.0013714451342821,0.0057701338082551,-0.8489320874214172,0.5284687280654907,-0.0044196797534673,-0.0077330462751759,-0.0152497204582907,0.1612282991409301,0.1394710540771484,0.094792366027832,103,98,14989,14186
19.9,1788262004451,5.183098793029785,4.985915660858154,-0.0036621009930968,-0.0045262202620506,0.9414985775947572,0.3369669020175934,0.1751997182255319,-0.0023983846218783,-7.348632505047167e-07,0.0,0.0,0.0,-0.0008916109800338,0.0058792559430003,-0.8489327430725098,0.5284674167633057,0.0112220621923858,0.0225898036782836,0.013735030882906,0.1003263592720031,-0.189832329750061,-0.5186223983764648,125,75,15728,13428
20.0,1788262004551,4.957746505737305,5.070422649383545,-0.0041348729282617,-0.00430219899863,0.9411717653274536,0.3378758132457733,0.1713836829824529,-0.003629237101589,-2.469381429034372e-07,0.0021531193051487,0.021182507276535,-0.0387838333845138,-0.0008391141891479,0.0060496823862195,-0.8496653437614441,0.5272868871688843,-0.0063161538253143,0.0235724882923517,0.0014289454774908,-0.1113315820693969,-0.2191823124885559,0.1552801132202148,90,111,15066,14355
20.1,1788262004651,5.126760482788086,5.070422649383545,-0.0042112013325095,-0.0042562736198306,0.9410818815231324,0.338126003742218,0.1706458440440973,0.0012753998719485,-1.9643295218527838e-07,0.0,0.0,0.0,-0.0013826424255967,0.0056264782324433,-0.8496322631835938,0.5273438096046448,-0.0076101129128622,-0.0286912868290064,-0.006201056629576,-0.1728092432022094,0.1937529444694519,0.9930696487426758,80,95,14626,14259
20.2,1788262004751,5.070422649383545,4.957746505737305,-0.0034998259507119,-0.0045888689346611,0.9410268664360046,0.3382825553417206,0.1648053425413525,-0.0005411027051592,-2.832990984082357e-07,0.0,0.0,0.0,-0.0019460599869489,0.0052341893315315,-0.8496604561805725,0.5273005962371826,-0.005557391179933,-0.0135243433550614,-0.0046831164942676,-0.0974096059799194,-0.1073518395423889,0.5477724075317383,90,129,14567,14503
20.3,1788262004851,4.985915660858154,5.014084339141846,-0.0028644278645515,-0.0047372868284583,0.9411225318908693,0.3380202949047088,0.1660487848731122,-0.0002986175690296,4.198953788007865e-05,0.0029857479967176,-0.0259325429797172,0.0110061820596456,-0.0021596085280179,0.0049355756491422,-0.8493860960006714,0.527744472026825,-0.003917019847359,-0.0015934454690346,-0.005951554639211,0.0445287227630615,0.0879353284835815,-0.1156854629516601,106,118,15152,14437
20.4,1788262004951,4.985915660858154,5.323943614959717,-0.0023252826649695,-0.0046741971746087,0.9412325620651244,0.3377187550067901,0.1717970620029225,-0.0003840978383276,9.651917586457782e-07,0.0096557065844535,-0.019522339105606,0.0127509078010916,-0.0022964356467127,0.0042438376694917,-0.8492347002029419,0.5279935598373413,0.0070754806471778,0.0015983893755863,0.0148217678427194,-0.1738954782485962,-0.0039019584655761,-0.1542196273803711,52,133,11980,16239
20.5,1788262005051,4.450704097747803,5.521126747131348,-0.0025811293162405,-0.0046012559905648,0.9422290921211244,0.3349276483058929,0.1660799204020432,0.0048761437714332,-5.38337776178594e-05,-0.0116426199674606,0.0177049245685338,0.1302046924829483,-0.0017972346395254,0.0049183377996087,-0.8457017540931702,0.5336301326751709,0.0057475779598003,0.0083674916592615,0.1944881392547108,0.1577692627906799,0.0047743320465087,0.2177648544311523,144,33,15789,13828
20.6,1788262005151,4.8450703620910645,5.267605781555176,-0.0026777717284858,-0.0043386328034102,0.9441660046577454,0.3294306397438049,0.1712951815674642,-0.0018278345340835,-1.4488596961756634e-05,0.0032682612072676,0.0026925532147288,0.0459729619324207,-0.0015108846127986,0.004810307174921,-0.8444399237632751,0.5356265902519226,-0.0033284242083002,0.015088402226045,0.0065574411253116,-0.1865726113319397,0.1220280528068542,0.4769668579101562,37,175,12920,16400
20.7,1788262005251,4.2816901206970215,5.549295902252197,-0.0029508261941373,-0.0043080383911728,0.9453787207603456,0.3259323239326477,0.1664142013955517,0.0032912107085796,4.049671036878104e-05,-0.0044651529751718,-0.000660419347696,0.1227815002202987,-0.0015776399523019,0.0046690059825778,-0.8401395082473755,0.5423479676246643,0.004876668940074,0.0071595977443135,0.1996986315235366,0.1046473979949951,0.1765767335891723,0.1252374649047851,128,114,14221,15672
20.8,1788262005351,4.732394218444824,5.211267471313477,-0.0027057500556111,-0.0039765276014804,0.9480689764022828,0.318028450012207,0.1705727002037419,0.0034210079016921,-4.0762789507134704e-05,0.006294994149357,0.0080912411212921,0.1767863035202026,-0.0012024352326989,0.004693865776062,-0.8361740112304688,0.5484428405761719,-0.0016520664946127,-0.001263237894037,0.1458468494080851,0.3854650855064392,-0.2416086196899414,0.3053274154663086,83,86,15424,14450
20.9,1788262005451,5.126760482788086,5.098591327667236,-0.0032937345094978,-0.0037227005232125,0.9497616291046144,0.3129346668720245,0.1678510014215216,-0.0004254850400506,1.8721168035393564e-06,-0.0006355039658956,-0.001040197792463,0.0327831283211708,-0.0008543264120817,0.0049374131485819,-0.8344939351081848,0.5509943962097168,0.0014371746664576,0.0088533943018945,0.0408544383168634,0.115150511264801,-0.392267644405365,-0.2146596908569336,91,97,14858,13985
21.0,1788262005551,4.901408672332764,5.267605781555176,-0.003423408139497,-0.0036704246886074,0.9502049684524536,0.3115853667259216,0.1719175432858171,-0.0012015128359332,-7.398522573216182e-05,0.0019648051820695,0.0136673655360937,0.0182277038693428,-0.0009147487580776,0.004737639799714,-0.8336688876152039,0.5522435307502747,-0.0004149975970841,-0.0030870004439788,0.0548813449976386,0.0465354919433593,0.1028968095779419,0.2500524520874023,83,94,14435,14712
21.1,1788262005651,4.985915660858154,5.183098793029785,-0.0031628177966922,-0.003601366886869,0.9511185884475708,0.3087885975837707,0.1701841951177123,0.002843004764076,-6.568844515933766e-07,0.0020491378381848,0.0012602463830262,0.0659595131874084,-0.0010230839252471,0.0046713948249816,-0.8321105241775513,0.5545892119407654,-0.0081742042716494,-0.010262177846591,0.0545506436119555,0.0222089290618896,0.132789671421051,0.3399343490600586,94,105,14155,14865
21.2,1788262005751,5.042253494262695,5.014084339141846,-0.0026953478809446,-0.0037437346763908,0.9517195820808412,0.3069340884685516,0.1724425671120207,-0.0004311840804507,5.8197662136145045e-05,0.0028785192407667,-0.0114102372899651,0.0204488392919302,-0.0012340052053332,0.0042140474542975,-0.8318327069282532,0.5550090670585632,-0.0103454792027717,-0.0065589985978036,-0.0326395236340607,-0.0629059076309204,0.1260508298873901,0.5603256225585938,113,91,15258,14263
21.3,1788262005851,4.957746505737305,5.211267471313477,-0.0023586233146488,-0.0034672422334551,0.9516170620918274,0.3072576820850372,0.1748636615097278,-0.0016810323904353,-3.146735096217593e-07,0.0147281819954514,-0.0093957409262657,-0.0136446366086602,-0.0011516064405441,0.0042077768594026,-0.8320391178131104,0.5546998977661133,-0.0061395327799855,0.0214172647474592,-0.0065904316923268,-0.2871926426887512,-0.0137534141540527,0.1251239776611328,62,115,14087,14816
21.4,1788262005951,4.985915660858154,5.098591327667236,-0.0026748098898679,-0.0034529156982898,0.9520133137702942,0.3060255348682403,0.1661972334336639,0.0028738943475297,-2.0127795054274775e-05,-0.0033386778086423,0.0117799844592809,0.0508524999022483,-0.0011812932789325,0.004163235425949,-0.8310917615890503,0.5561184287071228,-0.0013833413920593,-0.0120059632200305,0.009011894927113,0.040842592716217,0.0664840340614318,0.3988618850708008,83,95,14150,14918
21.5,1788262006051,4.929577350616455,5.183098793029785,-0.0026748098898679,-0.0034529156982898,0.9520133137702942,0.3060255348682403,0.1772902077745876,0.0013340121012766,-9.855070849300426e-07,0.0,9.701588865596024e-09,0.0,-0.0010229777544736,0.004783472046256,-0.8297954797744751,0.5580461621284485,-0.003483536366443,0.0168877736057828,0.0767489356397452,0.0697067975997924,-0.138782262802124,-0.1340970993041992,94,101,15200,13823
21.6,1788262006151,4.8450703620910645,5.042253494262695,-0.0030930386856198,-0.0036142882890999,0.9529247879981996,0.3031693994998932,0.1591301939684255,-0.001682128648922,3.292573642515077e-07,0.0081471716985106,0.0056464103981852,0.0166234280914068,-0.0008892426267266,0.0044478652998805,-0.8288117051124573,0.5595093369483948,0.0005824211283012,-0.0160166627202336,0.06341737132951,0.2009387612342834,0.2216715216636657,-0.1064748764038086,113,97,15658,14119
21.7,1788262006251,4.985915660858154,5.239436626434326,-0.0033574553672224,-0.003644504584372,0.9531826376914978,0.3023546040058136,0.1727859473886054,-0.0017698350487161,-3.664950691722461e-05,-0.0082034133374691,0.0055325557477772,-0.011629456654191,-0.0007994920015335,0.0050418572500348,-0.8292525410652161,0.5588507652282715,-0.0044779197879329,0.0158992203500197,-0.0121578096879623,-0.1897761225700378,0.0496559739112854,-0.3867940902709961,64,119,13944,14853
21.8,1788262006351,5.014084339141846,4.985915660858154,-0.0033377856016159,-0.0038420476485043,0.9533643126487732,0.3017791509628296,0.1646684770258396,0.003612178177003,8.7269577582562e-06,-0.007207503542304,-0.0031867045909166,0.0236573759466409,-0.0006808498874306,0.0051271002739667,-0.8276947736740112,0.5611546635627747,-0.0094994037470717,0.0476807172817469,0.0421332200744098,0.0497719049453735,-0.1253225803375244,-0.2211055755615234,124,122,15209,14508
21.9,1788262006451,4.873239517211914,5.267605781555176,-0.0033642062917351,-0.0037421558517962,0.9538604021072388,0.3002084195613861,0.1781936466648031,0.0015911055903981,6.082482424002067e-07,0.0,-9.495765063149976e-09,0.0,-0.0010918322950601,0.0045929225161671,-0.8277492523193359,0.5610782504081726,0.014749825623315,-0.0468616621568265,0.0113482693786927,0.0841820836067199,-0.0386124849319458,0.1054496765136718,51,112,14380,14846
22.0,1788262006551,5.042253494262695,5.183098793029785,-0.0031290976330637,-0.0038937751669436,0.9542264342308044,0.2990436553955078,0.1751744484029193,-0.000476503378943,-1.8024360154635436e-05,-0.0049945246428251,-0.0179569236934185,0.079524926841259,-0.0010019904002547,0.0048294682055711,-0.8269513845443726,0.5622518658638,0.0045123778122219,0.0123971015676832,0.0018734455371594,-0.2318153381347656,0.0648697614669799,-0.150003433227539,79,120,13768,14719
22.1,1788262006651,4.957746505737305,5.098591327667236,-0.0031221597455441,-0.0039618578739464,0.9545856714248656,0.2978940010070801,0.1698355632088551,0.0007087471201626,-7.108949305317783e-06,-0.002581724198535,-0.0012922427849844,0.0477632246911525,-0.0011023515835404,0.0048553589731454,-0.8254808187484741,0.5644083023071289,0.0068237721736399,0.0042340015970598,0.0664402364962679,0.0160541534423828,0.152258813381195,-0.1343851089477539,107,69,15238,14094
22.2,1788262006751,4.8450703620910645,5.323943614959717,-0.0031206188723444,-0.0038837208412587,0.955085277557373,0.2962891459465027,0.1709074179027912,0.0004914118189358,6.494682024823947e-07,0.0,0.0,0.0,-0.0009343894198536,0.0048381956294178,-0.8245509266853333,0.5657662749290466,-0.0015524388028754,-0.0001744318509142,0.0670127631076745,0.0030989050865173,-0.0095642209053039,0.0729732513427734,43,172,12387,16553
22.3,1788262006851,5.042253494262695,5.098591327667236,-0.0033889515325427,-0.0036566378548741,0.9565587043762208,0.2914970815181732,0.1677873316872773,0.0032266998553616,-2.276565341015033e-05,0.0003033026296179,0.0065330052748322,0.1341817080974578,-0.0006355112418532,0.0050687184557318,-0.8213855028152466,0.5703505277633667,-0.0006550553293534,0.0066812174569929,0.0708405640132978,-0.0701939463615417,-0.0493392348289489,0.1315193176269531,88,102,14137,14858
22.4,1788262006951,5.126760482788086,4.8450703620910645,-0.0035542016848921,-0.0034914170391857,0.9575237035751344,0.2883117496967315,0.1765835020563133,-0.0009702597582254,-4.058261248924508e-05,0.0050956918857991,0.0025353184901177,0.0605848245322704,-0.0007305974140763,0.005022469907999,-0.8206332325935364,0.5714327096939087,-0.0097079553034951,-0.0115014795454553,-0.0057418128325727,0.0462982058525085,-0.3383873105049133,0.1499252319335937,116,94,15834,13542
22.5,1788262007051,5.183098793029785,5.126760482788086,-0.0038932939060032,-0.0032731643877923,0.9570794701576232,0.2897810339927673,0.1708360731100953,-0.0004001372921506,-2.590820961166913e-05,0.0046066879294812,0.015811139717698,-0.0614675432443618,-8.122622966766357e-05,0.0048812953755259,-0.8200240135192871,0.5723084211349487,0.0061929379619433,0.0351782771473347,0.1522647235545295,-0.5196030139923096,-0.2191270589828491,0.4689016342163086,123,28,15415,12960
22.6,1788262007151,5.549295902252197,4.563380241394043,-0.0036443034186959,-0.0030678459443151,0.9580097794532776,0.2866959869861603,0.1703778409124361,-0.0025735032437249,2.354698695993469e-05,0.0025841575115919,-0.0035226449836045,0.0185310058295726,-0.0003228820860385,0.0046499315649271,-0.8209248185157776,0.571017324924469,0.0092542437747787,-0.0294617399488987,-0.0963521670859166,0.3779528141021728,0.2797396183013916,0.6555814743041992,116,49,16552,12248
22.7,1788262007251,4.084506988525391,4.197183132171631,-0.0039629191160202,-0.0028554492164403,0.9562909603118896,0.2923761010169983,0.1710308105480067,-0.0021037172157779,-3.0944163161559635e-05,0.0042158658616244,0.0219018943607807,-0.1623132973909378,0.0001239394769072,0.0047665620222687,-0.8257473111152649,0.5640201568603516,0.0101534241480533,-0.0073133093188224,-0.175722170928962,-0.5609654188156128,-0.1043470501899719,-0.5220174789428711,8,59,9335,11696
22.8,1788262007351,1.380281686782837,3.746478796005249,-0.0037067732773721,-0.00319723947905,0.9550763964653016,0.2963193356990814,0.1110153872319486,0.0066974461496576,2.1887850833865634e-07,-0.0119056664407253,-0.0093953181058168,0.0655054673552513,-0.0003396235406398,0.0047633768990635,-0.822619616985321,0.5685720443725586,0.0053548489302086,-0.0155138933289467,0.2604193540739297,-0.6764113903045654,0.1364964842796325,-0.1186475753784179,32,77,1581,10792
22.9,1788262007451,-0.3661971688270569,3.211267709732056,-0.0032120565883815,-0.0029816860333085,0.9612308740615844,0.2757099866867065,0.0604549345416876,0.0031354123702375,8.308930624994314e-06,0.0081404261291027,-0.0118736512959003,0.5001782774925232,-0.0003917356953024,0.0046331565827131,-0.8043510317802429,0.5941361784934998,-0.0209583590672318,0.0295090730525664,0.5757015444233536,-0.8413398861885071,0.2270814180374145,-0.1423377990722656,176,83,-8882,9850
23.0,1788262007551,-2.7042253017425537,2.619718313217163,-0.00360041949898,-0.0034297448582947,0.9696677327156068,0.2443763315677642,0.0096878621855233,0.0007239887351234,2.285124574560697e-09,-0.013601298443973,0.0033906770404428,0.6950551867485046,-0.0003513544797897,0.0048761796206235,-0.7838306427001953,0.6209554672241211,0.0056043989124311,-0.0035275437817267,0.8072368393839506,0.2002236247062683,-0.005630075931549,-0.283299446105957,110,90,-10277,8070
23.1,1788262007651,-2.7042253017425537,2.676056385040283,-0.0036592448595911,-0.0034401374869048,0.9777669310569764,0.2096349000930786,-0.0012570507813392,-0.0041547426787125,-2.4050210624850944e-07,-0.0069610918872058,-0.0027740905061364,0.7739354968070984,-0.0005856435745954,0.004813409410417,-0.761395275592804,0.648269772529602,0.0023443577377198,-0.0168328410730835,0.8117710597211137,0.2900441288948059,-0.1337127089500427,0.061192512512207,81,108,-8588,8270
23.2,1788262007751,-2.366197109222412,2.2253520488739014,-0.0034270216710865,-0.0033666307572275,0.9851511716842652,0.1716216206550598,0.0018901174106141,-0.0044336905059638,4.1367401817411154e-08,-0.0062237801030278,0.0011668307706713,0.7322284579277039,-0.0008398322388529,0.0048265401273965,-0.7307475805282593,0.682630181312561,-0.0030039055880193,-0.0138725643658011,0.7834529550936654,0.2637537717819214,-0.2864567637443542,-0.028055191040039,50,65,-7329,7375
23.3,1788262007851,-1.97183096408844,2.1408450603485107,-0.0033583869226276,-0.0036207488738,0.991213083267212,0.1321825832128524,0.0076061537175118,-0.0086671349652244,1.503680696209642e-06,-0.001123055582866,0.0010058388579636,0.6790981292724609,-0.0007416363805532,0.0052048312500119,-0.7110502123832703,0.7031216025352478,-0.0165052139767556,0.0103264332329444,0.6648062019771394,-0.3580843806266784,0.1520836353302002,0.0162649154663085,133,134,-9052,8095
23.4,1788262007951,-1.8028168678283687,1.8309859037399288,-0.0034248647280037,-0.0037622877862304,0.9949326515197754,0.1004149615764617,0.0035687759313927,-0.0015794753821237,7.330072419152608e-07,0.0024490926880389,-0.0095443548634648,0.662527322769165,-0.000727416947484,0.005037497729063,-0.6905384659767151,0.7232778668403625,0.0019637652228728,0.0027536312338336,0.5747615620401904,0.0495824217796325,-0.2493793368339538,0.0517597198486328,83,77,-7292,6444
23.5,1788262008051,-2.0281689167022705,1.8309859037399288,-0.0034738609101623,-0.0038270754739642,0.9970235228538512,0.0769248381257057,0.0001316754007798,-0.0018138783269699,-5.571711897943275e-07,-0.0067599127069115,-0.0034037102013826,0.5086462497711182,-0.0010046754032373,0.0051214769482612,-0.6732802391052246,0.7393690347671509,-0.0101198042549008,-0.0090030342239172,0.5363314948698171,-0.0960258245468139,0.0799342393875122,-0.027597427368164,90,111,-6944,6995
23.6,1788262008151,-1.8309859037399288,1.8309859037399288,-0.0031845297198742,-0.0038990988396108,0.9988433122634888,0.0478195995092392,0.00459967756461,-0.0066082497416891,-6.155321401562901e-07,0.0015860309358686,-0.0078827403485775,0.5899340510368347,-0.0010916115716099,0.0048894844949245,-0.6473809480667114,0.7621501684188843,-0.0029709152484297,-0.004742952012338,0.5406170838472463,-0.3995887041091919,0.1658893823623657,-0.0198135375976562,115,115,-7563,6811
23.7,1788262008251,-1.5211267471313477,1.5774648189544678,-0.0030855501536279,-0.0042257970198988,0.9998407959938048,0.0170583240687847,-0.005544853109622,0.0014428895007631,-9.279271641579364e-07,-0.0141087267547845,-0.0044654379598796,0.5750189423561096,-0.0014809360727667,0.0050740037113428,-0.6281139850616455,0.7781033515930176,-0.0069857819297557,-0.0042682207030881,0.5299420316758612,0.2683685421943664,-0.1904008388519287,0.004988670349121,28,40,-5963,5438
23.8,1788262008351,-1.408450722694397,1.4929577112197876,0.0030267548281699,0.004347173962742,-0.9999704957008362,0.0055701215751469,0.0088591925799579,-0.0042800904774101,-1.2972453898334434e-06,-0.0024243618827313,8.184117905329913e-05,0.3997152745723724,-0.0015207920223474,0.005060713738203,-0.6084584593772888,0.7935681939125061,-0.0022344537577092,-0.0021115148965531,0.4488162648215447,-0.091255247592926,0.0006958246231079,0.0113887786865234,144,124,-6952,6048
23.9,1788262008451,-1.4647886753082275,1.5492957830429075,0.0029714722186326,0.0043456712737679,-0.9996647834777832,0.0253467820584774,-0.0024334269921833,-0.0014510961200399,-4.645470851224502e-07,-0.0020669780205935,-0.0033270197454839,0.445886880159378,-0.001543709076941,0.0050472794100642,-0.5916345715522766,0.8061889410018921,-0.0022233509509721,-0.0025326699617101,0.4772635530256598,-0.041848599910736,0.0045636892318725,0.0727787017822265,80,83,-7058,6071
24.0,1788262008551,-1.154929518699646,1.1267606019973757,0.0030581636819988,0.0044148904271423,-0.9987781047821044,0.0491268187761306,0.0019531748567535,-0.0037293202105199,9.029467130584554e-07,-0.0041881315410137,0.0005600629956461,0.4748517274856567,-0.0015779230743646,0.0051397923380136,-0.5745368003845215,0.8184611201286316,-0.0021705735343188,-0.0029354508117158,0.4341575935620868,-0.0186864733695983,0.0288681387901306,-0.0239038467407226,66,92,-5444,5061
24.1,1788262008651,-1.2957746982574463,1.2394366264343262,0.0029874360188841,0.0045293346047401,-0.9975153207778932,0.0702409148216247,-0.0004874300740224,-0.0010055637159334,3.887018098710893e-07,-0.0045960498973727,-0.0035542235709726,0.3194163143634796,-0.0017157923430204,0.0051609920337796,-0.5575888752937317,0.8300995230674744,-0.0028479869891036,-0.0010673328823657,0.3452675472972747,-0.049355924129486,0.104630172252655,0.089609146118164,107,123,-5236,5154
24.2,1788262008751,-1.1267606019973757,1.211267590522766,0.0029057434294372,0.0045712883584201,-0.9960957169532776,0.0881136432290077,0.002160747824032,-0.0014434725838941,7.686282022976107e-07,-0.0023129656910896,-0.0044491193257272,0.3767930269241333,-0.0018594795837998,0.0050731385126709,-0.5436467528343201,0.8392967581748962,-0.0036976127333839,-0.0052061506852429,0.3461554333116367,-0.0736424326896667,0.1164963841438293,-0.018218994140625,49,146,-5862,5070
24.3,1788262008851,-1.1267606019973757,1.183098554611206,0.0027135123964399,0.0046097827143967,-0.9945088028907776,0.1045162230730056,0.0011485341436302,-0.0017594163683535,-5.675621744336937e-07,-0.0016367064090445,-0.0060683921910822,0.3601441383361816,-0.0019909646362066,0.0048809004947543,-0.5301209092140198,0.847905695438385,-0.0016750905900153,-0.0078616243138541,0.3508715241400589,-0.1274530291557312,0.0991221666336059,0.0334243774414062,89,122,-5870,5343
24.4,1788262008951,-1.0985915660858154,1.183098554611206,0.0025170310400426,0.004626166075468,-0.9925012588500975,0.1221209540963172,-0.0009896914993775,-0.0021225052866669,6.256189731048458e-07,-0.0023441824596375,-0.0038085996638983,0.3612256348133087,-0.0020885178819298,0.0047537162899971,-0.5115543007850647,0.8592353463172913,0.0004163699878363,-0.0059450258779456,0.3575689161795276,0.1408677697181701,-0.0776010751724243,-0.0039567947387695,51,5,-3568,3043
24.5,1788262009051,0.0,0.4507042169570923,0.0022979646455496,0.0046250959858298,-0.9902763962745668,0.1390182971954345,0.0034830766208831,-0.004332332275657,1.5967323290332022e-06,-0.0024990583769977,-0.0055642654187977,0.2365367114543914,-0.0022132750600576,0.0046190302819013,-0.5029776096343994,0.8642842769622803,0.0007508121539359,-0.0037429293275269,0.2046835294303343,0.1500470042228698,0.0349037647247314,0.1154413223266601,59,22,-4353,2332
24.6,1788262009151,0.0,0.0,0.0022084009833633,0.0046089137904345,-0.9893855452537536,0.1452245414257049,0.0028365800745017,-0.0031040701104865,-3.604923710694655e-07,4.56676134490408e-05,-0.0012301048263907,0.0690932720899581,-0.0022884514182806,0.0045694112777709,-0.5009987950325012,0.8654329180717468,-0.0019592719375907,-0.0029762499474029,-0.0142055387814024,0.0338158011436462,-0.1313379406929016,0.095616340637207,6,2,495,1511
24.7,1788262009251,1.436619758605957,3.323943614959717,0.0020455031190067,0.0046088951639831,-0.9891934394836426,0.1465297490358352,0.0079470904086155,-0.0001025394496941,8.752053627086358e-07,7.919062045402825e-05,-0.0048892530612647,0.0611781105399131,-0.0024928078055381,0.0041565401479601,-0.4914436042308807,0.8708959817886353,-0.0021137512133561,-0.0232450033039112,0.4185052553968869,1.1763453483581543,-1.96695327758789e-06,-0.0906600952148437,55,222,4918,12871
24.8,1788262009351,1.8591549396514893,5.830986022949219,0.0019009187817573,0.004670200869441,-0.9864799380302428,0.1638046205043792,0.0892626524874293,0.0004144779076996,-1.188386142277632e-05,-0.006430996581912,0.0182398147881031,0.4072876274585724,-0.0024378690868616,0.0043061636388301,-0.4741875827312469,0.8804099559783936,-0.0006426651597927,0.006623297435932,0.4851503342154978,0.33577960729599,0.1346876621246338,0.0956974029541015,55,249,7419,19415
24.9,1788262009451,2.1408450603485107,8.197182655334473,0.0015453852247446,0.0044725611805915,-0.9808394908905028,0.19476018846035,0.1507004607560115,0.0004835394633836,2.2088509785531784e-05,0.0004143785336054,-0.012610743753612,0.6615522503852844,-0.00255814101547,0.0037193708121776,-0.446999728679657,0.8945227265357971,0.0066442409904668,-0.0237733235603395,0.7378809705330932,0.2160732150077819,0.44853675365448,0.012791633605957,49,190,7723,23342
25.0,1788262009551,2.507042169570923,7.915493011474609,0.0014853378525003,0.0042713405564427,-0.9713882803916932,0.237453892827034,0.1820858711087791,-0.0001357670142021,1.8182346179969144e-05,0.0013194268103688,-0.0007794630364514,0.9610823392868042,-0.0025120684877038,0.0040278937667608,-0.3967251181602478,0.917925238609314,-0.013485668950516,0.0295342885942572,0.895687738242495,-0.1781917214393615,0.0503632426261901,0.0561208724975585,116,43,8535,19726
25.1,1788262009651,2.450704336166382,7.577464580535889,0.0012651274446398,0.0043060276657342,-0.9613538980484008,0.2752790749073028,0.1736758598950486,0.0023407126469674,5.755741275628056e-05,-0.0012368450406938,-0.0130298277363181,0.8007598519325256,-0.0026173330843448,0.0037448331713676,-0.3647340834140777,0.9311005473136902,-0.0017321013234353,0.0017652580381965,0.7580675555792972,0.0311646461486816,0.0312785506248474,-0.0649089813232421,51,106,8465,20708
25.2,1788262009751,2.563380241394043,7.577464580535889,0.0012024167226627,0.0043674260377883,-0.950494349002838,0.3107090592384338,0.1761375534615986,0.0037472247920064,-7.518617127595856e-06,-0.0015198854962363,-0.0052614877931773,0.7535723447799683,-0.0023612361401319,0.0031648017466068,-0.3328001797199249,0.9429891109466552,0.0259959236991079,-0.0104825408059695,0.8380967765049757,-0.4804015159606933,-0.2113862037658691,0.2895793914794922,98,69,9943,18612
25.3,1788262009851,3.211267709732056,7.267605781555176,0.0014567946782335,0.0043478948064148,-0.9382511973381042,0.3459243774414062,0.1742640919176729,-0.0008737823045584,-1.5069466879233371e-05,-0.0080516170710325,0.0062118009664118,0.5686336159706116,-0.002545460127294,0.0040406603366136,-0.2994282841682434,0.954106867313385,-0.0058095711111868,0.0178046106144999,0.5479012232929819,-0.5164850354194641,-0.0657410025596618,0.2454805374145507,46,156,8100,20052
25.4,1788262009951,2.873239517211914,7.352112770080566,0.0018517364514991,0.0048679960891604,-0.9278584122657776,0.3728960752487182,0.1679827253523065,0.0008065180623526,-3.491004286825587e-05,-0.011748750694096,0.0128651894629001,0.6384150385856628,-0.0030129654332995,0.0046268291771411,-0.2715252935886383,0.9624154567718506,-0.0144810056963116,0.0107734184043825,0.6226263057998106,-0.4725823998451233,-0.3170297741889953,0.3858757019042969,80,98,10202,18388
25.5,1788262010051,3.436619758605957,6.422535419464111,0.0017899948870763,0.0054282140918076,-0.9164403080940248,0.4001305997371673,0.1648440300874268,-0.0028938110368218,-2.000415029381844e-05,-0.008528109639883,0.005867077037692,0.623986542224884,-0.0035023028030991,0.0050349133089184,-0.2481298446655273,0.9687074422836304,-0.0274103614322591,0.0122722745280265,0.3854808621591765,-0.096628725528717,-0.2707265615463257,0.0112667083740234,67,153,11282,18520
25.6,1788262010151,3.521126747131348,6.647887229919434,0.0023294328711926,0.0062712747603654,-0.9079599976539612,0.4190034568309784,0.169309308108745,-0.0005452840118534,-4.96833341441739e-05,-0.0082605425268411,0.0296369213610887,0.4377882480621338,-0.0037727588787674,0.0057472549378871,-0.2225794047117233,0.9748903512954712,-0.0029966226399062,0.0124328853290026,0.4349452055882566,-0.0914802551269531,-0.0620437264442443,-0.1775617599487304,54,116,10626,18053
25.7,1788262010251,4.619718074798584,5.464788913726807,0.0018075909465551,0.0066287154331803,-0.8971275091171265,0.4417182803153991,0.1704822713714528,0.000970391569781,2.1382962373156375e-05,-0.0121276611462235,-0.0110574131831526,0.4419598579406738,-0.0041580824181437,0.0055188396945595,-0.205870434641838,0.9785548448562622,-0.0027265241987319,0.0015169690966708,0.258042058951716,0.1065202355384826,-0.6916475892066956,-0.3712348937988281,148,73,14231,14865
25.8,1788262010351,4.591549396514893,5.549295902252197,0.0020015358459204,0.0067387735471129,-0.8933903574943542,0.4492261707782745,0.1638648721137398,-0.0020718945268591,4.172752245635988e-05,0.000541620189324,0.0044147106818854,0.0846496447920799,-0.0040602441877126,0.0052399346604943,-0.2015310972929,0.9794597029685974,0.0049746947625339,-0.0345067097441455,0.0966692040724057,0.1526272892951965,0.1786622405052185,0.7901067733764648,77,121,13414,15339
25.9,1788262010451,4.507042407989502,5.521126747131348,0.0015009508933871,0.006332223303616,-0.8908786177635193,0.4541949927806854,0.1702644520069893,0.0020722511474675,1.6291447475230308e-05,0.0016816279385238,-0.0082728127017617,0.1367739140987396,-0.004137041978538,0.0044994158670306,-0.1930671781301498,0.9811664819717408,0.0111150532745047,-0.0293663425989528,0.1819858397859792,0.0544368624687194,-0.0649319887161254,-0.1049261093139648,79,96,13409,15677
26.0,1788262010551,4.647887229919434,5.549295902252197,0.0005920687690377,0.0061496729031205,-0.8870693445205688,0.4615948498249054,0.159379300971492,0.0036546049794028,3.851774134390859e-05,-0.009359092451632,-0.0151059878990054,0.1714954525232315,-0.0043578753247857,0.0038453275337815,-0.1852557063102722,0.982673168182373,0.0155689755183278,-0.0214336500970172,0.1877466264380734,0.1237507462501525,0.174449622631073,0.0103321075439453,102,101,13027,15617
26.1,1788262010651,4.647887229919434,5.577464580535889,0.000273672863841,0.0055063590407371,-0.8829724788665771,0.4693923890590668,0.1675808988321048,0.0019458250116764,4.482712805106544e-06,0.0063966140151023,-0.0044357432052493,0.1470983028411865,-0.0040331566706299,0.0034948969259858,-0.1789865046739578,0.983837068080902,0.0078594136051834,-0.007529572877396,0.116171346452858,-0.284722626209259,0.0071655511856079,0.202488899230957,53,80,13261,15321
26.2,1788262010751,4.507042407989502,5.577464580535889,-3.568059764802456e-05,0.0051210140809416,-0.8796287178993225,0.475633293390274,0.1717164223643404,0.0067814008664947,5.921922550156224e-07,-0.0011543907457962,-0.0061604534275829,0.1546534150838852,-0.0037890784442424,0.0026979632675647,-0.1696599721908569,0.9854917526245116,0.0190955522194649,-0.0257757931210065,0.1675023979927501,-0.2493634819984436,0.0179628729820251,0.1021909713745117,73,102,13523,15537
26.3,1788262010851,4.957746505737305,5.183098793029785,7.768790237605572e-05,0.0052838656120002,-0.8764352798461914,0.4814907014369964,0.1670246692031222,0.0010818197724987,-7.967255284977993e-05,-0.014854441396892,0.0191302224993705,0.1221127063035965,-0.0042408676818013,0.0036115758121013,-0.1660671532154083,0.9860987663269044,-0.0107084699346359,0.0271491683408811,0.0255389090796316,-0.0282224416732788,0.0940583348274231,0.1202125549316406,90,102,14738,14524
26.4,1788262010951,4.985915660858154,5.098591327667236,-0.0001286044716835,0.0052671157754957,-0.8760274648666382,0.4822325408458709,0.1705653515247119,-0.0027403087587449,3.319659225881286e-05,-0.0025861237663775,-0.005985596217215,0.003543788800016,-0.0045313714072108,0.003060569986701,-0.1665664911270141,0.9860150814056396,-0.0172890762692086,0.0217530554469506,0.0008127123167385,-0.1440764665603637,0.3334888815879822,-0.1751279830932617,90,138,13828,15179
26.5,1788262011051,5.014084339141846,5.239436626434326,-0.0006408758927136,0.0051763779483735,-0.8754128217697144,0.4833478331565857,0.1679445165830001,0.003375011078406,1.192416355337082e-05,-0.0031295178923755,-0.0014405181864276,0.0650638490915298,-0.0043935691937804,0.0025139059871435,-0.1636391431093216,0.9865073561668396,0.0107942185359566,-0.0274997429427501,0.0458337008091982,-0.0253171324729919,-0.2775360345840454,0.2451553344726562,97,104,14138,14691
26.6,1788262011151,4.760563373565674,5.239436626434326,-0.0007753865793347,0.005106396973133,-0.8742353320121765,0.4854748547077179,0.1770341251083884,0.0002788568370256,-9.85218153289492e-06,-0.0026380952913314,0.0008001225069165,0.0407228507101535,-0.004399943165481,0.0023704878985881,-0.1616833806037902,0.9868301153182985,0.0042802077053555,-0.0067660892492887,0.057105252556862,-0.2136836051940918,0.1238225102424621,0.0726528167724609,70,97,14889,14528
26.7,1788262011251,4.676056385040283,5.380281925201416,-0.001198323094286,0.0048509277403354,-0.873336911201477,0.4870910346508026,0.1755369337196528,0.000902563665049,6.834452679939853e-05,-0.0029677094426006,-0.0147439828142523,0.0445913523435592,-0.0042837271466851,0.001938484609127,-0.1579391062259674,0.9874377250671388,0.0093020574873564,-0.0020006349653931,0.0958496950019737,0.1675524711608886,0.2164066433906555,-0.0824766159057617,48,180,12246,17417
26.8,1788262011351,4.478873252868652,5.77464771270752,-0.0010941951768472,0.004430794622749,-0.8702685832977295,0.4925563633441925,0.1685006553206559,0.0099198244327212,3.802740719805421e-05,0.0078914454206824,-0.002216343069449,0.1989993900060653,-0.0040881065651774,0.0012560412287712,-0.1481381356716156,0.9889574646949768,-0.0087626695921408,-0.0369139274004007,0.1958468327068762,0.2283245921134948,-0.0243963599205017,0.0994272232055664,91,76,13524,14763
26.9,1788262011451,4.478873252868652,5.577464580535889,-0.0016263391589745,0.0039790971204638,-0.8651766777038574,0.5014486908912659,0.1684394701619314,0.0007412175629857,2.071212041454853e-05,-0.0007787189097143,-0.0048656733706593,0.1419824063777923,-0.0040671518072485,0.0011654179543256,-0.1419114768505096,0.9898703694343568,0.0059350660241775,-0.0020837876392075,0.139549334947749,0.0290256738662719,-0.2269445657730102,0.1902170181274414,77,112,13883,15569
27.0,1788262011551,4.535211086273193,5.521126747131348,-0.0018876598915085,0.0036345187108963,-0.8616195917129517,0.5075381398200989,0.1725002101769637,0.0013057377596208,5.15496039248165e-05,-0.0022287531755864,-0.0293718688189983,0.1428211033344268,-0.0038797548040747,0.0008809017017483,-0.1355048567056656,0.9907687306404114,0.0083499614639272,0.0074725040912856,0.1351819382293734,0.0393757224082946,0.0177013874053955,-0.4941082000732422,83,132,13616,15686
27.1,1788262011651,4.450704097747803,5.492957592010498,-0.0021737848874181,0.0035932201426476,-0.8582975268363953,0.5131351947784424,0.1681608360741348,0.0026974292872349,-1.5040790476495589e-05,-0.0047707851044833,-0.0045326016843318,0.1392921507358551,-0.0041613932698965,0.0003617024049162,-0.1266487687826156,0.9919388294219972,-0.0002694771293041,0.0047114658009165,0.1537059383809804,-0.0021395683288574,-0.0643332600593566,0.2595186233520508,103,116,13899,15845
27.2,1788262011751,4.788732528686523,5.436619758605957,-0.0024540892336517,0.003394081024453,-0.8542558550834656,0.519835889339447,0.1663899401752072,0.0022603112574037,-1.0372977291726838e-05,-0.0021502133458852,-0.009690691716969,0.1496601402759552,-0.0041316142305731,0.0003275321796536,-0.121627427637577,0.992567241191864,-0.0016042000364895,0.0187961516472016,0.0494165553518583,-0.1702494025230407,-0.128210186958313,-0.1963615417480468,64,138,12653,15939
27.3,1788262011851,4.563380241394043,5.633802890777588,-0.0024670676793903,0.0035104746930301,-0.8513734340667725,0.5245424509048462,0.1653251272834165,0.0042614752199565,-1.294546366370679e-05,-0.0054582520388066,-0.0044260499998927,0.1488941460847854,-0.0044239666312932,0.0003456631675362,-0.1154564619064331,0.9933026432991028,-0.0116998090043274,-0.0039955054324052,0.2005191261587812,0.0596882700920105,0.2900938987731933,0.1366682052612304,101,100,13434,15452
27.4,1788262011951,4.676056385040283,5.211267471313477,-0.0025788247585296,0.0030149279627949,-0.8466584086418152,0.5321219563484192,0.1681540753314999,-6.042471744040985e-06,4.662757114271256e-05,0.0202556736767292,-0.0159768406301736,0.1735073775053024,-0.0042300373315811,0.0005193129181861,-0.1059661209583282,0.994360625743866,-0.0253681950695102,0.0538853618825635,0.1222226336753331,0.0221802592277526,-0.0461911559104919,-0.0312137603759765,150,78,15494,14439
27.5,1788262012051,4.985915660858154,5.154929637908936,-0.0022578123025596,0.0037075660657137,-0.8444810509681702,0.5355679392814636,0.1704137692570559,0.0016486889683824,-4.868222397485014e-06,-0.0054223034530878,0.0048848195001482,0.0540186055004596,-0.004206265322864,0.0003806622698903,-0.1040763705968856,0.9945603013038636,0.0117318695089264,-0.0310643487346783,0.0265579954996268,0.1538288593292236,0.1682576537132263,-0.2372560501098632,83,112,14288,14908
27.6,1788262012151,4.591549396514893,5.436619758605957,-0.0023934300988912,0.0037368696648627,-0.8436758518218994,0.5368346571922302,0.1659721446792096,0.0007438694628549,-1.3426150067855974e-05,-0.0067213317379355,-0.0006437547272071,0.0287033077329397,-0.0044558802619576,0.0006713205948472,-0.1023133918642997,0.9947420954704284,0.0091681045118374,-0.0286713597694367,0.0448294322779814,0.1479012370109558,0.2417515516281128,-0.4613161087036133,52,178,13509,16318
27.7,1788262012251,4.535211086273193,5.352112770080566,-0.002139724092558,0.0039550284855067,-0.8411523103713989,0.5407795310020447,0.1746961715654241,0.0018652141374052,-2.7683626921669735e-05,0.0042340201325714,-0.0073867193423211,0.1777437776327133,-0.0045631416141986,0.0011642510071396,-0.0946678966283798,0.9954978227615356,-0.0128452414448912,0.0355223183792865,0.1703868652013893,0.206214427947998,-0.1058367490768432,-0.4167737960815429,158,37,16643,13501
27.8,1788262012351,5.323943614959717,4.8450703620910645,-0.0020188733469694,0.0041730506345629,-0.8388174176216125,0.5443931818008423,0.1686004676151539,-0.0034698079250854,2.4260486992328115e-07,0.0,4.4797205944746565e-09,0.0,-0.0045204414054751,0.0014241114258766,-0.0963933244347572,0.9953320026397704,-0.0035824658841135,0.0108221296627122,-0.1306012320193238,0.0384546518325805,-0.1065409183502197,-0.3621120452880859,111,72,15489,13326
27.9,1788262012451,5.239436626434326,4.929577350616455,-0.0015911932568997,0.0044800578616559,-0.8410875797271729,0.5408779382705688,0.1703707334234754,-0.004852533280392,1.3991216582591836e-05,0.0009693547035567,0.0016718780389055,-0.0755402669310569,-0.0044502289965748,0.0016123708337545,-0.099582590162754,0.9950180053710938,0.0028164920155587,-0.0093916898259465,-0.0389885185652018,0.06516695022583,0.2350327372550964,-0.0308542251586914,78,116,15371,14102
