time_s,timestamp_ms,wheel_vels__velocity_left,wheel_vels__velocity_right,odom__orient_x,odom__orient_y,odom__orient_z,odom__orient_w,odom__lin_x,odom__lin_y,odom__lin_z,odom__ang_x,odom__ang_y,odom__ang_z,imu__orient_x,imu__orient_y,imu__orient_z,imu__orient_w,imu__angvel_x,imu__angvel_y,imu__angvel_z,imu__acc_x,imu__acc_y,imu__acc_z,wheel_status__current_ma_left,wheel_status__current_ma_right,wheel_status__pwm_left,wheel_status__pwm_right
0.0,1788173135346,0.0,0.0,0.0059232469648122,-0.0040613529272377,0.9982023239135742,0.0595016293227672,0.0,0.0,0.0,-7.251333590829745e-05,0.0002847492869477,2.077108320008847e-06,0.0028211241587996,-0.0065924888476729,0.8114046454429626,0.5844408869743347,4.6412962735096046e-05,0.000221040961795,2.060085394616506e-06,-0.0296404957771301,-0.0029385089874267,0.0126190185546875,0,0,0,0
0.1,1788173135446,0.0,0.0,0.0059232469648122,-0.0040613529272377,0.9982023239135742,0.0595016293227672,0.0,0.0,0.0,-7.251333590829745e-05,0.0002847492869477,2.077108320008847e-06,0.0028211241587996,-0.0065924888476729,0.8114046454429626,0.5844408869743347,4.6412962735096046e-05,0.000221040961795,2.060085394616506e-06,-0.0296404957771301,-0.0029385089874267,0.0126190185546875,0,0,0,0
0.2,1788173135546,0.0,0.0,0.0059232469648122,-0.0040613529272377,0.9982023239135742,0.0595016293227672,0.0,0.0,0.0,-7.251333590829745e-05,0.0002847492869477,2.077108320008847e-06,0.0028211241587996,-0.0065924888476729,0.8114046454429626,0.5844408869743347,4.6412962735096046e-05,0.000221040961795,2.060085394616506e-06,-0.0296404957771301,-0.0029385089874267,0.0126190185546875,0,0,0,0
0.3,1788173135646,0.0,0.0,0.0059232469648122,-0.0040613529272377,0.9982023239135742,0.0595016293227672,0.0,0.0,0.0,-7.251333590829745e-05,0.0002847492869477,2.077108320008847e-06,0.0028211241587996,-0.0065924888476729,0.8114046454429626,0.5844408869743347,4.6412962735096046e-05,0.000221040961795,2.060085394616506e-06,-0.0296404957771301,-0.0029385089874267,0.0126190185546875,0,0,0,0
0.4,1788173135746,0.0,0.0,0.0059232469648122,-0.0040613529272377,0.9982023239135742,0.0595016293227672,0.0,0.0,0.0,-7.251333590829745e-05,0.0002847492869477,2.077108320008847e-06,0.0028211241587996,-0.0065924888476729,0.8114046454429626,0.5844408869743347,4.6412962735096046e-05,0.000221040961795,2.060085394616506e-06,-0.0296404957771301,-0.0029385089874267,0.0126190185546875,0,0,0,0
0.5,1788173135846,0.0,0.0,0.0059232469648122,-0.0040613529272377,0.9982023239135742,0.0595016293227672,0.0,0.0,0.0,-7.251333590829745e-05,0.0002847492869477,2.077108320008847e-06,0.0028211241587996,-0.0065924888476729,0.8114046454429626,0.5844408869743347,4.6412962735096046e-05,0.000221040961795,2.060085394616506e-06,-0.0296404957771301,-0.0029385089874267,0.0126190185546875,0,0,0,0
0.6,1788173135946,0.0,0.0,0.0059232469648122,-0.0040613529272377,0.9982023239135742,0.0595016293227672,0.0,0.0,0.0,-7.251333590829745e-05,0.0002847492869477,2.077108320008847e-06,0.0028211241587996,-0.0065924888476729,0.8114046454429626,0.5844408869743347,4.6412962735096046e-05,0.000221040961795,2.060085394616506e-06,-0.0296404957771301,-0.0029385089874267,0.0126190185546875,0,0,0,0
0.7,1788173136046,0.0,0.0,0.0059232469648122,-0.0040613529272377,0.9982023239135742,0.0595016293227672,0.0,0.0,0.0,-7.251333590829745e-05,0.0002847492869477,2.077108320008847e-06,0.0028211241587996,-0.0065924888476729,0.8114046454429626,0.5844408869743347,4.6412962735096046e-05,0.000221040961795,2.060085394616506e-06,-0.0296404957771301,-0.0029385089874267,0.0126190185546875,0,0,0,0
0.8,1788173136146,0.0,0.0,0.0059232469648122,-0.0040613529272377,0.9982023239135742,0.0595016293227672,0.0,0.0,0.0,-7.251333590829745e-05,0.0002847492869477,2.077108320008847e-06,0.0028211241587996,-0.0065924888476729,0.8114046454429626,0.5844408869743347,4.6412962735096046e-05,0.000221040961795,2.060085394616506e-06,-0.0296404957771301,-0.0029385089874267,0.0126190185546875,0,0,0,0
0.9,1788173136246,0.0,0.0,0.0059232469648122,-0.0040613529272377,0.9982023239135742,0.0595016293227672,0.0,0.0,0.0,-7.251333590829745e-05,0.0002847492869477,2.077108320008847e-06,0.0028211241587996,-0.0065924888476729,0.8114046454429626,0.5844408869743347,4.6412962735096046e-05,0.000221040961795,2.060085394616506e-06,-0.0296404957771301,-0.0029385089874267,0.0126190185546875,0,0,0,0
1.0,1788173136346,0.0,0.0,0.0059232469648122,-0.0040613529272377,0.9982023239135742,0.0595016293227672,0.0,0.0,0.0,-7.251333590829745e-05,0.0002847492869477,2.077108320008847e-06,0.0028211241587996,-0.0065924888476729,0.8114046454429626,0.5844408869743347,4.6412962735096046e-05,0.000221040961795,2.060085394616506e-06,-0.0296404957771301,-0.0029385089874267,0.0126190185546875,0,0,0,0
1.1,1788173136446,0.0,0.0,0.0059232469648122,-0.0040613529272377,0.9982023239135742,0.0595016293227672,0.0,0.0,0.0,-7.251333590829745e-05,0.0002847492869477,2.077108320008847e-06,0.0028211241587996,-0.0065924888476729,0.8114046454429626,0.5844408869743347,4.6412962735096046e-05,0.000221040961795,2.060085394616506e-06,-0.0296404957771301,-0.0029385089874267,0.0126190185546875,0,0,0,0
1.2,1788173136546,0.0,0.0,0.0059232469648122,-0.0040613529272377,0.9982023239135742,0.0595016293227672,0.0,0.0,0.0,-7.251333590829745e-05,0.0002847492869477,2.077108320008847e-06,0.0028211241587996,-0.0065924888476729,0.8114046454429626,0.5844408869743347,4.6412962735096046e-05,0.000221040961795,2.060085394616506e-06,-0.0296404957771301,-0.0029385089874267,0.0126190185546875,0,0,0,0
1.3,1788173136646,0.0,0.0,0.0059232469648122,-0.0040613529272377,0.9982023239135742,0.0595016293227672,0.0,0.0,0.0,-7.251333590829745e-05,0.0002847492869477,2.077108320008847e-06,0.0028211241587996,-0.0065924888476729,0.8114046454429626,0.5844408869743347,4.6412962735096046e-05,0.000221040961795,2.060085394616506e-06,-0.0296404957771301,-0.0029385089874267,0.0126190185546875,0,0,0,0
1.4,1788173136746,0.0,0.0,0.0059232469648122,-0.0040613529272377,0.9982023239135742,0.0595016293227672,0.0,0.0,0.0,-7.251333590829745e-05,0.0002847492869477,2.077108320008847e-06,0.0028211241587996,-0.0065924888476729,0.8114046454429626,0.5844408869743347,4.6412962735096046e-05,0.000221040961795,2.060085394616506e-06,-0.0296404957771301,-0.0029385089874267,0.0126190185546875,0,0,0,0
1.5,1788173136846,0.0,0.0,0.0059232469648122,-0.0040613529272377,0.9982023239135742,0.0595016293227672,0.0,0.0,0.0,-7.251333590829745e-05,0.0002847492869477,2.077108320008847e-06,0.0028211241587996,-0.0065924888476729,0.8114046454429626,0.5844408869743347,4.6412962735096046e-05,0.000221040961795,2.060085394616506e-06,-0.0296404957771301,-0.0029385089874267,0.0126190185546875,0,0,0,0
1.6,1788173136946,0.0,0.0,0.0059232469648122,-0.0040613529272377,0.9982023239135742,0.0595016293227672,0.0,0.0,0.0,-7.251333590829745e-05,0.0002847492869477,2.077108320008847e-06,0.0028211241587996,-0.0065924888476729,0.8114046454429626,0.5844408869743347,4.6412962735096046e-05,0.000221040961795,2.060085394616506e-06,-0.0296404957771301,-0.0029385089874267,0.0126190185546875,0,0,0,0
1.7,1788173137046,0.0,0.0,0.0059232469648122,-0.0040613529272377,0.9982023239135742,0.0595016293227672,0.0,0.0,0.0,-7.251333590829745e-05,0.0002847492869477,2.077108320008847e-06,0.0028211241587996,-0.0065924888476729,0.8114046454429626,0.5844408869743347,4.6412962735096046e-05,0.000221040961795,2.060085394616506e-06,-0.0296404957771301,-0.0029385089874267,0.0126190185546875,0,0,0,0
1.8,1788173137146,0.0,0.0,0.0059232469648122,-0.0040613529272377,0.9982023239135742,0.0595016293227672,0.0,0.0,0.0,-7.251333590829745e-05,0.0002847492869477,2.077108320008847e-06,0.0028211241587996,-0.0065924888476729,0.8114046454429626,0.5844408869743347,4.6412962735096046e-05,0.000221040961795,2.060085394616506e-06,-0.0296404957771301,-0.0029385089874267,0.0126190185546875,0,0,0,0
1.9,1788173137246,0.0,0.0,0.0059232469648122,-0.0040613529272377,0.9982023239135742,0.0595016293227672,0.0,0.0,0.0,-7.251333590829745e-05,0.0002847492869477,2.077108320008847e-06,0.0028211241587996,-0.0065924888476729,0.8114046454429626,0.5844408869743347,4.6412962735096046e-05,0.000221040961795,2.060085394616506e-06,-0.0296404957771301,-0.0029385089874267,0.0126190185546875,0,0,0,0
2.0,1788173137346,0.0,0.0,0.0059232469648122,-0.0040613529272377,0.9982023239135742,0.0595016293227672,0.0,0.0,0.0,-7.251333590829745e-05,0.0002847492869477,2.077108320008847e-06,0.0028211241587996,-0.0065924888476729,0.8114046454429626,0.5844408869743347,4.6412962735096046e-05,0.000221040961795,2.060085394616506e-06,-0.0296404957771301,-0.0029385089874267,0.0126190185546875,0,0,0,0
2.1,1788173137446,0.0,0.0,0.0059232469648122,-0.0040613529272377,0.9982023239135742,0.0595016293227672,0.0,0.0,0.0,-7.251333590829745e-05,0.0002847492869477,2.077108320008847e-06,0.0028211241587996,-0.0065924888476729,0.8114046454429626,0.5844408869743347,4.6412962735096046e-05,0.000221040961795,2.060085394616506e-06,-0.0296404957771301,-0.0029385089874267,0.0126190185546875,0,0,0,0
2.2,1788173137546,0.0,0.0,0.0059232469648122,-0.0040613529272377,0.9982023239135742,0.0595016293227672,0.0,0.0,0.0,-7.251333590829745e-05,0.0002847492869477,2.077108320008847e-06,0.0028211241587996,-0.0065924888476729,0.8114046454429626,0.5844408869743347,4.6412962735096046e-05,0.000221040961795,2.060085394616506e-06,-0.0296404957771301,-0.0029385089874267,0.0126190185546875,0,0,0,0
2.3,1788173137646,0.0,0.0,0.0059232469648122,-0.0040613529272377,0.9982023239135742,0.0595016293227672,0.0,0.0,0.0,-7.251333590829745e-05,0.0002847492869477,2.077108320008847e-06,0.0028211241587996,-0.0065924888476729,0.8114046454429626,0.5844408869743347,4.6412962735096046e-05,0.000221040961795,2.060085394616506e-06,-0.0296404957771301,-0.0029385089874267,0.0126190185546875,0,0,0,0
2.4,1788173137746,0.0,0.0,0.0059232469648122,-0.0040613529272377,0.9982023239135742,0.0595016293227672,0.0,0.0,0.0,-7.251333590829745e-05,0.0002847492869477,2.077108320008847e-06,0.0028211241587996,-0.0065924888476729,0.8114046454429626,0.5844408869743347,4.6412962735096046e-05,0.000221040961795,2.060085394616506e-06,-0.0296404957771301,-0.0029385089874267,0.0126190185546875,0,0,0,0
2.5,1788173137846,0.0,0.0,0.0059232469648122,-0.0040613529272377,0.9982023239135742,0.0595016293227672,0.0,0.0,0.0,-7.251333590829745e-05,0.0002847492869477,2.077108320008847e-06,0.0028211241587996,-0.0065924888476729,0.8114046454429626,0.5844408869743347,4.6412962735096046e-05,0.000221040961795,2.060085394616506e-06,-0.0296404957771301,-0.0029385089874267,0.0126190185546875,0,0,0,0
2.6,1788173137946,0.0,0.0,0.0059232469648122,-0.0040613529272377,0.9982023239135742,0.0595016293227672,0.0,0.0,0.0,-7.251333590829745e-05,0.0002847492869477,2.077108320008847e-06,0.0028211241587996,-0.0065924888476729,0.8114046454429626,0.5844408869743347,4.6412962735096046e-05,0.000221040961795,2.060085394616506e-06,-0.0296404957771301,-0.0029385089874267,0.0126190185546875,0,0,0,0
2.7,1788173138046,0.0,0.0,0.0059232469648122,-0.0040613529272377,0.9982023239135742,0.0595016293227672,0.0,0.0,0.0,-7.251333590829745e-05,0.0002847492869477,2.077108320008847e-06,0.0028211241587996,-0.0065924888476729,0.8114046454429626,0.5844408869743347,4.6412962735096046e-05,0.000221040961795,2.060085394616506e-06,-0.0296404957771301,-0.0029385089874267,0.0126190185546875,0,0,0,0
2.8,1788173138146,0.0,0.0,0.0059232469648122,-0.0040613529272377,0.9982023239135742,0.0595016293227672,0.0,0.0,0.0,-7.251333590829745e-05,0.0002847492869477,2.077108320008847e-06,0.0028211241587996,-0.0065924888476729,0.8114046454429626,0.5844408869743347,4.6412962735096046e-05,0.000221040961795,2.060085394616506e-06,-0.0296404957771301,-0.0029385089874267,0.0126190185546875,0,0,0,0
2.9,1788173138246,0.0,0.0,0.0059232469648122,-0.0040613529272377,0.9982023239135742,0.0595016293227672,0.0,0.0,0.0,-7.251333590829745e-05,0.0002847492869477,2.077108320008847e-06,0.0028211241587996,-0.0065924888476729,0.8114046454429626,0.5844408869743347,4.6412962735096046e-05,0.000221040961795,2.060085394616506e-06,-0.0296404957771301,-0.0029385089874267,0.0126190185546875,0,0,0,0
3.0,1788173138346,0.0,0.0,0.0059232469648122,-0.0040613529272377,0.9982023239135742,0.0595016293227672,0.0,0.0,0.0,-7.251333590829745e-05,0.0002847492869477,2.077108320008847e-06,0.0028211241587996,-0.0065924888476729,0.8114046454429626,0.5844408869743347,4.6412962735096046e-05,0.000221040961795,2.060085394616506e-06,-0.0296404957771301,-0.0029385089874267,0.0126190185546875,0,0,0,0
3.1,1788173138446,0.0,0.0,0.0059232469648122,-0.0040613529272377,0.9982023239135742,0.0595016293227672,0.0,0.0,0.0,-7.251333590829745e-05,0.0002847492869477,2.077108320008847e-06,0.0028211241587996,-0.0065924888476729,0.8114046454429626,0.5844408869743347,4.6412962735096046e-05,0.000221040961795,2.060085394616506e-06,-0.0296404957771301,-0.0029385089874267,0.0126190185546875,0,0,0,0
3.2,1788173138546,0.0,0.0,0.0059232469648122,-0.0040613529272377,0.9982023239135742,0.0595016293227672,0.0,0.0,0.0,-7.251333590829745e-05,0.0002847492869477,2.077108320008847e-06,0.0028211241587996,-0.0065924888476729,0.8114046454429626,0.5844408869743347,4.6412962735096046e-05,0.000221040961795,2.060085394616506e-06,-0.0296404957771301,-0.0029385089874267,0.0126190185546875,0,0,0,0
3.3,1788173138646,0.0,0.0,0.0059232469648122,-0.0040613529272377,0.9982023239135742,0.0595016293227672,0.0,0.0,0.0,-7.251333590829745e-05,0.0002847492869477,2.077108320008847e-06,0.0028211241587996,-0.0065924888476729,0.8114046454429626,0.5844408869743347,4.6412962735096046e-05,0.000221040961795,2.060085394616506e-06,-0.0296404957771301,-0.0029385089874267,0.0126190185546875,0,0,0,0
3.4,1788173138746,0.0,0.0,0.0059232469648122,-0.0040613529272377,0.9982023239135742,0.0595016293227672,0.0,0.0,0.0,-7.251333590829745e-05,0.0002847492869477,2.077108320008847e-06,0.0028211241587996,-0.0065924888476729,0.8114046454429626,0.5844408869743347,4.6412962735096046e-05,0.000221040961795,2.060085394616506e-06,-0.0296404957771301,-0.0029385089874267,0.0126190185546875,0,0,0,0
3.5,1788173138846,0.0,0.0,0.0059152976609766,-0.0040605315007269,0.998202383518219,0.0595017187297344,-3.683505363702409e-07,5.589440134818672e-07,8.672726448690633e-09,1.3940407370682806e-05,0.0003208539274055,-2.395130422883085e-06,0.0028159450739622,-0.0065844785422086,0.8114046454429626,0.5844408869743347,0.0001188536033836,0.0002681441861098,6.35809356193665e-10,0.0285786390304565,0.0179534554481506,-0.0108623504638671,0,0,0,0
3.6,1788173138946,0.0,0.0,0.0059063672088086,-0.0040575303137302,0.9982024431228638,0.0595016740262508,0.0,0.0,0.0,0.0,0.0,0.0,0.0028159450739622,-0.0065844785422086,0.8114046454429626,0.5844408869743347,0.0001188536033836,0.0002681441861098,6.35809356193665e-10,0.0285786390304565,0.0179534554481506,-0.0108623504638671,0,0,0,0
3.7,1788173139046,0.0,0.0,0.0059063672088086,-0.0040575303137302,0.9982024431228638,0.0595016740262508,0.0,0.0,0.0,0.0,0.0,0.0,0.0028113722801208,-0.0065614497289061,0.8114047646522522,0.5844409465789795,0.0002725345774647,0.0002098838744741,-1.5654837480610978e-06,0.0084657669067382,-0.0316921472549438,-0.0331401824951171,0,0,0,0
3.8,1788173139146,0.0,0.0,0.0058828429318964,-0.0040312404744327,0.9982028007507324,0.0595018081367015,-3.053923478583016e-07,4.634090588103369e-07,7.151349203707745e-09,0.0003189770213793,0.0001887085381895,-2.854519152606372e-06,0.0028132069855928,-0.0065498994663357,0.8114048838615417,0.5844410061836243,0.0001646734833049,6.265354752006684e-05,1.0398088179599409e-10,0.0182783007621765,0.0172013640403747,0.001495361328125,0,0,0,0
3.9,1788173139246,0.0,0.0,0.0058828429318964,-0.0040312404744327,0.9982028007507324,0.0595018081367015,-3.053923478583016e-07,4.634090588103369e-07,7.151349203707745e-09,0.0003189770213793,0.0001887085381895,-2.854519152606372e-06,0.0028132069855928,-0.0065498994663357,0.8114048838615417,0.5844410061836243,0.0001646734833049,6.265354752006684e-05,1.0398088179599409e-10,0.0182783007621765,0.0172013640403747,0.001495361328125,0,0,0,0
4.0,1788173139346,0.0,0.0,0.0058834543451666,-0.0040205856785178,0.9982028007507324,0.0595019795000553,0.0,0.0,0.0,0.0,0.0,0.0,0.0028132069855928,-0.0065498994663357,0.8114048838615417,0.5844410061836243,0.0001646734833049,6.265354752006684e-05,1.0398088179599409e-10,0.0182783007621765,0.0172013640403747,0.001495361328125,0,0,0,0
4.1,1788173139446,0.0,0.0,0.0058870268985629,-0.0040157791227102,0.9982028007507324,0.0595019608736038,0.0,0.0,0.0,0.0001997498329728,-0.0001307534403167,-1.0394935543445172e-06,0.0028323428705334,-0.0065414709970355,0.8114048838615417,0.5844410061836243,0.0001267102360504,-0.0001179057757866,-1.970453132691754e-06,0.000622272491455,-0.0330815911293029,-0.0076236724853515,0,0,0,0
4.2,1788173139546,0.0,0.0,0.0058870268985629,-0.0040157791227102,0.9982028007507324,0.0595019608736038,0.0,0.0,0.0,0.0001997498329728,-0.0001307534403167,-1.0394935543445172e-06,0.0028401566669344,-0.0065433196723461,0.8114048838615417,0.5844410061836243,1.754204597193196e-05,-0.0001208587122533,-5.278991167136016e-11,0.0093804597854614,0.0089222788810729,0.0123672485351562,0,0,0,0
4.3,1788173139646,0.0,0.0,0.0058870268985629,-0.0040157791227102,0.9982028007507324,0.0595019608736038,0.0,0.0,0.0,0.0001997498329728,-0.0001307534403167,-1.0394935543445172e-06,0.0028443820774555,-0.0065459469333291,0.8114048838615417,0.5844410061836243,2.6070129387141944e-06,-0.0001464394191059,-1.5890409265703293e-06,0.0001657605171203,0.0073638558387756,-0.0163173675537109,0,0,0,0
4.4,1788173139746,0.0,0.0,0.0058870268985629,-0.0040157791227102,0.9982028007507324,0.0595019608736038,0.0,0.0,0.0,0.0001997498329728,-0.0001307534403167,-1.0394935543445172e-06,0.0028518196195364,-0.0065506314858794,0.8114047646522522,0.5844409465789795,4.6944855958650325e-06,-0.0001367151101513,-1.989723664554906e-06,-0.0216833353042602,-0.0054095983505249,0.0222845077514648,0,0,0,0
4.5,1788173139846,0.0,0.0,0.005907910875976,-0.0040077273733913,0.9982026815414428,0.0595019720494747,0.0,0.0,0.0,0.0,0.0,0.0,0.0028518196195364,-0.0065506314858794,0.8114047646522522,0.5844409465789795,4.6944855958650325e-06,-0.0001367151101513,-1.989723664554906e-06,-0.0216833353042602,-0.0054095983505249,0.0222845077514648,0,0,0,0
4.6,1788173139946,0.0,0.0,0.0059176040813326,-0.0040077259764075,0.998202621936798,0.0595018826425075,3.057114655363671e-07,-4.638932030276847e-07,-7.137756857634505e-09,1.930365760927089e-05,-0.0003227111883461,1.6151089994309586e-06,0.0028619859367609,-0.0065589724108576,0.8114047646522522,0.5844409465789795,-2.4115549263204108e-05,-0.0001730728098766,-1.188952054673147e-06,0.0156382322311401,-0.0157862305641174,-0.0044527053833007,0,0,0,0
4.7,1788173140046,0.0,0.0,0.005930196493864,-0.0040100431069731,0.9982025623321532,0.0595018155872821,3.677977673020904e-07,-5.581047169964416e-07,-8.598423289234651e-09,-5.061452247900888e-05,-0.0002776418696157,2.6904729111265624e-06,0.0028656385838985,-0.0065636029466986,0.8114046454429626,0.5844408869743347,-6.435144075861673e-05,-0.0002062821427611,-1.98941112181931e-06,-0.0047180652618408,-0.029813528060913,0.0019826889038085,0,0,0,0
4.8,1788173140146,0.0,0.0,0.0059391148388385,-0.0040139211341738,0.9982025027275084,0.059501864016056,0.0,0.0,0.0,0.0,0.0,0.0,0.0028725694864988,-0.0065753227099776,0.8114046454429626,0.5844408869743347,-9.443481677833537e-05,-0.0001924536474486,2.9753234546753567e-10,0.0114538073539733,0.0047399401664733,-0.0270547866821289,0,0,0,0
4.9,1788173140246,0.0,0.0,0.0059391148388385,-0.0040139211341738,0.9982025027275084,0.059501864016056,0.0,0.0,0.0,0.0,0.0,0.0,0.0028768582269549,-0.0065826755017042,0.8114045262336731,0.5844408273696899,-7.916005068970732e-05,-0.0001860175519675,3.6095049806925647e-10,-0.0316623449325561,-0.0047389864921569,0.0304174423217773,0,0,0,0
5.0,1788173140346,0.0,0.0,0.0059391148388385,-0.0040139211341738,0.9982025027275084,0.059501864016056,0.0,0.0,0.0,0.0,0.0,0.0,0.0028837257996201,-0.0065859137102961,0.8114045262336731,0.5844408273696899,6.243226041674186e-05,-3.0599724717072015e-05,-3.8244592060248756e-11,-0.0179190635681152,-0.0199978351593017,-0.0055427551269531,0,0,0,0
5.1,1788173140446,0.0,0.0,0.0059391148388385,-0.0040139211341738,0.9982025027275084,0.059501864016056,0.0,0.0,0.0,0.0,0.0,0.0,0.002883581444621,-0.0065813725814223,0.8114045262336731,0.5844408273696899,7.024338897549505e-05,8.05727784581567e-05,1.4887786699550494e-10,-0.029527723789215,-0.0112417340278625,0.0090055465698242,0,0,0,0
5.2,1788173140546,0.0,0.0,0.0059584323316812,-0.0040170387364923,0.9982023239135742,0.0595018193125724,0.0,0.0,0.0,0.0,0.0,0.0,0.002883581444621,-0.0065813725814223,0.8114045262336731,0.5844408273696899,7.024338897549505e-05,8.05727784581567e-05,1.4887786699550494e-10,-0.029527723789215,-0.0112417340278625,0.0090055465698242,0,0,0,0
5.3,1788173140646,0.0,0.0,0.0059517584741115,-0.0040119448676705,0.998202383518219,0.0595018900930881,0.0,0.0,0.0,0.0,0.0,0.0,0.002883581444621,-0.0065813725814223,0.8114045262336731,0.5844408273696899,7.024338897549505e-05,8.05727784581567e-05,1.4887786699550494e-10,-0.029527723789215,-0.0112417340278625,0.0090055465698242,0,0,0,0
5.4,1788173140746,0.0,0.0,0.0059517584741115,-0.0040119448676705,0.998202383518219,0.0595018900930881,0.0,0.0,0.0,0.0,0.0,0.0,0.0028774850070476,-0.0065523060038685,0.8114046454429626,0.5844408869743347,0.0002744194210774,0.0002080172246879,4.977923066183633e-10,-0.0087807774543762,0.0105506777763366,-0.0036640167236328,0,0,0,0
5.5,1788173140846,0.0,0.0,0.0059517584741115,-0.0040119448676705,0.998202383518219,0.0595018900930881,0.0,0.0,0.0,0.0,0.0,0.0,0.002875892445445,-0.0065298648551106,0.8114048838615417,0.5844410061836243,0.0002265177950848,0.0001929874519506,-5.413623093091951e-07,-0.0232617259025573,0.0016643404960632,0.013401985168457,0,0,0,0
5.6,1788173140946,0.0,0.0,0.0059517584741115,-0.0040119448676705,0.998202383518219,0.0595018900930881,0.0,0.0,0.0,0.0,0.0,0.0,0.0028750067576766,-0.0065217576920986,0.8114048838615417,0.5844410061836243,0.0001228582397531,0.000116129459861,-1.237133190644449e-06,0.0125792622566223,0.0129869580268859,-0.0086183547973632,0,0,0,0
5.7,1788173141046,0.0,0.0,0.0059187430888414,-0.0039708274416625,0.9982028007507324,0.059501901268959,0.0,0.0,0.0,0.0,0.0,0.0,0.0028737727552652,-0.0065169371664524,0.8114048838615417,0.5844410061836243,3.587388243103355e-05,8.045863920355976e-05,4.304899304152055e-11,0.0071979165077209,-0.0098578333854675,-0.009749412536621,0,0,0,0
5.8,1788173141146,0.0,0.0,0.0059162871912121,-0.0039680209010839,0.9982028603553772,0.0595018789172172,0.0,0.0,0.0,0.0001069413337972,0.000105497194454,7.502022754124482e-07,0.0028725024312734,-0.0065157311037182,0.8114048838615417,0.5844410061836243,8.248502113649153e-07,3.9298211834296166e-05,5.123905195844868e-13,-0.0059254765510559,0.0117513537406921,0.0284624099731445,0,0,0,0
5.9,1788173141246,0.0,0.0,0.0059132031165063,-0.0039656073786318,0.9982028603553772,0.0595019720494747,-3.66723813130288e-07,5.564750854090318e-07,8.519081739274476e-09,5.769483323092573e-05,1.7157553884317167e-05,-4.620057552529033e-06,0.0028743455186486,-0.0065133925527334,0.8114050030708313,0.584441065788269,0.0001042504908947,-2.838551275077945e-05,2.0434580818082235e-06,0.031395137310028,0.0109809637069702,-0.0235910415649414,0,0,0,0
6.0,1788173141346,0.0,0.0,0.0059203580021858,-0.0039566396735608,0.9982028007507324,0.0595019347965717,0.0,0.0,0.0,0.0001888231490738,-0.0001655557425692,-1.184656525765604e-06,0.0028861202299594,-0.0065107699483633,0.8114050030708313,0.584441065788269,7.973115336561463e-05,-0.0001265929816125,-2.063548092619138e-06,-0.0108466148376464,0.00392347574234,0.0039892196655273,0,0,0,0
6.1,1788173141446,0.0,0.0,0.0059203580021858,-0.0039566396735608,0.9982028007507324,0.0595019347965717,0.0,0.0,0.0,0.0,0.0,0.0,0.0028937729075551,-0.0065142791718244,0.8114048838615417,0.5844410061836243,1.7856364362886223e-05,-0.0001884479732761,-6.309435366912776e-11,0.0101737976074218,-0.0117685794830322,-0.003880500793457,0,0,0,0
6.2,1788173141546,0.0,0.0,0.0059335669502615,-0.0039548361673951,0.9982028007507324,0.0595018453896045,4.106494327172901e-07,-6.231288218932524e-07,-9.532893169018588e-09,1.3225649126979988e-05,-0.0003309958556201,3.003932761203032e-06,0.0029004989191889,-0.006520552560687,0.8114048838615417,0.5844410061836243,-3.889612283807016e-05,-0.0001931982246879,1.1596475415276869e-10,-0.0117490291595458,0.0082664489746093,0.0229139328002929,0,0,0,0
6.3,1788173141646,0.0,0.0,0.0059335669502615,-0.0039548361673951,0.9982028007507324,0.0595018453896045,0.0,0.0,0.0,0.0,0.0,0.0,0.0029046609997749,-0.0065260054543614,0.8114047646522522,0.5844409465789795,-6.64074570266698e-05,-0.0001892154702091,-1.4652884943913656e-06,-0.0136162638664245,-0.0038405656814575,-0.010960578918457,0,0,0,0
6.4,1788173141746,0.0,0.0,0.0059490483254194,-0.0039600543677806,0.998202621936798,0.0595019198954105,0.0,0.0,0.0,-0.0001924357202369,-0.0007073736051097,-5.181765118322801e-06,0.0029077669605612,-0.0065316641703248,0.8114047646522522,0.5844409465789795,-9.655904195322256e-05,-0.0001841481182605,2.667702859949381e-10,-0.0171746611595153,0.0016325116157531,0.009169578552246,0,0,0,0
6.5,1788173141846,0.0,0.0,0.0059490483254194,-0.0039600543677806,0.998202621936798,0.0595019198954105,0.0,0.0,0.0,-0.0001924357202369,-0.0007073736051097,-5.181765118322801e-06,0.0029116692021489,-0.0065415995195508,0.8114047646522522,0.5844409465789795,-0.0001060350071741,-0.0001547268993743,4.0621957360846734e-10,-0.0207504034042358,0.0161560773849487,0.009932518005371,0,0,0,0
6.6,1788173141946,0.0,0.0,0.0059651853516697,-0.0039710910059511,0.9982025027275084,0.0595017969608306,0.0,0.0,0.0,-0.0001338840083917,-0.0002444792480673,-2.107579803123372e-06,0.0029158666729927,-0.0065492093563079,0.8114046454429626,0.5844408869743347,-2.88568516532541e-05,-0.0001038263239499,3.1087699485851146e-11,-0.0222386717796325,0.0301341414451599,-0.0167722702026367,0,0,0,0
6.7,1788173142046,0.0,0.0,0.005969364196062,-0.0039723571389913,0.9982025027275084,0.0595018155872821,0.0,0.0,0.0,-4.080598955624737e-05,-0.0001706925831967,-1.0482273182788049e-06,0.0029220376163721,-0.0065516745671629,0.8114046454429626,0.5844408869743347,4.290772134944033e-05,-9.893043347925626e-05,-6.435707393348571e-11,-0.0098648071289062,0.0097115039825439,0.0100717544555664,0,0,0,0
6.8,1788173142146,0.0,0.0,0.005969364196062,-0.0039723571389913,0.9982025027275084,0.0595018155872821,0.0,0.0,0.0,-4.080598955624737e-05,-0.0001706925831967,-1.0482273182788049e-06,0.0029220376163721,-0.0065516745671629,0.8114046454429626,0.5844408869743347,4.290772134944033e-05,-9.893043347925626e-05,-6.435707393348571e-11,-0.0098648071289062,0.0097115039825439,0.0100717544555664,0,0,0,0
6.9,1788173142246,0.0,0.0,0.0059729483909904,-0.0039714905433356,0.9982025027275084,0.0595017038285732,0.0,0.0,0.0,0.0,0.0,0.0,0.0029220376163721,-0.0065516745671629,0.8114046454429626,0.5844408869743347,4.290772134944033e-05,-9.893043347925626e-05,-6.435707393348571e-11,-0.0098648071289062,0.0097115039825439,0.0100717544555664,0,0,0,0
7.0,1788173142346,0.0,0.0,0.0059729483909904,-0.0039714905433356,0.9982025027275084,0.0595017038285732,0.0,0.0,0.0,0.0,0.0,0.0,0.0029220376163721,-0.0065516745671629,0.8114046454429626,0.5844408869743347,4.290772134944033e-05,-9.893043347925626e-05,-6.435707393348571e-11,-0.0098648071289062,0.0097115039825439,0.0100717544555664,0,0,0,0
7.1,1788173142446,0.0,0.0,0.0059729483909904,-0.0039714905433356,0.9982025027275084,0.0595017038285732,0.0,0.0,0.0,0.0,0.0,0.0,0.0029220376163721,-0.0065516745671629,0.8114046454429626,0.5844408869743347,4.290772134944033e-05,-9.893043347925626e-05,-6.435707393348571e-11,-0.0098648071289062,0.0097115039825439,0.0100717544555664,0,0,0,0
7.2,1788173142546,0.0,0.0,0.0059770937077701,-0.0039644353091716,0.9982024431228638,0.0595017857849597,0.0,0.0,0.0,0.0,0.0,0.0,0.0029189847409725,-0.0065439436584711,0.8114046454429626,0.5844408869743347,-4.179310466699341e-05,0.0001158242537944,-9.589620085740929e-11,0.0110430121421813,0.0332237482070922,0.0149364471435546,0,0,0,0
7.3,1788173142646,0.0,0.0,0.0059770937077701,-0.0039644353091716,0.9982024431228638,0.0595017857849597,0.0,0.0,0.0,0.0,0.0,0.0,0.0029189847409725,-0.0065439436584711,0.8114046454429626,0.5844408869743347,-4.179310466699341e-05,0.0001158242537944,-9.589620085740929e-11,0.0110430121421813,0.0332237482070922,0.0149364471435546,0,0,0,0
7.4,1788173142746,-3.6619718074798575,3.549295663833618,0.01048388145864,-0.0041201245039701,0.9986595511436462,0.0505189262330532,-0.0066378338799848,0.010586384515507,9.815291991677938e-07,0.0060016037896275,-0.1986846774816513,0.3501377999782562,0.0265682972967624,-0.0175389889627695,0.8266552090644836,0.5618075132369995,0.2772658864795072,-0.4703001453130321,0.4696597685886722,0.6547412872314453,0.0597245693206787,-2.428622245788574,391,532,-13502,15901
7.5,1788173142846,-3.126760482788086,3.239436626434326,0.0324637666344642,4.075182368978858e-05,0.9992110133171082,0.022879097610712,-0.0001471594638962,0.0091761582064612,2.7079977001104414e-05,0.0660075172781944,-0.0684597864747047,0.4196222126483917,0.0230828113853931,-0.0176607426255941,0.8359431028366089,0.5480459332466125,-0.1171734780373798,0.1703459635856491,0.3203106319460635,0.0552842617034912,0.1104553937911987,0.3438100814819336,214,594,-13287,18784
7.6,1788173142946,-2.8450703620910645,3.211267709732056,0.0289506055414676,-0.0025652516633272,0.9994561672210692,0.0155755262821912,0.0100719764007437,0.0116158324811477,-4.394747890739847e-05,-0.1085239127278328,0.1533922702074051,0.3276192843914032,0.0196835082024335,-0.0162332206964492,0.850504994392395,0.525347888469696,0.0168163342371069,0.0245857122266965,0.5879081352157882,-0.1183254122734069,-0.0663058161735534,-0.4414358139038086,188,391,-11956,15532
7.7,1788173143046,-2.8450703620910645,3.211267709732056,-0.0233697760850191,0.0031539089977741,-0.999386727809906,0.0258844215422868,0.0227319872863285,0.0002266573536089,-9.489097507097355e-06,0.0203347671777009,0.0744327530264854,0.6417036056518555,0.0172932427376508,-0.0145378671586513,0.872048556804657,0.4888977110385895,0.0283939235232482,-0.004504990624786,0.7181167955563936,-0.2311636805534362,0.2890275716781616,-0.2603168487548828,188,391,-11956,15532
7.8,1788173143146,-2.8450703620910645,3.211267709732056,-0.0224805548787117,0.0031980464700609,-0.9987627863883972,0.0442431606352329,0.0207219328429853,-0.000892625901916,-2.551748137962633e-05,0.016084523871541,0.0323821529746055,0.7277032136917114,0.0176598578691482,-0.0141204912215471,0.8857885599136353,0.4635379910469055,0.0191756470857798,-0.0573693527516956,0.8213507025026023,0.171514093875885,-0.01762455701828,-0.3424539566040039,188,391,-11956,15532
7.9,1788173143246,-2.8450703620910645,2.929577350616455,-0.0221968404948711,0.0023520803079009,-0.9958267211914062,0.0884918496012687,0.0057278548672153,-0.0065630815359482,-3.2485973458364308e-06,0.0309268590062856,-0.0183281134814023,0.8157811760902405,0.0178344529122114,-0.0133164729923009,0.9057366251945496,0.4232561588287353,0.0221064970491722,-0.0414386234968873,0.8314814518294733,0.1634352207183838,-0.0584486126899719,0.0054283142089843,188,391,-11956,15532
8.0,1788173143346,-2.8450703620910645,2.929577350616455,-0.0212132167071104,0.0013093492016196,-0.9891658425331116,0.1452554315328598,0.0035359831011396,-0.0001335074322468,-1.8226973985821524e-06,0.0405985377728939,0.0374543778598308,0.8093171715736389,0.0178344529122114,-0.0133164729923009,0.9057366251945496,0.4232561588287353,0.0221064970491722,-0.0414386234968873,0.8314814518294733,0.1634352207183838,-0.0584486126899719,0.0054283142089843,224,338,-12425,13928
8.1,1788173143446,-2.8450703620910645,2.929577350616455,-0.0212132167071104,0.0013093492016196,-0.9891658425331116,0.1452554315328598,0.0035359831011396,-0.0001335074322468,-1.8226973985821524e-06,0.0405985377728939,0.0374543778598308,0.8093171715736389,0.0167320482432842,-0.0114150987938046,0.937866985797882,0.3464034497737884,0.0246088984191348,0.0006810878543556,0.7510694799085497,-0.1273476481437683,0.1589924693107605,0.1199293136596679,224,338,-12425,13928
8.2,1788173143546,-2.4788732528686523,2.676056385040283,-0.0202615223824977,0.0007580281235277,-0.9787607789039612,0.2040007263422012,0.0077646589746857,-0.0050778348781605,-7.153915868827465e-06,0.0262144785374403,0.0154332229867577,0.7677663564682007,0.0176035203039646,-0.0110231023281812,0.9490492343902588,0.3144427835941314,0.0278994489966664,-0.0201812716663123,0.7219864966427523,-0.004615843296051,-0.2644346952438354,0.0886154174804687,224,338,-12425,13928
8.3,1788173143646,-2.4788732528686523,2.676056385040283,-0.0209566317498683,-0.0001759435981512,-0.9694504141807556,0.2443905025720596,0.0008311866415314,0.0006229735611054,-3.454148642663433e-07,0.0289021357893943,-0.0250309500843286,0.7507398724555969,0.0176035203039646,-0.0110231023281812,0.9490492343902588,0.3144427835941314,0.0278994489966664,-0.0201812716663123,0.7219864966427523,-0.004615843296051,-0.2644346952438354,0.0886154174804687,224,338,-12425,13928
8.4,1788173143746,-3.4084506034851074,3.2676055431365967,-0.0205683056265115,-0.0008738250471651,-0.9600844383239746,0.2789515554904938,0.0077804983353729,-0.0019069790998783,5.140484935195205e-07,0.0315160304307937,0.0003306424769107,0.7530591487884521,0.0174809079617261,-0.0096615180373191,0.9707536697387696,0.2392457872629165,0.0298234555172362,0.0414481639142134,0.8293235651518763,-0.2948894500732422,-0.1250154972076416,0.2290868759155273,224,338,-12425,13928
8.5,1788173143846,-3.2957746982574463,3.436619758605957,-0.0203930214047431,-0.0015077046118676,-0.941438853740692,0.3365632891654968,0.0112196192050758,-0.0042363015191872,5.676091213513978e-06,0.0240522176027297,-0.0244044307619333,0.8851309418678284,0.0174809079617261,-0.0096615180373191,0.9707536697387696,0.2392457872629165,0.0298234555172362,0.0414481639142134,0.8293235651518763,-0.2948894500732422,-0.1250154972076416,0.2290868759155273,224,338,-12425,13928
8.6,1788173143946,-3.2957746982574463,3.2957746982574463,-0.0203930214047431,-0.0015077046118676,-0.941438853740692,0.3365632891654968,0.0112196192050758,-0.0042363015191872,5.676091213513978e-06,0.0240522176027297,-0.0244044307619333,0.8851309418678284,0.0174809079617261,-0.0096615180373191,0.9707536697387696,0.2392457872629165,0.0298234555172362,0.0414481639142134,0.8293235651518763,-0.2948894500732422,-0.1250154972076416,0.2290868759155273,239,326,-13135,14780
8.7,1788173144046,-3.1549296379089355,3.126760482788086,-0.0179087668657302,-0.0025031669065356,-0.9053243398666382,0.4243358373641968,0.0048390102201103,-0.0035799043762869,1.3048918653667833e-06,0.0324452891945838,0.000294632744044,0.8803792595863342,0.0174809079617261,-0.0096615180373191,0.9707536697387696,0.2392457872629165,0.0298234555172362,0.0414481639142134,0.8293235651518763,-0.2948894500732422,-0.1250154972076416,0.2290868759155273,203,411,-13316,15652
8.8,1788173144146,-3.126760482788086,3.2957746982574463,-0.0179175194352865,-0.0029242248274385,-0.8953962326049805,0.4449000954627991,0.005841270458201,-0.0050852127288431,-6.136785611700579e-06,0.0304835531860589,-0.0123782409355044,0.9028102159500122,0.0168064776808023,-0.0066211950033903,0.9976006150245668,0.0668336674571037,0.0293692847631709,-0.0012278811838054,0.8767860271121695,-0.0777040123939514,-0.1566163897514343,0.1025533676147461,244,372,-13568,15015
8.9,1788173144246,-3.126760482788086,3.2957746982574463,-0.0176782850176095,-0.0039105168543756,-0.8663980960845947,0.4990255236625671,0.0088534186860501,-0.0023449432770803,3.2299743195734274e-06,0.0321307368576526,-0.0086329970508813,0.8841694593429565,0.0172750540077686,-0.0063941245898604,0.9984094500541688,0.0532847344875335,0.0324349778600811,-0.0358753516093714,0.9095367200314076,-0.0066402554512023,-0.051590621471405,-0.1873788833618164,244,372,-13568,15015
9.0,1788173144346,-3.126760482788086,3.2957746982574463,-0.0168278329074382,-0.004210808314383,-0.8424475789070129,0.5384989380836487,0.005807668050299,-0.0032509661283242,1.526633826582492e-06,0.0291719976812601,0.0035392253194004,0.9142588973045348,-0.0170378293842077,0.0051262723281979,-0.999283492565155,0.0334065929055213,0.0230662687870994,-0.0496125744992765,0.9417876275767568,0.1619238853454589,0.0011045336723327,-0.1222877502441406,244,372,-13568,15015
9.1,1788173144446,-2.9577465057373047,3.070422649383545,-0.0161293521523475,-0.0043148258700966,-0.8151084780693054,0.5790676474571228,0.0018735683568517,-0.0020250327800702,-2.6863386150026127e-06,0.0220265574753284,0.0361707732081413,0.8656453490257263,-0.0163781084120273,0.0048152608796954,-0.9970145225524902,0.0753041058778762,0.0177107594800014,-0.0389091700338401,0.8929253275526332,-0.0322353243827819,0.1482755541801452,-0.2093315124511718,244,372,-13568,15015
9.2,1788173144546,-2.929577350616455,2.9577465057373047,-0.0163725428283214,-0.0046688523143529,-0.8026136159896851,0.5962562561035156,0.0071870162896719,-0.0094907840382987,-1.3294587276749112e-06,0.0187713522464036,-0.0207977537065744,0.8325894474983215,-0.0163781084120273,0.0048152608796954,-0.9970145225524902,0.0753041058778762,0.0177107594800014,-0.0389091700338401,0.8929253275526332,-0.0322353243827819,0.1482755541801452,-0.2093315124511718,244,372,-13568,15015
9.3,1788173144646,-2.1408450603485107,2.169013977050781,-0.0163725428283214,-0.0046688523143529,-0.8026136159896851,0.5962562561035156,0.0071870162896719,-0.0094907840382987,-1.3294587276749112e-06,0.0187713522464036,-0.0207977537065744,0.8325894474983215,-0.0165430456399917,0.0037506446242332,-0.9907585978507996,0.1345725357532501,0.0210730834317376,-0.0002921516104224,0.6194618830362083,0.0235251188278198,-0.0004562735557556,0.1350727081298828,163,258,-9723,11112
9.4,1788173144746,-2.1408450603485107,2.169013977050781,-0.01618935726583,-0.0055492999963462,-0.77154141664505,0.6359487175941467,0.0054047754749062,-0.0046015826825463,-7.828222547212578e-07,0.0208354033529758,-0.0053623467683792,0.6578085422515869,-0.0170777700841426,0.0033185239881277,-0.9882623553276062,0.1517722904682159,0.0205942691832775,-0.0234347058962827,0.5776526489478095,-0.1078156232833862,-0.1703246831893921,0.0515069961547851,163,258,-9723,11112
9.5,1788173144846,-1.6619718074798584,1.8591549396514893,-0.0165694430470466,-0.006853484082967,-0.741138756275177,0.6711124181747437,0.0040981574712899,-0.0008531716215677,5.26130279145023e-06,0.0125643489882349,-0.0194831266999244,0.5512222647666931,-0.0176404789090156,0.0026947101578116,-0.9805372953414916,0.1955202668905258,0.016852908602525,-0.0142741703802187,0.546295312833307,-0.1261300444602966,-0.2250603437423706,-0.0023612976074218,152,274,-8301,8965
9.6,1788173144946,-1.5211267471313477,1.4929577112197876,-0.0162869915366172,-0.0071386829949915,-0.7159824371337891,0.6978917121887207,0.0026091841399808,-0.0041149095664238,8.61045470303005e-07,0.0068431082181632,0.0011928719468414,0.4547109007835388,-0.0176767297089099,0.0026831850409507,-0.97865229845047,0.2047438770532608,0.008091734864404,-0.0048985464973051,0.4732609491954169,0.0991331934928894,-0.2931248545646667,0.0289077758789062,152,274,-8301,8965
9.7,1788173145046,0.0,2.3943662643432617,-0.0162869915366172,-0.0071386829949915,-0.7159824371337891,0.6978917121887207,0.0026091841399808,-0.0041149095664238,8.61045470303005e-07,0.0068431082181632,0.0011928719468414,0.4547109007835388,-0.0182437635958194,0.0020100893452763,-0.9725160598754884,0.2321114838123321,0.0170230154476693,-0.0591481333760829,0.3763207617135455,0.6608445048332214,-0.1608393192291259,0.1328630447387695,190,329,-8497,10081
9.8,1788173145146,0.0,2.3943662643432617,-0.0162869915366172,-0.0071386829949915,-0.7159824371337891,0.6978917121887207,0.0026091841399808,-0.0041149095664238,8.61045470303005e-07,0.0068431082181632,0.0011928719468414,0.4547109007835388,-0.0182437635958194,0.0020100893452763,-0.9725160598754884,0.2321114838123321,0.0170230154476693,-0.0591481333760829,0.3763207617135455,0.6608445048332214,-0.1608393192291259,0.1328630447387695,28,543,0,17655
9.9,1788173145246,4.197183132171631,6.619718074798584,-0.0189999714493751,-0.0139303570613265,-0.6768630743026733,0.7357317805290222,0.1384243150756995,-0.0013988750498728,8.621023748060479e-05,0.0283577311784029,-0.0518156178295612,0.2645520269870758,-0.0242030043154954,-0.0019514895975589,-0.9650596976280212,0.2609026134014129,0.0187041366269125,-0.0627848818677633,0.1997537660894246,0.7170229554176331,0.1048377156257629,-0.7635622024536133,57,430,11477,24370
10.0,1788173145346,4.366197109222412,6.169013977050781,-0.0189999714493751,-0.0139303570613265,-0.6768630743026733,0.7357317805290222,0.1384243150756995,-0.0013988750498728,8.621023748060479e-05,0.0283577311784029,-0.0518156178295612,0.2645520269870758,-0.0179610587656497,0.0020742556080222,-0.9631998538970948,0.2681774199008941,-0.0536965889861078,0.1766265297952188,0.1402147873269754,-0.0351619124412536,-0.5440342426300049,1.4911775588989258,57,430,11477,24370
10.1,1788173145446,4.056337833404541,6.11267614364624,-0.0179788246750831,-0.0110111609101295,-0.6716293692588806,0.7405872344970703,0.1837756701337787,-0.0027785077971182,-0.0002830833110419,-0.054372601211071,0.1333353817462921,0.1400208622217178,-0.0163504239171743,0.0027573937550187,-0.9613386392593384,0.2748692035675049,-0.0028019214946348,0.0482681451028576,0.1990276749815362,-0.0881246328353881,-0.295228362083435,0.2388916015625,57,430,11477,24370
10.2,1788173145546,4.056337833404541,6.11267614364624,-0.0143136009573936,-0.0063092596828937,-0.6561609506607056,0.7544588446617126,0.140975031645705,0.0022489766230386,-2.2524806233394533e-05,0.0163806155323982,0.0446734614670276,0.2063887119293213,-0.013138017617166,0.0029746387153863,-0.9573673605918884,0.2885590493679046,0.0056028313644868,0.1124831551185224,0.134429835387213,-0.904389262199402,0.2124159932136535,0.1689233779907226,57,430,11477,24370
10.3,1788173145646,1.0704225301742554,1.4929577112197876,-0.0143136009573936,-0.0063092596828937,-0.6561609506607056,0.7544588446617126,0.140975031645705,0.0022489766230386,-2.2524806233394533e-05,0.0163806155323982,0.0446734614670276,0.2063887119293213,-0.0012152437120676,0.0065825544297695,-0.9564715027809144,0.2917490899562835,-0.0011175660513929,0.2214447026498465,0.0041709746829132,0.0062171220779418,-0.3282720446586609,0.2351436614990234,37,72,0,4060
10.4,1788173145746,0.4507042169570923,0.0,-0.004327967762947,0.0052249603904783,-0.6517981886863708,0.7583620548248291,0.0055578914972151,-0.0030985588674305,-1.5348214271315727e-05,-0.0029043508693575,0.1083550229668617,-0.0398065857589244,-0.0007342677563428,0.0067627523094415,-0.9566618800163268,0.2911215126514435,-0.0012745649860726,0.0206698077861957,-0.026087417223498,-0.3509956002235412,-0.07893568277359,-0.8197145462036133,0,7,0,0
10.5,1788173145846,0.0,0.0,-0.004327967762947,0.0052249603904783,-0.6517981886863708,0.7583620548248291,-0.0047256027377537,0.0045422747015047,-9.737589452317605e-08,0.0,0.0,0.0,-0.0008082818239927,0.0067861834540963,-0.9566493034362792,0.2911621332168579,0.0007217910763676,0.0133337828337531,-0.0186585530687154,-0.287502646446228,0.2543520927429199,-0.4264745712280273,0,0,0,0
10.6,1788173145946,0.0,0.0,-0.004327967762947,0.0052249603904783,-0.6517981886863708,0.7583620548248291,0.0004007136977334,-0.0003850106818868,-7.492422480067299e-07,0.0,0.0,0.0,-0.0008082818239927,0.0067861834540963,-0.9566493034362792,0.2911621332168579,0.0007217910763676,0.0133337828337531,-0.0186585530687154,-0.287502646446228,0.2543520927429199,-0.4264745712280273,0,0,0,0
10.7,1788173146046,0.0,0.0,-0.004327967762947,0.0052249603904783,-0.6517981886863708,0.7583620548248291,0.0004007136977334,-0.0003850106818868,-7.492422480067299e-07,0.0,0.0,0.0,-0.0008038021624088,0.0067900819703936,-0.956626296043396,0.2912377417087555,0.000371077619413,0.00015356898614,-0.0010233730039424,0.032020628452301,-0.0493512749671936,0.0514183044433593,0,0,0,0
10.8,1788173146146,0.0,0.0,-0.004327967762947,0.0052249603904783,-0.6517981886863708,0.7583620548248291,0.0,0.0,0.0,0.0,0.0,0.0,-0.0008054701611399,0.0067984126508235,-0.9566371440887452,0.2912017703056335,-0.0003414516401628,0.0001489671652828,-0.0003979856552893,-0.0074895024299621,-0.0491914749145507,0.053044319152832,0,0,0,0
10.9,1788173146246,0.0,0.0,-0.004327967762947,0.0052249603904783,-0.6517981886863708,0.7583620548248291,0.0,0.0,0.0,0.0,0.0,0.0,-0.0008092308416962,0.0068120211362838,-0.9566366672515868,0.2912033200263977,0.0002387565778695,0.00012938038426,0.0011493654563523,0.0143143534660339,-0.0235368013381958,-0.0024309158325195,0,0,0,0
11.0,1788173146346,0.0,0.0,-0.004327967762947,0.0052249603904783,-0.6517981886863708,0.7583620548248291,0.0,0.0,0.0,0.0,0.0,0.0,-0.0008593453094363,0.0068429866805672,-0.956645667552948,0.2911729216575622,-0.000320649288294,-0.0013201281915767,-0.0006489997204954,-0.0008606910705566,-0.00474613904953,0.0065717697143554,0,0,0,0
11.1,1788173146446,0.0,0.0,-0.004327967762947,0.0052249603904783,-0.6517981886863708,0.7583620548248291,0.0,0.0,0.0,0.0,0.0,0.0,-0.0008308496326208,0.0068863378837704,-0.9566240310668944,0.2912425398826599,-0.000412028306633,0.0005567453145442,0.0019039408133058,-0.2085786461830139,0.1843357682228088,0.0441808700561523,0,0,0,0
11.2,1788173146546,0.0,0.0,-0.0044398372992873,0.0052275862544775,-0.6511878371238708,0.7588855624198914,0.0007032290539899,-0.001423290705985,1.16943098408183e-06,-0.0045497016981244,-0.0039686672389507,0.0417939163744449,-0.0012505259364843,0.0066620996221899,-0.9559012055397034,0.2936102747917175,0.0041631377518596,-0.0228725719255326,0.1168630985458388,-0.4951981902122497,0.5854604244232178,0.3194179534912109,211,266,-7404,7620
11.3,1788173146646,-1.2394366264343262,1.2957746982574463,-0.0101197995245456,-0.0015449598431587,-0.6422419548034668,0.7664335370063782,-0.0004145279618798,0.0036701800391675,4.289069115725934e-06,0.0042112567462027,-0.2463252395391464,0.2379895448684692,-0.0012505259364843,0.0066620996221899,-0.9559012055397034,0.2936102747917175,0.0041631377518596,-0.0228725719255326,0.1168630985458388,-0.4951981902122497,0.5854604244232178,0.3194179534912109,243,431,-8966,10307
11.4,1788173146746,-1.183098554611206,1.183098554611206,-0.0149077922105789,-0.0075128767639398,-0.6367934942245483,0.7708536386489868,0.0019678020492333,0.0016727685860983,1.10964251925266e-05,0.0084851393476128,-0.3019345104694366,0.2730763256549835,-0.017734982073307,0.0009185671806335,-0.948177456855774,0.3172445297241211,0.006204675570079,0.0068952111399602,0.1416638550173614,-0.1781776547431945,0.083500862121582,0.2698040008544922,274,544,-8703,11611
11.5,1788173146846,-1.183098554611206,1.183098554611206,-0.0156024936586618,-0.0088790599256753,-0.6303577423095703,0.7760971188545227,0.0012579138106071,0.0055049366960828,-2.1686062328235795e-06,0.0064266421832144,0.0168531518429517,0.1414976418018341,-0.0182902496308088,0.000651029869914,-0.9454919695854188,0.3251308500766754,0.008596568673393,-0.0340349235452043,0.2087190442684897,0.4237129688262939,-0.047886848449707,-0.2180299758911132,274,544,-8703,11611
11.6,1788173146946,2.0281689167022705,4.3380279541015625,-0.0157840233296155,-0.0092616807669401,-0.6231942176818848,0.7818529605865479,0.0176411880342587,0.0006905764484033,9.902591592355766e-06,0.0071490565314888,-0.0282833129167556,0.1913066357374191,-0.0185089875012636,-2.659577876329422e-05,-0.9434806108474731,0.3309105932712555,0.0288519517298377,-0.0577762947685342,0.1572861613017746,0.8848627805709839,-0.184387981891632,0.1895608901977539,87,589,8974,23054
11.7,1788173147046,4.02816915512085,6.507042407989502,-0.0152972415089607,-0.0088622644543647,-0.6209008097648621,0.7836897969245911,0.0357208016024074,0.0016046978588569,-2.5813120540534004e-05,0.0095992684364318,0.0314743816852569,0.1551200449466705,-0.0185089875012636,-2.659577876329422e-05,-0.9434806108474731,0.3309105932712555,0.0288519517298377,-0.0577762947685342,0.1572861613017746,0.8848627805709839,-0.184387981891632,0.1895608901977539,183,455,14944,23148
11.8,1788173147146,4.704225540161133,6.197183132171631,-0.0160565841943025,-0.0112403891980648,-0.6197113990783691,0.7845850586891174,0.1429084867074845,-0.0178328674914147,-1.6031122000055575e-05,-0.015130054205656,0.040034681558609,-0.0773583501577377,-0.0169457625597715,0.0008792988955974,-0.9437459111213684,0.3302358090877533,-0.0020019842372242,0.0265936684757524,0.0423424446313275,-0.5093618631362915,0.1783128380775451,-0.401803970336914,183,455,14944,23148
11.9,1788173147246,4.704225540161133,6.197183132171631,-0.014771893620491,-0.008223533630371,-0.6153475642204285,0.7880745530128479,0.1678257743430867,0.0019493849384092,-2.7842146597873694e-05,0.0015859624836593,0.0127629842609167,0.1921694129705429,-0.0168759915977716,0.000914822332561,-0.9419376254081726,0.3353624939918518,0.0024647307087278,0.0013803388883917,0.1785739482326554,-0.0918220281600952,0.3028005957603454,-0.0887899398803711,183,455,14944,23148
12.0,1788173147346,4.704225540161133,6.197183132171631,-0.0141498045995831,-0.0075855324976146,-0.6069629192352295,0.7945680022239685,0.1744935797176669,0.0024201951440508,-8.140768551140403e-05,0.0028835767880082,0.025349149480462,0.2282275259494781,-0.0168759915977716,0.000914822332561,-0.9419376254081726,0.3353624939918518,0.0024647307087278,0.0013803388883917,0.1785739482326554,-0.0918220281600952,0.3028005957603454,-0.0887899398803711,183,455,14944,23148
12.1,1788173147446,4.169013977050781,5.7183098793029785,-0.0143558736890554,-0.007608045823872,-0.6028989553451538,0.7976521253585815,0.1648596848323731,0.0006417321059943,1.6646138012712982e-06,-0.0029760592151433,-0.0069702891632914,0.200845330953598,-0.0174137763679027,0.0004013329744338,-0.932768940925598,0.3600536584854126,0.0139488224294235,-0.0370677028183853,0.1929794858886075,-0.0331820845603942,-0.1470472812652588,-0.1744537353515625,11,391,10309,22168
12.2,1788173147546,4.11267614364624,5.943662166595459,-0.0143558736890554,-0.007608045823872,-0.6028989553451538,0.7976521253585815,0.1648596848323731,0.0006417321059943,1.6646138012712982e-06,-0.0029760592151433,-0.0069702891632914,0.200845330953598,-0.0174308512359857,0.0003486890345811,-0.9298834204673768,0.3674411475658417,0.0039967438305535,-0.0009012095140569,0.1726704782347317,0.1707675457000732,-0.1590681076049804,0.0904197692871093,23,397,10735,21666
12.3,1788173147646,4.197183132171631,5.97183084487915,-0.0143558736890554,-0.007608045823872,-0.6028989553451538,0.7976521253585815,0.1648596848323731,0.0006417321059943,1.6646138012712982e-06,-0.0029760592151433,-0.0069702891632914,0.200845330953598,-0.0170674081891775,0.0004358440637588,-0.9275464415550232,0.3733177483081817,0.0037783987679512,-0.0029709678369219,0.1479461026457977,-0.0313878655433654,-0.1295799612998962,-0.2985868453979492,23,397,10735,21666
12.4,1788173147746,4.676056385040283,5.605633735656738,-0.0138279674574732,-0.0081996778026223,-0.581550121307373,0.8133517503738403,0.1704433434357664,-0.00309087238438,4.138201294380887e-07,2.3892186007401506e-08,4.778437201480301e-08,0.0,-0.0155324582010507,0.0007536876946687,-0.9265846610069276,0.375764787197113,-0.008165149766133,0.0280776121433153,-0.0032686079533752,-0.0974736809730529,-0.080014944076538,0.0325260162353515,12,343,11346,19806
12.5,1788173147846,4.450704097747803,5.633802890777588,-0.0136407688260078,-0.0080300029367208,-0.5805521011352539,0.8140691518783569,0.1713276832803064,-0.0017377918238738,-0.0001163625967635,0.0028882615733891,0.0096272761002182,0.0495465919375419,-0.0165769699960947,-0.0001851143315434,-0.9249610900878906,0.3797002136707306,0.0101721309077859,0.0098312564799591,0.0601353553542199,-0.1090849637985229,0.1878487467765808,-0.2368249893188476,24,378,11630,20506
12.6,1788173147946,4.422535419464111,5.323943614959717,-0.0136407688260078,-0.0080300029367208,-0.5805521011352539,0.8140691518783569,0.1713276832803064,-0.0017377918238738,-0.0001163625967635,0.0028882615733891,0.0096272761002182,0.0495465919375419,-0.0168658550828695,-0.0004405472427606,-0.9236276745796204,0.382919579744339,0.0108775417716312,0.0103023806210898,0.0815210053622426,0.1609814167022705,-0.0342903137207031,-0.2812490463256836,24,378,11630,20506
12.7,1788173148046,4.422535419464111,5.323943614959717,-0.0137364622205495,-0.0093724559992551,-0.5725039839744568,0.8197332620620728,0.1705885065865257,0.0001478132207534,-4.14111497284995e-05,0.0109923928976058,0.0169770698994398,0.0864721983671188,-0.0160531532019376,-0.0003207130357623,-0.9218350052833556,0.3872499465942383,-0.0014694228074027,0.0247781735673402,0.0745964221147886,-0.1916656494140625,-0.0948145985603332,0.2641859054565429,24,378,11630,20506
12.8,1788173148146,4.535211086273193,5.633802890777588,-0.0134042436257004,-0.0088974516838788,-0.5710810422897339,0.8207360506057739,0.1661946209386565,0.0008445086847278,-5.300914068214111e-05,0.0010781618766486,0.0223243609070777,0.0683702528476715,-0.0163796078413724,-0.0006739664822816,-0.9201740622520448,0.3911662399768829,0.0017759985114717,-0.0030810220095998,0.0654113336368709,0.2551805377006531,-0.1006004810333252,-0.2670717239379883,24,378,11630,20506
12.9,1788173148246,4.873239517211914,5.352112770080566,-0.0130543950945138,-0.008827825076878,-0.5669694542884827,0.8235881328582764,0.1697682013310963,-0.0027063011020749,1.0672989040235032e-05,0.0028961934149265,0.0236992165446281,0.0579571463167667,-0.0163796078413724,-0.0006739664822816,-0.9201740622520448,0.3911662399768829,0.0017759985114717,-0.0030810220095998,0.0654113336368709,0.2551805377006531,-0.1006004810333252,-0.2670717239379883,24,378,11630,20506
13.0,1788173148346,4.873239517211914,5.352112770080566,-0.0130543950945138,-0.008827825076878,-0.5669694542884827,0.8235881328582764,0.1697682013310963,-0.0027063011020749,1.0672989040235032e-05,0.0028961934149265,0.0236992165446281,0.0579571463167667,-0.0163796078413724,-0.0006739664822816,-0.9201740622520448,0.3911662399768829,0.0017759985114717,-0.0030810220095998,0.0654113336368709,0.2551805377006531,-0.1006004810333252,-0.2670717239379883,24,378,11630,20506
13.1,1788173148446,4.873239517211914,5.352112770080566,-0.0132027603685855,-0.0097995465621352,-0.5693262815475464,0.8219472169876099,0.1616883444945216,-0.0019184692580663,2.7045204144155915e-05,0.0060669053345918,0.0006039143190719,-0.0615454539656639,-0.0163921471685171,-0.0009523835033178,-0.9204487800598145,0.3905182182788849,0.00451307789014,-0.056050530120168,-0.0345269354344798,0.029079794883728,-0.2862533926963806,-0.051457405090332,24,378,11630,20506
13.2,1788173148546,1.5774648189544678,2.422535181045532,-0.0121272709220647,-0.0082903113216161,-0.5707418322563171,0.8209982514381409,0.1394290082788886,-0.0012733520137734,-9.379711518008988e-05,-6.57765194773674e-05,0.0741178169846534,-0.0674393773078918,-0.0163921471685171,-0.0009523835033178,-0.9204487800598145,0.3905182182788849,0.00451307789014,-0.056050530120168,-0.0345269354344798,0.029079794883728,-0.2862533926963806,-0.051457405090332,118,218,0,9873
13.3,1788173148646,1.5774648189544678,2.422535181045532,-0.0121272709220647,-0.0082903113216161,-0.5707418322563171,0.8209982514381409,0.1394290082788886,-0.0012733520137734,-9.379711518008988e-05,-6.57765194773674e-05,0.0741178169846534,-0.0674393773078918,-0.0105452248826622,0.0010795285925269,-0.9201778173446656,0.3913571238517761,0.0082776607279898,0.0507444040858939,0.145091546589647,-0.6157942414283752,-0.0345576405525207,0.1389751434326172,118,218,0,9873
13.4,1788173148746,-0.7605633735656738,0.9295774698257446,-0.0121272709220647,-0.0082903113216161,-0.5707418322563171,0.8209982514381409,0.1394290082788886,-0.0012733520137734,-9.379711518008988e-05,-6.57765194773674e-05,0.0741178169846534,-0.0674393773078918,-0.0174960158765316,-0.0021480517461895,-0.9152362942695618,0.4025318324565887,0.0047378582118259,-0.1988430202955424,0.1387914386577332,0.6243663430213928,-0.2684155702590942,-0.8309240341186523,118,218,0,9873
13.5,1788173148846,-0.7323943376541138,0.3098591566085815,-0.0129913557320833,-0.0101158153265714,-0.5580987334251404,0.8296112418174744,0.000951823822416,0.0025401714961934,7.429686747191697e-06,0.0025301766581833,-0.1866944134235382,0.1610939353704452,-0.0170781537890434,-0.0020476607605814,-0.914698600769043,0.4037705957889557,0.0010340609293776,0.0511536748903788,0.0362638505493358,-0.2583767175674438,-0.0396319031715393,0.4680376052856445,118,218,0,9873
13.6,1788173148946,-1.0985915660858154,0.7887324094772339,-0.0129913557320833,-0.0101158153265714,-0.5580987334251404,0.8296112418174744,0.000951823822416,0.0025401714961934,7.429686747191697e-06,0.0025301766581833,-0.1866944134235382,0.1610939353704452,-0.017698673531413,-0.0023645814508199,-0.9127399921417236,0.4081505239009857,-0.0025108928785302,0.0394744574254271,0.1131089425320206,-0.1034060716629028,-0.0628943443298339,0.2194623947143554,185,510,-6476,12579
13.7,1788173149046,-1.0985915660858154,0.7887324094772339,-0.0131336078047752,-0.0110836792737245,-0.5450658202171326,0.83821702003479,0.0076319699675277,0.0030337708417904,-1.5437851874318736e-06,0.0085998475551605,0.0166426133364439,0.2081440240144729,-0.017698673531413,-0.0023645814508199,-0.9127399921417236,0.4081505239009857,-0.0025108928785302,0.0394744574254271,0.1131089425320206,-0.1034060716629028,-0.0628943443298339,0.2194623947143554,185,510,-6476,12579
13.8,1788173149146,-0.8450704216957092,0.9577465057373048,-0.0128077175468206,-0.0111176474019885,-0.5356034636497498,0.8442992568016052,0.0061296325103794,-0.0020929032105753,-2.82086828788128e-06,0.0107679003849625,0.0098857041448354,0.2149372100830078,-0.0168478321284055,-0.0026112403720617,-0.903668999671936,0.42789226770401,0.0080756256771688,-0.0097162006341295,0.1929457773885717,0.4657832384109497,-0.3556497693061828,-0.3654136657714844,201,307,-6364,8726
13.9,1788173149246,-0.8450704216957092,0.9577465057373048,-0.011175999417901,-0.0086239986121654,-0.534577488899231,0.8450015187263489,0.0010642184136821,-0.0030970962606131,1.25863870456263e-06,0.002029784489423,0.0762128382921218,-0.0291571076959371,-0.0168478321284055,-0.0026112403720617,-0.903668999671936,0.42789226770401,0.0080756256771688,-0.0097162006341295,0.1929457773885717,0.4657832384109497,-0.3556497693061828,-0.3654136657714844,201,307,-6364,8726
14.0,1788173149346,-0.8450704216957092,0.9577465057373048,-0.011175999417901,-0.0086239986121654,-0.534577488899231,0.8450015187263489,0.0010642184136821,-0.0030970962606131,1.25863870456263e-06,0.002029784489423,0.0762128382921218,-0.0291571076959371,-0.0194876585155725,-0.0054310467094182,-0.904780089855194,0.4253983795642853,0.0547499104874156,-0.1698433840344415,-0.0563746547606304,1.2422232627868652,-0.1031931638717651,0.2219457626342773,201,307,-6364,8726
14.1,1788173149446,-0.8450704216957092,0.9577465057373048,-0.0150237148627638,-0.0257316380739212,-0.5414661765098572,0.8401944041252136,0.1267078485167381,-0.0119404388430901,0.0005133939185309,0.0941364541649818,-0.2074488848447799,-0.1714376956224441,-0.0194876585155725,-0.0054310467094182,-0.904780089855194,0.4253983795642853,0.0547499104874156,-0.1698433840344415,-0.0563746547606304,1.2422232627868652,-0.1031931638717651,0.2219457626342773,201,307,-6364,8726
14.2,1788173149546,5.323943614959717,5.154929637908936,-0.0148248523473739,-0.025962121784687,-0.5466905832290649,0.836800754070282,0.1440529038728565,-0.0165624623565139,0.0001234756226689,0.0042393999174237,-0.0037751377094537,-0.2482982873916626,-0.0197806507349014,-0.0066306348890066,-0.9133281111717224,0.4066898822784424,-0.1194203943893679,0.3233886021414631,-0.1604292037734142,0.3050316572189331,-0.293701171875,-0.6659536361694336,55,430,14339,20354
14.3,1788173149646,5.408450603485107,5.6619720458984375,-0.0077607091516256,-0.0050412630662322,-0.5584057569503784,0.8295163512229919,0.1976026843676555,-0.0075301897552388,-0.0009173834606661,0.0011508570751175,0.2180266827344894,-0.15020152926445,-0.0083797862753272,0.0002306634560227,-0.9172258377075196,0.3982795178890228,-0.0062008307771357,-0.0311177645343244,-0.0905013721518561,-0.5291432738304138,0.2953773736953735,0.2063512802124023,30,245,12631,18036
14.4,1788173149746,4.873239517211914,5.070422649383545,-0.0069072344340384,-0.0039724637754261,-0.5607411861419678,0.8279528617858887,0.169688311362645,-0.0039707614059404,-0.0002935732441091,0.0034367961343377,0.0541052781045436,-0.110554814338684,-0.01276046782732,-0.0016495501622557,-0.917409896850586,0.3977356553077698,-0.0026507017834443,-0.1401622107495604,-0.0239425714166327,-0.1251392960548401,-0.2218444347381591,-0.6018247604370117,35,347,13313,18914
14.5,1788173149846,4.873239517211914,5.070422649383545,-0.0099333589896559,-0.0085031678900122,-0.5628856420516968,0.826431393623352,0.1518983418463605,-0.0050730705758658,9.190477055300768e-05,0.0036505453754216,-0.0219139195978641,-0.0641336515545845,-0.013127215206623,-0.001915912143886,-0.9191851615905762,0.3936023414134979,-0.0067182096895668,0.0303227078024513,-0.0873206120764045,0.2862920761108398,-0.3000041842460632,0.603306770324707,35,347,13313,18914
14.6,1788173149946,4.985915660858154,4.985915660858154,-0.0099333589896559,-0.0085031678900122,-0.5628856420516968,0.826431393623352,0.1518983418463605,-0.0050730705758658,9.190477055300768e-05,0.0036505453754216,-0.0219139195978641,-0.0641336515545845,-0.0135514186695218,-0.0020524328574538,-0.9196377396583556,0.3925285041332245,-0.0040593170610704,-0.0319225655348533,-0.0846361602101696,-0.3189224600791931,0.339703619480133,0.2264232635498047,35,347,13313,18914
14.7,1788173150046,5.126760482788086,5.267605781555176,-0.0101035041734576,-0.0085728978738188,-0.5678339004516602,0.8230365514755249,0.1680143179169099,-0.0034724143667741,-4.543918658122226e-05,-0.0028552981093525,0.0142009686678648,-0.0680455863475799,-0.01347441598773,-0.0016785357147455,-0.9212828874588012,0.3886560499668121,-0.0197916741826603,-0.0468120258923802,-0.0609075290804462,-0.2725000977516174,0.1590881943702697,-0.0382671356201171,35,347,13313,18914
14.8,1788173150146,5.126760482788086,5.267605781555176,-0.0105217304080724,-0.0088378395885229,-0.5706380009651184,0.8210867047309875,0.1608774297768608,-0.0086566364239102,2.5524857098266677e-05,-0.0026566172018647,-0.01640210673213,-0.0257124975323677,-0.0137329259887337,-0.0019762506708502,-0.9221078753471376,0.386684238910675,0.0001460298439877,-0.0065784446348663,-0.0527194000746489,-0.1349135041236877,0.077030062675476,-0.2623186111450195,35,347,13313,18914
14.9,1788173150246,5.126760482788086,5.267605781555176,-0.0105613311752676,-0.0088683310896158,-0.5719518065452576,0.8201713562011719,0.1643350890017534,-0.0029933582470958,-2.637241895618388e-05,-0.0003646531840786,0.008289286866784,-0.0191668942570686,-0.0137329259887337,-0.0019762506708502,-0.9221078753471376,0.386684238910675,0.0001460298439877,-0.0065784446348663,-0.0527194000746489,-0.1349135041236877,0.077030062675476,-0.2623186111450195,35,347,13313,18914
15.0,1788173150346,4.619718074798584,5.492957592010498,-0.0105613311752676,-0.0088683310896158,-0.5719518065452576,0.8201713562011719,0.1643350890017534,-0.0029933582470958,-2.637241895618388e-05,-0.0003646531840786,0.008289286866784,-0.0191668942570686,-0.0154062416404485,-0.0025677168741822,-0.9217735528945924,0.387413889169693,-0.0030821479768658,-0.0335052676317258,0.0574427956545913,0.1706377863883972,-0.4085559248924255,-0.4342927932739258,18,402,11005,21187
15.1,1788173150446,4.957746505737305,5.154929637908936,-0.0113730290904641,-0.0098574683070182,-0.5708956122398376,0.8208847045898438,0.1689940964053219,-0.0014948330001457,-1.038612213708667e-07,1.1179456294030389e-07,7.452970862686925e-08,2.384950676059816e-06,-0.0159149970859289,-0.0027136923745274,-0.9217788577079772,0.3873798549175262,0.0009575996595887,-0.0738218489236383,0.0099308352953994,-0.3135265707969665,0.0509526133537292,-0.5023708343505859,18,402,11005,21187
15.2,1788173150546,4.8450703620910645,5.042253494262695,-0.0120551437139511,-0.010878873988986,-0.5708707571029663,0.820879340171814,0.1628140789839247,-0.0035565521041048,7.328718197531771e-05,0.0009130640537478,-0.0480009876191616,0.0004856959858443,-0.0170309897512197,-0.0028974814340472,-0.9219775199890136,0.386857807636261,-0.0073998458861921,-0.0256384983626246,-0.017708320901958,0.0573271512985229,-0.1783558130264282,0.1133794784545898,18,402,11005,21187
15.3,1788173150646,4.8450703620910645,5.042253494262695,-0.0131568750366568,-0.0119843641296029,-0.5708267688751221,0.8208776116371155,0.1653772311103768,0.0014512502340121,-4.339157533355753e-07,-0.0050599882379174,-0.0231379531323909,0.0137829259037971,-0.0170309897512197,-0.0028974814340472,-0.9219775199890136,0.386857807636261,-0.0073998458861921,-0.0256384983626246,-0.017708320901958,0.0573271512985229,-0.1783558130264282,0.1133794784545898,18,402,11005,21187
15.4,1788173150746,3.1549296379089355,4.309859275817871,-0.0138192418962717,-0.012797912582755,-0.5694064497947693,0.8218403458595276,0.1593385846606706,0.0012936456302658,0.0001223849331556,-0.0019921171478927,-0.042261891067028,0.0687334015965461,-0.0177235975861549,-0.0030055977404117,-0.9190180897712708,0.3938051760196686,-0.0014577831772946,0.0296373661867213,0.0977795691305794,-1.063205003738403,0.1835191249847412,0.0278882980346679,8,388,9532,19349
15.5,1788173150846,3.1549296379089355,4.309859275817871,-0.0138192418962717,-0.012797912582755,-0.5694064497947693,0.8218403458595276,0.1593385846606706,0.0012936456302658,0.0001223849331556,-0.0019921171478927,-0.042261891067028,0.0687334015965461,-0.0157835576683282,-0.0020893383771181,-0.9177460074424744,0.3968485891819,-0.0007241118327929,0.1164295000213258,0.1808025489247818,-1.169068694114685,-0.2296833992004394,0.2235002517700195,8,388,9532,19349
15.6,1788173150946,0.0,0.4225352108478546,-0.0113352918997406,-0.0091115199029445,-0.5571949481964111,0.830254316329956,0.0525647690277641,-0.0006488263217293,-3.6913628025400406e-05,0.0059056156314909,0.0401796996593475,0.1857880502939224,-0.0130760762840509,-0.0010432172566652,-0.9141800403594972,0.4050961434841156,-0.0013372137975595,0.0357221317772402,0.0202812427964781,-0.5705289840698242,0.2124093174934387,0.1488904953002929,8,388,9532,19349
15.7,1788173151046,0.0,0.4225352108478546,-0.0113352918997406,-0.0091115199029445,-0.5571949481964111,0.830254316329956,0.0525647690277641,-0.0006488263217293,-3.6913628025400406e-05,0.0059056156314909,0.0401796996593475,0.1857880502939224,-0.0189933981746435,-0.0036647170782089,-0.9116027355194092,0.4106170237064361,0.0020603324196176,-0.2101833960766875,0.1771049364726756,0.6974005699157715,0.2562302350997925,-0.7658767700195312,8,388,9532,19349
15.8,1788173151146,0.0,0.4225352108478546,-0.014011082239449,-0.013543501496315,-0.5482296943664551,0.8361007571220398,0.001043548622478,0.0004828092705168,-1.002576994873631e-07,0.0048322547227144,0.0192130301147699,0.0475915856659412,-0.0197257306426763,-0.0042400602251291,-0.9100876450538636,0.4139244258403778,0.0029302919092222,-0.0409645564253648,0.085441731647049,0.2525195479393005,-0.0843408107757568,-0.3554086685180664,8,388,9532,19349
15.9,1788173151246,-0.8450704216957092,0.98591548204422,-0.014011082239449,-0.013543501496315,-0.5482296943664551,0.8361007571220398,0.001043548622478,0.0004828092705168,-1.002576994873631e-07,0.0048322547227144,0.0192130301147699,0.0475915856659412,-0.0195443723350763,-0.0042643500491976,-0.9083836674690248,0.4176589846611023,0.0036913196257564,-0.0130332579804143,0.1132855958774995,0.0915517807006836,0.0761113762855529,-0.1490354537963867,201,409,-7934,11345
16.0,1788173151346,-0.8732394576072693,0.8732394576072693,-0.014011082239449,-0.013543501496315,-0.5482296943664551,0.8361007571220398,0.001043548622478,0.0004828092705168,-1.002576994873631e-07,0.0048322547227144,0.0192130301147699,0.0475915856659412,-0.0191536620259284,-0.0042730057612061,-0.9050171971321106,0.4249221384525299,0.0025404613695294,0.0136789089755419,0.1544134783828013,-0.0227687358856201,-0.0370475053787231,0.1981115341186523,201,409,-7934,11345
16.1,1788173151446,0.0,0.0,-0.0138149792328476,-0.0138646019622683,-0.53205806016922,0.8464816212654114,0.0046092930879855,0.0024392425049673,1.1572593768764294e-06,0.004901707638055,0.0031063419301062,0.1600107103586197,-0.0176117829978466,-0.0035427100956439,-0.9019683599472046,0.4314284324645996,-0.0049367113652084,0.0942092306926243,-0.0249644871647116,0.1058234572410583,-0.2668541669845581,-0.0694990158081054,206,247,-6757,6442
16.2,1788173151546,-0.7042253613471985,0.8450704216957092,-0.0121836448088288,-0.0112582519650459,-0.5307922959327698,0.8473395705223083,-0.0023470204467816,-0.0012905469407338,4.660467556289663e-06,0.0012982413172721,0.0877212509512901,-0.0224032253026962,-0.0179294440895319,-0.0036763921380043,-0.901235282421112,0.4329434931278229,0.0015476741919763,-0.0766024047451262,0.0922191085747621,-0.1448436975479126,0.0880731344223022,-0.1137447357177734,190,501,0,12779
16.3,1788173151646,2.3380281925201416,3.183098554611206,-0.0140366405248641,-0.0155813377350568,-0.5267369151115417,0.849769651889801,0.0323327578402997,-0.002810766591924,1.2133911157248596e-05,0.021166406571865,-0.0433255434036254,0.0197112709283828,-0.0200435295701026,-0.0054238457232713,-0.9000192284584045,0.4353554546833038,0.0207034398549954,-0.0475917465234,0.0177171666027964,0.5851144790649414,0.0714861750602722,0.1609601974487304,100,564,9899,19087
16.4,1788173151746,4.901408672332764,5.154929637908936,-0.014928507618606,-0.0209516007453203,-0.5286104679107666,0.8484746813774109,0.1139040306410808,-0.0109032516634279,0.0002512590210977,0.050700694322586,-0.1249263137578964,-0.095890037715435,-0.0240237843245267,-0.0098953554406762,-0.9010457992553712,0.4329449534416199,0.0523323420958908,-0.1286663410348726,-0.1288723907516418,0.7465769052505493,-0.0624340176582336,-0.3435440063476562,157,494,16702,22277
16.5,1788173151846,5.239436626434326,5.126760482788086,-0.0149996429681777,-0.021544549614191,-0.5330291986465454,0.8456894755363464,0.1337986928888852,-0.0197741054660568,0.0001004059820007,0.0047544236294925,-0.0213123597204685,-0.2090406417846679,-0.0231730006635189,-0.0085482606664299,-0.9052568078041076,0.4241463840007782,-0.0605413261643045,0.0927046020725114,-0.2042042818706013,0.2227764725685119,-0.007659912109375,-0.2967538833618164,64,468,14075,21536
16.6,1788173151946,5.633802890777588,5.380281925201416,-0.0120932664722204,-0.0124366711825132,-0.5436527729034424,0.8391309976577759,0.1927515587882432,-0.0045567345407486,-0.0003649998822799,0.0028571523725986,0.0653176382184028,-0.1267098188400268,-0.0169719010591506,-0.0040655387565493,-0.9084970951080322,0.4175266623497009,-0.0005109631807181,0.0296440152115845,-0.146855777174744,-0.810504674911499,0.1472763419151306,0.1039505004882812,12,304,11281,18565
16.7,1788173152046,4.985915660858154,5.154929637908936,-0.0127226514741778,-0.0130672845989465,-0.5455116033554077,0.8379047513008118,0.1679105680345041,-0.0008563685091086,1.409397118264322e-05,-0.0089778574183583,-0.0347496978938579,-0.0895272642374038,-0.0187071952968835,-0.0051143104210495,-0.9097690582275392,0.4146615266799927,0.0161042186589406,-0.0348692283683411,-0.0329330088107302,0.0981444716453552,-0.154760479927063,0.1118526458740234,19,322,12261,18856
16.8,1788173152146,5.042253494262695,5.098591327667236,-0.0133401658385992,-0.0148822255432605,-0.5463570952415466,0.8373137712478638,0.1641274802023269,-0.0065719568048527,5.4487923722868976e-05,0.004111154936254,-0.0334670208394527,-0.0205762404948472,-0.0183247625827789,-0.0052032032981514,-0.9105321168899536,0.4129991829395294,0.0062075768951559,0.0546500611395016,-0.057702422721088,0.2605243325233459,-0.2750316262245178,-0.3282537460327148,59,377,13442,19656
16.9,1788173152246,4.760563373565674,5.352112770080566,-0.0127130504697561,-0.0141013301908969,-0.549646258354187,0.8351817727088928,0.1671804545804583,-0.0013195827782783,3.598608927781757e-05,-0.0040426240302622,0.0078084729611873,-0.1007709577679634,-0.018646266311407,-0.0053368397057056,-0.9124709367752076,0.4086816906929016,0.0024508060572037,-0.0234951784257544,-0.0730211924582396,-0.0410608053207397,-0.1256740093231201,-0.3394279479980469,9,444,10647,22062
17.0,1788173152346,4.507042407989502,5.633802890777588,-0.013330171816051,-0.0155000062659382,-0.5500843524932861,0.8348588347434998,0.1598380370078886,-0.0011263046435141,6.962279756866742e-05,0.0074693779461085,-0.0187916364520788,0.0499744154512882,-0.0197070054709911,-0.0060061337426304,-0.9117243885993958,0.4102855026721954,-0.0052456772599174,-0.0165884802577476,0.0492524514297629,-0.1889899373054504,-0.0149871706962585,0.0188817977905273,11,431,11308,21621
17.1,1788173152446,4.788732528686523,5.126760482788086,-0.0131245609372854,-0.0149829098954796,-0.5482891201972961,0.8360515832901001,0.1662851416944887,-0.0039409345466593,-0.0001064179266567,-0.0034230439923703,0.0308073777705431,0.0224940981715917,-0.0186920035630464,-0.0055194133892655,-0.9107312560081482,0.4125395715236664,0.0062981174599994,0.0717163489227671,0.0254636983854097,0.3082025051116943,-0.4023033380508423,0.6435060501098633,71,439,13076,20808
17.2,1788173152546,5.014084339141846,5.239436626434326,-0.0127090066671371,-0.0148325581103563,-0.5479678511619568,0.8362712860107422,0.1663837286828434,-0.0065608771521696,-7.246495670531644e-05,0.0108069125562906,0.0139748649671673,0.0152504611760377,-0.0188503619283437,-0.0057683251798152,-0.9107717275619508,0.4124395549297333,-0.0035599415448573,-0.0086615545603027,-0.0176310561621621,-0.1730284690856933,-0.1383697986602783,0.3301877975463867,43,315,12090,19668
17.3,1788173152646,4.901408672332764,5.239436626434326,-0.0130911311134696,-0.0153119768947362,-0.5483941435813904,0.8359772562980652,0.1676525694500227,-0.0050742220658507,3.749087186579009e-05,-0.0026699472218751,-0.0243106335401535,-0.0206713452935218,-0.0191432815045118,-0.0059603732079267,-0.9111508131027222,0.4115849137306213,0.0107674085406108,0.00717648376919,-0.0188447336225048,-0.1803787946701049,-0.0953977704048156,0.4509773254394531,34,387,12528,20047
17.4,1788173152746,4.929577350616455,5.239436626434326,-0.0129818031564354,-0.0154047245159745,-0.548892617225647,0.8356500864028931,0.16023867443112,-0.0002338606115781,1.3024197388085942e-06,0.0050861686468124,-0.0006268264260143,-0.0233751591295003,-0.0201604217290878,-0.0066370442509651,-0.9113790392875672,0.4110202491283417,0.0002347333229835,-0.0085312155412259,-0.0183572098629485,0.0096229910850524,-0.1661504507064819,0.0628242492675781,43,402,12430,20316
17.5,1788173152846,4.929577350616455,5.352112770080566,-0.0134999062865972,-0.016459247097373,-0.5497270822525024,0.8350729942321777,0.1676249692888365,-0.002673485949128,2.4684511167084883e-05,0.0005190236843191,-0.0047113434411585,-0.0137831177562475,-0.0200630389153957,-0.0064265392720699,-0.912080466747284,0.409469723701477,-0.0092993122053451,0.0251554274818447,-0.0517514795599395,0.0933452844619751,-0.2577068209648132,0.1668252944946289,45,396,12384,19785
17.6,1788173152946,4.901408672332764,5.154929637908936,-0.0132370544597506,-0.0164247546344995,-0.5513428449630737,0.8340120911598206,0.1623664932217318,-0.003531806874208,3.216004718583016e-05,0.0114376517012715,-0.0070281401276588,-0.0225089322775602,-0.0201936084777116,-0.0068660406395792,-0.912758469581604,0.4079424142837524,-0.0046343978865055,0.000847858036658,-0.0422237644057108,0.2983394861221313,-0.2105877995491027,-0.0096206665039062,35,378,13504,19387
17.7,1788173153046,4.957746505737305,5.323943614959717,-0.0134791228920221,-0.0167723484337329,-0.5527669787406921,0.8330581188201904,0.1555176717324644,-0.0039442554163521,3.5749382352044834e-05,-0.0018295102054253,-0.016615780070424,-0.0677921995520591,-0.0200596991926431,-0.0066971043124794,-0.9136114120483398,0.4060380458831787,-0.0041139791029799,0.0251505811703677,-0.0332057082232615,0.0857802629470825,-0.1203517913818359,0.1477155685424804,24,432,12226,20214
17.8,1788173153146,4.535211086273193,5.464788913726807,-0.0132530583068728,-0.0166929960250854,-0.5533614158630371,0.8326685428619385,0.1616715277952334,0.0030495523937411,-9.203356402390052e-07,0.0081463772803545,-0.003812423441559,0.0196212846785783,-0.020127348601818,-0.0070491908118128,-0.9134713411331176,0.4063439965248108,0.0145845991665587,-0.0213081442127544,0.0459367218175662,-0.3648135662078857,0.3146705031394958,0.0040655136108398,22,429,11136,21815
17.9,1788173153246,4.478873252868652,5.633802890777588,-0.0136619126424193,-0.017060063779354,-0.5522506833076477,0.8333916068077087,0.1609341462797948,-0.0001503158596703,5.382896278141336e-05,-0.0044342894107103,-0.0217071697115898,0.0538860335946083,-0.0205431636422872,-0.0071093803271651,-0.9123478531837464,0.4088383316993713,0.0076320109111186,0.0107520894824611,0.0727877995582928,0.1634184122085571,-0.2037394046783447,0.2272920608520507,28,433,11823,21657
18.0,1788173153346,4.873239517211914,5.408450603485107,-0.0130063313990831,-0.0162913259118795,-0.5488530993461609,0.8356587886810303,0.1701619504898622,-0.0023776312069856,-9.010128554557102e-05,-0.0003900691517628,0.0286718625575304,0.0292766615748405,-0.0195642076432704,-0.006747662089765,-0.9110565185546876,0.4117618203163147,0.0002808515280345,0.0296938992196913,0.0215891350048327,-0.0775645971298217,-0.0989466905593872,0.0586805343627929,62,367,13011,19728
18.1,1788173153446,4.929577350616455,5.014084339141846,-0.0130063313990831,-0.0162913259118795,-0.5488530993461609,0.8356587886810303,0.1653916843803064,-0.0048498531029035,7.024510910346465e-07,0.0,0.0,0.0,-0.0202752295881509,-0.0070248330011963,-0.911224365234375,0.4113510847091675,-0.0028507070815286,-0.0257805308342776,-0.0092082854112609,0.0878064036369323,0.0783455371856689,-0.1008110046386718,44,375,12674,20667
18.2,1788173153546,4.788732528686523,5.042253494262695,-0.0130407130345702,-0.0162948705255985,-0.5493206977844238,0.8353508710861206,0.1588647686413093,0.000799149923315,0.0001028847876507,-0.0016396783757954,-0.0008865538984537,-0.0238728839904069,-0.0197504684329032,-0.0067459642887115,-0.911676585674286,0.4103783071041107,-0.0016283014000527,-0.0140925318074654,-0.0352264627754225,-0.3005464076995849,0.1349167227745056,-0.23931884765625,56,399,13251,20814
18.3,1788173153646,5.014084339141846,5.154929637908936,-0.0131274107843637,-0.0161816719919443,-0.5504841804504395,0.8345855474472046,0.1662941135742235,-0.0028588601429966,-4.487569543818021e-06,-0.0048170331865549,0.0018666874384507,-0.0235490873456001,-0.0191196780651807,-0.006516876630485,-0.9122787117958068,0.4090715050697326,0.0022378842336584,-0.0129207533472667,-0.0342436306021505,-0.0148502588272094,0.0107342600822448,-0.9773845672607422,31,367,13668,19449
18.4,1788173153746,5.042253494262695,4.985915660858154,-0.012190924026072,-0.0146626196801662,-0.5519536733627319,0.8336567282676697,0.1641426084005781,-0.0056359308013195,-4.080445130645402e-05,-0.0091338353231549,0.0457951724529266,-0.0616569817066192,-0.0165656451135873,-0.0049622002989053,-0.9136184453964232,0.4062049388885498,-0.0041449517731153,0.0705114450968405,-0.067758890440698,0.0661190152168273,-0.2202036380767822,0.3325490951538086,32,372,13511,19797
18.5,1788173153846,5.042253494262695,4.985915660858154,-0.0113662611693143,-0.0129327960312366,-0.5546385049819946,0.8319132328033447,0.1753630612144837,-0.0074200135721265,-2.2044942161819397e-06,-0.006346212234348,0.0135404970496892,-0.0607440955936908,-0.0155565030872821,-0.0043662497773766,-0.914770483970642,0.4036507904529571,-0.0043861678705253,0.0259528865273112,-0.0597289147088521,-0.0801041722297668,0.2358188033103943,-0.0603799819946289,31,352,13027,19464
18.6,1788173153946,4.929577350616455,5.183098793029785,-0.0107152955606579,-0.0115050803869962,-0.5572272539138794,0.8302111625671387,0.1630788531896323,-0.0028643834423508,-4.804830328936926e-05,-0.0129895806312561,0.0260523799806833,-0.0654623731970787,-0.0139596899971365,-0.0032503623515367,-0.9159797430038452,0.4009685814380646,-0.0083502357079333,0.0602333226394689,-0.0584751901665461,0.12540864944458,-0.2412803769111633,0.4886474609375,36,409,12490,20530
18.7,1788173154046,5.042253494262695,5.183098793029785,-0.0101233944296836,-0.0103951273486018,-0.558706521987915,0.8292384743690491,0.1641512715182561,-0.0040258634021334,-5.191001622624973e-07,0.0,0.0,0.0,-0.0136025222018361,-0.0029946584254503,-0.9165181517601012,0.399750679731369,-0.009586490160134,0.0235659501309305,-0.0445191448774422,0.0273728966712951,0.0361939668655395,-0.2365188598632812,48,367,13106,19315
18.8,1788173154146,4.873239517211914,5.380281925201416,-0.0088195074349641,-0.0080853765830397,-0.5610280632972717,0.8277102708816528,0.170734681898899,-0.0001880341867551,-0.0001729886300241,-0.0019748795311897,0.0511067360639572,-0.0299515947699546,-0.011598028242588,-0.0020275032147765,-0.9172052145004272,0.3982411921024322,0.0007335506991492,-0.0014162552019398,-0.0089625454075369,-0.4564788937568664,0.3346031904220581,0.010995864868164,10,445,10327,21703
18.9,1788173154246,4.760563373565674,5.352112770080566,-0.0089065609499812,-0.0083025060594081,-0.5605210661888123,0.8280506730079651,0.1619609757088059,-0.0008250535376802,5.731893723676917e-07,0.0022386480122804,-0.0090659828856587,0.0239917449653148,-0.0118780340999364,-0.0021922038868069,-0.9160314202308656,0.4009246826171875,0.0007698093361675,0.0115498619677737,0.0696288069435264,0.2895368933677673,-0.3519722819328308,0.0977659225463867,58,354,12887,19977
19.0,1788173154346,4.901408672332764,5.126760482788086,-0.0079644341021776,-0.0065748114138841,-0.55858314037323,0.8293842673301697,0.1710925767780745,-0.007255502617399,-0.0002161300241828,-0.0060570305213332,0.0635895654559135,0.0038921732921153,-0.0103194639086723,-0.0013731960207223,-0.915946125984192,0.4011660814285278,-0.0082776992195537,0.0483062227105309,-0.014350730307863,-0.1192626953125,0.0496565699577331,0.0051631927490234,24,358,12421,20082
19.1,1788173154446,4.788732528686523,5.042253494262695,-0.008494159206748,-0.0069901775568723,-0.5595707893371582,0.828709602355957,0.1570793139725061,-0.0034256747193771,-6.47144062188627e-07,0.0031091091223061,-0.0175534896552562,-0.0140708703547716,-0.0109648369252681,-0.0014242716133594,-0.9163937568664552,0.4001252651214599,0.0054625846635356,-0.0241465864177146,-0.0100107344616277,-0.0476922392845153,0.0078421831130981,-0.2242956161499023,37,398,12896,20557
19.2,1788173154546,5.014084339141846,5.239436626434326,-0.0087346537038683,-0.0073604313656687,-0.560657799243927,0.8279687762260437,0.1698791057190321,0.0009776520607835,3.529625536146315e-08,-0.003358457237482,4.7090281441342086e-05,-0.0279160384088754,-0.0113943079486489,-0.0015127779915928,-0.9169727563858032,0.3987842500209808,-0.0048111023017218,-0.0129109234808837,-0.0084278901075011,-0.0846204161643982,0.052703857421875,-0.2940931320190429,33,367,12253,20366
19.3,1788173154646,5.042253494262695,5.070422649383545,-0.0087125971913337,-0.007243980653584,-0.5607174634933472,0.8279296159744263,0.1649842835717876,-0.0019221591520266,-8.07375136566863e-06,-0.0023899131920188,0.005449706222862,-0.0035234035458415,-0.0124670537188649,-0.0022678943350911,-0.9170837998390198,0.398493081331253,0.0039707096897887,-0.0718241621481739,-0.0139652113644406,0.0258395075798034,-0.0683951377868652,-0.5107583999633789,43,344,13040,19272
19.4,1788173154746,4.873239517211914,5.633802890777588,-0.0105986762791872,-0.0106261288747191,-0.561187744140625,0.8275524973869324,0.1593372297229103,-0.0050082995020349,0.0001428956201992,0.0034861254971474,-0.0682935267686843,-0.0100482935085892,-0.0147729264572262,-0.003357907757163,-0.9171737432479858,0.3981993496417999,-0.002793231240501,-0.1032828072493107,0.0203456730716591,-0.3796093463897705,0.5928242802619934,-0.5405130386352539,10,392,10192,21011
19.5,1788173154846,4.394366264343262,5.380281925201416,-0.0118060205131769,-0.0122328149154782,-0.5587571263313293,0.8291571140289307,0.1600394738743812,0.001560786805573,8.189996191170504e-05,0.0017008711583912,-0.027747256681323,0.0660630166530609,-0.0161955002695322,-0.0038403077051043,-0.9160782098770142,0.4006541669368744,0.0011516393608021,0.0063290074456065,0.0685506614024986,0.2250692248344421,-0.1114752292633056,0.7282867431640625,46,491,12020,22450
19.6,1788173154946,4.394366264343262,5.605633735656738,-0.0120750945061445,-0.012804209254682,-0.5548997521400452,0.8317310214042664,0.176368606395595,-0.0007167304211614,3.1570026974007545e-05,0.0081060491502285,-0.0167377162724733,0.1050416007637977,-0.0170766022056341,-0.004332429729402,-0.914006233215332,0.4053175151348114,0.0066049378212788,-0.0309848039452752,0.1087054073127642,-0.1551958322525024,0.0553627014160156,-0.1232995986938476,12,338,10878,20534
19.7,1788173155046,4.676056385040283,5.408450603485107,-0.0122993625700473,-0.0129355657845735,-0.5530840158462524,0.8329342603683472,0.170487153745841,-0.0008645117863043,-1.4473669052252765e-05,-0.003052259562537,-0.0096648801118135,0.0876751542091369,-0.0166254062205553,-0.0038104457780718,-0.9126989245414734,0.4082765281200409,-0.0113048557251177,0.0599814346141485,0.0356660678208833,0.1364203095436096,-0.1309574842453003,0.1066341400146484,13,364,11248,20925
19.8,1788173155146,4.507042407989502,5.408450603485107,-0.0121846636757254,-0.012386281043291,-0.5512459874153137,0.8341619372367859,0.1710543840213968,-0.0002093847667445,2.0774372199716838e-07,0.0006546339718624,-0.0207630041986703,0.0391981340944767,-0.0172835849225521,-0.0040768217295408,-0.9118709564208984,0.4100927114486694,-0.0038104327498699,-0.0174474148467097,-0.0007480559034954,0.04727703332901,-0.185542345046997,-0.7286472320556641,34,406,11681,21045
19.9,1788173155246,4.929577350616455,5.126760482788086,-0.0122987013310194,-0.0126403011381626,-0.5493994355201721,0.8353737592697144,0.1621865278374467,0.0008363417535651,-8.532433793550492e-05,0.0015494608087465,-0.0043873260729014,0.0480206087231636,-0.0158064365386962,-0.0033842213451862,-0.9114025235176086,0.4111985862255096,-0.0020526246347737,0.0818971523898019,-0.018647122690448,0.228175401687622,-0.3660493493080139,0.5508184432983398,50,386,13771,19034
20.0,1788173155346,5.070422649383545,5.154929637908936,-0.0113586159422993,-0.0115489857271313,-0.550142228603363,0.8349139094352722,0.1673696089464039,-0.0017478890799683,-1.840045446457153e-05,0.0059756436385214,0.0036954437382519,-0.0245734602212905,-0.0157343875616788,-0.003736694343388,-0.9119070768356324,0.4100779294967651,0.006657357386328,0.0045102286872883,-0.0196978614689356,-0.1769516468048095,0.2091416716575622,9.059906005859376e-05,25,329,12979,18498
20.1,1788173155446,4.929577350616455,5.352112770080566,-0.0116424979642033,-0.0118107059970498,-0.5511273145675659,0.8342563509941101,0.1634132628524506,-0.0024292490659053,3.887814079147304e-05,-0.0044230758212506,-0.0146709298714995,-0.0468044131994247,-0.0162034407258033,-0.0038285544142127,-0.912673830986023,0.408349335193634,0.0004264440127865,-0.0338055793371487,-0.0180532568254301,-0.2265461087226867,0.2259436845779419,-0.2170448303222656,30,404,12243,19337
20.2,1788173155546,5.211267471313477,4.760563373565674,-0.0110713858157396,-0.0117250960320234,-0.5537262558937073,0.8325425982475281,0.1641768812332569,-0.0075596991617729,-1.8222438446523363e-05,0.0093380594626069,0.0135491024702787,-0.0672429800033569,-0.0157565139234066,-0.0039532119408249,-0.9141951203346252,0.4049486517906189,-0.0078440007411842,-0.0081082826537637,-0.1395567170528289,-0.0529564023017883,0.2187396883964538,-0.1626949310302734,58,358,13792,18761
20.3,1788173155646,5.211267471313477,4.873239517211914,-0.0117610320448875,-0.0123879211023449,-0.5582677125930786,0.8294849991798401,0.1600650455538762,-0.0108073031785659,7.926542662781227e-05,-0.0061680185608565,-0.0182958152145147,-0.0996294841170311,-0.016457475721836,-0.004025962203741,-0.9160602688789368,0.4006825983524322,-0.0128280717594531,0.0055249935250158,-0.1162899943678314,0.3217700719833374,0.1893850564956665,0.209324836730957,57,320,13597,18425
20.4,1788173155746,5.239436626434326,4.873239517211914,-0.0113732628524303,-0.0121065396815538,-0.5617931485176086,0.8271109461784363,0.161187555537669,-0.0044849684613618,-2.60976375467157e-05,0.0050681987777352,0.0128992721438407,-0.1141578927636146,-0.0165256615728139,-0.0043601440265774,-0.9179705381393432,0.3962802290916443,0.0003307089838619,-0.0359942957562899,-0.1098926849039487,-0.1652017831802368,-0.0922827124595642,-0.2644243240356445,41,318,13632,18376
20.5,1788173155846,5.239436626434326,4.732394218444824,-0.0117457434535026,-0.0127372378483414,-0.5639908313751221,0.8255993127822876,0.1677012600195397,-0.0051452939360476,0.0001090352879751,0.0001012353604892,-0.0300355963408947,-0.1107175722718238,-0.017034763470292,-0.0044576190412044,-0.91996169090271,0.3916124999523163,-0.0174629945151502,-0.005746870488889,-0.1280879762581565,0.0207655429840087,0.283915102481842,-0.3460559844970703,49,338,13609,18877
20.6,1788173155946,3.492957830429077,3.9718310832977295,-0.0118028381839394,-0.0127215720713138,-0.568538248538971,0.8224737644195557,0.1644322182014663,-0.0063785245798856,-3.14036981686479e-05,-0.0034139915369451,0.0114896176382899,-0.1104486063122749,-0.0156836453825235,-0.0043849162757396,-0.92127126455307,0.3885795474052429,0.0134574105293684,0.0564966538388499,-0.0286542865167768,-0.5897976756095886,0.0282835960388183,-0.0472011566162109,92,239,3480,13824
20.7,1788173156046,1.0985915660858154,2.450704336166382,-0.0113385850563645,-0.0124786822125315,-0.5660101175308228,0.824225902557373,0.0725146985326763,0.0010553456301047,2.189737703568004e-05,0.0039120828732848,-0.0513185560703277,0.1623223572969436,-0.0152462255209684,-0.0039869854226708,-0.9204809665679932,0.3904696702957153,0.0036575265648163,-0.0289323252523101,0.1186816971931441,-0.9374951124191284,0.0063833594322204,0.2471485137939453,57,278,0,11453
20.8,1788173156146,-1.2957746982574463,1.3239436149597168,-0.0116116572171449,-0.013333274051547,-0.5587849617004395,0.8291240930557251,0.0296478658446099,0.0013027449782011,-6.458986448375714e-06,0.009216072037816,0.0102486787363886,0.1865013837814331,-0.0170678552240133,-0.0051299454644322,-0.9153125882148744,0.4023495614528656,0.0087724604786236,-0.0139001853193245,0.2074732616587232,-0.8447360992431641,0.2744949460029602,0.0382843017578125,192,303,-8940,10635
20.9,1788173156246,-1.436619758605957,1.211267590522766,-0.0120462626218795,-0.0140170203521847,-0.5534542202949524,0.8326745629310608,0.0058434493213489,0.0041868511730382,2.3720093338557788e-06,0.0054534296505153,-0.0335404761135578,0.2604731917381286,-0.0183661039918661,-0.0057553360238671,-0.910918116569519,0.4121379852294922,0.0105066450921332,-0.0163902178027119,0.2415489235810512,0.1856179237365722,-0.0761099457740783,-0.0060300827026367,198,508,-9791,13167
21.0,1788173156346,-1.4929577112197876,1.6056338548660278,-0.0117624308913946,-0.0147440349683165,-0.5337268710136414,0.8454465866088867,0.0054548697133818,0.0016183100449571,-8.96613046968085e-07,0.019054202362895,0.0073254839517176,0.3483163118362427,-0.0180052481591701,-0.0063214469701051,-0.9018831849098206,0.4315583407878876,0.0162288091551938,-0.0214460362136554,0.393553351590224,-0.0593366026878356,-0.0809138417243957,-0.0647115707397461,265,379,-10329,12311
21.1,1788173156446,-1.4929577112197876,1.5774648189544678,-0.011650183238089,-0.0148918936029076,-0.5167672634124756,0.8559170365333557,0.0067997308122575,-0.0008940634727565,-2.02848867608371e-06,0.0093099363148212,0.0093667181208729,0.3985078632831573,-0.0178114902228117,-0.0063616894185543,-0.8931896686553955,0.4492822885513305,0.0105562001829479,-0.003558451439546,0.4250501894005663,0.0547464489936828,0.012600302696228,-0.2040824890136718,234,389,-9182,12362
21.2,1788173156546,-1.436619758605957,1.4929577112197876,-0.010969272814691,-0.0146104823797941,-0.4998799860477447,0.8659020066261292,0.0042513754990216,-0.0004925623833103,-1.1985368385109564e-06,0.0185998268425464,0.0077178827486932,0.3961171507835388,-0.017157232388854,-0.0065503194928169,-0.8850670456886292,0.4651011228561401,0.015419751945555,-0.0138465857119981,0.3864229730073166,-0.0780410170555114,-0.0489053130149841,0.112558364868164,277,431,-10078,11908
21.3,1788173156646,-1.042253494262695,1.3239436149597168,-0.0110528161749243,-0.0150797702372074,-0.4931988418102264,0.8697156310081482,0.0027250028539021,-0.0010851838723783,2.5078145529686777e-06,0.0151282530277967,-0.0233514606952667,0.3854923546314239,-0.0170008223503828,-0.0068219695240259,-0.8768579959869385,0.4804002642631531,0.0120416097698581,0.0170849241082234,0.3060414480543694,-0.1923380494117736,0.0353060960769653,0.1752376556396484,315,450,-9006,10217
21.4,1788173156746,-1.0704225301742554,1.211267590522766,-0.0108279455453157,-0.015276676043868,-0.4780421853065491,0.8781372308731079,0.0026828224625327,-5.513319469348508e-05,1.001551464878101e-07,0.0112116578966379,-0.0108368713408708,0.3071004152297973,-0.0171742420643568,-0.0072565199807286,-0.8705030679702759,0.4918096661567688,0.0141562085590581,0.0008160615637456,0.2579139526698198,-0.0530582666397094,-0.112726867198944,0.0946712493896484,236,371,-9243,11020
21.5,1788173156846,-1.211267590522766,1.0985915660858154,-0.0104306424036622,-0.0154864927753806,-0.4653347432613373,0.8849378228187561,0.0025835688982071,0.0015382462346502,5.526172148828936e-07,0.0131065230816602,-0.0005777125479653,0.2517297267913818,-0.0172499045729637,-0.0076739061623811,-0.8641980886459351,0.5027973055839539,0.0080321185530376,-0.0123004768567896,0.2544565141019567,0.0036523342132568,-0.0583192706108093,-0.0142154693603515,237,397,-8869,11982
21.6,1788173156946,-1.0985915660858154,1.1267606019973757,-0.0102211106568574,-0.0156511794775724,-0.4499469697475433,0.892859697341919,0.0033331718778162,0.000906641816071,9.707452194677846e-07,0.0079728160053491,-0.0007452426361851,0.2463714480400085,-0.0170230045914649,-0.0077264094725251,-0.8585844039916992,0.5123314261436462,0.0086157013494699,-0.0019997043662523,0.2721864742645619,-0.0394870042800903,-0.0486204624176025,0.0303812026977539,242,486,-9074,12067
21.7,1788173157046,-1.183098554611206,1.2394366264343262,-0.0098246857523918,-0.0156336184591054,-0.4389920830726623,0.8983011841773987,-0.0005253669125485,0.0025830597956001,6.208300203754958e-07,0.0130396261811256,0.0071229203604161,0.2465890198945999,-0.0166329871863126,-0.0079675214365124,-0.8509926199913025,0.5248538255691528,0.0117193566705279,0.0051043794627455,0.2423781915927325,-0.0875794291496276,-0.0627418756484985,0.1825895309448242,337,471,-9302,11600
21.8,1788173157146,-1.2394366264343262,1.2394366264343262,-0.0098956609144806,-0.0160472579300403,-0.4269534945487976,0.9040770530700684,0.0018021276116465,0.0021506513724006,-2.2700001570849857e-07,0.0065895514562726,-0.0048873149789869,0.2536023259162903,-0.0170718990266323,-0.0083333887159824,-0.8430877327919006,0.5374404788017273,0.0057191449995367,-0.0132508232986919,0.2588043505692445,0.0855882763862609,-0.2164400815963745,0.0771684646606445,256,506,-8745,11853
21.9,1788173157246,-0.7042253613471985,0.9014084339141846,-0.0100099388509988,-0.0163435786962509,-0.4224696457386017,0.9061744809150696,0.0040649011653162,0.001484834646625,9.123423587112276e-07,0.0048445607535541,-0.0136842532083392,0.206817090511322,-0.0173589866608381,-0.0085535906255245,-0.8415942192077637,0.5397636890411377,0.0012970240123265,-0.0065613465847934,0.0331656448679664,-0.0108380317687988,0.1506955027580261,0.0049400329589843,150,510,-5027,8324
22.0,1788173157346,0.0,0.0,-0.0085818953812122,-0.0132002243772149,-0.4243505299091339,0.9053611159324646,-0.0086771890480794,0.0040523413170383,2.1576770675062648e-05,-0.0056948037818074,0.1343603283166885,-0.1102967411279678,-0.0136126335710287,-0.0060981791466474,-0.8434993624687195,0.5369230508804321,-0.0032579276018104,0.1103273181047588,-0.0401318192204541,0.1525205969810485,-0.3986409306526184,0.3376617431640625,33,4,2654,2958
22.1,1788173157446,2.619718313217163,3.0422534942626958,-0.0086823906749486,-0.01330207567662,-0.4248873889446258,0.9051068425178528,0.0077654075060029,-0.003664568007737,-1.0568957499565584e-05,-0.0027220186311751,-0.0063766646198928,-0.0283253323286771,-0.0183536447584629,-0.0097384313121438,-0.8440637588500977,0.5358400940895081,0.0363427919672865,-0.2087501245394656,-0.0206722242820012,0.1410830020904541,0.5974028706550598,0.1003751754760742,255,681,11727,19942
22.2,1788173157546,4.760563373565674,5.830986022949219,-0.0106522785499691,-0.023543419316411,-0.4269720315933227,0.9038955569267272,0.0695515788687277,0.004283335415231,0.0002321896509302,0.0760936364531517,-0.2053546756505966,-0.0643687471747398,-0.0232924167066812,-0.0179149825125932,-0.8466898798942566,0.531274676322937,0.0806114181618477,-0.0976554998977332,-0.1717344505225997,1.0797300338745115,0.0181654095649719,-0.5816936492919922,127,525,14458,23590
22.3,1788173157646,4.619718074798584,5.746479034423828,-0.0106568383052945,-0.0204477980732917,-0.4405737221240997,0.8974202275276184,0.1519290753478689,-0.0071711420310295,-0.0003486617611371,-0.096337616443634,0.1875845491886139,-0.1302437484264373,-0.0221756882965564,-0.013886084780097,-0.852243185043335,0.5224911570549011,-0.1225517019204461,0.1184077006518394,-0.1803396577646488,0.0898359417915344,0.0434246063232421,0.1518993377685547,50,488,12746,22914
22.4,1788173157746,5.014084339141846,5.77464771270752,-0.0093696154654026,-0.0154175460338592,-0.4397177100181579,0.8979548215866089,0.1643932857618319,0.000407203412246,-0.0005813180329538,-0.0509770549833774,0.24968321621418,0.050644252449274,-0.0154245598241686,-0.0073860827833414,-0.851764440536499,0.52364581823349,0.0163029429664599,0.0119860736241282,0.038813644108873,-0.8024463653564453,-0.1712599992752075,-0.8332443237304688,37,290,9575,20174
22.5,1788173157846,4.02816915512085,5.85915470123291,-0.0088415276259183,-0.0144392093643546,-0.4344658851623535,0.9005290865898132,0.1620741890904498,0.0069585179961089,5.003790960050735e-05,0.0117134787142276,0.0001317920250585,0.1260601133108139,-0.0153164006769657,-0.0074278907850384,-0.8495070934295654,0.5273025631904602,0.0015742537594828,0.0210842453431704,0.1166596238085243,-0.0514463782310485,-0.0290454626083374,0.2841768264770508,10,415,10521,21719
22.6,1788173157946,4.02816915512085,5.7183098793029785,-0.0086478199809789,-0.0157862566411495,-0.4263323843479156,0.9043874740600586,0.1629404159149634,0.0043511107907258,0.0001143495962905,0.0087828356772661,-0.0273510124534368,0.1691360026597976,-0.0157771818339824,-0.0088846543803811,-0.8436903357505798,0.5365246534347534,0.0266833595704958,-0.0151269387525166,0.2006497278990819,0.0369305610656738,-0.0882829427719116,-0.0237064361572265,16,397,10937,22583
22.7,1788173158046,4.169013977050781,5.915493011474609,-0.0082680834457278,-0.0154010709375143,-0.4185795187950134,0.9080119132995604,0.1647721948661885,0.002014479841711,-4.423560190149734e-05,0.0044458331540226,0.0199184771627187,0.1601989269256591,-0.0151644852012395,-0.0084523195400834,-0.8392655849456787,0.5434444546699524,-0.0063977359129599,0.0243797183453285,0.1755929249884003,-0.132600724697113,-0.0158661603927612,0.2446746826171875,17,390,10789,22055
22.8,1788173158146,4.253520965576172,5.97183084487915,-0.0081536527723073,-0.0150516405701637,-0.4151495695114136,0.9095921516418456,0.1631739652001173,0.0051267721275364,-3.737434522593834e-05,0.0010789091465994,0.0165600311011075,0.1731836795806884,-0.0146997962146997,-0.008215207606554,-0.834872305393219,0.550186038017273,-0.002459064599885,0.0176791698314796,0.1690831583122046,0.0950816869735717,-0.0142620801925659,0.2434797286987304,14,379,10401,21784
22.9,1788173158246,4.3380279541015625,5.85915470123291,-0.0077940393239259,-0.0148945916444063,-0.4074243605136871,0.9130842089653016,0.1641729755406938,0.002341317345115,8.879552869901973e-07,0.0131255779415369,0.0034715516958385,0.1911508738994598,-0.0136154657229781,-0.0076655689626932,-0.8298988938331604,0.5576950311660767,-0.0014270666516664,0.0139844486384332,0.1678121337273078,-0.0384395122528076,0.0097023844718933,-0.320068359375,29,405,10309,22334
23.0,1788173158346,4.2816901206970215,5.97183084487915,-0.007329377811402,-0.0134564209729433,-0.3993244469165802,0.9166815876960754,0.162586360907752,0.0045453169318454,-5.155791384163897e-05,-0.0019044723594561,0.0184144787490367,0.1783064305782318,-0.0126938018947839,-0.0071344636380672,-0.8252813220024109,0.5645339488983154,0.0164119038487528,0.0072323249398513,0.1840525647878879,-0.2690334320068359,0.118255078792572,-0.290811538696289,9,337,10392,21993
23.1,1788173158446,4.14084529876709,6.394366264343262,-0.0066030323505401,-0.0129070878028869,-0.3853990137577057,0.922636091709137,0.1658378257785196,0.001901666414281,-4.573257329237575e-05,0.0018994716228917,0.0001189330650959,0.1756286174058914,-0.0123765859752893,-0.0072916205972433,-0.820047914981842,0.5721147060394287,-0.0014721563562969,-0.001678100880598,0.1749464746484894,-0.2273482084274292,0.1709158420562744,0.0309820175170898,9,400,8152,22880
23.2,1788173158546,4.197183132171631,6.084506988525391,-0.0065978467464447,-0.0131587134674191,-0.374841958284378,0.9269718527793884,0.1588939294678233,0.0076338570002604,-5.491299726825638e-06,0.0032053277827799,-0.0015108350198715,0.2690122723579407,-0.0128193357959389,-0.0078110806643962,-0.8111581206321716,0.5846341848373413,0.0079765356095232,-0.0298226680777311,0.2867047216661757,0.3155518770217895,0.0575191974639892,-0.5001401901245117,27,359,10328,21832
23.3,1788173158646,4.197183132171631,6.14084529876709,-0.006676388438791,-0.0136595470830798,-0.3633209764957428,0.9315400123596193,0.1691251732056321,0.0011776031689295,4.726605418307132e-05,0.005433693062514,-0.0251928698271513,0.2329080253839492,-0.0132391359657049,-0.0081679578870534,-0.8048745393753052,0.5932411551475525,0.0042881131529396,-0.0423419160995805,0.2283823141558474,-0.0865616202354431,-0.1430349349975586,-0.078495979309082,18,348,10788,20592
23.4,1788173158746,4.366197109222412,5.7183098793029785,-0.0071464260108768,-0.0158731434494256,-0.3537688255310058,0.935170829296112,0.1636645514503326,0.0012032716161681,9.283105152500588e-05,0.0124258864670991,-0.0427577532827854,0.1661486625671386,-0.0143049620091915,-0.0093669025227427,-0.8000419735908508,0.5997004508972168,0.0085731684627821,-0.0404474356815834,0.1436121856169278,0.0361754894256591,-0.0653328895568847,0.1839418411254882,30,427,10451,22390
23.5,1788173158846,4.2816901206970215,5.85915470123291,-0.007773925550282,-0.0174369867891073,-0.347711831331253,0.9374070763587952,0.1612936381587892,0.0003452976189947,7.854921575114385e-05,0.0031529564876109,-0.0258458871394395,0.125892624258995,-0.0160800758749246,-0.010789293795824,-0.7952449321746826,0.6059790253639221,0.0114150261980381,-0.0272507376910521,0.1368031862763323,0.043144941329956,-0.247694730758667,0.3556470870971679,27,426,10740,22810
23.6,1788173158946,4.563380241394043,5.7183098793029785,-0.0078548090532422,-0.0196461416780948,-0.3409005403518677,0.9398612380027772,0.1600569909750455,0.0008657826129499,0.0001444726702086,0.0209952425211668,-0.0319327898323535,0.1642507463693618,-0.0171209145337343,-0.012365560978651,-0.7910180687904358,0.6114282011985779,0.0090524900959544,0.0027696126375163,0.1322631926957791,0.2620468139648437,-0.2134654521942138,0.2433815002441406,86,345,12563,21084
23.7,1788173159046,4.253520965576172,5.85915470123291,-0.0079907095059752,-0.0196295920759439,-0.3389806747436523,0.9405546188354492,0.1716075213599328,-0.0012790223719721,4.585788730673372e-06,-0.004328993614763,-0.0015468273777514,0.098073735833168,-0.0174931790679693,-0.0125887282192707,-0.7867321968078613,0.6169180870056152,-0.0016699377127212,-0.0139948208935007,0.1316347776884295,-0.0356727242469787,0.0092397928237915,-0.5271425247192383,19,406,10195,22461
23.8,1788173159146,4.084506988525391,5.97183084487915,-0.0077762990258634,-0.0195002816617488,-0.3316220641136169,0.9431787729263306,0.1574401323412753,0.0057436729954931,-4.1980525331928365e-06,0.0069348961114883,0.0235836282372474,0.1718707382678985,-0.0170777589082717,-0.012521443888545,-0.782952070236206,0.6217214465141296,0.0145998876436863,-0.031040527757009,0.17979367122425,-0.323170006275177,-0.0031428337097167,-0.0618000030517578,54,361,11066,21793
23.9,1788173159246,4.309859275817871,6.084506988525391,-0.007282868027687,-0.0196087565273046,-0.3178178966045379,0.9479209780693054,0.1657654621614919,-0.0005575840454782,-5.526311306681593e-05,0.0121554126963019,0.0143651803955435,0.188403695821762,-0.0165946893393993,-0.0126775810495018,-0.7757012248039246,0.6307547688484192,0.0222392582024422,0.005199035805918,0.2138035151343299,-0.1995436549186706,0.4255746006965637,-0.3470945358276367,16,296,10763,21235
24.0,1788173159346,4.197183132171631,6.11267614364624,-0.0073357033543288,-0.0191306546330451,-0.3090906739234924,0.9508118629455566,0.1660763632327322,0.0014566427891131,2.7555139616658878e-05,0.0018686149269342,-0.0114721218124032,0.1919546276330948,-0.0164443664252758,-0.0122220031917095,-0.7704395651817322,0.637183666229248,0.0008485649953905,-0.0124606879316935,0.2026545405871926,-0.1399140954017639,-0.042417824268341,0.1824674606323242,20,357,10932,21080
24.1,1788173159446,4.535211086273193,5.492957592010498,-0.0074102822691202,-0.0195599067956209,-0.3051000237464905,0.9520905613899232,0.1684557987727809,0.000460192432628,4.752629111822744e-05,0.0070267333649098,-0.0207718517631292,0.1995164155960083,-0.0160699430853128,-0.0121215730905532,-0.7645698189735413,0.6442264914512634,0.0138663971582108,0.0429220403616476,0.1286230767175702,0.1107283234596252,-0.1971089839935302,0.344247817993164,46,348,12270,20658
24.2,1788173159546,4.619718074798584,5.464788913726807,-0.00705400807783,-0.0187245141714811,-0.2990522384643554,0.9540269374847412,0.1695722269531771,-0.0051834762578978,-5.44579782771954e-05,0.0062051112763583,0.0167275946587324,0.1029112786054611,-0.01619772054255,-0.0119525408372282,-0.7623612880706787,0.6468385457992554,-0.008244041770076,-0.0175307974714702,0.0597915447181995,-0.1516103744506836,0.0521765351295471,0.029799461364746,26,402,11541,20565
24.3,1788173159646,4.591549396514893,5.521126747131348,-0.0068690595217049,-0.0182567536830902,-0.2931419014930725,0.9558699727058412,0.1611465672433205,0.0007305230189466,-3.787924242045033e-06,0.0047259386628866,0.0068274387158453,0.1012063771486282,-0.015677310526371,-0.0118281338363885,-0.7597659826278687,0.649899959564209,0.0098422857701084,-0.0016750953399668,0.0942016266592767,-0.046450912952423,0.2542351484298706,-0.0896444320678711,38,386,11597,20983
24.4,1788173159746,4.816901206970215,5.352112770080566,-0.0063731186091899,-0.0165901761502027,-0.2900970578193664,0.9568321704864502,0.1625866662155091,-0.0027880605481456,-0.0001629913488715,-0.0015621656784787,0.0515548586845397,0.0446825735270977,-0.0142705487087368,-0.0105925314128398,-0.7576390504837036,0.652431845664978,-0.0029800128377447,0.0447870673374269,0.0337703572874479,0.1598957180976867,-0.348612368106842,0.1442823410034179,41,314,13326,19085
24.5,1788173159846,4.8450703620910645,5.492957592010498,-0.0061431620270013,-0.0155878691002726,-0.2904598116874695,0.9567404985427856,0.1699637376794434,-0.0057134269259152,-5.790040008837345e-05,-0.0037098124157637,0.049241367727518,-0.0178009513765573,-0.0124560752883553,-0.0095061408355832,-0.7582898139953613,0.6517294049263,0.0172236699033437,0.0309134398826765,-0.0325819527737257,-0.1707838177680969,0.0196969509124755,0.0745992660522461,10,374,10353,20369
24.6,1788173159946,4.704225540161133,5.014084339141846,-0.0053890226408839,-0.0147973885759711,-0.2913553118705749,0.9564852118492126,0.1664376218585278,-0.0028497257910311,-3.172771946017992e-06,0.0035735988058149,0.0005050986073911,-0.0239115953445434,-0.0131688863039016,-0.0100821927189826,-0.7575333714485168,0.6525856852531433,-0.006684071142221,0.0140494258272238,0.0251610720389684,0.1301811337471008,-0.1274481415748596,0.260955810546875,58,439,13240,20920
24.7,1788173160046,4.704225540161133,5.605633735656738,-0.0054829455912113,-0.0146746505051851,-0.2896623313426971,0.957000732421875,0.1701168746080229,-0.0048265530086408,-0.0001282275126158,-0.000724974728655,0.0238710809499025,-0.0074921175837516,-0.0121044320985674,-0.0094761867076158,-0.7572887539863586,0.6528992652893066,0.0183173846803242,0.018638040742235,0.0076498208408293,-0.1645495295524597,0.1496029496192932,-0.0633182525634765,8,341,11173,20768
24.8,1788173160146,4.366197109222412,5.521126747131348,-0.0053354022093117,-0.014991839416325,-0.2878318727016449,0.95754873752594,0.1593243415732986,-0.0013575262532451,0.0001148894583536,-0.0008981458377093,-0.029897728934884,0.0347124822437763,-0.0125118643045425,-0.009841245599091,-0.7558626532554626,0.6545366048812866,0.0115060472538762,0.0065048434666815,0.0443185142020949,-0.073196530342102,0.4209564328193664,0.0158329010009765,48,411,12212,21141
24.9,1788173160246,4.507042407989502,5.492957592010498,-0.0054605775512754,-0.0150751518085598,-0.2872090935707092,0.9577337503433228,0.1613450810282969,-0.0013814462271936,8.706649113419194e-06,-0.0040820967406034,-0.0055514406412839,0.0310617387294769,-0.0126678925007581,-0.0096126189455389,-0.754040539264679,0.6566354036331177,-0.0104798322044713,-0.0125941625654572,0.062112357666778,0.1065548658370971,-0.1354768276214599,0.1363821029663086,34,452,11762,21857
25.0,1788173160346,4.647887229919434,5.577464580535889,-0.0056056529283523,-0.015237090177834,-0.2834798395633697,0.958840787410736,0.1647404596397169,0.0005084748977736,7.276102502608834e-05,-0.0002754914166871,-0.0211946945637464,0.0780349001288414,-0.0133026214316487,-0.010119879618287,-0.7515575289726257,0.6594557166099548,-0.0056481406741452,-0.0216456831990254,0.0743592751588569,-0.0531486868858337,0.0530292391777038,0.1819581985473632,33,390,11450,21442
25.1,1788173160446,4.760563373565674,5.605633735656738,-0.0060913995839655,-0.0157179422676563,-0.2770803868770599,0.9606988430023192,0.1701680419647127,-0.001126412954878,-4.940045610808352e-05,-0.0058076800778508,0.0030681991484016,0.0782379955053329,-0.0135972332209348,-0.0100630782544612,-0.7487789988517761,0.6626038551330566,-0.009912798846272,-0.0171693901669056,0.0717815188195783,-0.3069182634353637,0.1517077088356018,-0.4957542419433594,29,392,11230,21207
25.2,1788173160546,4.619718074798584,5.633802890777588,-0.0063519808463752,-0.0162872187793254,-0.2724403142929077,0.962013840675354,0.1666469555846295,-0.0018216854230571,7.798399198994089e-05,0.0099003612995147,-0.0287081263959407,0.1024610474705696,-0.0145131684839725,-0.0107259768992662,-0.7450014352798462,0.6668187379837036,0.0038328209426878,-0.0535854350469509,0.0825159548536006,-0.1334807872772216,0.2667686343193054,-0.3858928680419922,60,384,12569,21490
25.3,1788173160646,4.394366264343262,5.521126747131348,-0.0064723379909992,-0.0165489055216312,-0.2709390223026275,0.9624325037002563,0.1638952862421118,0.0006235518594934,9.695861469795652e-05,-0.0008285387884825,-0.0136940162628889,0.0743035674095153,-0.0143293226137757,-0.0105437049642205,-0.7427840232849121,0.6692947745323181,-0.0081714768700461,0.0161378469952786,0.0675094669513815,-0.0376970767974853,-0.0003124475479125,0.2508211135864258,48,420,12501,21404
25.4,1788173160746,4.591549396514893,5.521126747131348,-0.0065413932316005,-0.0166869163513183,-0.267630934715271,0.963354766368866,0.1721066235956458,0.0001302646947825,1.619853398201763e-06,-0.002804699121043,-0.0081098088994622,0.0571641139686107,-0.0141768380999565,-0.0104929795488715,-0.740320086479187,0.6720232367515564,0.0118580718010955,0.0027643912657981,0.0881319152976191,-0.0348846316337585,0.0264434814453125,0.2957286834716797,8,398,11600,21329
25.5,1788173160846,4.507042407989502,5.492957592010498,-0.0064581772312521,-0.0167977530509233,-0.2600083649158478,0.9654386043548584,0.1613518062389666,-0.0038449430478114,-7.155921420416785e-06,0.0033713753800839,0.0012877987464889,0.098856583237648,-0.0146316150203347,-0.0108499862253665,-0.736914873123169,0.675740122795105,-0.0025959701745388,-0.0222931896386713,0.0936601093321629,-0.1075778603553772,0.1451486945152282,-0.4077281951904297,48,352,11851,21129
25.6,1788173160946,4.478873252868652,5.464788913726807,-0.0063896551728248,-0.015426056459546,-0.2564204037189483,0.9664211869239808,0.1649062917826747,0.0031989456428828,-5.191088722428639e-05,-0.0088561736047267,0.0275910645723342,0.0794087499380111,-0.01371705904603,-0.0098813101649284,-0.7337426543235779,0.6792171001434326,0.0144126364049299,-0.0082822729257783,0.0893148539873519,-0.4649451375007629,0.3144879341125488,-0.996943473815918,38,412,12051,21621
25.7,1788173161046,4.647887229919434,5.492957592010498,-0.0061881458386778,-0.0149308545514941,-0.252759575843811,0.9673941731452942,0.1696156459220036,-0.0042711511842318,-4.0525601179713286e-05,-0.0025441022589802,0.0032360109034925,0.0729273855686187,-0.0132107697427272,-0.0091312285512685,-0.7311748266220093,0.6820011734962463,-0.0118109758105258,0.0045692991418122,0.0932212961550761,0.1310250759124755,-0.1845728754997253,0.1883668899536132,25,409,11089,21026
25.8,1788173161146,4.535211086273193,5.633802890777588,-0.0062753139063715,-0.0145943397656083,-0.2505444586277008,0.9679747819900512,0.160504341560302,0.0023615089615155,-3.50449464362438e-05,-0.0053143338300287,0.0119515294209122,0.0918185338377952,-0.0127856563776731,-0.0084690228104591,-0.7286220788955688,0.6847443580627441,-0.0052656576153812,0.0213607700357611,0.0692031260566153,-0.0651857256889343,0.1208661794662475,0.0517511367797851,46,369,12051,20841
25.9,1788173161246,4.591549396514893,5.633802890777588,-0.0059596449136734,-0.0139490496367216,-0.2443900853395462,0.9695583581924438,0.1676467565313453,-0.003106084678452,-2.4897198239187617e-05,-0.0026999593246728,-0.0104575743898749,0.068972647190094,-0.0126237692311406,-0.008645492605865,-0.7257107496261597,0.687829852104187,-0.0096524365972697,-0.041258195134798,0.0686459461672083,-0.2037159204483032,0.2409284710884094,-0.2734565734863281,19,360,11504,20600
26.0,1788173161346,4.816901206970215,5.492957592010498,-0.0061691342853009,-0.0138795608654618,-0.2408192753791809,0.9704510569572448,0.1634233687052408,-0.0008861903770896,6.537007266716254e-06,-0.0069919084198772,-0.0008764489903114,0.0672748610377311,-0.0126461256295442,-0.0084128445014357,-0.7233498096466064,0.6903147101402283,-0.0035647772483648,0.0065962911546359,0.0792049968029727,-0.0133682489395141,-0.0160719752311706,0.0081911087036132,78,330,12834,18924
26.1,1788173161446,5.098591327667236,5.042253494262695,-0.0061850789934396,-0.0136197656393051,-0.2401219755411148,0.97062748670578,0.1656378160616662,-0.0018269667839248,-2.2602093442693875e-05,-0.0032078381627798,0.0117510315030813,0.0343817919492721,-0.0118980091065168,-0.0078839156776666,-0.7239624857902527,0.6896917223930359,0.0024225393458337,-0.0028335775458552,-0.0559399508999194,-0.3142482042312622,-0.1327444911003112,0.1638498306274414,47,351,13350,18794
26.2,1788173161546,4.704225540161133,5.408450603485107,-0.006036261562258,-0.0136399269104003,-0.2429952323436737,0.9699128270149232,0.1628030916567108,-0.0032627760222154,5.370089813028586e-05,0.0020948303863406,-0.0200629252940416,-0.0236881803721189,-0.0124055221676826,-0.0082817273214459,-0.7248980402946472,0.6886947751045227,0.0083027331798108,-0.0343622815549235,-0.0076207904357686,0.0399381518363952,0.374977171421051,0.0691604614257812,15,390,10952,21263
26.3,1788173161646,4.8450703620910645,5.408450603485107,-0.0064549092203378,-0.0143034225329756,-0.2425600290298462,0.9700095057487488,0.1591387782753441,-0.0020895432632204,0.0001236099359476,-0.0084051452577114,-0.0242515932768583,0.0121160922572016,-0.0130938487127423,-0.0085651390254497,-0.7245305776596069,0.6890650987625122,-0.0092325989878,-0.0194123979801886,0.0139903677994551,0.0194635391235351,-0.3215951919555664,0.0019645690917968,49,361,12890,19519
26.4,1788173161746,4.760563373565674,5.408450603485107,-0.0064330301247537,-0.0147062875330448,-0.2419294118881225,0.9701611399650574,0.1664699834251077,-0.0042014676100593,8.150132896252909e-07,-0.002519714878872,-0.0185863617807626,-0.0017247023060917,-0.0132522396743297,-0.0089848414063453,-0.7241339683532715,0.6894735097885132,0.0015470699755422,0.005244865615608,-0.0083876334821952,0.1795669198036193,-0.3350292444229126,0.1950712203979492,37,373,13231,18956
26.5,1788173161846,4.985915660858154,5.295774459838867,-0.0063369190320372,-0.0148650603368878,-0.2420002669095993,0.970141589641571,0.1726125671296681,-0.0083199216260447,1.3317931581049933e-05,0.0062654488719999,-0.0062715867534279,-0.0036439991090446,-0.0138985468074679,-0.0094343563541769,-0.7248528003692627,0.6886990070343018,0.0055752888577761,-0.0325415767514704,-0.0057767727880403,-0.0038411617279052,-0.2766450643539428,0.0298347473144531,26,327,12157,19131
26.6,1788173161946,4.873239517211914,5.295774459838867,-0.0066941976547241,-0.0162949599325656,-0.2432453781366348,0.9698047637939452,0.1636329820940683,-0.0035393961286459,0.0001026212190247,0.0001433836441719,-0.0126267690211534,-0.0136320320889353,-0.0145416585728526,-0.0104810968041419,-0.725165843963623,0.6883410215377808,0.0066700164950402,-0.0191777516794923,-0.0216080115946259,0.0434145927429199,-0.1640670299530029,-0.4912643432617187,70,391,12739,19478
26.7,1788173162046,4.985915660858154,5.323943614959717,-0.0068847220391035,-0.0168299954384565,-0.2438607066869735,0.969639778137207,0.1638585404471938,-0.0060372167219061,-7.238028091110995e-05,-0.0013270803028717,0.0133978426456451,-0.0141014577820897,-0.0151463085785508,-0.0107562774792313,-0.7257959246635437,0.6876592636108398,-0.0036057208436488,-0.0260978497200867,-0.0310576305750834,-0.2109678387641906,0.0542261600494384,0.6406002044677734,37,367,12598,19689
26.8,1788173162146,5.070422649383545,5.323943614959717,-0.006803429685533,-0.0172398425638675,-0.2448672950267791,0.9693795442581176,0.1695133939212437,-0.0008750170532236,-2.892623716701884e-07,0.0026210970245301,0.0131830889731645,-0.0099524473771452,-0.0148514462634921,-0.0107636647298932,-0.7262385487556458,0.6871980428695679,0.0040898978135385,0.0156182870839842,-0.0064094478200791,-0.0279144048690795,-0.0225936770439147,0.3714914321899414,30,360,12028,19384
26.9,1788173162246,4.366197109222412,5.633802890777588,-0.0067293653264641,-0.0168693736195564,-0.2449786365032196,0.9693583250045776,0.1737068117461775,-0.0020254331324444,-3.922616859760151e-05,-0.0010001376504078,0.0180000197142362,-0.0053317002020776,-0.0154559565708041,-0.0109960511326789,-0.7256301045417786,0.6878235936164856,-0.0045710846961386,-0.0308183880799379,0.0628940351906208,-0.2367869615554809,-0.135686457157135,-0.1269359588623047,23,381,11554,20591
27.0,1788173162346,4.788732528686523,5.323943614959717,-0.0069335596635937,-0.0179039221256971,-0.240691602230072,0.970411777496338,0.1637120188986559,0.0016954020378955,-3.8655021985584217e-07,0.0071952557191252,0.0045815794728696,0.0785246789455413,-0.0154540371149778,-0.0113909477367997,-0.7232555150985718,0.6903136372566223,0.0058257849722955,0.0122675667124847,0.0680269191197034,0.1508461833000183,-0.0921071171760559,0.0062732696533203,48,338,13034,19643
27.1,1788173162446,4.957746505737305,5.126760482788086,-0.0066227000206708,-0.0171166975051164,-0.2398770749568939,0.9706298112869264,0.1623723639362133,-0.0059357953222524,-0.0001010067478584,0.0050359214656054,0.0328590013086795,0.0330866649746894,-0.0146247008815407,-0.0105380676686763,-0.7228895425796509,0.6907285451889038,-0.0123640477492452,-0.0184431430203242,-0.0186233186155739,-0.0916415452957153,0.2987245917320251,0.0022954940795898,48,366,12520,19859
27.2,1788173162546,4.3380279541015625,5.549295902252197,-0.0066091706976294,-0.0177088845521211,-0.2400496006011963,0.9705766439437866,0.1603051970111439,0.0013626501876648,8.57802916059992e-05,0.0099085392430424,-0.0513597875833511,0.0196695104241371,-0.0151292560622096,-0.0114898215979337,-0.7226489186286926,0.6909542083740234,0.0129529999296481,-0.0357201263478792,0.0526416119943802,-0.180554449558258,0.0759670734405517,-0.2604408264160156,26,434,11983,21019
