time_s,timestamp_ms,wheel_vels__velocity_left,wheel_vels__velocity_right,odom__orient_x,odom__orient_y,odom__orient_z,odom__orient_w,odom__lin_x,odom__lin_y,odom__lin_z,odom__ang_x,odom__ang_y,odom__ang_z,imu__orient_x,imu__orient_y,imu__orient_z,imu__orient_w,imu__angvel_x,imu__angvel_y,imu__angvel_z,imu__acc_x,imu__acc_y,imu__acc_z,wheel_status__current_ma_left,wheel_status__current_ma_right,wheel_status__pwm_left,wheel_status__pwm_right
0.0,1788430966316,0.0,0.0,-0.0015665031969547,-0.0020272640977054,0.0029799623880535,0.9999922513961792,0.0,0.0,0.0,5.614529674513591e-11,4.023746225101377e-09,2.8746391933509585e-08,-0.0001302892342209,-0.0025890478864312,0.4561154544353485,0.8899168372154236,0.0010611539042689,0.0009869372845944,0.0003107460211248,-0.01584392786026,-0.0005522966384887,-0.0146961212158203,0,0,0,0
0.1,1788430966416,0.0,0.0,-0.0015665031969547,-0.0020272640977054,0.0029799637850373,0.9999922513961792,0.0,0.0,0.0,5.5862283548924196e-11,4.09656752964338e-09,2.8601489177049192e-08,-0.0001637665554881,-0.0025919834151864,0.4560931921005249,0.8899282813072205,-0.0006151119552357,0.0020248146792409,-0.0030237541815834,0.0111939311027526,-0.0038779377937316,0.0027074813842773,0,0,0,0
0.2,1788430966516,0.0,0.0,-0.0015665031969547,-0.0020272640977054,0.0029799654148519,0.9999922513961792,0.0,0.0,0.0,5.795787808016151e-11,4.366160322177848e-09,2.967443357704269e-08,-0.0001635253429412,-0.0025836182758212,0.456135094165802,0.8899068832397461,0.0002211723326153,-0.0008546869700077,3.172161441832481e-05,0.0290013551712036,-0.0112687945365905,-0.0404891967773437,0,0,0,0
0.3,1788430966616,0.0,0.0,-0.0015665031969547,-0.0020272640977054,0.0029799668118357,0.9999922513961792,0.0,0.0,0.0,5.599127411715088e-11,4.311328183348451e-09,2.8667532347981254e-08,-0.0001843282952904,-0.0025465907528996,0.4561127424240112,0.889918327331543,0.0016754344877045,0.0013946828372776,0.0009289233763077,0.0419798493385314,0.0695083141326904,-0.0636491775512695,0,0,0,0
0.4,1788430966716,0.0,0.0,-0.0015665031969547,-0.0020272640977054,0.0029799682088196,0.9999922513961792,0.0,0.0,0.0,5.5214582905804826e-11,4.3251424663992574e-09,2.8269866447772077e-08,-0.0001416178420186,-0.0025945138186216,0.4560978710651397,0.8899257779121399,0.0003522042620196,-0.0005841944029817,0.0018157607339533,-0.0043640732765197,-0.0196185708045959,-0.04742431640625,0,0,0,0
0.5,1788430966816,0.0,0.0,-0.0015665031969547,-0.0020272640977054,0.0029799696058034,0.9999922513961792,0.0,0.0,0.0,5.575139655489281e-11,4.460111835413727e-09,2.854471503610512e-08,-0.0001204721629619,-0.0026550954207777,0.4560801088809967,0.8899348378181458,0.0006387191561198,-0.0015180072270868,-0.0038298349183862,-0.0021495819091796,0.0011379718780517,0.0050029754638671,0,0,0,0
0.6,1788430966916,0.0,0.0,-0.0015665031969547,-0.0020272640977054,0.0029799712356179,0.9999922513961792,0.0,0.0,0.0,5.982168232998575e-11,4.905377881669892e-09,3.06287013529527e-08,-9.835418313741684e-05,-0.0026453882455825,0.4561196565628052,0.8899145722389221,-0.0002155926941123,-0.0019826443936448,0.0003612991368397,0.0091857314109802,-0.015598714351654,-0.0125789642333984,0,0,0,0
0.7,1788430967016,0.0,0.0,-0.0015665031969547,-0.0020272640977054,0.0029799726326018,0.9999922513961792,0.0,0.0,0.0,5.60136936833544e-11,4.686479204707439e-09,2.867901116587745e-08,-0.0001176539808511,-0.0026026498526334,0.4561074078083038,0.8899209499359131,0.000376968974601,0.0001046209167159,0.0005622580672561,0.0019127130508422,0.012171983718872,-0.010054588317871,0,0,0,0
0.8,1788430967116,0.0,0.0,-0.0015665031969547,-0.0020272640977054,0.0029799740295857,0.9999922513961792,0.0,0.0,0.0,5.7101330608322336e-11,-4.891680394081277e-09,2.9235881271461043e-08,-0.0001206258311867,-0.0026103593409061,0.4560970067977905,0.8899261951446533,0.0002118555538349,-8.091539234345024e-05,-2.5678355537552147e-10,0.0249963402748107,-0.0067589879035949,-0.0031414031982421,0,0,0,0
0.9,1788430967216,0.0,0.0,-0.0015665031969547,-0.0020272643305361,0.0029799754265695,0.9999922513961792,0.0,0.0,0.0,5.6913473933661856e-11,-4.7807318104275964e-09,2.9139698654034877e-08,-0.0001123119145631,-0.0026119705289602,0.4560970067977905,0.8899261951446533,6.852767152821173e-05,-7.695906891263781e-05,-7.928010857508779e-11,-0.0037624835968017,-0.0057962536811828,8.392333984375e-05,0,0,0,0
1.0,1788430967316,0.0,0.0,-0.0015665030805394,-0.0020272643305361,0.002979977056384,0.9999922513961792,0.0,0.0,0.0,4.8955826059682295e-09,-4.668760045234421e-09,2.9033261128574853e-08,-0.000109945423901,-0.0026129223406314,0.4560970067977905,0.8899261951446533,3.7383070287846965e-05,-3.4687559670252324e-05,-1.985161171650959e-11,0.0252150893211364,0.0050265789031982,-0.0053768157958984,0,0,0,0
1.1,1788430967416,0.0,0.0,-0.0015665030805394,-0.0020272643305361,0.0029799784533679,0.9999922513961792,0.0,0.0,0.0,5.594250757079422e-11,-4.512695550573653e-09,2.8642563876246644e-08,-0.0001074960455298,-0.0026149628683924,0.4560970067977905,0.8899261951446533,2.3717267182840173e-05,-7.2766847603623e-05,-1.8522608738812635e-06,-0.0057357549667358,0.0284088850021362,-0.0050630569458007,0,0,0,0
1.2,1788430967516,0.0,0.0,-0.0015665030805394,-0.0020272643305361,0.0029799798503518,0.9999922513961792,0.0,0.0,0.0,5.83028347822534e-11,-4.6059240865758966e-09,2.985105140851374e-08,-9.824801236391068e-05,-0.0026161512359976,0.4560970067977905,0.8899261951446533,0.0001792263174369,-7.519683489953279e-05,-2.0161484797207895e-10,0.0247862339019775,0.0180364251136779,0.0144615173339843,0,0,0,0
1.3,1788430967616,0.0,0.0,-0.0015665030805394,-0.0020272643305361,0.0029799812473356,0.9999922513961792,0.0,0.0,0.0,7.588191186513882e-11,-4.401150999200354e-09,2.9138654156213306e-08,-8.555594831705093e-05,-0.0026143100112676,0.4560970067977905,0.8899261951446533,0.00028701296652,-0.0001091608490423,-4.848100072452986e-10,-0.0097796916961669,-0.0367971658706665,0.0030136108398437,0,0,0,0
1.4,1788430967716,0.0,0.0,-0.0015665030805394,-0.0020272643305361,0.0029799826443195,0.9999922513961792,0.0,0.0,0.0,5.351559820288009e-11,-6.074020397761615e-09,2.739998627987461e-08,-7.283873856067657e-05,-0.0026122080162167,0.4560970067977905,0.8899261951446533,0.0002903157396536,-5.471366085987484e-05,-1.9892874220137385e-06,0.0156912207603454,-0.0010831356048583,-0.0114097595214843,0,0,0,0
1.5,1788430967816,0.0,0.0,-0.0015665031969547,-0.0020272643305361,0.002979984274134,0.9999922513961792,0.0,0.0,0.0,5.6358522015909074e-11,-4.151744281699621e-09,2.885556327214545e-08,-6.045214831829071e-05,-0.0026103695854544,0.4560970067977905,0.8899261951446533,0.0002233288348873,-8.697099984781876e-05,-1.9818594405371856e-06,0.020875871181488,0.047648549079895,0.0084409713745117,0,0,0,0
1.6,1788430967916,0.0,0.0,-0.0015665031969547,-0.0020272643305361,0.0029799856711179,0.9999922513961792,0.0,0.0,0.0,5.834006888694175e-11,-4.200485292926714e-09,2.9870115270114184e-08,-5.011074244976044e-05,-0.0026086317375302,0.4560970067977905,0.8899261951446533,0.0001102186901791,-1.440085386304894e-05,-2.159353474200008e-06,-0.0073364973068237,0.0412944555282592,0.00457763671875,0,0,0,0
1.7,1788430968016,0.0,0.0,-0.0015665031969547,-0.0020272643305361,0.0029799856711179,0.9999922513961792,0.0,0.0,0.0,5.834006888694175e-11,-4.200485292926714e-09,2.9870115270114184e-08,-5.011074244976044e-05,-0.0026086317375302,0.4560970067977905,0.8899261951446533,0.0001102186901791,-1.440085386304894e-05,-2.159353474200008e-06,-0.0073364973068237,0.0412944555282592,0.00457763671875,0,0,0,0
1.8,1788430968116,0.0,0.0,-0.0015665031969547,-0.0020272643305361,0.0029799856711179,0.9999922513961792,0.0,0.0,0.0,5.834006888694175e-11,-4.200485292926714e-09,2.9870115270114184e-08,-5.011074244976044e-05,-0.0026086317375302,0.4560970067977905,0.8899261951446533,0.0001102186901791,-1.440085386304894e-05,-2.159353474200008e-06,-0.0073364973068237,0.0412944555282592,0.00457763671875,0,0,0,0
1.9,1788430968216,0.0,0.0,-0.0015665031969547,-0.0020272643305361,0.0029799856711179,0.9999922513961792,0.0,0.0,0.0,5.834006888694175e-11,-4.200485292926714e-09,2.9870115270114184e-08,-5.011074244976044e-05,-0.0026086317375302,0.4560970067977905,0.8899261951446533,0.0001102186901791,-1.440085386304894e-05,-2.159353474200008e-06,-0.0073364973068237,0.0412944555282592,0.00457763671875,0,0,0,0
2.0,1788430968316,0.0,0.0,-0.0015665031969547,-0.0020272643305361,0.0029799914918839,0.9999922513961792,0.0,0.0,0.0,5.592010882127241e-11,-3.6534471004046046e-09,2.8631095716491476e-08,-3.269035369157791e-05,-0.0026004277169704,0.4560970067977905,0.8899261951446533,0.0001176967483843,2.8859117540422957e-05,4.9705936700040576e-11,-0.0285130143165588,-0.0149795413017272,0.0285539627075195,0,0,0,0
2.1,1788430968416,0.0,0.0,-0.0015665031969547,-0.0020272643305361,0.0029799928888678,0.9999922513961792,0.0,0.0,0.0,5.586933693457752e-11,-3.575637563812961e-09,2.8605100510503693e-08,-3.023538738489151e-05,-0.0025952281430363,0.4560970067977905,0.8899261951446533,0.0001274178585309,7.582658941255276e-05,1.5447032402958315e-10,0.0489015579223632,-0.0315303206443786,0.0072174072265625,0,0,0,0
2.2,1788430968516,0.0,0.0,-0.001357109635137,-0.0021822091657668,0.0029246527701616,0.9999923706054688,-0.0001494666520481,0.0001739707736726,1.1517812074899309e-06,0.0065908865071833,-0.0049073994159698,-0.00176776596345,-2.3499131202697757e-05,-0.0025902213528752,0.4560970664024353,0.8899263143539429,0.0001863577695581,-1.480110320298536e-05,-4.152437427921084e-11,-0.0325602889060974,0.0199863314628601,-0.0412454605102539,0,0,0,0
2.3,1788430968616,0.0,0.0,-0.001357109635137,-0.0021822091657668,0.0029246527701616,0.9999923706054688,0.0,0.0,0.0,0.0,4.281934806726895e-10,0.0,-1.3185665011405945e-05,-0.0025862455368041,0.4560970664024353,0.8899263143539429,0.000206809313433,-1.6949640382653745e-05,-5.5002891217066125e-11,0.0250260829925537,0.001887559890747,-0.0040721893310546,0,0,0,0
2.4,1788430968716,0.0,0.0,-0.001357109635137,-0.0021822091657668,0.0029246527701616,0.9999923706054688,0.0,0.0,0.0,0.0,4.289558985792752e-10,0.0,-7.263384759426117e-06,-0.0025855582207441,0.4560970664024353,0.8899263143539429,8.116471430534438e-05,-6.270578443612037e-05,-7.850327550159807e-11,-0.0472280383110046,-0.0115485191345214,-0.0258646011352539,0,0,0,0
2.5,1788430968816,0.0,0.0,-0.001357109635137,-0.0021822091657668,0.0029246527701616,0.9999923706054688,0.0,0.0,0.0,0.0,4.282389165499722e-10,0.0,-9.45013016462326e-06,-0.0025854045525193,0.4560970664024353,0.8899263143539429,-0.0001364065510283,6.084029523147381e-05,-1.2458543669058356e-10,0.0166646242141723,0.0030034184455871,0.0354290008544921,0,0,0,0
2.6,1788430968916,0.0,0.0,-0.001357109635137,-0.0021822091657668,0.0029246527701616,0.9999923706054688,0.0,0.0,0.0,0.0,4.445025736377062e-10,0.0,-1.565832644701004e-05,-0.0025864820927381,0.4560970664024353,0.8899263143539429,-7.650721879751462e-05,1.32704002847151e-05,-1.4169620327000684e-11,0.0412876009941101,0.1007983088493347,-0.014418601989746,0,0,0,0
2.7,1788430969016,0.0,0.0,-0.001357109635137,-0.0021822091657668,0.0029246527701616,0.9999923706054688,0.0,0.0,0.0,0.0,3.3062150239793203e-10,0.0,-9.578652679920197e-06,-0.0025871070101857,0.4560970664024353,0.8899263143539429,0.000168284202866,-0.0001125068642657,-2.844651053083902e-10,0.0060330629348754,0.0808905363082885,-0.0378026962280273,0,0,0,0
2.8,1788430969116,0.0,0.0,-0.001357109635137,-0.0021822091657668,0.0029246527701616,0.9999923706054688,0.0,0.0,0.0,0.0,3.3062150239793203e-10,0.0,-9.578652679920197e-06,-0.0025871070101857,0.4560970664024353,0.8899263143539429,0.000168284202866,-0.0001125068642657,-2.844651053083902e-10,0.0060330629348754,0.0808905363082885,-0.0378026962280273,0,0,0,0
2.9,1788430969216,0.0,0.0,-0.001357109635137,-0.0021822091657668,0.0029246527701616,0.9999923706054688,0.0,0.0,0.0,0.0,3.3062150239793203e-10,0.0,-9.578652679920197e-06,-0.0025871070101857,0.4560970664024353,0.8899263143539429,0.000168284202866,-0.0001125068642657,-2.844651053083902e-10,0.0060330629348754,0.0808905363082885,-0.0378026962280273,0,0,0,0
3.0,1788430969316,0.0,0.0,-0.001357109635137,-0.0021822091657668,0.0029246527701616,0.9999923706054688,0.0,0.0,0.0,0.0,3.3062150239793203e-10,0.0,-9.578652679920197e-06,-0.0025871070101857,0.4560970664024353,0.8899263143539429,0.000168284202866,-0.0001125068642657,-2.844651053083902e-10,0.0060330629348754,0.0808905363082885,-0.0378026962280273,0,0,0,0
3.1,1788430969416,0.0,0.0,-0.001357109635137,-0.0021822091657668,0.0029246527701616,0.9999923706054688,0.0,0.0,0.0,0.0,4.4195949677749974e-10,0.0,2.5784596800804135e-05,-0.002629174850881,0.4560970067977905,0.8899261951446533,-2.6533798804661467e-05,-0.0003431641036732,1.2168635974518535e-10,0.0002356171607971,0.042957067489624,0.0037050247192382,0,0,0,0
3.2,1788430969516,0.0,0.0,-0.001357109635137,-0.0021822091657668,0.0029246527701616,0.9999923706054688,0.0,0.0,0.0,0.0,4.284056165371197e-10,0.0,3.00360843539238e-05,-0.0026417328044772,0.4560970067977905,0.8899261951446533,-6.493750957786186e-05,-0.0003028673264764,2.8446467011426077e-10,-0.0178490877151489,-0.0282561182975769,-0.02197265625,0,0,0,0
3.3,1788430969616,0.0,0.0,-0.001357109635137,-0.0021822091657668,0.0029246527701616,0.9999923706054688,0.0,0.0,0.0,0.0,4.2744896511237584e-10,0.0,3.09506431221962e-05,-0.0026561543345451,0.4560970067977905,0.8899261951446533,-0.0001596317360184,-0.0002872746222577,7.121385802314689e-10,-0.0380598306655883,-0.0990259051322937,0.0259723663330078,0,0,0,0
3.4,1788430969716,0.0,0.0,-0.001357109635137,-0.0021822091657668,0.0029246527701616,0.9999923706054688,0.0,0.0,0.0,0.0,4.3514977732250765e-10,0.0,3.228150308132172e-05,-0.0026730084791779,0.4560969471931457,0.8899260759353638,-7.965825476956166e-05,-0.0003118125232832,3.729799885967504e-10,0.1049133539199829,0.2338762879371643,0.011941909790039,0,0,0,0
3.5,1788430969816,0.0,0.0,-0.001357109635137,-0.0021822091657668,0.0029246527701616,0.9999923706054688,0.0,0.0,0.0,0.0,4.405667219931075e-10,0.0,4.221033304929733e-05,-0.002689030021429,0.4560969471931457,0.8899260759353638,6.654856665506962e-05,-0.0002871293809555,-2.608919537422105e-10,-0.0617957711219787,-0.1245198249816894,0.0139942169189453,0,0,0,0
3.6,1788430969916,0.0,0.0,-0.001357109635137,-0.0021822091657668,0.0029246527701616,0.9999923706054688,0.0,0.0,0.0,0.0,4.2835024416376655e-10,0.0,4.67691570520401e-05,-0.0026965457946062,0.4560969471931457,0.8899260759353638,3.386256343705604e-05,-0.0001557246665208,-7.907752177658217e-11,-0.0107993483543396,-0.0201916098594665,-0.0036373138427734,0,0,0,0
3.7,1788430970016,0.0,0.0,-0.001357109635137,-0.0021822091657668,0.0029246527701616,0.9999923706054688,0.0,0.0,0.0,0.0,4.1924849703001133e-10,0.0,5.16790896654129e-05,-0.0027007544413208,0.4560969471931457,0.8899260759353638,4.508476189526832e-05,-0.0001267442035661,-8.667064348894341e-11,-0.0160958766937255,-0.011295735836029,-0.0084486007690429,0,0,0,0
3.8,1788430970116,0.0,0.0,-0.001357109635137,-0.0021822091657668,0.0029246527701616,0.9999923706054688,0.0,0.0,0.0,0.0,6.768474114515755e-10,0.0,5.482882261276245e-05,-0.0027031069621443,0.4560969471931457,0.8899260759353638,-5.199245785470494e-06,-4.029927379411173e-05,3.1338896941402064e-12,0.1657653450965881,0.2833107113838196,0.0540666580200195,0,0,0,0
3.9,1788430970216,0.0,0.0,-0.001357109635137,-0.0021822091657668,0.0029246527701616,0.9999923706054688,0.0,0.0,0.0,0.0,4.535003206296295e-10,0.0,6.057228893041611e-05,-0.0027013663202524,0.4560969471931457,0.8899260759353638,0.0001375278564271,3.9441631513634935e-05,8.153319566557659e-11,-0.0310311913490295,-0.0823732614517211,0.0049657821655273,0,0,0,0
4.0,1788430970316,0.0,0.0,-0.001357109635137,-0.0021822091657668,0.0029246527701616,0.9999923706054688,0.0,0.0,0.0,0.0,4.2865158644822543e-10,0.0,6.307195872068405e-05,-0.0026953034102916,0.4560969471931457,0.8899260759353638,0.0001668119222573,9.22708191278292e-05,2.3342861818427636e-10,-0.035964012145996,0.0103386640548706,-0.011387825012207,0,0,0,0
4.1,1788430970416,0.0,0.0,-0.001357109635137,-0.0021822091657668,0.0029246527701616,0.9999923706054688,0.0,0.0,0.0,0.0,4.46884085292254e-10,0.0,8.167047053575516e-05,-0.0026814648881554,0.4560969471931457,0.8899260759353638,0.0004458073145433,-1.975952127300968e-05,-1.3215056571503895e-10,-0.0673515796661377,-0.0690686106681823,0.0398483276367187,0,0,0,0
4.2,1788430970516,0.0,0.0,-0.001357109635137,-0.0021822091657668,0.0029246527701616,0.9999923706054688,0.0,0.0,0.0,0.0,4.3643993974384903e-10,0.0,0.0001139808446168,-0.002658661454916,0.4558397829532623,0.8900579214096069,0.0022026967213515,0.0009798547337695,-0.0138498778847886,-0.0375347733497619,-0.03285813331604,0.013218879699707,0,0,0,0
4.3,1788430970616,0.0,0.0,-0.0012144047068431,-0.0023247876670211,0.0027741079684346,0.9999926686286926,-0.0005550511804299,0.0006318306679253,-8.475943051265343e-07,0.0059406263753771,-0.0059754094108939,-0.0063210511580109,0.0001155138015747,-0.0026530809700489,0.455884039402008,0.8900351524353027,-0.0002915822449869,0.0002397210964858,0.0011015519642364,0.0541985630989074,0.1608244180679321,-0.007277488708496,0,0,0,0
4.4,1788430970716,0.0,0.0,-0.0012144047068431,-0.0023247876670211,0.0027741079684346,0.9999926686286926,0.0,0.0,0.0,0.0,2.5473547715648684e-09,0.0,0.0001684762537479,-0.0026449309661984,0.4558951258659363,0.8900296688079834,0.0012694233653093,-0.0016005094265418,0.001667299946341,0.0392479300498962,0.0764394402503967,-0.0032825469970703,0,0,0,0
4.5,1788430970816,1.408450722694397,1.380281686782837,-0.0011180636938661,-0.0024970839731395,0.003532420611009,0.9999899864196776,0.0036257354154798,-0.0023245791254733,-2.295427939413965e-06,0.0041383923962712,-0.0073545668274164,0.0321281142532825,0.0005048969760537,-0.0029806876555085,0.4597806632518768,0.8880274295806885,0.0100767734026246,-0.0177189562642755,0.1955478476425974,1.6464911699295044,-0.4924401640892029,-0.600433349609375,136,245,7024,10847
4.6,1788430970916,2.8450703620910645,4.14084529876709,-0.00066518393578,-0.0026455423794686,0.0099082654342055,0.999947190284729,0.0979211085695561,-0.0022786941880313,-9.10744591002071e-06,0.0081445341929793,0.0076595931313931,0.0852246806025505,0.0006118463352322,-0.0024034846574068,0.4633111953735351,0.8861921429634094,0.0140959615308506,0.0193605572917497,0.1209071501149457,0.8507131338119507,0.1811254024505615,0.2164125442504882,184,335,13155,17696
4.7,1788430971016,4.253520965576172,6.366197109222412,-0.0004916089237667,-0.0026927867438644,0.0172206666320562,0.9998480081558228,0.164149233978161,-0.0056609804019854,-4.612714071287338e-05,0.0020778970792889,-0.0117928786203265,0.1785091459751129,0.0009330715984106,-0.0029744943603873,0.469965398311615,0.8826793432235718,-0.0035958983392072,-0.0746852390373829,0.2076173634560413,0.367472767829895,0.181886613368988,-0.0602626800537109,29,310,11301,22496
4.8,1788430971116,3.549295663833618,5.295774459838867,0.0002603651955723,-0.0020740665495395,0.0289849601686,0.9995777010917664,0.1586488978764479,-0.0018783799615539,-0.0001901990512158,0.0321613922715187,0.0299140606075525,0.2563420832157135,0.0013659410178661,-0.0017460361123085,0.4798259139060974,0.877360999584198,0.0542578916590544,-0.0438836478393765,0.2467818776723936,-1.3920456171035769,-0.0298065543174743,1.113236427307129,47,99,4419,14429
4.9,1788430971216,1.0140844583511353,1.6619718074798584,-0.0002866182476282,-0.0014639958972111,0.0362645611166954,0.999341070652008,0.0722254298439598,0.0043405500146343,-7.655990286615183e-05,-0.0185892786830663,0.05143803358078,0.1529789119958877,0.0002438463270664,-0.001291804946959,0.4878993332386017,0.8728988766670227,-0.003805996023296,0.0070241081345607,0.1837545153017036,-0.6313177347183228,0.2248053550720214,-0.4898948669433594,35,98,0,6688
5.0,1788430971316,0.0,0.0,-0.0006647997070103,-0.00095769634936,0.0441642217338085,0.9990236163139344,0.0161739889392377,0.0011929979461193,4.726101955631577e-07,-0.0069513386115431,0.0062449849210679,0.1635037660598755,-0.0001348843798041,-0.0011492781341075,0.4928078949451446,0.8701373338699341,0.000659907443212,0.0012250649458235,-0.0283792877922419,0.0553321838378906,0.1762952208518982,0.1567697525024414,0,0,0,0
5.1,1788430971416,0.0,0.0,-0.0006873779348097,-0.0010110224829986,0.0440855473279953,0.9990270733833312,0.0,0.0,0.0,0.0,2.461348236337812e-09,0.0,-0.0001243278384208,-0.0012026214972138,0.4922022819519043,0.8704800009727478,-0.0020495921838707,-0.0015592450671422,-0.0111728576347064,0.0310131311416625,0.196789264678955,-0.0066289901733398,0,0,0,0
5.2,1788430971516,0.0,0.0,-0.0006873779348097,-0.0010110224829986,0.0440855473279953,0.9990270733833312,0.0,0.0,0.0,0.0,2.370476925861453e-09,0.0,-0.0001338021829724,-0.0011434564366936,0.4922686219215393,0.8704425096511841,0.0041171259957627,0.0029175722639855,0.0127572670679226,-0.1295296549797058,0.1533030271530151,-0.0175685882568359,0,0,0,0
5.3,1788430971616,0.0,0.0,-0.0006873779348097,-0.0010110224829986,0.0440855473279953,0.9990270733833312,0.0,0.0,0.0,0.0,2.4486987992844433e-09,0.0,-0.0001388480886816,-0.0012127291411161,0.4921798408031463,0.8704927563667297,0.0002530995567207,0.0008987385082157,-0.00013915675638,-0.0462604761123657,-0.0023042559623718,0.021575927734375,0,0,0,0
5.4,1788430971716,0.0,0.0,-0.0006873779348097,-0.0010110224829986,0.0440855473279953,0.9990270733833312,0.0,0.0,0.0,0.0,2.3988839803479323e-09,0.0,-0.0001465016975998,-0.001222607679665,0.4922095537185669,0.8704758882522583,0.0004822333550475,-0.000590164364215,0.0012361198124747,0.0237001180648803,0.0105541944503784,-0.0017166137695312,0,0,0,0
5.5,1788430971816,0.0,0.0,-0.0006873779348097,-0.0010110224829986,0.0440855473279953,0.9990270733833312,0.0,0.0,0.0,0.0,2.4203563597779976e-09,0.0,-0.0001370115205645,-0.0012595243752002,0.4921829104423523,0.8704909682273865,-0.00116737802457,0.0017938358547855,-0.0028091102303563,-0.029114544391632,-0.0180397033691406,0.0179500579833984,0,0,0,0
5.6,1788430971916,0.0,0.0,-0.0006873779348097,-0.0010110224829986,0.0440855473279953,0.9990270733833312,0.0,0.0,0.0,0.0,2.4188850922257643e-09,0.0,-0.0001049246639013,-0.0012716278433799,0.4922214150428772,0.8704690933227539,0.0004136077705956,-0.002037181631567,-0.0004864871091833,0.0152649283409118,0.0173928141593933,0.0414075851440429,0,0,0,0
5.7,1788430972016,0.0,0.0,-0.0006873779348097,-0.0010110224829986,0.0440855473279953,0.9990270733833312,0.0,0.0,0.0,0.0,2.381643771087738e-09,0.0,-0.0001086387783288,-0.001288398168981,0.4922255277633667,0.8704667091369629,-0.0004569774783031,-0.0021179470820695,-0.0005037753950875,-0.025945246219635,-0.0226151347160339,0.0064172744750976,0,0,0,0
5.8,1788430972116,1.5774648189544678,1.3521126508712769,-0.0006873779348097,-0.0010110224829986,0.0440855473279953,0.9990270733833312,0.0,0.0,0.0,0.0,3.585960417495926e-09,0.0,0.00020691473037,-0.0015632854774594,0.4938140511512756,0.8695661425590515,0.0092257440891452,-0.023364834109947,0.1138557932331336,1.551966905593872,-0.0135716795921325,-0.0479679107666015,27,330,6403,12571
5.9,1788430972216,3.1549296379089355,4.2253522872924805,-0.0002006084832828,-0.0053192828781902,0.0461587496101856,0.9989199042320251,0.0909728294685793,-0.0033561344501473,0.0001531359779395,0.000502087699715,-0.1525369733572006,-0.0122265638783574,0.0031199939548969,-0.0064275115728378,0.4941274225711822,0.8693601489067078,-0.0040175597909599,-0.2898664479479164,-0.006327507746121,0.8013696670532227,-0.0887214541435241,0.2633228302001953,67,468,11637,20851
6.0,1788430972316,4.3380279541015625,6.056337833404541,0.0008419674122706,-0.0181762669235467,0.0509133972227573,0.998537302017212,0.1340065478092328,0.0051293063156041,0.0005487747749816,0.0210216883569955,-0.1744839400053024,0.1615596264600753,0.0083144158124923,-0.0148069486021995,0.5028308033943176,0.8642180562019348,-0.0071073665507459,0.1057787911036112,0.2927095890322984,1.3305130004882812,0.339395523071289,-0.1438016891479492,41,471,12364,24282
6.1,1788430972416,4.507042407989502,6.366197109222412,-0.0008823789539746,-0.0115944864228367,0.0609547011554241,0.9980728030204772,0.1749990031251495,-0.0033543958347569,-0.0005778883795703,-0.0386272296309471,0.1925914883613586,0.1590653508901596,0.0031013516709208,-0.0080358674749732,0.5088000893592834,0.8608416318893433,0.0216554832339564,0.1595157650469595,0.111205901444486,-0.6168844699859619,0.3919659256935119,-1.2944974899291992,22,295,11433,21675
6.2,1788430972516,4.2816901206970215,6.2253522872924805,-0.0009146003867499,-0.0022233386989682,0.0706848353147506,0.9974957704544068,0.1687995815092632,0.001922794986548,-0.0005922711931622,0.0075188963674008,0.1889110207557678,0.2270032614469528,0.0001331716775894,-0.0023658666759729,0.5183442831039429,0.8551687002182007,0.0015393640104172,-0.020716700949106,0.2557810497796219,-0.1956249475479126,0.2374212741851806,0.613123893737793,27,269,11290,20562
6.3,1788430972616,3.859154939651489,5.690140724182129,-0.0006147083477117,-0.003051511477679,0.0840879008173942,0.9964535236358644,0.1610002537286965,0.0013099446355468,6.492302185661228e-05,0.0073151784017682,-0.0169942211359739,0.2150237709283828,0.0008694371208548,-0.0030264211818575,0.5273498892784119,0.8496423959732056,0.0053836637667186,-0.0024414690133594,0.1878578428461672,-0.0989725589752197,-0.2895925641059875,0.3568706512451172,74,330,12742,21306
6.4,1788430972716,4.366197109222412,5.690140724182129,-0.0002775978064164,-0.0051565552130341,0.0917971208691597,0.9957643151283264,0.1660510009900994,-0.001242126651175,0.0001261783417151,0.0051427651196718,-0.0507629886269569,0.1435027867555618,0.0022674417123198,-0.0052690552547574,0.5346479415893555,0.8450554013252258,-0.0107532287518693,-0.0425838777142686,0.1078438250165558,-0.0212321877479553,0.1985594630241394,0.1394777297973632,28,318,13031,19774
6.5,1788430972816,4.619718074798584,5.521126747131348,-0.0005307203391566,-0.0046293088234961,0.0958874523639679,0.9953812956809998,0.1592183220368157,-0.0052897812877803,-7.786993655104498e-05,0.0006462380406446,0.0361709855496883,0.08835931122303,0.0012630214914679,-0.0039809979498386,0.5376617312431335,0.8431503772735596,-0.0108985793210119,0.0457495451308444,0.0670117260848386,-0.1023826599121093,-0.2410907745361328,-0.0829076766967773,66,330,11900,20731
6.6,1788430972916,4.732394218444824,5.577464580535889,-0.0004817104490939,-0.004877345636487,0.1011504232883453,0.9948590397834778,0.1670630791115732,0.0014137722000733,7.121756845165548e-05,0.0033364896662533,-0.029820391908288,0.0979067236185073,0.0018528532236814,-0.0045344270765781,0.5415011048316956,0.8406857252120972,0.012284314445479,-0.0454863383743523,0.1059431028050216,0.0620753765106201,0.1444374918937683,-0.4984264373779297,15,315,11219,20727
6.7,1788430973016,4.619718074798584,5.295774459838867,0.0001951819867826,-0.0083056325092911,0.1054217517375946,0.9943928718566896,0.1586788570087265,-0.0010444435350439,0.0001746211710431,0.0141975786536932,-0.0842012465000152,0.0861216112971305,0.0050542363896965,-0.008597882464528,0.5457039475440979,0.837918758392334,0.0187482270578109,-0.1332224272382294,0.0726666889401286,0.1802406907081604,-0.0192694067955017,-0.2601900100708008,70,295,13852,19515
6.8,1788430973116,4.732394218444824,5.154929637908936,0.0008906746516004,-0.0151476822793483,0.1055838018655777,0.9942946434020996,0.1588456696724182,-0.004567971282681,0.0003704453202795,-0.0059842197224497,-0.1546099931001663,-0.0287213828414678,0.0085937390103936,-0.0146640688180923,0.5449086427688599,0.838323175907135,-0.0057509475630872,-0.1867785106819253,-0.0114617440505966,-0.1907127499580383,-0.2696166634559631,-0.2715721130371094,16,375,13397,20410
6.9,1788430973216,4.957746505737305,5.267605781555176,0.0009809400653466,-0.0169024523347616,0.1053625494241714,0.994289755821228,0.1507160206248772,-0.0072350311237156,-4.090405237274668e-05,0.0015269403811544,0.0284167695790529,-0.0033250791020691,0.0081849973648786,-0.014165342785418,0.5446985960006714,0.838472306728363,-0.006121719914812,0.0164929350743712,-0.0050761737267202,-0.144074261188507,-0.1213499903678894,-0.1458759307861328,16,345,12917,20357
7.0,1788430973316,5.154929637908936,5.183098793029785,0.0007377656875178,-0.016460008919239,0.1054431572556495,0.9942888617515564,0.1659431389715054,0.0006009710691496,-3.476490025345424e-05,-0.0060599143616855,0.0145584680140018,0.0026238830760121,0.0079144574701786,-0.0138391675427556,0.5450596213340759,0.838245689868927,0.012856169697611,0.0223953840874601,0.0095781143479414,0.0257426500320434,0.3640002012252807,0.1263504028320312,26,369,11689,20185
7.1,1788430973416,4.788732528686523,5.042253494262695,0.00077777414117,-0.0161147378385067,0.1054866760969162,0.9942898154258728,0.162187276801563,-0.0008688125352056,1.35952512247166e-06,4.9557651315979e-09,-1.1646048392321973e-07,3.171689684222656e-07,0.0079833101481199,-0.0137046007439494,0.5449382066726685,0.8383262157440186,-0.0017087458790829,0.0212132247917889,-0.0081773719950011,0.3614094853401184,-0.2806307673454284,-0.261387825012207,72,328,14191,19777
7.2,1788430973516,5.014084339141846,5.070422649383545,0.000856157799717,-0.0146457217633724,0.1044124066829681,0.9944258332252502,0.1601091444524361,0.0006298992973622,-6.870372232687204e-05,0.0014700915198773,0.0310072973370552,-0.0316485203802585,0.007288321852684,-0.0123983053490519,0.5437899231910706,0.8390981554985046,0.0083837056262763,0.0282426180873318,-0.0341310260882267,-0.1199278235435485,0.141220211982727,0.0924863815307617,20,319,13443,19258
7.3,1788430973616,5.295774459838867,5.042253494262695,0.0009794430807232,-0.0131337298080325,0.1018396615982055,0.9947136640548706,0.1598984708976178,-0.0051293070560822,-0.000151395749531,0.0104795806109905,0.0559058897197246,-0.0635402649641037,0.0064929062500596,-0.0104987472295761,0.5410680174827576,0.840888261795044,0.0099244277420484,0.0397379319674359,-0.0408003738921572,-0.3746317028999328,-0.0199170708656311,-0.4119701385498047,32,278,12571,19241
7.4,1788430973716,5.633802890777588,4.985915660858154,0.0006900889566168,-0.0104769235476851,0.0976540073752403,0.99516499042511,0.1632060057290388,-0.0022700363804168,-9.708410279664032e-05,-0.0007498397608287,0.0445254892110824,-0.0721295997500419,0.0051163211464881,-0.0085917534306645,0.5378870964050293,0.8429576754570007,0.0016669469793108,0.0932983410893454,-0.1009567474517838,0.3896567821502685,0.1925594806671142,0.0529518127441406,58,322,12588,18564
7.5,1788430973816,5.521126747131348,5.042253494262695,0.0021421359851956,-0.0090487143024802,0.0939268916845321,0.9955356121063232,0.1641417849511556,-0.0024322174555343,-8.081006161794455e-05,0.037519197911024,0.0222547836601734,-0.0864868909120559,0.0061580035835504,-0.0068907923996448,0.5349756479263306,0.844817042350769,0.0593332630110226,0.0208080787039767,-0.0706623568931688,0.1083217859268188,-0.2654972076416015,0.0046319961547851,60,238,13187,17564
7.6,1788430973916,5.6619720458984375,4.760563373565674,0.002144718542695,-0.0074708564206957,0.08661500364542,0.9962115287780762,0.1568324539364101,-0.00556243826302,-3.914139128011545e-05,-0.0186451841145753,-0.0250139962881803,-0.1609984636306762,0.0061080306768417,-0.0081539405509829,0.5268867611885071,0.8498743772506714,-0.0427936563537016,-0.1735009448122098,-0.1484135128655152,-0.2744337320327759,-0.2768223285675049,0.2733640670776367,26,415,12158,19860
7.7,1788430974016,5.408450603485107,4.760563373565674,0.0012959982268512,-0.013566181063652,0.0796974822878837,0.9967259168624878,0.1508575083907449,-0.01214658384701,0.0002617651256059,-0.0363229215145111,-0.1024193242192268,-0.1593119800090789,0.0078593092039227,-0.0131346071138978,0.5213884115219116,0.8531821966171265,-0.0399219065050313,-0.1273176784411429,-0.1646133853004228,0.0093458890914917,0.0692252516746521,-0.067544937133789,27,499,13562,21109
7.8,1788430974116,5.352112770080566,5.211267471313477,-0.0003823041915893,-0.0144703900441527,0.0734147354960441,0.9971965551376344,0.1649055430113112,-0.0058749140193973,-9.633796134355646e-05,-0.036003228276968,0.0267236232757568,-0.0937913507223129,0.006205977872014,-0.0130030894652009,0.5175513625144958,0.855530858039856,-0.0214585243853194,0.0120972628639907,-0.0704515499609267,-0.1730398535728454,-0.3640486001968384,-0.14849853515625,24,366,14004,20071
7.9,1788430974216,5.267605781555176,4.929577350616455,-0.0022244965657591,-0.0135537758469581,0.0703729540109634,0.997426211833954,0.1647967248951135,-0.0013573858659824,-6.060700748708721e-05,-0.0546937957406044,0.036265131086111,-0.0807570293545723,0.0038421368226408,-0.0130383474752306,0.5147896409034729,0.8572087287902832,-0.0772969157726222,0.0488142687900983,-0.0931454665169403,0.205779492855072,0.2562198638916015,-1.0249872207641602,19,311,13658,18604
8.0,1788430974316,5.323943614959717,4.957746505737305,-0.0023326135706156,-0.0092440843582153,0.066375583410263,0.9977491497993468,0.1633198658029959,-0.0049486921339632,-0.0001033236578781,0.0225472450256347,0.01524025388062,-0.0649204179644584,0.0026762373745441,-0.0100253885611891,0.5105637311935425,0.8597773313522339,0.0025553003560954,-0.0590587723738566,-0.077449029700665,0.0479441285133361,-0.1969857215881347,0.1693439483642578,47,317,13446,18292
8.1,1788430974416,5.352112770080566,4.929577350616455,-0.0018843982834368,-0.0140251647680997,0.0632821917533874,0.9978953003883362,0.1638473432471646,-0.0047483379961055,0.0002901977119285,0.0008227102225646,-0.1150972619652748,-0.0533512569963932,0.0056524621322751,-0.0151781607419252,0.5082842707633972,0.8610370755195618,-0.0085812114656881,-0.1583783305832359,-0.0608200390942375,-0.2194496989250183,0.3702995777130127,0.3179082870483398,55,329,12465,19564
8.2,1788430974516,5.042253494262695,4.957746505737305,-0.0022521996870636,-0.0218151211738586,0.0608628615736961,0.9979051947593688,0.1607466581263998,-0.002271428533778,0.0003477920657432,-0.0217484757304191,-0.1056302413344383,-0.0366538055241107,0.0080179134383797,-0.0208331514149904,0.5067481398582458,0.8618050813674927,-0.0284600154261839,-0.0785176563653619,-0.0359744407177021,0.0988032817840576,-0.1762394905090332,-0.8546028137207031,108,317,13599,19520
8.3,1788430974616,5.042253494262695,4.901408672332764,-0.0027860258705914,-0.0217613112181425,0.0585050396621227,0.9980460405349731,0.1602782017452098,-0.0034112789610336,2.134614565504629e-05,-0.0098940646275877,-0.0109884040430188,-0.0540791228413581,0.0071112299337983,-0.0205729436129331,0.5040810108184814,0.86338210105896,-0.0168733418227945,0.0173385486045553,-0.0538288801983116,0.125919759273529,-0.4296940565109253,-0.1959266662597656,86,298,14816,18968
8.4,1788430974716,4.985915660858154,4.985915660858154,-0.0034023495391011,-0.0209161452949047,0.0553898848593235,0.9982399344444276,0.1563841994175815,-0.0051504221240294,-9.898033558956116e-05,-0.0096173919737339,0.0164071545004844,-0.0566290542483329,0.0066696023568511,-0.02078253403306,0.501610517501831,0.864818274974823,-0.0132626155866532,-0.0663281630247747,-0.0476122611584095,-0.3635979890823364,0.0674638748168945,-0.1352186203002929,56,396,13595,20103
8.5,1788430974816,4.760563373565674,5.239436626434326,-0.0035559674724936,-0.0217381548136472,0.0547222569584846,0.9982585906982422,0.1654843022959475,-0.0050790960961567,-8.926932994536641e-07,3.481113353132059e-08,-8.0189927587071e-08,4.774097988047288e-07,0.0066257398575544,-0.021255288273096,0.5011258125305176,0.8650879859924316,-0.0125696276454316,0.0001750011731753,-0.0447375981085554,0.3171404004096985,0.2506428956985473,-0.3727169036865234,50,360,13917,20270
8.6,1788430974916,4.760563373565674,5.605633735656738,-0.0035911679733544,-0.022715862840414,0.0540500357747077,0.9982733130455016,0.1560262171103462,-0.0003790010521507,9.241100344364806e-05,0.0010266167810186,-0.0248559713363647,-0.010371608659625,0.0072152623906731,-0.0224433820694684,0.5009665489196777,0.8651455044746399,-0.0130550855133113,-0.0095782509218624,0.0051646103910775,0.1916053891181945,0.3617427945137024,0.0710821151733398,23,403,9143,23175
8.7,1788430975016,4.2816901206970215,5.943662166595459,-0.0033334081526845,-0.0240573324263095,0.0602568574249744,0.997887372970581,0.1550108019055635,0.0076403177625635,4.691709423728134e-05,0.0107177896425127,-0.0055280155502259,0.1733473241329193,0.0078651569783687,-0.0224799867719411,0.5079296231269836,0.8610692620277405,0.0235385343952918,0.0419063978435049,0.198226297444365,0.1674053072929382,0.0731173753738403,-0.0569372177124023,29,482,10910,23766
8.8,1788430975116,4.619718074798584,5.830986022949219,-0.0029540988616645,-0.0219292920082807,0.0690586045384407,0.9973671436309814,0.1652745846760172,0.0040039254118754,-0.0001070763449043,0.0095295701175928,0.0297123417258262,0.1803986132144928,0.0072937523946166,-0.0208324547857046,0.5150282382965088,0.8568889498710632,0.005661764089614,0.0068141738906547,0.2173197795441253,-0.2294781804084777,-0.18525230884552,-0.0341434478759765,70,316,11540,20702
8.9,1788430975216,4.788732528686523,5.633802890777588,-0.0032795523293316,-0.020954443141818,0.0762652680277824,0.99686199426651,0.1618294039558143,0.0002686446844904,-0.0001499352175636,-0.0055166422389447,0.0455247424542903,0.125619038939476,0.0068836361169815,-0.020647820085287,0.5221573710441589,0.852571427822113,0.0056562270929688,-0.0461444055293695,0.1330513853090725,-0.1657425761222839,0.2294007539749145,-0.1303491592407226,21,296,11052,20539
9.0,1788430975316,4.169013977050781,5.408450603485107,-0.0031584771350026,-0.0231051668524742,0.0820890590548515,0.9963520765304564,0.1617974278626558,-0.0038708949054637,8.145137540142336e-05,-0.0031429117079824,-0.0459031648933887,0.1146341115236282,0.007401536218822,-0.0219612289220094,0.5263912081718445,0.8499265909194946,-0.0098333103204357,0.0231002925332945,0.0930756824352486,0.1235743761062622,-0.3065982460975647,0.095921516418457,48,370,13583,21401
9.1,1788430975416,4.619718074798584,5.577464580535889,-0.0033543272875249,-0.0233159344643354,0.0874856784939765,0.995887279510498,0.1628609888419891,-0.0004307074012684,-2.003988185196953e-06,0.0012657749466598,0.0060508851893246,0.0904754102230072,0.0076004983857274,-0.0222243592143058,0.5299597382545471,0.8476974964141846,0.0147450272347948,0.0146323924614358,0.0878112616030596,0.0837270617485046,0.2195717692375183,-0.7771692276000977,74,355,12018,21295
9.2,1788430975516,4.873239517211914,5.802816867828369,-0.0028184568509459,-0.0210627317428588,0.0922828614711761,0.9955060482025146,0.1618437056645131,0.0020481349911769,-0.0001714757857388,0.0176967084407806,0.04627201333642,0.107248917222023,0.0068359738215804,-0.0194572154432535,0.535392165184021,0.8443517684936523,0.0103228766652468,0.0297842884461959,0.1092453808469479,0.0930729508399963,0.3264324069023132,-0.0896520614624023,16,320,10840,20400
9.3,1788430975616,5.267605781555176,5.014084339141846,-0.0021417159587144,-0.0176339969038963,0.0975514203310012,0.9950718879699708,0.1680778430832987,-0.0023125601770252,-0.0001801207666571,0.0347532555460929,0.0875240042805671,0.0955468863248825,0.0044221431016922,-0.0148999830707907,0.5380263924598694,0.8427847623825073,-0.0448742345314436,0.1895163034472302,-0.0285132779152751,0.2082735896110534,-0.1163718104362487,0.3708305358886719,53,314,11831,19328
9.4,1788430975716,4.732394218444824,5.126760482788086,-0.0028456454165279,-0.0130451014265418,0.0974603444337844,0.9951498508453368,0.1666275311818723,-0.0081619147701826,-6.453546735577672e-05,-0.0002913861244451,0.0421038120985031,0.0072808004915714,0.0033235102891921,-0.0126024931669235,0.5381795167922974,0.8427294492721558,0.0063484369285974,0.0191866325761024,-8.781197344255191e-05,-0.4123443961143493,0.0051556229591369,1.0592403411865234,67,284,13640,19312
9.5,1788430975816,4.591549396514893,5.098591327667236,-0.0018338970839977,-0.0162739213556051,0.0972501188516616,0.9951251745224,0.1647475987039748,0.0012417820045645,0.000260377905894,0.0098538305610418,-0.0950486063957214,-0.0039224154315888,0.0058800419792532,-0.015548737719655,0.5379190444946289,0.842832624912262,0.0150048200916366,-0.1033894772889536,-0.0024562380423854,-0.0567262172698974,-0.4679416418075561,0.4568004608154297,23,300,14163,19904
9.6,1788430975916,5.183098793029785,5.267605781555176,-0.0019471989944577,-0.0146386809647083,0.0963687226176261,0.9952362179756165,0.16754879795368,-0.0038323364760549,-0.0001701175761069,0.001534602837637,0.0397906824946403,-0.0267431940883398,0.0047358972951769,-0.0134747875854372,0.5367480516433716,0.8436216115951538,0.0077721572976621,0.0139969239119911,-0.0200020486027275,-0.1165387630462646,-0.4107657074928283,0.6692409515380859,92,318,13444,18960
9.7,1788430976016,3.9718310832977295,6.084506988525391,-0.0018225919920951,-0.0141101460903882,0.0960107967257499,0.9952786564826964,0.1635983012667865,-0.0011997114270166,-3.458570124289244e-05,0.0024068208876997,0.004925396759063,0.0116186374798417,0.0048096589744091,-0.0134170763194561,0.5380887389183044,0.8427677154541016,0.0097246710854626,-0.0102976830043353,0.1422164808110744,0.1064081192016601,1.1428881883621216,0.8151350021362305,42,487,7946,24778
9.8,1788430976116,4.253520965576172,6.056337833404541,-0.0005626686615869,-0.0176784060895442,0.1084232702851295,0.993947446346283,0.1557241983657055,0.0015654777747533,0.0003779388942136,0.0139843327924609,-0.0988336652517318,0.2164193540811538,0.0076794764026999,-0.0161982271820306,0.5474627614021301,0.8366380929946899,0.0051731282503586,-0.1337725405703951,0.2041268352501882,0.390227735042572,0.0604525208473205,-0.0526647567749023,16,457,8354,24909
9.9,1788430976216,4.788732528686523,5.6619720458984375,-3.3266376703977585e-05,-0.0172859504818916,0.1180921867489814,0.9928522109985352,0.1552021476249815,0.0071035985379981,9.442882074420454e-05,0.0133507372811436,0.0170874949544668,0.2102722227573394,0.0070971297100186,-0.0142318867146968,0.5565452575683594,0.830665111541748,0.0098158513038468,0.1453624273944431,0.1082866500843786,0.3443992733955383,-0.1693426966667175,0.9242773056030272,54,368,11911,21211
10.0,1788430976316,4.507042407989502,5.464788913726807,-0.000210745842196,-0.0159518457949161,0.1226737424731254,0.992318868637085,0.1651994110275054,0.0034897765266912,4.127038400519732e-05,-0.0011519539402797,-0.0171706192195415,0.1028067097067833,0.0069571323692798,-0.0141873275861144,0.5601351261138916,0.8282505869865417,0.0013203314194461,0.0054100304561703,0.1165648667424774,0.1925842761993408,-0.1034252047538757,0.2436046600341797,61,261,14090,18776
10.1,1788430976416,4.647887229919434,5.154929637908936,-0.0003482792526483,-0.0151851354166865,0.1237715259194374,0.992194414138794,0.1644465968398347,-0.0031685895973268,-1.3621072316261616e-06,-6.779645644883203e-08,3.3444234048829464e-08,-1.859559915828868e-06,0.0074477531015872,-0.0146620431914925,0.5607590675354004,0.8278157114982605,-0.0050713926013591,-0.0790462058339233,0.0109541734863561,-0.1348298192024231,-0.5373145937919617,0.3685436248779297,49,287,13684,19402
10.2,1788430976516,4.563380241394043,5.85915470123291,-3.44645231962204e-05,-0.0163224004209041,0.125773400068283,0.9919247031211852,0.1572527490060248,-0.0087175725234463,-1.2091727738876103e-05,0.0017767468234524,0.0077431481331586,0.0872101485729217,0.007484302856028,-0.0145960617810487,0.5628772377967834,0.826377809047699,0.009620541998211,0.0064758910729755,0.0937861695476684,-0.0854642987251281,0.7687584161758423,0.048553466796875,20,395,9745,22328
10.3,1788430976616,4.873239517211914,5.549295902252197,9.810901246964931e-05,-0.0156561359763145,0.1332755833864212,0.9909553527832032,0.158834623612049,-0.0025717318347058,-0.0001432558812865,0.0103793637827038,0.0481604933738708,0.1278380155563354,0.0070667061954736,-0.0137240849435329,0.5683571100234985,0.8226372599601746,0.0117930823993336,0.0644988919363349,0.1092779899010826,-0.0252488851547241,-0.1594690084457397,0.2755069732666015,36,373,10997,21411
10.4,1788430976716,5.042253494262695,5.577464580535889,0.0003727804869413,-0.0161905195564031,0.1391471177339553,0.9901393055915833,0.1606461343258738,0.0046063092933225,4.2258831132467314e-05,0.001496767043136,-0.003650153754279,0.1333446651697158,0.0078136045485734,-0.0142527678981423,0.5744405388832092,0.8183850049972534,0.0151188977020479,-0.0023075256702467,0.1289191814203823,-0.0972662568092346,0.0937895774841308,-0.5172233581542969,33,323,10479,20802
10.5,1788430976816,4.450704097747803,5.577464580535889,0.0006259934743866,-0.0159189160913229,0.1446253210306167,0.9893582463264464,0.164253221065523,0.0051705449685346,-1.4033732034797168e-06,0.0080921528860926,-0.0021963506005704,0.1043762043118476,0.0077275391668081,-0.0139494128525257,0.5783874988555908,0.8156062364578247,-0.0074503883245449,-0.0030824920699788,0.0986271304317487,0.0900836586952209,0.1072032451629638,-0.3520822525024414,17,338,12259,20732
10.6,1788430976916,4.253520965576172,5.605633735656738,0.0005000993842259,-0.0157981142401695,0.1499057561159134,0.9885740280151368,0.1582478847375576,0.0020028936117624,1.808194457599601e-05,-0.0026147263124585,0.0093414625152945,0.1151619777083396,0.0074209021404385,-0.013632676564157,0.5825915336608887,0.8126168251037598,-0.0014474851104953,0.0498024354320098,0.1213008605350516,0.1704342365264892,0.0131046175956726,0.3461141586303711,78,321,13111,20442
10.7,1788430977016,5.183098793029785,5.183098793029785,0.0007914116140455,-0.0160791836678981,0.1561054289340973,0.9876092672348022,0.1590749760667986,-0.0006067829556879,5.746255761968272e-05,0.0049968352541327,-0.0115451104938983,0.1080506220459938,0.0078840013593435,-0.0137173989787697,0.5877564549446106,0.8088832497596741,0.0066332553139632,0.0237802665610481,0.0817898912068551,0.1982151865959167,-0.0157805681228637,0.069645881652832,41,291,12355,19532
10.8,1788430977116,5.352112770080566,5.183098793029785,0.0007569477893412,-0.0148960063233971,0.1554174423217773,0.9877362847328186,0.1684804441847902,-0.0059031836249128,-5.867767859449833e-05,0.0037664249539375,0.0415497198700904,-0.0571497604250907,0.0073495935648679,-0.012544922530651,0.5858628153800964,0.8102798461914062,0.0146406629173288,0.0528842093618775,-0.0955430930718285,-0.1722410917282104,-0.5045549273490906,0.0387935638427734,80,282,13153,18189
10.9,1788430977216,5.211267471313477,4.760563373565674,0.0014049324672669,-0.0140836313366889,0.1520269215106964,0.9882749915122986,0.1608410221911126,-0.0045545267353655,2.2572518477661595e-05,0.0167800560593605,0.0073867146857082,-0.054241769015789,0.0064754048362374,-0.0111913029104471,0.5815876722335815,0.8133810758590698,-0.041181787582147,0.0674418174794967,-0.14120936438928,-0.173307716846466,-0.3703387975692749,0.4675312042236328,43,337,13169,19581
11.0,1788430977316,4.873239517211914,5.183098793029785,0.0009786521550267,-0.017992066219449,0.1486343890428543,0.9887280464172364,0.1622857558469457,0.0024761840563954,0.0004129279669223,-0.0152835743501782,-0.1755238026380539,-0.0255926642566919,0.0091708283871412,-0.0158444307744503,0.5813701152801514,0.8134332895278931,-0.0016988739153336,0.0172017478341791,0.0380824984295888,0.395574688911438,0.0977398753166198,-0.267791748046875,93,320,13000,20306
11.1,1788430977416,4.957746505737305,5.183098793029785,0.0004343101754784,-0.0165795646607875,0.1484711915254593,0.9887776374816896,0.161810258419855,-0.0008695945593805,-4.756709680987831e-05,-0.0116746993735432,0.0254141204059124,-0.0309918764978647,0.0077148545533418,-0.0144854923710227,0.5805559158325195,0.8140549659729004,-0.0211645372423488,0.0251788093530559,-0.030132481258937,0.0222207903861999,-0.3459179997444153,0.5324993133544922,17,363,12867,20308
11.2,1788430977516,5.098591327667236,5.183098793029785,0.0001623823773115,-0.0169645771384239,0.1484292447566986,0.9887775182724,0.1600220512634513,0.0003656767464272,1.3979677631734744e-05,-0.0032806459348648,-0.002271392615512,0.0055960044264793,0.0075837559998035,-0.0152822509407997,0.5809674859046936,0.8137478828430176,-0.0110004524587926,0.0058025573011093,0.0041054786046791,-0.0336489677429199,-0.1082823276519775,-0.1741752624511718,60,339,12248,20101
11.3,1788430977616,4.760563373565674,5.211267471313477,-0.0001893921289592,-0.0173530988395214,0.1490535885095596,0.9886767864227296,0.1574713748331266,0.0023385454957187,-1.619888119931224e-06,-0.0081653418019413,-0.0108812395483255,0.0098920417949557,0.0078102331608533,-0.016272734850645,0.5812339782714844,0.8135362267494202,-0.0164180977419731,-0.043578837121545,-0.0026805985206791,-0.0573407411575317,0.2159864902496338,-0.3199720382690429,67,305,13614,19827
11.4,1788430977716,4.760563373565674,4.619718074798584,-0.000421246048063,-0.020153833553195,0.1489074826240539,0.9886456727981568,0.1607509523989769,-0.0058420417998182,0.000221755407531,-0.0062083131633698,-0.0565414540469646,-0.0040192930027842,0.0088697597384452,-0.0183782316744327,0.5809829235076904,0.8136599063873291,-0.0105704904841875,-0.0452751270930697,-0.0139761339974293,-0.2592541575431824,-0.3087519407272339,-0.2890634536743164,18,256,12879,16714
11.5,1788430977816,3.91549301147461,4.056337833404541,-0.0011535589583218,-0.0188552290201187,0.1453821212053299,0.9891952276229858,0.1298944233721427,-0.0080561090243928,-9.08358615554858e-05,-0.0182210579514503,0.0499617271125316,-0.0939276367425918,0.0072185024619102,-0.0172813441604375,0.5778849720954895,0.8159033060073853,-0.0324852900163568,0.0650112795534398,-0.1014545883196346,-0.3494809865951538,0.2890017032623291,1.221613883972168,82,270,12636,15685
11.6,1788430977916,4.563380241394043,4.197183132171631,0.0004955891054123,-0.0225006435066461,0.1430481374263763,0.9894598126411438,0.1269932932939702,-0.0069455258251591,0.0002894804376733,0.011452866718173,-0.1418399959802627,-0.0613271407783031,0.0115014724433422,-0.0208752211183309,0.5749211311340332,0.8178616762161255,0.0051371899544919,-0.1006084668029574,-0.1143959996983851,0.072811484336853,-0.0644276142120361,0.0846948623657226,165,370,16834,17683
11.7,1788430978016,5.352112770080566,4.2253522872924805,0.0011884295381605,-0.0235802046954631,0.1356757879257202,0.9904719591140748,0.1398800334411132,-0.0101680753625571,8.363777072364655e-05,0.0032013873569667,0.0083125606179237,-0.1936749517917633,0.010877245105803,-0.0190886948257684,0.5680694580078125,0.8226873874664307,-0.0056467669418568,0.1646373408267493,-0.2211360553091079,0.2769409418106079,-0.5238202214241028,0.1789302825927734,119,541,13807,21581
11.8,1788430978116,4.788732528686523,5.239436626434326,0.0011553018121048,-0.0214099492877721,0.1292925029993057,0.9913746118545532,0.1579745019526848,-0.0019204621276611,1.3108233894262476e-05,-0.0018646868411451,-0.0016590026207268,-0.0248242076486349,0.0098748784512281,-0.0181913245469331,0.565284252166748,0.8246364593505859,-0.0180645390932924,0.0348487281743807,0.0591116612750835,-0.0171366333961486,-0.2447864413261413,-0.3046855926513672,60,418,13637,21469
11.9,1788430978216,4.619718074798584,5.6619720458984375,0.0002179171424359,-0.0201754178851842,0.1313525438308715,0.9911303520202636,0.1599210449947656,0.0031436671968337,-5.590419341591176e-05,-0.0116803105920553,0.0161630678921937,0.0368622802197933,0.0091291712597012,-0.0176304224878549,0.5676248073577881,0.823047935962677,0.0066716124822523,0.0091748437324397,0.0694818547138556,-0.2672456502914428,0.1756504774093628,-0.464242935180664,18,363,11443,21260
12.0,1788430978316,4.619718074798584,5.436619758605957,9.708735160529612e-05,-0.0207602195441722,0.1363623142242431,0.9904415011405944,0.1620113320308559,0.001693639052883,8.434643939386391e-05,-0.0003683126706164,-0.0125089595094323,0.1119015738368034,0.0092526050284504,-0.0181658286601305,0.5716974139213562,0.8202112913131714,-0.0029213298952147,0.042075117561181,0.1198726104144839,0.2383254170417785,-0.2023413777351379,0.0688028335571289,44,289,14029,19336
12.1,1788430978416,5.239436626434326,5.211267471313477,0.0001130437012761,-0.0202858541160821,0.1390662491321563,0.9900752305984496,0.1580393045309758,0.0013968917044516,1.2452100761767769e-05,0.0037224707193672,-0.0041264286264777,0.0371751375496387,0.0093769412487745,-0.0178760457783937,0.5732985734939575,0.8190979361534119,0.0118027072069974,0.0069737957705974,0.0314142541580461,-0.0258539319038391,0.0398626923561096,-0.1750831604003906,61,287,12070,19073
12.2,1788430978516,4.676056385040283,5.183098793029785,0.0004865068476647,-0.0209115091711282,0.1393294334411621,0.9900251030921936,0.1602551801555704,0.0026558820449304,0.0001156823970216,0.0004822388873435,-0.0307082515209913,-0.009928255341947,0.0099380044266581,-0.0184582583606243,0.573028028011322,0.8192676901817322,-0.0007897636375685,0.0048587478315166,-0.0079075442127282,0.2887736558914184,0.2781810164451599,0.4387292861938476,91,323,14096,19441
12.3,1788430978616,4.985915660858154,5.014084339141846,0.0004898556508123,-0.0196148548275232,0.1377312391996383,0.990275263786316,0.1627873949001197,-0.0021031431713458,-7.444190268421682e-05,0.0076846554875373,0.0543228797614574,-0.0531396381556987,0.0092203058302402,-0.0169950257986783,0.5714048147201538,0.8204405307769775,-0.0006321342162633,0.046123850644543,-0.0716519882928633,-0.2885451316833496,-0.4559147953987121,0.1300649642944336,27,324,14294,19527
12.4,1788430978716,5.014084339141846,5.070422649383545,0.0003227484412491,-0.0189390536397695,0.1350276619195938,0.9906607866287231,0.1555890478287711,-0.0047371302223762,-3.4200060575508576e-05,-0.0035970790777355,0.0152326766401529,-0.0468673147261142,0.0087942434474825,-0.0166500527411699,0.569238543510437,0.8219567537307739,-0.0027539951745179,0.0105994920614395,-0.0542886255738433,0.0450667142868042,0.5510692000389099,-0.2430410385131836,22,328,13608,19477
12.5,1788430978816,4.788732528686523,5.070422649383545,5.056615918874741e-06,-0.0177355892956256,0.1324462741613388,0.9910314679145812,0.1597177957323757,-0.0021308388197747,-6.159593786411444e-05,-0.0065792533569037,-0.0076223611831665,-0.0609767101705074,0.0081046568229794,-0.0155465491116046,0.5669994950294495,0.8235316276550293,0.0184741343920428,0.0238456503534362,-0.0179822197111516,0.1817445755004882,0.1930906772613525,-0.1586246490478515,30,322,14456,19404
12.6,1788430978916,5.211267471313477,4.985915660858154,0.0002140421420335,-0.0158410873264074,0.1302438378334045,0.9913554191589355,0.166388820638935,-0.0073397968403382,-7.343733787232596e-05,0.0087515981867909,0.0399409011006355,-0.0460812076926231,0.0074261846020817,-0.0149070704355835,0.5646936893463135,0.8251326084136963,-0.0402316213340135,-0.060827041894321,-0.0924656294903653,-0.0752894878387451,0.0472596883773803,-0.2800149917602539,20,355,13233,19808
12.7,1788430979016,5.521126747131348,5.014084339141846,-0.0001904389355331,-0.017681211233139,0.1264715641736984,0.9918125867843628,0.1602807088124822,-0.006193826249938,-4.335179726000801e-05,-0.0110526541247963,-0.0142978215590119,-0.0763719901442527,0.0079190339893102,-0.0160559937357902,0.5621827244758606,0.8268193006515503,-0.0257081793781044,-0.0691693395792019,-0.1241939321064723,0.1322302222251892,0.4981871247291565,-0.2815513610839844,29,363,12032,19611
12.8,1788430979116,4.788732528686523,5.042253494262695,-7.330463267862797e-05,-0.0177302509546279,0.1234729588031768,0.9921895265579224,0.15769833655905,-0.0046410737790479,-5.325700617958857e-05,0.0049821254797279,0.0218730922788381,-0.0737009346485138,0.0075011467561125,-0.0146810645237565,0.5595454573631287,0.8286356925964355,0.0184902459641916,0.0990268209807725,-0.0316282343597333,0.4631112813949585,0.1398003101348877,0.5454578399658203,86,345,14690,20117
12.9,1788430979216,4.704225540161133,5.154929637908936,-0.0006834086962044,-0.0158551838248968,0.1212320178747177,0.9924973249435424,0.1613044442553955,-0.003556976998926,-0.0001030335112848,-0.0242417659610509,0.0008706965018063,-0.0546886846423149,0.007008091546595,-0.0151380160823464,0.557926595211029,0.8297227025032043,0.0068263754210877,-0.0821343204270653,-0.004974547540923,0.1068151593208313,0.1352776288986206,0.3738107681274414,84,281,14486,18878
13.0,1788430979316,4.929577350616455,4.957746505737305,-0.0004281233996152,-0.0185713693499565,0.119375854730606,0.9926753044128418,0.1599715651681397,-0.0058046302473039,0.0001063050652371,2.977271105919499e-05,-0.0297729019075632,-0.0364620797336101,0.0080804526805877,-0.0167737249284982,0.556495189666748,0.8306422829627991,-0.0020108614531512,-0.0257922315040895,-0.0484768036700536,-0.0877928733825683,-0.2150051593780517,0.2658700942993164,22,357,14196,19660
13.1,1788430979416,5.014084339141846,5.098591327667236,-0.0004891930148005,-0.0187704227864742,0.1178032904863357,0.992859423160553,0.1610116523482074,0.0013330536337616,1.2914189231338744e-05,-0.0024347829166799,0.0056032217107713,-0.0470873452723026,0.0075842468068003,-0.0160186532884836,0.554937481880188,0.831703245639801,0.0086155111267562,0.0841183018021638,-0.0124097190410446,0.3183203339576721,-0.2566735744476318,0.0433206558227539,20,313,13976,19341
13.2,1788430979516,5.521126747131348,4.985915660858154,-0.000791092752479,-0.0161114353686571,0.1161629259586334,0.9930991530418396,0.1586819820708085,-0.0060248832701169,-0.0001749970697121,0.0002948645269498,0.0435809083282947,-0.030478348955512,0.0069140847772359,-0.0150850266218185,0.5533672571182251,0.8327720761299133,0.0025886007679798,-0.048339753010261,-0.0315673721877755,-0.2097017765045166,0.3708880543708801,-0.3180437088012695,30,329,13103,18423
13.3,1788430979616,5.154929637908936,4.901408672332764,-0.0012419432168826,-0.0169247109442949,0.112589530646801,0.9934966564178468,0.1544923404646062,-0.0080180233063283,1.2063898830186723e-05,-0.0220927502959966,0.0065414812415838,-0.0859401896595954,0.0065050711855292,-0.0157157555222511,0.5502570271492004,0.8348221182823181,-0.0137519906478559,0.0116568437513152,-0.0963159450151215,0.1039303541183471,-0.3618039488792419,0.245889663696289,26,313,14477,18562
13.4,1788430979716,5.295774459838867,5.098591327667236,-0.0011138968402519,-0.0174353905022144,0.1091938540339469,0.9938668608665466,0.1620347502891111,-0.0023740826128554,2.692543260663266e-05,0.0119748618453741,-0.0298855751752853,-0.042105458676815,0.0072381244972348,-0.0166289489716291,0.5473983287811279,0.836675763130188,-0.0121868952421476,-0.0615389522645213,-0.0704826575134207,0.4150506854057312,0.3682904839515686,0.2201299667358398,23,267,12896,18466
13.5,1788430979816,5.464788913726807,4.450704097747803,-0.0010446265805512,-0.0203568115830421,0.1047864258289337,0.994285762310028,0.151522112838921,-0.0086670213118538,0.0001664843823626,-0.0121784666553139,-0.061492308974266,-0.1450246423482895,0.0085892183706164,-0.0189331602305173,0.5432150363922119,0.839336097240448,0.006321398800741,-0.0495871949354732,-0.1528093657340198,0.1449008584022522,-0.2400375008583068,0.0941410064697265,47,302,15863,17367
13.6,1788430979916,5.098591327667236,4.394366264343262,-0.000967914937064,-0.0218461900949478,0.0940135195851326,0.9953306913375854,0.1545520105837549,-0.0086633568418824,7.917168732086619e-05,-0.0092766601592302,-0.0286852568387985,-0.2400603145360946,0.0090683447197079,-0.0200553089380264,0.5339723229408264,0.8452154397964478,-0.0119934049845849,-0.0252132123250521,-0.220995906301978,-0.0661027431488037,0.2911503911018371,0.0335912704467773,83,337,16725,18213
13.7,1788430980016,5.6619720458984375,4.676056385040283,-0.001549337641336,-0.0217122547328472,0.0848414897918701,0.9961566925048828,0.1580482619410474,-0.0051131918140608,-1.84864611015286e-06,-0.0142042813822627,0.0072767403908073,-0.1735511571168899,0.0081261210143566,-0.0196910537779331,0.5252591371536255,0.8506757020950317,-0.0070816940950251,0.0300062991277336,-0.1268417879191942,-0.0958748459815979,-0.5907163023948669,0.1761989593505859,98,248,14869,17038
13.8,1788430980116,5.436619758605957,4.816901206970215,-0.0019616575445979,-0.0206261910498142,0.0775644853711128,0.9967721104621888,0.1583521076013309,-0.0033840555383995,-7.055229528700226e-05,-0.0110501516610383,0.0142584592103958,-0.1507832556962967,0.00772360060364,-0.0193816646933555,0.5205442309379578,0.8535796999931335,0.0057041970682108,-0.0169018946292876,-0.0306012519298619,-0.2969052791595459,0.2940629720687866,-0.4542083740234375,52,270,13057,18443
13.9,1788430980216,5.436619758605957,4.816901206970215,-0.00246253143996,-0.0204894412308931,0.0737349390983581,0.9970643520355223,0.156060695983293,-0.0035758960651243,-1.826585227817833e-05,-0.0101368175819516,0.0034669258166104,-0.0629333481192588,0.0070652598515152,-0.0193774364888668,0.5177168846130371,0.8553034067153931,-0.0096695514845398,0.0063817152557241,-0.0672070181009411,0.1639964580535888,-0.1060553193092346,-0.3493328094482422,97,329,13749,18823
14.0,1788430980316,5.6619720458984375,4.929577350616455,-0.0026552053168416,-0.0201551262289285,0.0698745623230934,0.9973486065864564,0.1574896916761893,-0.0071867925490057,-9.899769538079892e-05,-0.0018415442900732,0.0211199354380369,-0.0857895463705062,0.006814457476139,-0.0193161740899086,0.5133979916572571,0.8579061031341553,-0.0089542009624889,-0.0179775786496007,-0.079997941347089,-0.0376124382019043,0.048065960407257,-0.2916479110717773,67,292,12920,18325
14.1,1788430980416,5.380281925201416,4.647887229919434,-0.0024323188699781,-0.0203543230891227,0.0656890273094177,0.9976296424865724,0.1610820022533454,-0.0065949349331647,2.200608305557369e-05,0.0055928202345967,-0.0080248862504959,-0.0860344842076301,0.0071919308975338,-0.0191714633256196,0.5098867416381836,0.8599978685379028,0.0022394281305614,6.222229023892706e-05,-0.09479712946398,-0.0428658127784729,0.0529759526252746,-0.2754545211791992,45,315,13842,19296
14.2,1788430980516,5.436619758605957,4.901408672332764,-0.0019194181077182,-0.0218832921236753,0.0611551068723201,0.9978865385055542,0.1660154208318725,-0.0004156108590522,6.893801950745697e-05,0.0073219891637563,-0.0143356006592512,-0.0799594074487686,0.0082524064928293,-0.0203589610755443,0.5068824887275696,0.8617352247238159,0.0171206110695928,0.0060864696630768,-0.079434565283985,0.0019147396087646,0.2444039583206176,-0.8035316467285156,32,279,13822,18482
14.3,1788430980616,5.436619758605957,4.873239517211914,-0.0020370800048112,-0.0203831512480974,0.0569250881671905,0.9981682896614076,0.167960429034109,-0.0011122356571785,-8.86836472829765e-05,0.0008017111103981,0.0283097419887781,-0.0851489081978797,0.0075084082782268,-0.0191532354801893,0.5020569562911987,0.8645898699760437,-0.001873247832066,-0.010657299464862,-0.124677077071943,0.093844473361969,0.2184064984321594,-0.4095954895019531,27,297,13592,18204
14.4,1788430980716,5.549295902252197,4.676056385040283,-0.0022425837814807,-0.0221934244036674,0.0520951636135578,0.9983929991722108,0.1583175280812004,-0.0063721153045096,0.0001179717861622,-0.005568413529545,-0.0477671884000301,-0.0943460762500763,0.0083583071827888,-0.0213101282715797,0.4983238577842712,0.8666886687278748,-0.002840538331541,-0.051190998883298,-0.0861109379749052,-0.2170540690422058,0.0678880214691162,-0.7313957214355469,46,328,13058,19310
14.5,1788430980816,5.690140724182129,4.901408672332764,-0.0021881747525185,-0.0218556616455316,0.0479284077882766,0.9986092448234558,0.161578406870544,-0.0052714723936382,-0.0001039397189008,0.0034500320907682,0.0480301417410373,-0.0904403626918792,0.0078732455149292,-0.0202156193554401,0.4949279427528381,0.8686631917953491,0.0067070271112348,0.0399724161902864,-0.0896294916945555,-0.1259528398513794,-0.2128072381019592,-0.0272579193115234,31,323,12779,18985
14.6,1788430980916,5.464788913726807,4.8450703620910645,-0.0010671475902199,-0.0200241226702928,0.0445843711495399,0.9988043308258056,0.1728315299550919,-0.0041282109909261,-3.197517294728011e-05,0.0607826672494411,0.0645592287182807,-0.0435953959822654,0.0072976136580109,-0.0145115815103054,0.4922295808792114,0.8703139424324036,0.0506565276162027,0.2669136496905756,-0.0417423330734811,-0.1463299989700317,-0.0384906530380249,0.5016574859619141,80,250,13647,17847
14.7,1788430981016,5.464788913726807,5.042253494262695,-0.0010355906561017,-0.012305156327784,0.0372759476304054,0.9992286562919616,0.1690717722674323,-0.0018922436301044,-0.0001424559674644,-0.0123417451977729,0.0144195826724171,-0.1038616076111793,0.0048770410940051,-0.0127706732600927,0.484809935092926,0.8745127320289612,-0.0393134528607326,-0.106076489582924,-0.145570582024796,0.0411688089370727,0.0435634851455688,0.5658931732177734,31,279,13068,18200
14.8,1788430981116,5.211267471313477,5.408450603485107,-0.001715395366773,-0.0177803579717874,0.0331708267331123,0.9992900490760804,0.154664945799656,-0.0080014340628525,0.0003023032219075,-0.0156076587736606,-0.1183578446507453,-0.0784133970737457,0.0072012115269899,-0.0180096887052059,0.4819889664649963,0.8759625554084778,-0.0086749969236048,-0.1215915037095164,-0.0792638855844152,-0.0016610622406005,0.0655409097671508,-0.4773597717285156,19,399,9797,20990
14.9,1788430981216,3.91549301147461,5.464788913726807,-0.0035096902865916,-0.0166452601552009,0.0337015986442565,0.9992871284484864,0.1450345924535967,0.0028472402663147,-0.0002265787857136,-0.0526478365063667,0.1434957981109619,0.0508499108254909,0.0028271051123738,-0.0147395282983779,0.4840019345283508,0.8749382495880127,-0.0602917866926427,0.2679079447022808,0.1041223335351069,0.2803232073783874,0.0080283880233764,1.6316871643066406,95,415,14135,22511
15.0,1788430981316,4.676056385040283,5.408450603485107,-0.0033638291060924,-0.0145236607640981,0.0392722301185131,0.9991172552108764,0.1677580282024408,0.002668984715768,0.0002209405398661,0.0194830875843763,-0.0388160981237888,0.0980772078037262,0.0034957323223352,-0.014006283134222,0.4896785914897918,0.8717835545539856,0.01431521634233,0.0401442652736268,0.1279905013106572,0.0844836831092834,0.0575575232505798,0.3274946212768554,22,372,10705,21550
15.1,1788430981416,4.394366264343262,5.154929637908936,-0.0032192422077059,-0.0132515178993344,0.0452380403876304,0.9988831877708436,0.159208125013321,0.0042310528807524,-0.0001001685313762,0.0011299243196845,0.0391894429922103,0.1133878976106643,0.0031547844409942,-0.0132452854886651,0.4941757619380951,0.8692554831504822,0.0043339708144772,0.0042264863811543,0.0854063908891429,0.0742847919464111,-0.0029469728469848,0.0448942184448242,48,309,14834,20291
15.2,1788430981516,4.929577350616455,5.098591327667236,-0.0033388622105121,-0.0172010939568281,0.0464631766080856,0.998766303062439,0.1676080321906311,-0.001613888106794,0.0003048664432304,-0.0074048666283488,-0.1127906739711761,0.0090413559228181,0.0051568513736128,-0.0175718069076538,0.4945637881755829,0.8689484000205994,-0.0079135620668479,-0.1038272636726942,0.0243685878777609,-0.0688690543174743,-0.2522119879722595,-0.5078277587890625,96,301,13093,19719
15.3,1788430981616,4.535211086273193,5.267605781555176,-0.0034791219513863,-0.015553087927401,0.0470868572592735,0.998763620853424,0.1659566136051874,-0.0016738754051954,-0.000261944289669,0.003600753378123,0.0618410483002662,0.0097144646570086,0.0030785938724875,-0.0138972587883472,0.4954096376895904,0.8685429096221924,-0.003956657036797,0.0959465480145437,0.037037123483074,-0.0958237051963806,-0.3039313554763794,0.0641546249389648,33,307,14371,19600
15.4,1788430981716,5.126760482788086,5.267605781555176,-0.0032925950363278,-0.0141604449599981,0.0478807613253593,0.9987472891807556,0.1698770648680292,-0.0009098987868277,1.890061468234524e-05,0.014192490838468,-0.0253722295165061,0.0114923678338527,0.0041203368455171,-0.0147488284856081,0.4959216713905334,0.8682321906089783,0.0101282374126085,-0.0555898547700193,0.0182191440663045,-0.0754607319831848,0.2527390718460083,-0.0109987258911132,31,279,12220,18960
15.5,1788430981816,4.985915660858154,5.070422649383545,-0.0025346346665173,-0.0159529391676187,0.0481888279318809,0.9987077116966248,0.1639315016131874,-0.0046613479421541,0.0002050355883257,0.0225066859275102,-0.0550272576510906,0.0052028992213308,0.0053291311487555,-0.0158963669091463,0.49592125415802,0.868205726146698,-0.0017037756307053,-0.0507292397242421,-0.0041833623405161,-0.3386081457138061,-0.1532871127128601,0.5689697265625,102,340,12922,19938
15.6,1788430981916,5.070422649383545,5.014084339141846,-0.0023671314120292,-0.0188195519149303,0.0484240055084228,0.9986467957496644,0.165608255095024,-0.0010125148609969,0.0001198666757772,0.0030490080825984,-0.0479657799005508,0.0112450337037444,0.0063363071531057,-0.0182070080190897,0.495637834072113,0.8683153390884399,-0.0213232523718006,-0.0034825001366185,-0.0418632862742528,0.1585551500320434,0.0390601158142089,-0.272770881652832,87,293,14980,18252
15.7,1788430982016,5.408450603485107,4.760563373565674,-0.0024524182081222,-0.0190174952149391,0.0449973419308662,0.9988030195236206,0.1649055317506461,-0.0077328078892,4.5812413907623495e-05,0.0036241032648831,-0.0137377735227346,-0.0962409600615501,0.0064826710149645,-0.0180141441524028,0.4918237030506134,0.8704843521118164,-0.0010893695320705,0.0068523555754649,-0.1104648981640088,-0.0768720507621765,-0.1548900008201599,-0.5194892883300781,103,323,13923,18919
15.8,1788430982116,5.239436626434326,5.154929637908936,-0.0021710454020649,-0.0192383583635091,0.0402943566441535,0.9990002512931824,0.161724253122362,-0.003747811944402,3.957175348368734e-05,0.0040784329175949,-0.0056726322509348,-0.0675655156373977,0.0067396815866231,-0.0179204195737838,0.4884501695632934,0.8723816871643066,0.0052101807763713,0.0269383494833814,-0.0503092844709993,0.0852186679840087,-0.1654641032218933,0.288797378540039,37,370,12046,20088
15.9,1788430982216,4.760563373565674,4.985915660858154,-0.00189651385881,-0.0183745045214891,0.040029089897871,0.999027669429779,0.1678774706335793,-0.0004448454124761,-0.0001773271389536,0.009522364474833,0.0304573811590671,-0.0099663184955716,0.0070078754797577,-0.0179143566638231,0.4883913099765777,0.8724127411842346,-0.0007542104396582,-0.0857594921542701,-0.0475031882956902,-0.4578500986099243,0.4496853351593017,0.2238130569458007,48,360,13730,20511
16.0,1788430982316,4.957746505737305,5.211267471313477,-0.0021363531704992,-0.0196590200066566,0.039285559207201,0.9990323781967164,0.1614375859304732,-0.0048661272848503,-4.258465284438904e-06,-0.006205029785633,-0.0127987805753946,-0.0092454692348837,0.0071493666619062,-0.0188153553754091,0.4879215955734253,0.87265545129776,-0.0081362575140639,-0.0297473902198932,-0.0332344994957758,0.0856944918632507,-0.2452003955841064,0.3845443725585937,81,360,13057,20416
16.1,1788430982416,4.676056385040283,5.183098793029785,-0.0020520999096333,-0.0199138242751359,0.0392690077424049,0.9990281462669371,0.1646308617947255,-0.0006902159656923,-2.1455484776060915e-06,-3.9007030494531136e-08,1.4932378888943276e-08,-7.801406241014774e-07,0.0068059982731938,-0.0178673714399337,0.4878659546375274,0.8727092146873474,-0.0068393687058548,0.034413565893579,-0.0023706875493838,0.1627079248428344,-0.0719838142395019,0.2189950942993164,59,323,13705,20138
16.2,1788430982516,4.901408672332764,5.295774459838867,-0.0020183732267469,-0.0195183102041482,0.0391106903553009,0.9990422129631042,0.160768940716722,0.0051051761139376,6.565004708315755e-06,3.8728263263010376e-08,-4.885042415025964e-08,4.506561595007952e-07,0.0071484101936221,-0.01793790794909,0.4882340431213379,0.8724991679191589,0.0121801980672412,-0.0046042035348575,0.0183273954941186,-0.068085491657257,0.2622289061546325,0.3079366683959961,24,290,12955,19453
16.3,1788430982616,5.154929637908936,5.267605781555176,-0.000810362282209,-0.0191569309681653,0.0398296862840652,0.9990224242210388,0.1677462917197085,-0.0009544440597342,-4.2725608596075264e-05,0.0521863885223865,0.0131819872185587,0.0294200275093317,0.0081907929852604,-0.0172015409916639,0.4887259304523468,0.8722293376922607,0.0491728755581656,0.0141733741410932,0.0154935817471851,0.0622512698173522,0.072022259235382,-0.2799587249755859,69,272,12279,19093
16.4,1788430982716,5.295774459838867,4.985915660858154,-0.0010003719944506,-0.0191895142197608,0.0384628139436244,0.9990752339363098,0.1580104264773979,-0.0021260455044608,5.5514827821616e-05,-0.0251892786473035,-0.0591728799045085,-0.0618891641497612,0.00855662394315,-0.0191797763109207,0.4866526126861572,0.8733431100845337,-0.0068960970690702,-0.0888858217898931,-0.0459572056726698,0.1937919855117797,-0.041143774986267,-0.6055822372436523,104,287,13666,18447
16.5,1788430982816,5.7183098793029785,4.788732528686523,-0.0013258942635729,-0.0197263341397047,0.033991876989603,0.9992265105247498,0.1537176588525691,-0.0095690097293598,-0.0001006657858787,-0.010866304859519,0.0345831215381622,-0.1292518973350525,0.0072223339229822,-0.0178939793258905,0.4815975129604339,0.8761800527572632,-0.0253517163215781,0.029677176253802,-0.1267957328419998,-0.1563354134559631,-0.1171517372131347,0.0968055725097656,28,373,12612,19572
16.6,1788430982916,5.464788913726807,4.8450703620910645,-0.0027986485511064,-0.0172775778919458,0.0285632088780403,0.99943870306015,0.1592924586268496,-0.0009647378543955,-0.0001501684609124,-0.0399810038506984,0.0660533905029296,-0.100828930735588,0.0056195687502622,-0.015725489705801,0.4783028066158294,0.8780362010002136,0.0531484211205319,0.0623244484744325,-0.051908640267261,-0.21977299451828,-0.1547605395317077,-0.6781549453735352,50,389,13303,19786
16.7,1788430983016,5.408450603485107,4.788732528686523,-0.0017060722457244,-0.021478371694684,0.025376196950674,0.9994457364082336,0.1565440931760278,-0.0047069771387192,0.0003421263828739,-0.0055160317569971,-0.1005220189690589,-0.0863898992538452,0.0082766208797693,-0.0201744269579648,0.475756824016571,0.8793064951896667,-0.0121882031267421,-0.0677781347583055,-0.1041094006780229,0.0929207801818847,-0.4053950905799866,0.0626668930053711,73,311,13574,18966
16.8,1788430983116,5.239436626434326,5.014084339141846,-0.001728351926431,-0.0250676777213811,0.0203341413289308,0.9994774460792542,0.1577835928440627,-0.0039044270788831,0.0002388308148528,-0.0075306557118892,-0.1051839664578437,-0.0992456078529357,0.0104747489094734,-0.0244737453758716,0.4705865085124969,0.8819522261619568,-0.0063137831044083,-0.1117832837339648,-0.06892070942856,0.2097643613815307,0.0067142844200134,-0.1421213150024414,105,300,14358,18451
16.9,1788430983216,4.2816901206970215,5.577464580535889,-0.0017598643898963,-0.0264411531388759,0.0178537536412477,0.9994893670082092,0.1566838364890599,-0.00251925619527,-6.998813689229025e-05,-0.0079740146175026,0.0220019277185201,-0.0500672981142997,0.0102163990959525,-0.0235568862408399,0.4697340428829193,0.8824345469474792,0.017126206783241,0.0420317565445077,0.0545163478845065,-0.2714229822158813,0.0339096188545227,-0.4054670333862304,22,397,12757,22041
17.0,1788430983316,4.619718074798584,5.408450603485107,-0.00126327725593,-0.024937393143773,0.0226033683866262,0.9994326233863832,0.1656537411983516,0.0007966009241392,-8.505996415787292e-05,0.0092572141438722,0.039277359843254,0.0888020694255828,0.0102767050266265,-0.0225340630859136,0.4746763408184051,0.8798118829727173,0.0187177360676976,0.0108000106465172,0.0988795744279272,-0.1949619054794311,0.2300425767898559,-0.0627756118774414,61,408,11659,22405
17.1,1788430983416,4.478873252868652,5.97183084487915,-0.0008073730277828,-0.0240848716348409,0.0291163958609104,0.9992855191230774,0.1648348407316466,0.0015573567593142,-9.843287991108232e-05,0.0139666534960269,0.0345029346644878,0.1739832162857055,0.0104755451902747,-0.0220029726624488,0.4812414944171905,0.8762492537498474,0.0168601956158506,-0.0317728536729139,0.1817331344174859,-0.2594877481460571,0.2255846858024597,0.5061826705932617,41,403,10001,22805
17.2,1788430983516,4.760563373565674,5.605633735656738,-0.0007747480412945,-0.0239776987582445,0.0384937189519405,0.998970866203308,0.1584146691219478,0.0055458466604866,-7.388041119578921e-05,0.0015836841193959,0.0156497023999691,0.1920788139104843,0.0100875897333025,-0.0216209441423416,0.4888720214366913,0.8720292448997498,0.0012160289276835,-0.0015217725322323,0.1846460119687207,0.0493474006652832,0.0599797368049621,-0.0801734924316406,50,327,11426,21383
17.3,1788430983616,4.422535419464111,5.746479034423828,-0.0007348152576014,-0.0220546703785657,0.0453354381024837,0.998728096485138,0.1654124899169895,-4.000996962609126e-06,-0.0001724871535904,0.0090677114203572,0.0338537320494651,0.1122466251254081,0.0094508668407797,-0.0200065225362777,0.4952455163002014,0.8684712052345276,0.0011040684213481,0.0045584066560676,0.0922378422626702,0.2376443147659301,-0.186327576637268,0.1583709716796875,33,270,12861,20130
17.4,1788430983716,4.591549396514893,5.380281925201416,-0.0005486707668751,-0.0222376622259616,0.0504050366580486,0.9984810948371888,0.1651287099021604,0.0010342020862992,7.99886542006626e-06,0.0040432251989841,-0.002999888267368,0.0823311135172844,0.0094615193083882,-0.0200101267546415,0.4984801113605499,0.8666185140609741,-0.0038490904650175,0.0074238081716312,0.0789474883102255,-0.1358491778373718,0.1502690315246582,-0.2575826644897461,67,357,12021,21587
17.5,1788430983816,4.535211086273193,5.549295902252197,-0.0007736166007816,-0.0212468076497316,0.0545985735952854,0.9982820749282836,0.1645357874417406,0.0016048399249824,-5.968832630395904e-05,0.0019648559391498,0.0207828972488641,0.0960490852594375,0.0089361863210797,-0.0193402860313653,0.5020104646682739,0.8645990490913391,8.135712456117778e-05,0.0113531267182706,0.0854800794370323,-0.322125494480133,-0.0232762098312377,-0.3360357284545898,16,385,12237,21233
17.6,1788430983916,4.647887229919434,5.6619720458984375,-0.0009830171475186,-0.0213944371789693,0.0587104856967926,0.9980453252792358,0.1612536164141819,0.0022990320802727,2.177377321072667e-05,-0.0027322282548993,0.0132091585546731,0.0888169631361961,0.0087039768695831,-0.019288757815957,0.5053969025611877,0.8626275658607483,0.0036761606465846,0.0525600419991921,0.1005117743995713,0.2342420816421508,-0.197285771369934,0.152099609375,16,361,11649,21232
17.7,1788430984016,4.2253522872924805,5.6619720458984375,-0.0011883307015523,-0.020400196313858,0.063526727259159,0.9977708458900452,0.1598259499998294,0.0005939718681655,-6.458632509095196e-05,-0.0029913517646491,0.030457567423582,0.1041438207030296,0.0081077525392174,-0.018490370362997,0.5107975006103516,0.8594639897346497,0.0049753155948966,0.0019401849404972,0.107928057831504,-0.0548945665359497,0.1547802090644836,-0.1586265563964843,25,365,12973,20906
17.8,1788430984116,4.816901206970215,5.633802890777588,-0.0011745357187464,-0.0206190459430217,0.0690326392650604,0.9974006414413452,0.1706520458021537,0.0007561549843607,9.106801844236496e-05,0.0021725248079746,-0.0111635606735944,0.1138756945729255,0.0086027681827545,-0.0192427225410938,0.5150296092033386,0.8569132089614868,0.0104677310740583,-0.0223473281800645,0.1074562721090919,-0.1403836011886596,-0.0422059297561645,-0.6146402359008789,64,369,11345,21067
17.9,1788430984216,4.591549396514893,5.605633735656738,-0.0010370999807491,-0.0212276447564363,0.074661448597908,0.9969823956489564,0.1678130870883575,0.0032707557110576,-2.310199897568881e-05,0.0028802650049328,0.0098078083246946,0.1074396893382072,0.0086695244535803,-0.0193731263279914,0.5190004706382751,0.8545104265213013,-0.0022403834400178,0.0112551922040762,0.1046831473638311,-0.2239527106285095,-0.0033353567123413,-0.2372713088989257,17,332,11843,21049
18.0,1788430984316,4.253520965576172,5.690140724182129,-0.0010757042327895,-0.0206259209662675,0.0799920186400413,0.996581494808197,0.1663912990532784,-0.001243521208726,-3.996399410234698e-05,0.0185404382646083,0.0164158511906862,0.1179584562778472,0.0088038900867104,-0.0178842898458242,0.5250237584114075,0.8508541584014893,0.0731383441922346,0.0488213920974458,0.1500222032388476,0.2849212288856506,0.0368520617485046,-0.6152019500732422,89,307,13180,20426
18.1,1788430984416,4.535211086273193,5.633802890777588,-0.0006147733656689,-0.0193551760166883,0.084641508758068,0.9962232708930968,0.1630930006705832,0.0026358491289598,-8.994158721255413e-05,-0.0077598304487764,-0.0103020928800106,0.0753748714923858,0.0084765618667006,-0.0180163346230983,0.5285548567771912,0.8486655950546265,0.0060878914630493,-0.0564947916120287,0.140715497799177,0.1964132785797119,0.4255980849266052,-0.436467170715332,15,297,11553,20497
18.2,1788430984516,4.985915660858154,5.098591327667236,-0.000582767301239,-0.0199425444006919,0.0886404663324356,0.9958638548851012,0.1612044112361994,-0.0027523606161594,5.612505853994297e-05,0.0021293517202138,-0.0086138602346181,0.0369704961776733,0.0086096012964844,-0.0181846860796213,0.5307825207710266,0.8472692966461182,-0.0030699598741917,-0.008717160630412,-0.011924783405014,-0.0644680261611938,-0.1700084209442138,-0.4899873733520508,112,279,14225,18907
18.3,1788430984616,5.295774459838867,4.816901206970215,-0.0007871409179642,-0.0183008890599012,0.085941806435585,0.996131718158722,0.1619565134157007,-0.0060051552801361,-7.753436651395264e-05,-0.0028073687572032,0.0317604653537273,-0.0805471837520599,0.007633913308382,-0.0165524762123823,0.5276191234588623,0.8492855429649353,0.0039728122394282,0.0072542317770986,-0.0622352806579664,-0.250309407711029,-0.1414092183113098,0.14801025390625,100,289,14195,18433
18.4,1788430984716,5.014084339141846,4.676056385040283,-0.000895781442523,-0.0199233051389455,0.0840803235769271,0.9962594509124756,0.1580579143758599,0.0034303210039955,0.0001229838004003,-0.0113182011991739,-0.0544437058269977,0.0059874891303479,0.0082642156630754,-0.0186183769255876,0.5272058248519897,0.8494935035705566,-0.013668691179086,-0.0440270913615309,0.0753786657636555,0.4256086349487304,-0.0375518202781677,-0.4677639007568359,43,329,14853,19124
18.5,1788430984816,5.267605781555176,4.901408672332764,-0.0008884539129212,-0.0190600603818893,0.0822300016880035,0.9964306354522704,0.1589327840269702,-0.0090455673713267,-0.0001191730071088,0.0094420425593853,0.0266025234013795,-0.0738308280706405,0.0079610338434576,-0.0176304746419191,0.5242303013801575,0.8513568639755249,-0.003600041176981,-0.027723240414746,-0.1413902528199618,-0.3345986008644104,0.2963674664497375,-0.1302776336669922,16,272,14062,18235
18.6,1788430984916,5.070422649383545,4.760563373565674,-0.0011080660624429,-0.0206810478121042,0.0767953470349311,0.996831715106964,0.1605053568153748,-0.0074333267935118,8.491506982825376e-05,-0.0123658347874879,-0.0274541098624467,-0.1030237525701522,0.0079807201400399,-0.0183646921068429,0.5188168287277222,0.8546509146690369,-0.0036209245826679,0.0545103202675043,-0.0995974951293351,0.3908556699752807,-0.0289226770401,-0.3027830123901367,39,344,14606,19081
18.7,1788430985016,5.098591327667236,5.042253494262695,-0.0013253121869638,-0.0190586932003498,0.0715497210621833,0.9972540736198424,0.1618819107184465,-0.0048818077639281,-9.036628602293524e-05,-0.0043216394260525,0.0335272699594497,-0.1203317120671272,0.007224784232676,-0.0174635257571935,0.5146142840385437,0.85721355676651,-0.0094910148999885,0.0070960776642944,-0.0842815734123707,-0.2925075888633728,-0.0056760311126708,-0.3020133972167969,16,336,13356,19531
18.8,1788430985116,5.098591327667236,5.239436626434326,-0.0016297129914164,-0.0201598666608333,0.0673303753137588,0.9975257515907288,0.158630383746518,-0.0074983448637049,0.0001089774855156,-0.007357791531831,-0.0363792665302753,-0.0753726661205291,0.0077538415789604,-0.0188373737037181,0.5119252800941467,0.8587884902954102,-0.0037564355805299,-0.0262820134619845,-0.100019255114365,0.1081520318984985,0.1829423308372497,-0.2553739547729492,23,382,12486,20054
18.9,1788430985216,5.295774459838867,4.8450703620910645,-0.0016058607725426,-0.0207575522363185,0.0654476583003997,0.9976387619972228,0.1597640638066405,0.0002504669450598,2.829444328549874e-05,-0.0011442436370998,-0.0125011773779988,-0.0096883112564682,0.0079120341688394,-0.0192145947366952,0.5105714201927185,0.8595842719078064,0.0009584270446324,0.014206156717691,-0.0105791907239752,0.3550024628639221,0.0940673947334289,0.2782487869262695,123,284,15768,18374
19.0,1788430985316,7.549295902252197,2.7323944568634038,-0.0024819714017212,-0.0189377143979072,0.0575669482350349,0.9981589317321776,0.1566900290808874,-0.0095154414495094,-7.531717134281216e-05,-0.026659594848752,0.0881243720650672,-0.3257486820220947,0.0051486594602465,-0.0163470897823572,0.4965500235557556,0.8678388595581055,-0.0278533538856969,0.1606031188075676,-0.6725195194006911,0.7801297903060913,-0.8656238913536072,-0.2189455032348632,211,77,23015,9296
19.1,1788430985416,8.873239517211914,1.436619758605957,-0.0034119423944503,-0.0041920482181012,0.0082077821716666,0.999951720237732,0.1552264704749481,-0.0141316264049605,-0.0011683651200088,-0.0150684705004096,0.3269068598747253,-1.015169620513916,-0.0018278649076819,-0.004083102568984,0.4568049907684326,0.8895556926727295,-0.0299130101947372,0.383886636133787,-1.2314455694808195,0.1858993172645568,-0.0178694128990173,-0.0266485214233398,116,238,21974,9347
19.2,1788430985516,8.14084529876709,2.169013977050781,-0.0033838122617453,-0.0008660756284371,-0.0436043888330459,0.9990427494049072,0.1477372697290169,-0.0039752646231168,-0.0001061877223909,0.0062902020290493,0.057059921324253,-1.0244842767715454,-0.0026291664689779,-0.002105533145368,0.412861555814743,0.9107875823974608,0.0114495279893085,0.0996120133655509,-0.9831397636021888,0.0364638566970825,-0.1680188775062561,-2.064018726348877,44,288,18004,12660
19.3,1788430985616,6.957746505737305,3.126760482788086,-0.0037497375160455,-0.0062762661837041,-0.0843845754861831,0.9964064955711364,0.1510559655249809,0.001152156374942,0.0004425195615347,-0.0060297334566712,-0.2224631756544113,-0.7323766350746155,0.0008675418794155,-0.0111899273470044,0.3686539530754089,0.9294989109039308,-0.0210944777398719,-0.3109100505051171,-0.6311920365845272,-0.1812021136283874,-0.3182559013366699,-0.4744148254394531,100,279,17614,14399
19.4,1788430985716,6.788732528686523,2.5915493965148926,-0.0054964278824627,-0.0211967714130878,-0.115949235856533,0.9930136799812316,0.145625240888793,-0.0049910030008409,0.0009032431803813,-0.0136999739333987,-0.2306843847036361,-0.5439411401748657,0.0049703745171427,-0.0221929736435413,0.3457142412662506,0.9380642175674438,-0.0143260333158204,-0.1763195305631487,-0.5482427613798755,-0.1864144802093505,-0.6039160490036011,-0.6972875595092773,69,290,21676,13654
19.5,1788430985816,7.239436626434326,2.929577350616455,-0.005636278539896,-0.019095055758953,-0.1469589620828628,0.9889422059059144,0.1574443480397677,-0.0088790703058905,-0.0002298682677807,-0.0245706606656312,0.0664224103093147,-0.6737556457519531,0.0029589794576168,-0.0183395072817802,0.3084961771965027,0.9510442018508912,-0.0337965284784699,0.107194236578552,-0.7102083769654495,0.1270062327384948,-0.2140328288078308,0.0853042602539062,45,228,20626,12205
19.6,1788430985916,7.352112770080566,3.239436626434326,-0.0048255361616611,-0.0121583314612507,-0.1791837811470031,0.9837286472320556,0.1621357553742352,-0.0116994468877452,-0.0004270826183983,-0.0088210478425025,0.1737690716981887,-0.6741175651550293,0.000455436296761,-0.0108059169724583,0.2789027392864227,0.9602585434913636,-0.0207820604578978,0.1981199487685193,-0.6623514556670759,-0.2452120184898376,0.1412092447280883,-0.4141397476196289,43,260,17439,13167
19.7,1788430986016,6.929577350616455,3.802816867828369,-0.0035227914340794,-0.0029463120736181,-0.206185907125473,0.978502094745636,0.160435929835529,-0.0045850581769256,-0.0005756563779552,-0.0130667388439178,0.1773601025342941,-0.5115038752555847,-0.0020268615335226,-0.0039751371368765,0.2559681832790375,0.9666748642921448,-0.0162505579856217,0.0253039799921383,-0.4457952989449967,-0.0344989299774169,0.4952530860900879,-0.2391204833984375,66,210,16401,13162
19.8,1788430986116,6.535211086273193,3.436619758605957,-0.0044119912199676,-0.0035180442500859,-0.2305839657783508,0.9730360507965088,0.1514299917999701,-0.0087660520184115,0.0002754309409911,0.0004668384208343,-0.0297733563929796,-0.4504486620426178,-0.0022798534482717,-0.0054718479514122,0.2366351038217544,0.9715805053710938,0.0151455235273542,0.0231498767633279,-0.4266857370867356,0.3030884861946106,0.2227962017059326,0.8292503356933594,47,233,18186,13487
19.9,1788430986216,6.422535419464111,3.577464818954468,-0.0042705642990767,-0.0029199472628533,-0.2525788247585296,0.9675624370574952,0.1520256975311526,-0.0076761770919704,5.3201921747085737e-05,-0.0001502555242041,0.0104580800980329,-0.4880296587944031,-0.002524048089981,-0.0039916178211569,0.2092029303312301,0.9778608083724976,0.0059435956515546,0.0651467278962085,-0.4643390940176957,-0.1561384201049804,-0.291008710861206,0.6964359283447266,74,240,18979,13437
20.0,1788430986316,6.8450703620910645,3.4084506034851074,-0.0042692553251981,-0.0026814970187842,-0.2763227522373199,0.9610516428947448,0.1500404749133994,-0.0088101884643412,1.4298236381936124e-05,-0.0068237595260143,0.0122812399640679,-0.5146933794021606,-0.0026764562353491,-0.0040831454098224,0.1862257719039917,0.98249489068985,-0.0069489063571868,0.0491833404447059,-0.5670634376273938,0.123356282711029,-0.1492800116539001,0.016188621520996,74,267,17504,14192
20.1,1788430986416,6.14084529876709,3.774647951126098,-0.0034315739758312,-0.0007510840659961,-0.2993155121803283,0.9541476964950562,0.1565862641882229,-0.0092997389924394,-0.0001188925859223,0.0064924210309982,0.0036798722576349,-0.4752504229545593,-0.0025483090430498,-0.0015506474301218,0.1576386839151382,0.9874923825263976,0.0151150094054015,0.0537785701559464,-0.4430833693675944,-0.1201438903808593,0.3579534292221069,3.356067657470703,36,261,17362,14868
20.2,1788430986516,6.14084529876709,4.0,-0.0024780833628028,-0.0005088659236207,-0.3200257420539856,0.9474054574966432,0.1560555700739612,-0.0078790100364244,-5.757778425400091e-05,0.0189301930367946,0.0147913852706551,-0.3499141633510589,-0.0019175531342625,-0.0017402386292815,0.1414836347103119,0.9899372458457948,0.0135968010320546,-0.0216806603509003,-0.3373586225804661,0.3613236546516418,0.3991442322731018,0.0622730255126953,58,214,17482,13773
20.3,1788430986616,6.197183132171631,3.774647951126098,-0.0022080102935433,-0.0007617083610966,-0.3372188806533813,0.9414233565330504,0.1562692712151454,-0.0109010362193415,1.3322458779559048e-05,0.0108902947977185,0.006605131085962,-0.3819141685962677,-0.0015983665362,-0.0016539730131626,0.1244741901755333,0.9922201633453368,0.004574266941184,0.0172332812625956,-0.4087605766834338,0.2053411602973938,0.1217948794364929,-0.2420301437377929,39,250,17387,14853
20.4,1788430986716,6.169013977050781,3.91549301147461,-0.0014513609930872,-0.0026090533938258,-0.3533166944980621,0.9354990124702454,0.1543499154113589,-0.011614247432338,9.344246958743704e-05,0.0323437005281448,-0.023139214143157,-0.3513154089450836,-0.0003999071195721,-0.0030261175706982,0.1019086465239524,0.9947890639305116,-0.0298433839444347,0.0050023574202353,-0.4389000259365118,0.0246910452842712,0.5705822110176086,-0.7473020553588867,39,306,15154,15878
20.5,1788430986816,6.084506988525391,4.3380279541015625,-0.0025779828429222,-0.0027591218240559,-0.3694840371608734,0.9292293787002563,0.1518692541192727,-0.0063371494984737,4.856448984969371e-05,-0.0234864465892314,-0.0138578182086348,-0.302833616733551,-0.0013389363884925,-0.0031551355496048,0.088372565805912,0.9960815906524658,-0.0193065272231703,0.0384459310480255,-0.2716488324796693,0.1832814812660217,0.0641791820526123,-0.1558256149291992,56,298,15456,16093
20.6,1788430986916,6.169013977050781,3.88732385635376,-0.0023807089310139,-0.0007890749257057,-0.3814367651939392,0.9243915677070618,0.1622779549313882,-0.0131560607988308,-2.9950029349370847e-05,-0.008266762830317,0.0484298169612884,-0.2725059390068054,-0.0018953569233417,-0.0010579256340861,0.0759418606758117,0.9971099495887756,-0.0066630863927822,0.0762714474143501,-0.282395488472042,-0.2820536494255066,0.158872365951538,0.6792831420898438,142,243,17746,14868
20.7,1788430987016,6.2816901206970215,3.746478796005249,-0.0027139319572597,-0.000203167553991,-0.4001694023609161,0.916437029838562,0.1580308632257119,-0.0081864152471311,2.194515907433628e-05,-0.0043345927260816,-0.0069638257846236,-0.3981221914291382,-0.0023123146966099,-0.0015914468094706,0.0586917512118816,0.9982722401618958,0.0015249662955444,-0.0234980453711552,-0.3819314586424119,-0.074818730354309,0.0818249583244323,-1.0127248764038086,122,192,17145,14480
20.8,1788430987116,6.676056385040283,3.6056337356567374,-0.0026284158229827,-0.0004614443751052,-0.4180845022201538,0.9084042906761168,0.1636372277904913,-0.0102909316328142,5.855225998348711e-06,0.0053989174775779,-0.0147489327937364,-0.4106620550155639,-0.0022601699456572,-0.0019264733418822,0.0342305488884449,0.999409556388855,-0.0081003387989584,-0.028935277226549,-0.4020975859142904,0.064651608467102,-0.0800778269767761,-0.7993316650390625,69,245,15601,15417
20.9,1788430987216,6.02816915512085,4.056337833404541,-0.002290747128427,-0.0001921300427056,-0.4341934621334076,0.9008167386054992,0.1576366331270129,-0.0050756183043833,1.4745845521135693e-05,0.0123739521950483,-0.0013276163954287,-0.3573174476623535,-0.0017241006717085,-0.000946189276874,0.0180060118436813,0.999835968017578,0.0213156750783288,0.0236211021640351,-0.3571222082099029,0.1113641262054443,-0.0455434322357177,0.1903457641601562,111,279,15774,16240
21.0,1788430987316,4.450704097747803,4.197183132171631,-0.0020603723824024,-0.0003075620625168,-0.448774516582489,0.8936426639556885,0.1508785222283837,-0.0049149207612512,-8.215402398220778e-06,-0.0024844710715115,-0.010941625572741,-0.2422912865877151,-0.0018848124891519,-0.0008037621155381,0.0043054539710283,0.999988615512848,-0.0120583046738231,0.0349938596885838,-0.0648344002543087,-0.6384828090667725,0.190275490283966,-1.0018997192382812,45,294,5916,17156
21.1,1788430987416,1.5774648189544678,3.91549301147461,-0.0024340851232409,-5.0450733397156e-05,-0.4445184767246246,0.8957663774490356,0.1063887914956953,-0.0001294974856739,-2.8513948621119965e-06,-0.0082290079444646,-0.0034320363774895,0.203087106347084,-0.0022355988621711,-0.0012798923999071,0.0138244219124317,0.9999011754989624,-0.0104291553743415,-0.014993776477889,0.3192430895750999,-0.7210853695869446,-0.0546692609786987,-0.749267578125,80,266,0,15774
21.2,1788430987516,-0.1690140813589096,3.633802890777588,-0.0028846240602433,-0.0006017020205035,-0.4240579903125763,0.9056302309036256,0.0605234167246697,-0.0008240413294497,6.340689993960272e-06,-0.003067544195801,-0.0145471282303333,0.5262641906738281,-0.0023209135979413,-0.0020967023447155,0.0381264276802539,0.9992680549621582,-0.0027944827214988,-0.0391811058565311,0.5718117285577647,-0.5978832244873047,0.0234583020210266,0.0251455307006835,357,273,-9787,14520
21.3,1788430987616,-3.014084577560425,3.239436626434326,-0.0027690518181771,-0.0004504728713072,-0.3918729722499847,0.920015037059784,0.0173250251214143,-0.0035569246838858,1.2851572886662736e-06,0.0018536811694502,0.010564318858087,0.7998068332672119,-0.0020438013598322,-0.0015551401302218,0.0874945968389511,0.996161699295044,0.0150200702672164,0.0006517501123275,0.9803129766063476,-0.6500856876373291,0.5361554026603699,0.0748720169067382,254,299,-15076,13944
21.4,1788430987716,-3.323943614959717,3.2676055431365967,-0.0028444270137697,-0.0015766894211992,-0.3405832052230835,0.9402087926864624,0.0003991931220302,-0.0093724415074297,-1.3306396536984703e-06,0.0052927928045392,-0.0362368449568748,0.9962784647941588,-0.0016573388129472,-0.0032183080911636,0.1317913681268692,0.991270899772644,0.0119265642587736,-0.0665499435002891,0.969322255801572,-0.1120520234107971,0.5094491839408875,-0.1206588745117187,136,319,-12250,14641
21.5,1788430987816,-1.8028168678283687,4.394366264343262,-0.0052347718738019,-0.0100336568430066,-0.300934374332428,0.9535776376724244,0.0226373534675217,-0.0110325089718062,9.226302180267849e-05,0.015939911827445,-0.2736111581325531,0.8438231348991394,0.0004613706842064,-0.0139700779691338,0.1699302345514297,0.9853569269180298,0.0254617592163589,-0.4388580553643881,0.8657146154341128,0.1560854911804199,1.033625841140747,0.2687711715698242,359,621,-13646,23194
21.6,1788430987916,-1.0704225301742554,4.788732528686523,-0.005963166244328,-0.0337544791400432,-0.2601149678230285,0.964969038963318,0.0497709234584269,0.0107131341100317,0.0003762701892011,0.195653811097145,-0.3431219458580017,0.8282271027565002,0.0090535972267389,-0.0320263430476188,0.2170311361551284,0.9755972027778624,-0.0570024805633859,0.1014812506026899,0.6064238419092769,0.6462031006813049,0.0425971150398254,-0.9241771697998048,168,484,-6496,21514
21.7,1788430988016,-0.9577465057373048,5.633802890777588,-0.007168348878622,-0.0241462029516696,-0.2317706793546676,0.9724442958831788,0.0788767255948427,0.0067681802062446,-0.0004050622619896,-0.0568255148828029,0.2667095065116882,0.6468939185142517,0.0038791419938206,-0.0227859783917665,0.2460148781538009,0.9689905047416688,0.0190970582804421,0.1222483705379802,0.848577539233619,-0.1552217006683349,0.1838696002960205,0.5031137466430664,229,668,-8051,27175
21.8,1788430988116,-1.154929518699646,5.943662166595459,-0.0062648928724229,-0.0225196648389101,-0.194639965891838,0.9805962443351746,0.091409318871786,0.0041140783566643,1.4928157455813392e-05,0.0372246839106082,-0.0057619214057922,0.7950584292411804,0.0050944620743393,-0.0226180739700794,0.2913710176944732,0.956329107284546,0.0536083958890202,0.0086990828623863,1.034941778539942,-0.1423972249031067,0.4331482052803039,0.3673210144042969,242,447,-9335,24545
21.9,1788430988216,-0.8450704216957092,5.6619720458984375,-0.0051536224782466,-0.0231190361082553,-0.1407076716423034,0.989767849445343,0.0806933707641745,0.0008737329746664,3.6040678668562856e-05,0.045062780380249,-0.0248176548629999,0.9907732009887696,0.0062630176544189,-0.0230262875556945,0.3342225551605224,0.942192018032074,0.049405317293521,-0.0202144830011282,0.9462563059303808,-0.2829397916793823,0.2224095463752746,-0.2199554443359375,235,385,-7891,21772
22.0,1788430988316,-0.6197183132171631,6.197183132171631,-0.00415995484218,-0.0243650004267692,-0.0943443700671196,0.9952327013015748,0.0897790364246432,0.0018653216651418,6.56777164038197e-05,0.0487125106155872,-0.0541976243257522,0.9685385227203368,0.0076887840405106,-0.0240164063870906,0.3755036890506744,0.9264777898788452,0.0369132995068796,-0.0636151479148469,0.9166273165031824,0.4504023790359497,0.0684667825698852,-0.3607025146484375,89,498,-2913,25692
22.1,1788430988416,1.8309859037399288,5.380281925201416,-0.0028912890702486,-0.0229817926883697,-0.0521048456430435,0.9983729720115662,0.1197067008932987,-0.006939131503673,-0.0001068997506839,0.0431350767612457,0.0754920691251754,0.7721013426780701,0.0076636672019958,-0.0211040042340755,0.4100211858749389,0.9117996096611024,0.0400912649255589,0.1209712367283789,0.6985180056655917,0.5654333829879761,-0.2951961159706116,-0.3839368820190429,207,256,10554,18076
22.2,1788430988516,4.591549396514893,3.94366192817688,-0.0023759596515446,-0.0121292965486645,-0.0327311903238296,0.9993877410888672,0.1398360512285142,-0.0052655556224121,-0.0006988178112293,-0.0030676766764372,0.2121946513652801,0.2008088529109954,0.0021733967587351,-0.009515413083136,0.4230581223964691,0.9060500264167786,-0.0087839277270666,0.2570098322262841,-0.0916530128142904,0.6608589887619019,-0.4388597011566162,-0.2127752304077148,295,141,17004,12436
22.3,1788430988616,7.014084339141846,2.3380281925201416,-0.0024998553562909,-4.885382077191025e-05,-0.0511405542492866,0.9986883997917176,0.1562741536021024,-0.0047813643657926,-0.0006809350296898,-0.0186146609485149,0.1567147523164749,-0.5391896367073059,-0.0023947106674313,-0.0012139091268181,0.4026128351688385,0.9153664708137512,-0.0308227227862019,-0.0430835815883543,-0.7827122856747217,-0.0550109148025512,-0.4870963096618652,0.2592315673828125,99,27,22981,5453
22.4,1788430988716,8.253520965576172,1.211267590522766,-0.0030594037380069,6.0397316701710224e-05,-0.0977685898542404,0.995204508304596,0.1386264757618585,-0.0053823116681112,-7.745580397227743e-05,0.0003911351668648,0.0027408045716583,-1.0937635898590088,-0.0027214493602514,-0.0015155812725424,0.3597665727138519,0.9330371618270874,-0.0038516018711571,-0.0520847086956452,-1.1550309344641496,0.2294841408729553,-0.2594186663627624,-2.8203721046447754,127,128,20932,5578
22.5,1788430988816,7.661972045898437,0.98591548204422,-0.0028933093417435,0.0008956462843343,-0.147058755159378,0.9891231060028076,0.1416900650704425,-0.0016711336184034,-9.031638590636606e-05,-0.0004149040905758,0.0244650598615407,-1.0045851469039917,-0.0032853540033102,-0.0018311021849513,0.3010417222976684,0.9536036252975464,-0.0543410005125122,-0.0840685594879397,-0.9897240461645532,0.1107035279273986,-0.1344949007034301,0.7074966430664062,74,43,19886,3701
22.6,1788430988916,8.14084529876709,1.4647886753082275,-0.0024279823992401,0.0008312715217471,-0.1942133754491806,0.980955958366394,0.1614178991969875,-0.0089873560670606,-0.0001525166409732,0.0176015123724937,0.0056832036934792,-0.9581862688064576,-0.0024823686107993,-0.0004066387191414,0.2588359117507934,0.9659180045127868,0.0053830110778331,-0.0246335422210942,-1.0149366720247175,0.3032841682434082,-0.5044769048690796,-0.6333684921264648,122,231,23771,8032
22.7,1788430989016,7.492957592010498,1.6056338548660278,-0.002205851720646,0.0010701417922973,-0.2508628368377685,0.9680196046829224,0.1632072621957113,0.0014080695993235,5.8092469088548245e-06,-0.0027073505334556,-0.0100471712648868,-1.0584310293197632,-0.0023801960051059,-0.0001873271539807,0.212525725364685,0.9771525859832764,-0.0012144978584848,-0.0228593124447566,-1.0050397860284197,-0.427952229976654,-0.258209764957428,-1.0658388137817385,21,200,20259,8155
22.8,1788430989116,7.323943614959717,1.6056338548660278,-0.0027616543229669,0.0009476117556914,-0.2926484942436218,0.9562156200408936,0.147141419925,-0.0042017923422731,-2.910955339298651e-05,-0.0107038542628288,0.0126918330788612,-0.8198978900909424,-0.0030230861157178,-0.0014812061563134,0.1621771454811096,0.9867559671401978,-0.0244062196370622,-0.0580423243673475,-0.7491419330978606,0.1804489493370056,0.1265434622764587,-0.2581472396850586,93,255,20480,10504
22.9,1788430989216,8.36619758605957,1.5211267471313477,-0.0041453754529356,-0.0002734975423663,-0.3287219703197479,0.9444175958633424,0.1630596278769941,-0.0053628638164297,2.8372483875313304e-05,-0.0225175023078918,0.0155590921640396,-0.8554896712303162,-0.0039374819025397,-0.0024616094306111,0.1230524778366088,0.9923893213272096,-0.0471242806141959,0.0057843100298972,-1.0433390002057634,-0.4927127361297607,-0.4327616691589355,-0.1356916427612304,43,156,18166,8327
23.0,1788430989316,7.323943614959717,2.197183132171631,-0.003517746925354,0.0001533257309347,-0.3773769736289978,0.9260530471801758,0.1639894022670982,-0.0059005130119456,-0.0003627252037943,0.0134214935824275,0.0473099499940872,-0.857524573802948,-0.0032813567668199,-0.0014729229733347,0.0826094523072242,0.9965754747390748,-0.0045315863220635,-0.042319456434782,-0.6983898937486623,-0.2660732269287109,0.2480486035346985,0.5826196670532227,29,116,15281,7050
23.1,1788430989416,6.309859275817871,1.8309859037399288,-0.0031990909483283,0.0002433797344565,-0.4077264368534088,0.9130985140800476,0.1302866206468504,0.005069391218171,-6.24983549897214e-06,0.0075488397851586,0.0084101529791951,-0.6303085088729858,-0.0028734728693962,-0.0017162952572107,0.0432922095060348,0.9990568161010742,0.0095048086657045,-0.0349813304683011,-0.5599055950013709,0.027943730354309,0.0236482620239257,0.6270351409912109,26,164,14453,8920
23.2,1788430989516,5.352112770080566,2.0,-0.0032815118320286,-0.0004100038204342,-0.431923508644104,0.9019041657447816,0.1354238781805887,-0.0026592782791445,5.9479276930955785e-05,0.0016792016103863,-0.0047096447087824,-0.5220695734024048,-0.0026873471215367,-0.0019224714487791,0.0190711356699466,0.9998127222061156,0.0050758200626629,0.0168928270961642,-0.4937121018305978,-0.4118399024009704,-0.2201802730560302,-0.5483646392822266,62,142,16924,7930
23.3,1788430989616,6.2253522872924805,2.0281689167022705,-0.0028881630860269,-0.0003687989665195,-0.4547405838966369,0.890619158744812,0.1251559010209297,0.0006506636881886,2.2403740078250635e-06,0.0086908489465713,0.0042499788105487,-0.5225999355316162,-0.0023391861468553,-0.0015108585357666,-0.0052879266440868,0.9999821186065674,0.0046583736397965,0.0258158780529266,-0.5772181459296952,0.2090826034545898,-0.1590696573257446,-0.0577220916748046,123,137,14607,7809
23.4,1788430989716,5.267605781555176,1.7464789152145386,-0.0020164172165095,-0.0009761966066434,-0.4818483889102936,0.876251757144928,0.1327561500261543,0.0027910857096228,1.1921945587199246e-05,0.0178735423833131,-0.0141923865303397,-0.5604579448699951,-0.0011269766837358,-0.0017432933673262,-0.0383694916963577,0.9992614984512328,0.0176695951582489,-0.0052690884743485,-0.5318427542353693,-0.5969341993331909,-0.0047710537910461,-0.6143770217895508,56,132,12910,8212
23.5,1788430989816,4.11267614364624,1.8028168678283687,-0.0019656508229672,-0.0007413835264742,-0.5017589926719666,0.8650048971176147,0.114628135986161,-0.0013644715218994,-5.395969899227795e-06,-0.0131918815895915,0.0024093131069093,-0.4699864983558655,-0.0013999426737427,-0.0014199307188391,-0.0589894987642765,0.9982566833496094,-0.0011288386070652,0.0066896453431321,-0.4236908121632008,-0.0472403168678283,-0.209028422832489,-0.2609148025512695,22,179,11757,7342
23.6,1788430989916,3.0422534942626958,1.2957746982574463,-0.0019672457128763,-0.0008128313929773,-0.5178086161613464,0.8554937839508057,0.0732568422758274,0.001275053908759,1.5969443588359924e-06,0.0009319418459199,-0.0114703429862856,-0.3214287757873535,-0.0014106044545769,-0.0017874613404273,-0.0753393024206161,0.9971554279327391,-0.0034874047181382,-0.0327677513845822,-0.2510823315558883,-0.0999215245246887,0.1839805245399475,0.2555751800537109,43,149,8063,7144
23.7,1788430990016,3.577464818954468,1.380281686782837,-0.0019418810261413,-0.0007366191130131,-0.5267617702484131,0.8500104546546936,0.0687034688687817,-0.002245341696707,-1.4209873642315135e-05,0.0011361259967088,0.0109966835007071,-0.1934438049793243,-0.0015346957370638,-0.0015786066651344,-0.0882045030593872,0.9960999488830566,-0.0107437784082268,-0.0050434646327931,-0.2343838363838895,0.7334438562393188,-0.2391644120216369,0.1667423248291015,176,152,12718,7897
23.8,1788430990116,4.02816915512085,1.5774648189544678,-0.0022119651548564,-0.0006432195659726,-0.5410472750663757,0.8409890532493591,0.102764098196088,-0.0028244223174282,-6.513101953221706e-06,-0.0025159637443721,0.0042828326113522,-0.4255744814872741,-0.001747285015881,-0.0017041740939021,-0.1071934700012207,0.9942352175712584,-0.005645858458533,-0.0087116311518707,-0.4461043977404153,-0.1677672863006591,0.0228558778762817,-0.5979995727539062,105,194,11532,7037
23.9,1788430990216,3.746478796005249,1.5774648189544678,-0.0022917261812835,-0.0001922538504004,-0.5595214366912842,0.8288127183914185,0.0955460101451241,0.0003921099620709,-1.7401912243707947e-05,-0.0102560687810182,0.0045477943494915,-0.3662035763263702,-0.0020075170323252,-0.0012289099395275,-0.1244554966688156,0.9922224283218384,-0.0138519802223427,-0.0050009167052372,-0.355598775894993,-0.0897872447967529,-0.184730589389801,-0.1171731948852539,88,145,11752,6855
24.0,1788430990316,2.6478872299194336,1.2676056623458862,-0.0006514025153592,0.0022044000215828,-0.5733162760734558,0.8193309903144836,0.0869448400347284,0.0022935959673957,-0.0001854075816815,0.0066777532920241,0.0952398106455802,-0.3383583128452301,-0.0019683418795466,0.0006839912384748,-0.1448747515678405,0.989447832107544,-0.0083865316655624,-0.1301919120313924,-0.3564016664844176,-0.1938459873199463,0.1552814245223999,1.2684030532836914,12,134,7060,5509
24.1,1788430990416,4.14084529876709,2.08450698852539,-0.0016679026884958,0.0014677592553198,-0.5849911570549011,0.8110367059707642,0.0711831393852872,0.0011253955835217,1.109164501699502e-05,-0.0024983421899378,-0.0086380057036876,-0.2587299644947052,-0.0021014539524912,0.0003736829385161,-0.1560126841068267,0.9877527356147766,0.0072122835188799,-0.0060994631015706,-0.173764147159073,0.8269953727722168,-0.1060389876365661,0.1706485748291015,303,199,18495,9214
24.2,1788430990516,7.211267471313477,2.8450703620910645,-0.0020205259788781,0.000789031793829,-0.6027038097381592,0.7979620099067688,0.1545130209658376,-0.0047926412872653,1.900715220943587e-05,0.0035040201619267,0.0051582842133939,-0.5409164428710938,-0.0021624118089675,-0.0001795766875147,-0.1764804422855377,0.984301745891571,0.0076631488030368,0.0230745465520093,-0.5783974832467634,0.9035962224006652,0.0073769092559814,-0.9264450073242188,162,190,22622,10520
24.3,1788430990616,7.183098793029785,3.4647886753082275,-0.0016666847513988,0.0007489167619496,-0.628797173500061,0.7775671482086182,0.1868179453241009,-0.0018283176626574,4.991474789073264e-05,0.0028645694255828,-0.0046980329789221,-0.6881128549575806,-0.0019327923655509,-2.4427659809589383e-05,-0.2156401425600052,0.9764710068702698,-0.0097027596729895,0.00993836558286,-0.5746148058943765,-0.933927834033966,0.0878346562385559,1.0955753326416016,20,177,16505,13081
24.4,1788430990716,5.830986022949219,3.0985915660858154,-0.0015206465031951,0.0008534034714102,-0.64743572473526,0.7621179819107056,0.1609716331257876,-0.0048917261848387,-3.661334166923716e-08,0.0022357578855007,0.0013435984728857,-0.4846350848674774,-0.0017197262495756,0.000142921693623,-0.2345180958509445,0.9721102118492126,-0.0011911805563483,0.0026203668695191,-0.5485812723851379,-0.1537057757377624,-0.1278335452079773,-1.627614974975586,17,202,15980,12727
24.5,1788430990816,3.8309860229492183,5.605633735656738,-0.0019230656325817,-4.25062607973814e-05,-0.658953070640564,0.7521816492080688,0.1579448428446822,-0.0018582530480785,6.831884341486563e-06,0.0073810606263577,-0.0378038585186004,-0.1910418421030044,-0.0016638124361634,-0.0013921372592449,-0.2443336993455886,0.9696888327598572,0.0113052721222669,-0.0109201365127818,0.166195429000542,-0.0147913694381713,0.0217059254646301,0.5120220184326172,31,400,8729,22427
24.6,1788430990916,2.366197109222412,7.605633735656738,-0.0018747566500678,0.0011482221307232,-0.646271288394928,0.7631045579910278,0.1673078662628319,-0.0007001390405584,-8.252902005925572e-05,-0.0311166662722826,0.0356966964900493,0.568884015083313,-0.0023978548124432,7.186084985733032e-06,-0.2192494422197342,0.9756659269332886,-0.0093643886202099,-0.0314952216233152,0.865051004794185,-0.0083545446395874,-0.0262978672981262,0.0736141204833984,47,281,7864,24606
24.7,1788430991016,3.0422534942626958,7.408450603485107,-0.001911444356665,0.0014316706219688,-0.6141633987426758,0.789175271987915,0.1771790714841824,0.0015204736293607,-3.802469704233055e-05,1.1749968507501762e-05,-0.005320981144905,0.7134575247764587,-0.0023533226922154,0.0003038486465811,-0.1870513260364532,0.982347309589386,0.0045138053599165,-0.0257724616623833,0.7354495991746335,0.1214350461959838,0.0284778475761413,-0.7721729278564453,52,256,7825,23297
24.8,1788430991116,3.380281686782837,6.8450703620910645,-0.0019789019133895,0.0007830987451598,-0.5909932851791382,0.8066736459732056,0.1700557700612943,-0.0022207196674331,7.027005762664335e-06,0.0060757230967283,-0.0194176100194454,0.5663797855377197,-0.0021345140412449,-0.0003730254247784,-0.1605747938156128,0.9870213270187378,0.0002981621317852,-0.053135350547025,0.5306534293303119,0.5125197768211365,0.2029102444648742,-0.5093746185302734,118,203,11260,20748
24.9,1788430991216,3.070422649383545,7.042253494262695,-0.0018396644154563,0.0011991455685347,-0.5752294063568115,0.8179891705513,0.1780623540499376,-0.0011179419238121,-5.99644628894632e-05,-0.0078091868199408,0.0285360682755708,0.3633851408958435,-0.0023481762036681,0.0003950912505388,-0.1373444348573684,0.990520477294922,-0.0141272876898052,0.0091077581757634,0.352176339499978,-0.6328089237213135,-0.2153704166412353,0.5650615692138672,31,444,4914,27950
25.0,1788430991316,2.760563373565674,7.323943614959717,-0.003605003003031,-0.0006088501540943,-0.5495237708091736,0.8354700207710266,0.1670333088214842,0.0018727172612689,0.000138350730175,-0.0091452561318874,-0.0592786185443401,0.6313279867172241,-0.0029330076649785,-0.002237532287836,-0.1094265878200531,0.9939880967140198,-0.0114435352762685,-0.0609971400815489,0.6134879798399735,0.3559843301773071,-0.3616263270378113,0.2813739776611328,24,446,5568,27854
25.1,1788430991416,3.6619718074798575,6.676056385040283,-0.0049819853156805,-0.0018202573992311,-0.522462010383606,0.8526461124420166,0.1743598647497242,0.0027521584956704,0.0001675459259464,-0.0044254013337194,-0.0155271710827946,0.6717472076416016,-0.0037465756759047,-0.0027559055015444,-0.0726877450942993,0.9973439574241638,-0.0132653199312108,0.086341468578772,0.4434176101680916,0.5858256220817566,-0.0118456482887268,-0.6353530883789062,58,295,9922,22367
25.2,1788430991516,3.549295663833618,6.535211086273193,-0.0037898384034633,0.0015222372021526,-0.5076117515563965,0.8615762591362,0.1778817986536466,-5.371556070379441e-05,-0.0002281936211529,-0.0118655497208237,0.0403091944754123,0.3101368546485901,-0.0038349935784935,-0.0004200004041194,-0.0576385371387004,0.998330056667328,0.0264465276516643,-0.0111978301849209,0.3857450985578426,-0.1002343893051147,0.4700605869293213,-0.9057130813598632,19,333,8902,23045
25.3,1788430991616,3.577464818954468,6.901408672332764,-0.0049341535195708,-0.0017463089898228,-0.4939194917678833,0.8694918751716614,0.1761477257583548,0.0001059035244153,0.0002862461003652,0.015075983479619,-0.1217040196061134,0.3076244294643402,-0.0036765979602932,-0.0054076928645372,-0.0430873297154903,0.9990499019622804,0.004417387807417,-0.1669557392427163,0.3180501051444802,-0.3711129426956177,0.4270700216293335,-0.226388931274414,99,427,4932,25126
25.4,1788430991716,2.676056385040283,7.267605781555176,-0.0121570080518722,-0.0156846828758716,-0.4719414710998535,0.8814064860343933,0.1688573100308966,0.0047185588340555,0.0013053970182757,0.0337415151298046,-0.3260460197925567,0.5026699900627136,-0.0031635193154215,-0.0215232837945222,-0.0140058929100632,0.9996652603149414,0.0664551632453473,-0.1526047355423681,0.5473004055277203,0.4828097820281982,-0.1083085536956787,-0.3877487182617187,23,404,5715,26927
25.5,1788430991816,2.5352113246917725,7.352112770080566,-0.0123043432831764,-0.019262108951807,-0.4460730254650116,0.8947045803070068,0.1675586703665207,0.0083761242482182,0.0001097929173643,0.0263163242489099,-0.0230689998716115,0.617574155330658,-0.0022108303382992,-0.0224917903542518,0.0139289153739809,0.999647617340088,0.0219857015702971,0.0247218511707403,0.6330920671960365,0.4023376703262329,-0.291851282119751,-0.0300607681274414,18,451,8511,27179
25.6,1788430991916,2.9577465057373047,6.732394218444824,-0.010889533907175,-0.0178142115473747,-0.4224164187908172,0.906161367893219,0.1625413523126539,-0.0012442925307673,-2.01958739980349e-05,0.0288042426109313,0.0525760203599929,0.5087195634841919,-0.0015216991305351,-0.0198934040963649,0.0378391928970813,0.9990847110748292,0.0380508306850633,0.1678952559360216,0.5913507233655072,0.0656924843788147,-0.2869680523872375,1.063249588012695,132,354,11113,23159
25.7,1788430992016,3.6619718074798575,6.535211086273193,-0.0094628036022186,-0.0165745727717876,-0.4011087119579315,0.9158316254615784,0.1824687748737537,1.0819691275013894e-05,4.131153484337215e-05,0.0170870907604694,-0.0262279510498046,0.4670259654521942,-0.0006931675598025,-0.0197500176727771,0.0655071288347244,0.9976564049720764,0.0190643405368412,-0.0375059904166593,0.4098673816345097,-0.2308142185211181,-0.033198058605194,0.0524673461914062,59,290,10389,22626
25.8,1788430992116,3.549295663833618,6.563380241394043,-0.0094640413299202,-0.0176223237067461,-0.3841135203838348,0.923069179058075,0.1741345215028246,0.0028813529622825,1.9314917130008685e-05,0.0117138009518384,-0.0001404511131113,0.3565682172775268,-0.0005874754860997,-0.0199344288557767,0.08152586966753,0.996471643447876,-0.0053968077071752,0.0085803280632075,0.3340904418840355,-0.0903553366661071,0.0509590506553649,0.4785318374633789,18,404,8452,23780
25.9,1788430992216,4.478873252868652,5.943662166595459,-0.009812188334763,-0.0181027594953775,-0.3668343722820282,0.9300583600997924,0.1734578261253519,0.0037993489437788,0.0001193643111755,0.0076495725661516,-0.0061420742422342,0.3192420303821563,-0.0005403440445661,-0.0204020123928785,0.0957315489649772,0.9951979517936708,0.0070578626256496,0.0419632157104401,0.2351951329952896,0.1562223434448242,-0.3362370729446411,0.2211408615112304,40,337,10654,21571
26.0,1788430992316,4.02816915512085,6.309859275817871,-0.0093767009675502,-0.0178792756050825,-0.3572102785110473,0.9338058233261108,0.1734337618769009,0.0024967440007465,1.464518975053217e-05,0.0131172519177198,0.001426191534847,0.2071095705032348,-3.536604344844818e-05,-0.0199862476438283,0.1088864579796791,0.9938532710075378,0.017144013718677,0.012455973792306,0.2400785759066541,-0.3819239735603332,0.2595238089561462,-0.3076868057250976,36,390,6662,24939
26.1,1788430992416,2.7323944568634038,7.154929637908936,-0.008828230202198,-0.0190197136253118,-0.3386505246162414,0.9406785368919371,0.1668443115677949,0.0102713522044579,0.0001046805232654,0.0338719598948955,-0.0425347164273262,0.5302103161811829,0.0011135432869195,-0.0215341784060001,0.1329984664916992,0.990881621837616,0.030496607762801,-0.0477281259605455,0.6264119605438859,-0.0670257210731506,-0.0086936950683593,-0.7200536727905273,11,446,6651,26446
26.2,1788430992516,3.774647951126098,6.450704097747803,-0.0081645874306559,-0.0196305345743894,-0.3146925866603851,0.9489554762840272,0.1823911975189072,0.0007656690222271,-3.414492126316801e-06,0.0341632887721061,0.0104344971477985,0.4756078422069549,0.0019114129245281,-0.0207077395170927,0.154799222946167,0.9877271056175232,0.0375504818745307,0.0379824120006219,0.4492042907919154,0.3116740584373474,0.2241377234458923,0.3630809783935547,65,265,12418,21071
26.3,1788430992616,4.732394218444824,5.746479034423828,-0.0041345828212797,-0.0121633848175406,-0.2984992861747741,0.9543233513832092,0.1818337058265741,-0.0064662303679002,-0.0005319219037103,0.0295505709946155,0.1872404962778091,0.1853802651166916,0.0017836187034845,-0.0126458648592233,0.1666550785303115,0.9859325885772704,0.0219410193109546,0.1817928582832731,0.1306102607496539,0.0857821106910705,0.0306202769279479,-0.2264928817749023,45,234,12626,18302
26.4,1788430992716,4.056337833404541,4.676056385040283,-0.0001419277396053,-0.0076185693033039,-0.2919583916664123,0.9564006328582764,0.1743116959344335,0.0019769726844234,-6.931370615413682e-05,0.0355059467256069,0.0041703623719513,0.1615295112133026,0.0028028497472405,-0.007101310417056,0.174421489238739,0.9846415519714355,-0.0495326552915173,-0.0099755692556029,0.1054050289284935,0.0328838229179382,0.7071362137794495,0.4305868148803711,16,205,9503,17656
26.5,1788430992816,3.802816867828369,6.02816915512085,-0.0016885753720998,-0.0096156243234872,-0.2856262326240539,0.9582912921905518,0.1421229376864578,-0.0037056573483096,5.684602155779126e-05,-0.0052191051654517,-0.0790629610419273,0.1595618724822998,0.0032189842313528,-0.0118647264316678,0.1815190464258194,0.9833105802536012,-0.0079622900028637,-0.2533555648695922,0.1823599049668915,0.2321254014968872,0.477993905544281,0.5306777954101562,15,441,10292,24420
26.6,1788430992916,3.746478796005249,6.366197109222412,-0.0045624491758644,-0.0198314562439918,-0.2713469862937927,0.962266445159912,0.1640886327182347,0.0036099004394043,5.990209237707461e-05,0.017074292525649,0.0073251533322036,0.2727566361427307,0.0046204747632145,-0.0192864816635847,0.197398379445076,0.9801228046417236,-0.0179940390883101,0.0370371755107342,0.2256956486714031,-0.3344072103500366,0.4746330380439758,-0.1454524993896484,52,525,9058,26810
26.7,1788430993016,3.859154939651489,6.366197109222412,-0.0049291453324258,-0.0187048260122537,-0.2582114934921264,0.9658947587013244,0.1811045485691267,0.0022560978161579,-4.0426871059246815e-05,-0.0121155465021729,-0.0009210527059622,0.3064378499984741,0.003992754034698,-0.0191032458096742,0.2094156593084335,0.97763192653656,-0.0119040579128512,-0.0334528974633063,0.2980642588703905,0.0680739283561706,0.1318575143814087,1.1107854843139648,14,394,9621,24166
