time_s,timestamp_ms,wheel_vels__velocity_left,wheel_vels__velocity_right,odom__orient_x,odom__orient_y,odom__orient_z,odom__orient_w,odom__lin_x,odom__lin_y,odom__lin_z,odom__ang_x,odom__ang_y,odom__ang_z,imu__orient_x,imu__orient_y,imu__orient_z,imu__orient_w,imu__angvel_x,imu__angvel_y,imu__angvel_z,imu__acc_x,imu__acc_y,imu__acc_z,wheel_status__current_ma_left,wheel_status__current_ma_right,wheel_status__pwm_left,wheel_status__pwm_right
0.0,1788168180982,0.0,0.0,0.0008735606679692,0.0058925468474626,-0.9958112835884094,0.0912379622459411,0.0,0.0,0.0,0.0,0.0,0.0,0.0007002661004662,0.0058202259242534,-0.995813012123108,0.091225728392601,-0.0001513967257751,-0.0009142209699319,0.000710123492018,0.004343569278717,-0.023654818534851,-0.013808250427246,0,0,0,0
0.1,1788168181082,0.0,0.0,0.0008735606679692,0.0058925468474626,-0.9958112835884094,0.0912379622459411,0.0,0.0,0.0,0.0,0.0,0.0,0.0007002661004662,0.0058202259242534,-0.995813012123108,0.091225728392601,-0.0001513967257751,-0.0009142209699319,0.000710123492018,0.004343569278717,-0.023654818534851,-0.013808250427246,0,0,0,0
0.2,1788168181182,0.0,0.0,0.0008735606679692,0.0058925468474626,-0.9958112835884094,0.0912379622459411,0.0,0.0,0.0,0.0,0.0,0.0,0.0007002661004662,0.0058202259242534,-0.995813012123108,0.091225728392601,-0.0001513967257751,-0.0009142209699319,0.000710123492018,0.004343569278717,-0.023654818534851,-0.013808250427246,0,0,0,0
0.3,1788168181282,0.0,0.0,0.0008735606679692,0.0058925468474626,-0.9958112835884094,0.0912379622459411,0.0,0.0,0.0,0.0,0.0,0.0,0.0007002661004662,0.0058202259242534,-0.995813012123108,0.091225728392601,-0.0001513967257751,-0.0009142209699319,0.000710123492018,0.004343569278717,-0.023654818534851,-0.013808250427246,0,0,0,0
0.4,1788168181382,0.0,0.0,0.0008735606679692,0.0058925468474626,-0.9958112835884094,0.0912379622459411,0.0,0.0,0.0,0.0,0.0,0.0,0.0007002661004662,0.0058202259242534,-0.995813012123108,0.091225728392601,-0.0001513967257751,-0.0009142209699319,0.000710123492018,0.004343569278717,-0.023654818534851,-0.013808250427246,0,0,0,0
0.5,1788168181482,0.0,0.0,0.0008735606679692,0.0058925468474626,-0.9958112835884094,0.0912379622459411,0.0,0.0,0.0,0.0,0.0,0.0,0.0007002661004662,0.0058202259242534,-0.995813012123108,0.091225728392601,-0.0001513967257751,-0.0009142209699319,0.000710123492018,0.004343569278717,-0.023654818534851,-0.013808250427246,0,0,0,0
0.6,1788168181582,0.0,0.0,0.0008735606679692,0.0058925468474626,-0.9958112835884094,0.0912379622459411,0.0,0.0,0.0,0.0,0.0,0.0,0.0007002661004662,0.0058202259242534,-0.995813012123108,0.091225728392601,-0.0001513967257751,-0.0009142209699319,0.000710123492018,0.004343569278717,-0.023654818534851,-0.013808250427246,0,0,0,0
0.7,1788168181682,0.0,0.0,0.0008735606679692,0.0058925468474626,-0.9958112835884094,0.0912379622459411,0.0,0.0,0.0,0.0,0.0,0.0,0.0007002661004662,0.0058202259242534,-0.995813012123108,0.091225728392601,-0.0001513967257751,-0.0009142209699319,0.000710123492018,0.004343569278717,-0.023654818534851,-0.013808250427246,0,0,0,0
0.8,1788168181782,0.0,0.0,0.0008735606679692,0.0058925468474626,-0.9958112835884094,0.0912379622459411,0.0,0.0,0.0,0.0,0.0,0.0,0.0007002661004662,0.0058202259242534,-0.995813012123108,0.091225728392601,-0.0001513967257751,-0.0009142209699319,0.000710123492018,0.004343569278717,-0.023654818534851,-0.013808250427246,0,0,0,0
0.9,1788168181882,0.0,0.0,0.0008735606679692,0.0058925468474626,-0.9958112835884094,0.0912379622459411,0.0,0.0,0.0,0.0,0.0,0.0,0.0007002661004662,0.0058202259242534,-0.995813012123108,0.091225728392601,-0.0001513967257751,-0.0009142209699319,0.000710123492018,0.004343569278717,-0.023654818534851,-0.013808250427246,0,0,0,0
1.0,1788168181982,0.0,0.0,0.0008735606679692,0.0058925468474626,-0.9958112835884094,0.0912379622459411,0.0,0.0,0.0,0.0,0.0,0.0,0.0007002661004662,0.0058202259242534,-0.995813012123108,0.091225728392601,-0.0001513967257751,-0.0009142209699319,0.000710123492018,0.004343569278717,-0.023654818534851,-0.013808250427246,0,0,0,0
1.1,1788168182082,0.0,0.0,0.0008735606679692,0.0058925468474626,-0.9958112835884094,0.0912379622459411,0.0,0.0,0.0,0.0,0.0,0.0,0.0007002661004662,0.0058202259242534,-0.995813012123108,0.091225728392601,-0.0001513967257751,-0.0009142209699319,0.000710123492018,0.004343569278717,-0.023654818534851,-0.013808250427246,0,0,0,0
1.2,1788168182182,0.0,0.0,0.0008735606679692,0.0058925468474626,-0.9958112835884094,0.0912379622459411,0.0,0.0,0.0,0.0,0.0,0.0,0.0007002661004662,0.0058202259242534,-0.995813012123108,0.091225728392601,-0.0001513967257751,-0.0009142209699319,0.000710123492018,0.004343569278717,-0.023654818534851,-0.013808250427246,0,0,0,0
1.3,1788168182282,0.0,0.0,0.0008735606679692,0.0058925468474626,-0.9958112835884094,0.0912379622459411,0.0,0.0,0.0,0.0,0.0,0.0,0.0007002661004662,0.0058202259242534,-0.995813012123108,0.091225728392601,-0.0001513967257751,-0.0009142209699319,0.000710123492018,0.004343569278717,-0.023654818534851,-0.013808250427246,0,0,0,0
1.4,1788168182382,0.0,0.0,0.0008735606679692,0.0058925468474626,-0.9958112835884094,0.0912379622459411,0.0,0.0,0.0,0.0,0.0,0.0,0.0007002661004662,0.0058202259242534,-0.995813012123108,0.091225728392601,-0.0001513967257751,-0.0009142209699319,0.000710123492018,0.004343569278717,-0.023654818534851,-0.013808250427246,0,0,0,0
1.5,1788168182482,0.0,0.0,0.0008735606679692,0.0058925468474626,-0.9958112835884094,0.0912379622459411,0.0,0.0,0.0,0.0,0.0,0.0,0.0007002661004662,0.0058202259242534,-0.995813012123108,0.091225728392601,-0.0001513967257751,-0.0009142209699319,0.000710123492018,0.004343569278717,-0.023654818534851,-0.013808250427246,0,0,0,0
1.6,1788168182582,0.0,0.0,0.0008735606679692,0.0058925468474626,-0.9958112835884094,0.0912379622459411,0.0,0.0,0.0,0.0,0.0,0.0,0.0007002661004662,0.0058202259242534,-0.995813012123108,0.091225728392601,-0.0001513967257751,-0.0009142209699319,0.000710123492018,0.004343569278717,-0.023654818534851,-0.013808250427246,0,0,0,0
1.7,1788168182682,0.0,0.0,0.0008735606679692,0.0058925468474626,-0.9958112835884094,0.0912379622459411,0.0,0.0,0.0,0.0,0.0,0.0,0.0007002661004662,0.0058202259242534,-0.995813012123108,0.091225728392601,-0.0001513967257751,-0.0009142209699319,0.000710123492018,0.004343569278717,-0.023654818534851,-0.013808250427246,0,0,0,0
1.8,1788168182782,0.0,0.0,0.0008735606679692,0.0058925468474626,-0.9958112835884094,0.0912379622459411,0.0,0.0,0.0,0.0,0.0,0.0,0.0007002661004662,0.0058202259242534,-0.995813012123108,0.091225728392601,-0.0001513967257751,-0.0009142209699319,0.000710123492018,0.004343569278717,-0.023654818534851,-0.013808250427246,0,0,0,0
1.9,1788168182882,0.0,0.0,0.0008735606679692,0.0058925468474626,-0.9958112835884094,0.0912379622459411,0.0,0.0,0.0,0.0,0.0,0.0,0.0007002661004662,0.0058202259242534,-0.995813012123108,0.091225728392601,-0.0001513967257751,-0.0009142209699319,0.000710123492018,0.004343569278717,-0.023654818534851,-0.013808250427246,0,0,0,0
2.0,1788168182982,0.0,0.0,0.0008735606679692,0.0058925468474626,-0.9958112835884094,0.0912379622459411,0.0,0.0,0.0,0.0,0.0,0.0,0.0007002661004662,0.0058202259242534,-0.995813012123108,0.091225728392601,-0.0001513967257751,-0.0009142209699319,0.000710123492018,0.004343569278717,-0.023654818534851,-0.013808250427246,0,0,0,0
2.1,1788168183082,0.0,0.0,0.0008735606679692,0.0058925468474626,-0.9958112835884094,0.0912379622459411,0.0,0.0,0.0,0.0,0.0,0.0,0.0007002661004662,0.0058202259242534,-0.995813012123108,0.091225728392601,-0.0001513967257751,-0.0009142209699319,0.000710123492018,0.004343569278717,-0.023654818534851,-0.013808250427246,0,0,0,0
2.2,1788168183182,0.0,0.0,0.0008735606679692,0.0058925468474626,-0.9958112835884094,0.0912379622459411,0.0,0.0,0.0,0.0,0.0,0.0,0.0007002661004662,0.0058202259242534,-0.995813012123108,0.091225728392601,-0.0001513967257751,-0.0009142209699319,0.000710123492018,0.004343569278717,-0.023654818534851,-0.013808250427246,0,0,0,0
2.3,1788168183282,0.0,0.0,0.0008735606679692,0.0058925468474626,-0.9958112835884094,0.0912379622459411,0.0,0.0,0.0,0.0,0.0,0.0,0.0007002661004662,0.0058202259242534,-0.995813012123108,0.091225728392601,-0.0001513967257751,-0.0009142209699319,0.000710123492018,0.004343569278717,-0.023654818534851,-0.013808250427246,0,0,0,0
2.4,1788168183382,0.0,0.0,0.0008735606679692,0.0058925468474626,-0.9958112835884094,0.0912379622459411,0.0,0.0,0.0,0.0,0.0,0.0,0.0007002661004662,0.0058202259242534,-0.995813012123108,0.091225728392601,-0.0001513967257751,-0.0009142209699319,0.000710123492018,0.004343569278717,-0.023654818534851,-0.013808250427246,0,0,0,0
2.5,1788168183482,0.0,0.0,0.0008735606679692,0.0058925468474626,-0.9958112835884094,0.0912379622459411,0.0,0.0,0.0,0.0,0.0,0.0,0.0007002661004662,0.0058202259242534,-0.995813012123108,0.091225728392601,-0.0001513967257751,-0.0009142209699319,0.000710123492018,0.004343569278717,-0.023654818534851,-0.013808250427246,0,0,0,0
2.6,1788168183582,0.0,0.0,0.0008735606679692,0.0058925468474626,-0.9958112835884094,0.0912379622459411,0.0,0.0,0.0,0.0,0.0,0.0,0.000721862539649,0.0058380858972668,-0.9958089590072632,0.0912683457136154,-0.0003850394182373,0.0004797273009573,0.0003361124133166,-0.0202813148498535,-0.0232812166213989,-0.0282850265502929,0,0,0,0
2.7,1788168183682,0.0,0.0,0.0008735606679692,0.0058925468474626,-0.9958112835884094,0.0912379622459411,0.0,0.0,0.0,0.0,0.0,0.0,0.0006925594061613,0.0058564469218254,-0.9958096742630004,0.0912603214383125,-0.0013924124405075,0.0001402920996163,0.0003150761346675,0.0185655951499938,0.0237131118774414,0.0008220672607421,0,0,0,0
2.8,1788168183782,0.0,0.0,0.0008735606679692,0.0058925468474626,-0.9958112835884094,0.0912379622459411,0.0,0.0,0.0,0.0,0.0,0.0,0.0006847511976957,0.0058561293408274,-0.9958090782165528,0.0912667512893676,-2.0273849381441497e-05,-0.0003928298389908,0.0003213555474447,-0.0048338174819946,-0.0372437834739685,-0.0228862762451171,0,0,0,0
2.9,1788168183882,0.0,0.0,0.0008735606679692,0.0058925468474626,-0.9958112835884094,0.0912379622459411,0.0,0.0,0.0,0.0,0.0,0.0,0.0006724428385496,0.0058161197230219,-0.9958085417747498,0.0912749320268631,0.0016151241633202,-3.5521007414545826e-05,0.0003303484572585,-0.001599371433258,0.0140479207038879,-0.0118875503540039,0,0,0,0
3.0,1788168183982,0.0,0.0,0.0008735606679692,0.0058925468474626,-0.9958112835884094,0.0912379622459411,0.0,0.0,0.0,0.0,0.0,0.0,0.0006462009623646,0.0058089913800358,-0.9958096742630004,0.0912632793188095,-0.0002813120725476,-0.000634601060454,-8.116383683785525e-05,-0.016563057899475,-0.0327975749969482,0.004012107849121,0,0,0,0
3.1,1788168184082,0.0,0.0,0.0008735606679692,0.0058925468474626,-0.9958112835884094,0.0912379622459411,0.0,0.0,0.0,0.0,0.0,0.0,0.0006188256666064,0.0058448016643524,-0.9958051443099976,0.0913101583719253,-0.0011520567482819,0.0004627646683531,0.0009691451067149,-0.020664095878601,0.0146143436431884,0.0149745941162109,0,0,0,0
3.2,1788168184182,0.0,0.0,0.0008735606679692,0.0058925468474626,-0.9958112835884094,0.0912379622459411,0.0,0.0,0.0,0.0,0.0,0.0,0.0006188256666064,0.0058448016643524,-0.9958051443099976,0.0913101583719253,-0.0011520567482819,0.0004627646683531,0.0009691451067149,-0.020664095878601,0.0146143436431884,0.0149745941162109,0,0,0,0
3.3,1788168184282,0.0,0.0,0.0008735606679692,0.0058925468474626,-0.9958112835884094,0.0912379622459411,0.0,0.0,0.0,0.0,0.0,0.0,0.0006613796576857,0.0058213416486978,-0.99580717086792,0.0912899523973465,0.0015157729864898,-0.0008852400305414,-0.0008521165628326,-0.0107690691947937,0.007026731967926,-0.0119647979736328,0,0,0,0
3.4,1788168184382,0.0,0.0,0.0008735606679692,0.0058925468474626,-0.9958112835884094,0.0912379622459411,0.0,0.0,0.0,0.0,0.0,0.0,0.0006685303524136,0.0058514503762125,-0.9958077073097228,0.091281846165657,-0.0011536961015076,0.0012963100094862,0.0006354625630828,-0.0177292227745056,-0.0211002826690673,-0.0174999237060546,0,0,0,0
3.5,1788168184482,0.0,0.0,0.0008735606679692,0.0058925468474626,-0.9958112835884094,0.0912379622459411,0.0,0.0,0.0,0.0,0.0,0.0,0.0006584571674466,0.0058465227484703,-0.9958012104034424,0.0913529098033905,0.0003449030812377,-0.0006879293387448,-0.0005331424509902,0.0160173177719116,-0.0015971064567565,0.025832176208496,0,0,0,0
3.6,1788168184582,0.0,0.0,0.0008735606679692,0.0058925468474626,-0.9958112835884094,0.0912379622459411,0.0,0.0,0.0,0.0,0.0,0.0,0.0006584571674466,0.0058465227484703,-0.9958012104034424,0.0913529098033905,0.0003449030812377,-0.0006879293387448,-0.0005331424509902,0.0160173177719116,-0.0015971064567565,0.025832176208496,0,0,0,0
3.7,1788168184682,0.0,0.0,0.0008735606679692,0.0058925468474626,-0.9958112835884094,0.0912379622459411,0.0,0.0,0.0,0.0,0.0,0.0,0.0006276099011301,0.0058079957962036,-0.9957994222640992,0.0913744568824768,0.0002275805663405,-0.0003817620392088,0.0007081249942858,-0.0095837712287902,-0.0038821697235107,-0.0209941864013671,0,0,0,0
3.8,1788168184782,0.0,0.0,0.0008735606679692,0.0058925468474626,-0.9958112835884094,0.0912379622459411,0.0,0.0,0.0,0.0,0.0,0.0,0.0006392691284418,0.0058439020067453,-0.9958010911941528,0.0913551226258277,-0.0005897826437745,0.0007824900532044,0.0002143686363105,-0.0148466825485229,0.0056245923042297,0.018538475036621,0,0,0,0
3.9,1788168184882,0.0,0.0,0.0008735606679692,0.0058925468474626,-0.9958112835884094,0.0912379622459411,0.0,0.0,0.0,0.0,0.0,0.0,0.00070730317384,0.0058621326461434,-0.9957983493804932,0.0913832411170005,-3.456672908284935e-05,-0.0001175917234886,5.258421263785775e-05,-0.0044544339179992,0.0023128986358642,0.0095844268798828,0,0,0,0
4.0,1788168184982,0.0,0.0,0.0008735606679692,0.0058925468474626,-0.9958112835884094,0.0912379622459411,0.0,0.0,0.0,0.0,0.0,0.0,0.0006968239322304,0.0058624679222702,-0.9957994222640992,0.0913715288043022,0.0012223617110785,-0.0005975511714041,-0.0002128335564791,-0.0064495801925659,0.0095295310020446,0.0096054077148437,0,0,0,0
4.1,1788168185082,0.0,0.0,0.0008735606679692,0.0058925468474626,-0.9958112835884094,0.0912379622459411,0.0,0.0,0.0,0.0,0.0,0.0,0.0007284684106707,0.0058953436091542,-0.9958000779151917,0.091361217200756,-0.0004494918682836,0.0004237267438315,0.0006022121774064,-0.0147106051445007,-0.0060069561004638,0.000523567199707,0,0,0,0
4.2,1788168185182,0.0,0.0,0.0008735606679692,0.0058925468474626,-0.9958112835884094,0.0912379622459411,0.0,0.0,0.0,0.0,0.0,0.0,0.0007476517930626,0.0059111341834068,-0.9957960844039916,0.0914032906293869,0.0003717309507013,0.0007104334084495,0.0010887371112344,-0.0017085671424865,-0.0003287196159362,-0.00299072265625,0,0,0,0
4.3,1788168185282,0.0,0.0,0.0008735606679692,0.0058925468474626,-0.9958112835884094,0.0912379622459411,0.0,0.0,0.0,0.0,0.0,0.0,0.000747000798583,0.0059225503355264,-0.9957942962646484,0.0914229899644851,-0.0005896045235973,1.443472489098306e-05,0.0010176278822762,-0.0069983601570129,0.0179401636123657,-0.0226926803588867,0,0,0,0
4.4,1788168185382,0.0,0.0,0.0008735606679692,0.0058925468474626,-0.9958112835884094,0.0912379622459411,0.0,0.0,0.0,0.0,0.0,0.0,0.0007742876186966,0.0059033101424574,-0.9957940578460692,0.0914267748594284,-0.0007282461695099,0.0029433997021941,-0.0007750257011835,-0.0083230137825012,-0.0094532370567321,-0.0156354904174804,0,0,0,0
4.5,1788168185482,0.0,0.0,0.0008735606679692,0.0058925468474626,-0.9958112835884094,0.0912379622459411,0.0,0.0,0.0,0.0,0.0,0.0,0.0007702931761741,0.0058971177786588,-0.9957940578460692,0.0914268046617508,-0.0007322961046181,0.0001596422946302,-0.0002270922626837,-0.0100366473197937,-0.0165834426879882,-0.0264549255371093,0,0,0,0
4.6,1788168185582,0.0,0.0,0.0008735606679692,0.0058925468474626,-0.9958112835884094,0.0912379622459411,0.0,0.0,0.0,0.0,0.0,0.0,0.000787385739386,0.0058892210945487,-0.9957980513572692,0.0913830697536468,0.0003502622771963,0.0006587272616412,-0.0012228778588447,-0.0046218037605285,0.0062968730926513,0.0131740570068359,0,0,0,0
4.7,1788168185682,0.0,0.0,0.0008735606679692,0.0058925468474626,-0.9958112835884094,0.0912379622459411,0.0,0.0,0.0,0.0,0.0,0.0,0.000787385739386,0.0058892210945487,-0.9957980513572692,0.0913830697536468,0.0003502622771963,0.0006587272616412,-0.0012228778588447,-0.0046218037605285,0.0062968730926513,0.0131740570068359,0,0,0,0
4.8,1788168185782,0.0,0.0,0.0008735606679692,0.0058925468474626,-0.9958112835884094,0.0912379622459411,0.0,0.0,0.0,0.0,0.0,0.0,0.0007932167500257,0.0058687198907136,-0.9958012700080872,0.0913495570421218,0.0004455831930495,0.0004518832828439,-0.0006065394001261,-0.0240769982337951,-0.0030349493026733,-0.0103082656860351,0,0,0,0
4.9,1788168185882,0.0,0.0,0.0008735606679692,0.0058925468474626,-0.9958112835884094,0.0912379622459411,0.0,0.0,0.0,0.0,0.0,0.0,0.0007771765813231,0.0058413241058588,-0.9957972168922424,0.0913955941796302,0.0007667947745522,-0.0005580696153796,0.0013737960676359,0.0095512270927429,-0.0178992748260498,-0.0048379898071289,0,0,0,0
5.0,1788168185982,0.0,0.0,0.0008735606679692,0.0058925468474626,-0.9958112835884094,0.0912379622459411,0.0,0.0,0.0,0.0,0.0,0.0,0.000803873874247,0.0058506410568952,-0.9957979917526244,0.0913869887590408,-0.0001703538123968,0.000685833376478,-0.0002117516087115,-0.0025129914283752,0.0145347714424133,0.0024271011352539,0,0,0,0
5.1,1788168186082,0.0,0.0,0.0008735606679692,0.0058925468474626,-0.9958112835884094,0.0912379622459411,0.0,0.0,0.0,0.0,0.0,0.0,0.0008203210309147,0.0058806585147976,-0.9958044290542604,0.091314323246479,-0.0008495132771988,-0.0003836474901532,-0.0004968221693898,-0.0164855122566223,-0.0297737717628479,-0.0032100677490234,0,0,0,0
5.2,1788168186182,0.0,0.0,0.0008735606679692,0.0058925468474626,-0.9958112835884094,0.0912379622459411,0.0,0.0,0.0,0.0,0.0,0.0,0.0008243843913078,0.0059038670733571,-0.9958065152168274,0.0912896916270256,-0.0004497102755958,2.20981157367256e-05,0.0001906661305108,-0.0111274123191833,-0.0007266402244567,0.0310659408569335,0,0,0,0
5.3,1788168186282,0.0,0.0,0.0008735606679692,0.0058925468474626,-0.9958112835884094,0.0912379622459411,0.0,0.0,0.0,0.0,0.0,0.0,0.0008243843913078,0.0059038670733571,-0.9958065152168274,0.0912896916270256,-0.0004497102755958,2.20981157367256e-05,0.0001906661305108,-0.0111274123191833,-0.0007266402244567,0.0310659408569335,0,0,0,0
5.4,1788168186382,0.0,0.0,0.0008735606679692,0.0058925468474626,-0.9958112835884094,0.0912379622459411,0.0,0.0,0.0,0.0,0.0,0.0,0.0008243843913078,0.0059038670733571,-0.9958065152168274,0.0912896916270256,-0.0004497102755958,2.20981157367256e-05,0.0001906661305108,-0.0111274123191833,-0.0007266402244567,0.0310659408569335,0,0,0,0
5.5,1788168186482,0.0,0.0,0.0008735606679692,0.0058925468474626,-0.9958112835884094,0.0912379622459411,0.0,0.0,0.0,0.0,0.0,0.0,0.0007741758599877,0.0058994088321924,-0.9958066940307616,0.0912887826561927,-0.0001706139384659,-2.47020976814767e-05,0.0011435399716479,-0.0281605720520019,-0.0203536748886108,0.0039596557617187,0,0,0,0
5.6,1788168186582,0.0,0.0,0.0008735606679692,0.0058925468474626,-0.9958112835884094,0.0912379622459411,0.0,0.0,0.0,0.0,0.0,0.0,0.0008023399859666,0.0059107495471835,-0.995805323123932,0.0913020819425582,-0.0005460053184748,0.000523356523185,0.0007011446423142,-0.0204325914382934,-0.011229395866394,0.011214256286621,0,0,0,0
5.7,1788168186682,0.0,0.0,0.0008735606679692,0.0058925468474626,-0.9958112835884094,0.0912379622459411,0.0,0.0,0.0,0.0,0.0,0.0,0.000807199627161,0.0059057660400867,-0.9958046078681946,0.0913111940026283,0.0013687095431228,0.0001716926312304,0.0001647134319331,-0.0005717873573303,0.0138245820999145,0.0078125,0,0,0,0
5.8,1788168186782,0.0,0.0,0.0008735606679692,0.0058925468474626,-0.9958112835884094,0.0912379622459411,0.0,0.0,0.0,0.0,0.0,0.0,0.0008085584267973,0.005896620452404,-0.9958078861236572,0.091275505721569,-0.0004460727264894,-0.0006550557336303,-0.0006353186891025,-0.0112878680229187,-0.0078521966934204,-0.0049028396606445,0,0,0,0
5.9,1788168186882,0.0,0.0,0.0008735606679692,0.0058925468474626,-0.9958112835884094,0.0912379622459411,0.0,0.0,0.0,0.0,0.0,0.0,0.0008006719872355,0.0058877114206552,-0.9958102107048036,0.0912504866719245,0.0002671568482603,-0.0002780755203002,-0.0008213751856331,0.0154475569725036,-0.0331852436065673,0.002288818359375,0,0,0,0
6.0,1788168186982,0.0,0.0,0.0008735606679692,0.0058925468474626,-0.9958112835884094,0.0912379622459411,0.0,0.0,0.0,0.0,0.0,0.0,0.0008198404684662,0.0059177512302994,-0.995810091495514,0.091249294579029,-0.001361074366383,0.0018599107876811,-0.0007197773363427,0.0069175362586975,-0.0236237049102783,-0.003096580505371,0,0,0,0
6.1,1788168187082,0.0,0.0,0.0008735606679692,0.0058925468474626,-0.9958112835884094,0.0912379622459411,0.0,0.0,0.0,0.0,0.0,0.0,0.0007711732760071,0.0058813067153096,-0.9958078265190125,0.0912767574191093,0.0005008435773169,-0.0010696090151517,5.354561431022745e-05,-0.0121122002601623,0.0080312490463256,0.0095195770263671,0,0,0,0
6.2,1788168187182,0.0,0.0,0.0008735606679692,0.0058925468474626,-0.9958112835884094,0.0912379622459411,0.0,0.0,0.0,0.0,0.0,0.0,0.0008040955290198,0.0059073595330119,-0.995807409286499,0.09128088504076,-4.343591358989445e-05,0.0001568688979644,-0.0003465521027065,0.0083919763565063,-0.0148106217384338,-0.0030593872070312,0,0,0,0
6.3,1788168187282,0.0,0.0,0.0008735606679692,0.0058925468474626,-0.9958112835884094,0.0912379622459411,0.0,0.0,0.0,0.0,0.0,0.0,0.0007883254438638,0.0059094810858368,-0.995808243751526,0.0912712886929512,-0.0001780756626493,-0.0007775580139363,-0.0004895679477611,0.0080313682556152,-0.0201817750930786,0.0094900131225585,0,0,0,0
6.4,1788168187382,0.0,0.0,0.0008735606679692,0.0058925468474626,-0.9958112835884094,0.0912379622459411,0.0,0.0,0.0,0.0,0.0,0.0,0.00075189396739,0.005902680568397,-0.9958063960075378,0.0912911817431449,0.0001330924510024,-0.00073362184186,-0.0003941449553454,-0.0320444107055664,0.0032511353492736,-0.0265121459960937,0,0,0,0
6.5,1788168187482,0.0,0.0,0.0008735606679692,0.0058925468474626,-0.9958112835884094,0.0912379622459411,0.0,0.0,0.0,0.0,0.0,0.0,0.0007324861362576,0.0059125171974301,-0.9958036541938782,0.0913210660219192,-0.0005310208513711,-0.0025032700300195,-4.864704675783869e-05,-0.0109723806381225,0.032094657421112,0.0024385452270507,0,0,0,0
6.6,1788168187582,0.0,0.0,0.0008735606679692,0.0058925468474626,-0.9958112835884094,0.0912379622459411,0.0,0.0,0.0,0.0,0.0,0.0,0.0006903279572725,0.0058811167255043,-0.9958047866821288,0.0913116931915283,-0.000696511449004,-0.0001930785598812,0.00031090961517,-0.0010796785354614,0.001010239124298,0.0041418075561523,0,0,0,0
6.7,1788168187682,0.0,0.0,0.0008735606679692,0.0058925468474626,-0.9958112835884094,0.0912379622459411,0.0,0.0,0.0,0.0,0.0,0.0,0.0006903279572725,0.0058811167255043,-0.9958047866821288,0.0913116931915283,-0.000696511449004,-0.0001930785598812,0.00031090961517,-0.0010796785354614,0.001010239124298,0.0041418075561523,0,0,0,0
6.8,1788168187782,0.0,0.0,0.0008735606679692,0.0058925468474626,-0.9958112835884094,0.0912379622459411,0.0,0.0,0.0,0.0,0.0,0.0,0.0006903279572725,0.0058811167255043,-0.9958047866821288,0.0913116931915283,-0.000696511449004,-0.0001930785598812,0.00031090961517,-0.0010796785354614,0.001010239124298,0.0041418075561523,0,0,0,0
6.9,1788168187882,0.0,0.0,0.0008735606679692,0.0058925468474626,-0.9958112835884094,0.0912379622459411,0.0,0.0,0.0,0.0,0.0,0.0,0.0007306560873985,0.0058526610955595,-0.9958032965660096,0.0913287997245788,0.0003365229812177,0.0004880352004651,0.0006532049398902,-0.0128825306892395,-0.0265385508537292,-0.0014257431030273,0,0,0,0
7.0,1788168187982,0.0,0.0,0.0008735606679692,0.0058925468474626,-0.9958112835884094,0.0912379622459411,0.0,0.0,0.0,0.0,0.0,0.0,0.0007232371717691,0.0058357194066047,-0.9958103895187378,0.0912525504827499,-0.0009648072425148,0.0012284143220283,-0.0020842595831678,0.015767753124237,0.0019720196723937,-0.0227384567260742,0,0,0,0
7.1,1788168188082,0.0,0.0,0.0008735606679692,0.0058925468474626,-0.9958112835884094,0.0912379622459411,0.0,0.0,0.0,0.0,0.0,0.0,0.0007129460573196,0.0058249374851584,-0.9958118200302124,0.091238260269165,1.2531745911825125e-06,-0.0001115759301915,-0.0004174616397787,-0.0150961279869079,-0.0055094361305236,0.0022344589233398,0,0,0,0
7.2,1788168188182,0.0,0.0,0.0008735606679692,0.0058925468474626,-0.9958112835884094,0.0912379622459411,0.0,0.0,0.0,0.0,0.0,0.0,0.0007129460573196,0.0058249374851584,-0.9958118200302124,0.091238260269165,1.2531745911825125e-06,-0.0001115759301915,-0.0004174616397787,-0.0150961279869079,-0.0055094361305236,0.0022344589233398,0,0,0,0
7.3,1788168188282,0.0,0.0,0.0008735606679692,0.0058925468474626,-0.9958112835884094,0.0912379622459411,0.0,0.0,0.0,0.0,0.0,0.0,0.0007129460573196,0.0058249374851584,-0.9958118200302124,0.091238260269165,1.2531745911825125e-06,-0.0001115759301915,-0.0004174616397787,-0.0150961279869079,-0.0055094361305236,0.0022344589233398,0,0,0,0
7.4,1788168188382,0.0,0.0,0.0008735606679692,0.0058925468474626,-0.9958112835884094,0.0912379622459411,0.0,0.0,0.0,0.0,0.0,0.0,0.0006621787324547,0.0057607004418969,-0.9958063960075378,0.091301642358303,-0.0005357051903069,-0.0003507106478953,0.0012848121858082,-0.0088712573051452,-0.0406650900840759,-0.030226707458496,0,0,0,0
7.5,1788168188482,0.0,0.0,0.0008735606679692,0.0058925468474626,-0.9958112835884094,0.0912379622459411,0.0,0.0,0.0,0.0,0.0,0.0,0.0006714947521686,0.0057438574731349,-0.9958004355430604,0.0913679152727127,8.385278292992115e-05,-1.9703056005476645e-05,0.0004050628141936,-0.0268168449401855,-0.0052209496498107,0.002166748046875,0,0,0,0
7.6,1788168188582,0.0,0.0,0.0008735606679692,0.0058925468474626,-0.9958112835884094,0.0912379622459411,0.0,0.0,0.0,0.0,0.0,0.0,0.0006643291562795,0.0057308031246066,-0.9958017468452454,0.0913540869951248,-0.0008367698579293,-0.0008192924609917,-0.0001173392084216,-0.0126299858093261,-0.0054718255996704,0.0058145523071289,0,0,0,0
7.7,1788168188682,0.0,0.0,0.0008735606679692,0.0058925468474626,-0.9958112835884094,0.0912379622459411,0.0,0.0,0.0,0.0,0.0,0.0,0.0006629638373851,0.0057244971394538,-0.995802879333496,0.0913423970341682,-0.0003061246826222,0.0005464884180251,5.403748763949652e-05,-0.0036625862121582,0.0249702930450439,0.0005903244018554,0,0,0,0
7.8,1788168188782,0.0,0.0,0.0008735606679692,0.0058925468474626,-0.9958112835884094,0.0912379622459411,0.0,0.0,0.0,0.0,0.0,0.0,0.0006629638373851,0.0057244971394538,-0.995802879333496,0.0913423970341682,-0.0003061246826222,0.0005464884180251,5.403748763949652e-05,-0.0036625862121582,0.0249702930450439,0.0005903244018554,0,0,0,0
7.9,1788168188882,0.0,0.0,0.0008735606679692,0.0058925468474626,-0.9958112835884094,0.0912379622459411,0.0,0.0,0.0,0.0,0.0,0.0,0.0007119141519069,0.005756058730185,-0.9958000779151917,0.0913711190223693,-0.0009080533139982,0.0002288595179717,-0.00068556577101,-0.0224356651306152,-0.0176320075988769,0.009307861328125,0,0,0,0
8.0,1788168188982,0.0,0.0,0.0008735606679692,0.0058925468474626,-0.9958112835884094,0.0912379622459411,0.0,0.0,0.0,0.0,0.0,0.0,0.0007115388289093,0.0057391142472624,-0.9958036541938782,0.0913327783346176,-0.0004014537222325,-0.0004899033770616,-0.0003336386182212,-0.0152565836906433,3.993511199951172e-05,0.0022230148315429,0,0,0,0
8.1,1788168189082,0.0,0.0,0.0008735606679692,0.0058925468474626,-0.9958112835884094,0.0912379622459411,0.0,0.0,0.0,0.0,0.0,0.0,0.0007115388289093,0.0057391142472624,-0.9958036541938782,0.0913327783346176,-0.0004014537222325,-0.0004899033770616,-0.0003336386182212,-0.0152565836906433,3.993511199951172e-05,0.0022230148315429,0,0,0,0
8.2,1788168189182,0.0,0.0,0.0008735606679692,0.0058925468474626,-0.9958112835884094,0.0912379622459411,0.0,0.0,0.0,0.0,0.0,0.0,0.0007115388289093,0.0057391142472624,-0.9958036541938782,0.0913327783346176,-0.0004014537222325,-0.0004899033770616,-0.0003336386182212,-0.0152565836906433,3.993511199951172e-05,0.0022230148315429,0,0,0,0
8.3,1788168189282,0.0,0.0,0.0008735606679692,0.0058925468474626,-0.9958112835884094,0.0912379622459411,0.0,0.0,0.0,0.0,0.0,0.0,0.0006700744852423,0.0057451920583844,-0.9957962036132812,0.091413490474224,-0.0004296586819993,-0.001348247890816,0.0009226350091936,-0.0232450366020202,-0.0177331566810607,0.0057029724121093,0,0,0,0
8.4,1788168189382,0.0,0.0,0.0008735606679692,0.0058925468474626,-0.9958112835884094,0.0912379622459411,0.0,0.0,0.0,0.0,0.0,0.0,0.0006700744852423,0.0057451920583844,-0.9957962036132812,0.091413490474224,-0.0004296586819993,-0.001348247890816,0.0009226350091936,-0.0232450366020202,-0.0177331566810607,0.0057029724121093,0,0,0,0
8.5,1788168189482,-0.6760563254356384,0.6478873491287231,0.0007627765880897,0.0058633009903132,-0.9957215785980223,0.0922147557139396,0.002798242613528,-0.0034420067910493,1.0973436510339815e-09,0.0007598483934998,-0.0051134033128619,0.0422400906682014,0.0006529856473207,0.0057616485282778,-0.9957892894744872,0.091487742960453,-0.0012082472200861,0.0004144307972599,0.0039683716079209,0.0512595772743225,0.0540482401847839,0.0302162170410156,269,171,-8720,8719
8.6,1788168189582,-3.380281686782837,3.4647886753082275,0.0004106343840248,0.005832627415657,-0.9914528131484984,0.1303345710039138,0.0002395124579283,0.0026363755932849,1.667980808309184e-06,0.0002024019922828,-0.00793765950948,1.055222988128662,0.0005486011505126,0.0057512978091835,-0.9867902398109436,0.1619004607200622,0.0006699756289917,-0.01085766757605,1.1694081348619243,-0.0146721601486206,-0.3264366388320923,0.8203983306884766,33,47,-9642,9303
8.7,1788168189682,-3.0985915660858154,3.126760482788086,0.0004815215943381,0.0056350263766944,-0.9828980565071106,0.1840639561414718,0.0057408940219096,-0.0106569649135462,-2.064394797632173e-07,0.0029263291507959,-0.0091817798092961,1.063830852508545,0.0005736825987696,0.0056953011080622,-0.9753392934799194,0.2206368446350097,0.0035192135970274,-0.0057987499380986,1.1106721126907353,0.0637480616569519,-0.3154725432395935,0.0358524322509765,110,96,-9881,9525
8.8,1788168189782,-3.2676055431365967,3.323943614959717,0.0007322459714487,0.0057755205780267,-0.9714601039886476,0.2371316254138946,0.0023485453522418,-0.0046556628705933,1.631229818793561e-07,-0.0014650104567408,-0.001361696049571,0.9768124222755432,0.0005038706585764,0.0058532077819108,-0.9657264947891236,0.2594952285289764,-0.0074876605879845,-0.0187748614365445,1.1128328883211671,0.0893065333366394,-0.4732828736305237,-0.442453384399414,52,63,-9403,9043
8.9,1788168189882,-3.323943614959717,3.2957746982574463,0.0005642713513225,0.0058357380330562,-0.9588855504989624,0.2837325036525726,0.002495541548832,-0.010497408657392,5.856954743126715e-07,-0.0022605506237596,-0.0021335748024284,1.005229115486145,0.0008293977007269,0.0058460738509893,-0.9531157612800598,0.3025482892990112,0.0006067299212476,0.0083386092415983,1.0610812067394386,-0.0031119585037231,-0.5247727036476135,-0.2383394241333007,68,57,-9317,8965
9.0,1788168189982,-3.2676055431365967,3.239436626434326,0.0011053041089326,0.0055710566230118,-0.9443551301956176,0.3288785815238952,0.0084190856253147,-0.0110737811096756,-1.3809878391019449e-06,0.0071984943933784,-0.0012785833096131,0.9967942237854004,0.0011611422523856,0.0055950675159692,-0.9420336484909058,0.3354698121547699,-0.0011678694514739,0.0025909410354613,1.0077501430600015,-0.3771003484725952,0.112116515636444,0.8780431747436523,69,61,-9442,9138
9.1,1788168190082,-3.211267709732056,3.239436626434326,0.0011053041089326,0.0055710566230118,-0.9443551301956176,0.3288785815238952,0.0084190856253147,-0.0110737811096756,-1.3809878391019449e-06,0.0071984943933784,-0.0012785833096131,0.9967942237854004,0.0012548882514238,0.005596600472927,-0.9333878755569458,0.3588231801986694,0.0034755373768982,0.0177906509545613,0.9103705159543728,0.1072361469268798,-0.2809565663337707,0.3091402053833008,67,88,-9624,9462
9.2,1788168190182,-3.211267709732056,3.239436626434326,0.0011053041089326,0.0055710566230118,-0.9443551301956176,0.3288785815238952,0.0084190856253147,-0.0110737811096756,-1.3809878391019449e-06,0.0071984943933784,-0.0012785833096131,0.9967942237854004,0.0011414634063839,0.0060905618593096,-0.904358446598053,0.4267289042472839,-0.0190860060632106,0.0224562946303576,0.9874744780010032,0.1027669310569763,0.0622541308403015,-1.5699348449707031,67,88,-9624,9462
9.3,1788168190282,-3.211267709732056,3.239436626434326,0.0013030595146119,0.0057993656955659,-0.8949677348136902,0.44609135389328,0.0083268288904252,-0.0067727161187001,5.458637623828283e-07,0.0078322384506464,0.0007867935346439,1.005123734474182,0.0013949079439043,0.0057737622410058,-0.8933319449424744,0.4493583142757416,0.0120478524944707,-0.0015543673496178,1.0083834501062363,0.0034371018409729,-0.019974410533905,-0.0979318618774414,67,88,-9624,9462
9.4,1788168190382,-3.211267709732056,3.436619758605957,0.0012225625105202,0.0057683270424604,-0.8612789511680603,0.5080981254577637,0.0054523846859382,-0.0068706662401795,-4.435425373675594e-07,-0.0086518609896302,-0.005748480092734,0.9749056696891784,0.0011509619653224,0.0058048730716109,-0.857580840587616,0.5143152475357056,-0.0167603223288613,-0.0184778563600248,0.9667052708101966,-0.0871433019638061,-0.1230228543281555,0.6699752807617188,67,88,-9624,9462
9.5,1788168190482,-3.239436626434326,3.2957746982574463,0.0011081001721322,0.0058950236998498,-0.8357155919075012,0.5491297245025635,0.0027603083852784,-0.0069234617316346,-5.540231841960216e-07,-0.0142549835145473,0.000737416150514,0.981130838394165,0.0012938026338815,0.0058638229966163,-0.8390771746635437,0.5439792275428772,-0.0144771261127373,0.0140632820162703,0.9910130288512432,-0.2657091617584228,0.4541075229644775,-0.262359619140625,67,88,-9624,9462
9.6,1788168190582,-3.239436626434326,3.2957746982574463,0.0011081001721322,0.0058950236998498,-0.8357155919075012,0.5491297245025635,0.0027603083852784,-0.0069234617316346,-5.540231841960216e-07,-0.0142549835145473,0.000737416150514,0.981130838394165,0.0015973383560776,0.0062100617215037,-0.7991222143173218,0.6011343598365784,0.0006013410033827,0.0125920443432297,0.8480363995444636,0.3215444684028625,-0.4464932084083557,-0.6550664901733398,67,88,-9624,9462
9.7,1788168190682,-3.183098554611206,3.239436626434326,0.0016709482297301,0.0061538368463516,-0.7941158413887024,0.6077330112457275,0.009586604175882,-0.0122662926436915,-7.9376885592585e-07,0.004286712501198,0.0037383590824902,1.0092411041259766,0.0015992987900972,0.0066603319719433,-0.7684096097946167,0.6399216651916504,-0.0167737143176431,-0.0021782306385608,1.0171867251244653,0.3007471561431885,-0.4981331825256347,0.0972652435302734,83,58,-9689,9240
9.8,1788168190782,-3.239436626434326,3.2676055431365967,0.0016066413372755,0.0065792347304522,-0.7592873573303223,0.6507202386856079,0.0049232934670067,-0.0101873699814949,1.1771829820700202e-06,-0.0037126170936971,-0.0040584607049822,1.007880926132202,0.0008519431576132,0.0066494513303041,-0.7285292744636536,0.6849818825721741,-0.0091310832761068,0.0153963003359306,1.038992749068825,-0.0265651941299438,-0.0884496569633483,0.8339347839355469,53,73,-9265,9345
9.9,1788168190882,-3.126760482788086,3.323943614959717,0.0007349040824919,0.0066461712121963,-0.7110267877578735,0.7031331062316895,0.0065995610048942,-0.0049268420580333,6.220230326330555e-07,-0.0087249418720602,-0.0025816294364631,0.9675769805908204,0.000590281561017,0.0062235435470938,-0.6903566122055054,0.7234423160552979,0.0010962338737083,-0.0188733699468787,0.9793348451344572,-0.1654980182647705,0.4793368577957153,-0.6192121505737305,82,78,-9847,8986
10.0,1788168190982,-3.126760482788086,3.2676055431365967,0.0006435071118175,0.0063140233978629,-0.6940718293190002,0.7198778390884399,0.0047591980004539,-0.0108947605866225,5.487300581819446e-07,0.0019714136142283,-0.016699044033885,1.0013431310653689,0.0004470292478799,0.0063732275739312,-0.6759276390075684,0.7369404435157776,-0.0148538901051795,-0.0029157631776131,0.9591186855580532,0.011082112789154,-0.4015319943428039,-0.3526973724365234,82,78,-9847,8986
10.1,1788168191082,-3.126760482788086,3.2676055431365967,0.000247465679422,0.006065281573683,-0.652729332447052,0.7575668692588806,0.0074908233038466,-0.0098080471722035,2.1877450380346783e-06,-0.0040786913596093,-0.0125687969848513,0.9907179474830629,0.0004470292478799,0.0063732275739312,-0.6759276390075684,0.7369404435157776,-0.0148538901051795,-0.0029157631776131,0.9591186855580532,0.011082112789154,-0.4015319943428039,-0.3526973724365234,82,78,-9847,8986
10.2,1788168191182,-3.126760482788086,3.2676055431365967,1.26776285469532e-05,0.0058061988092958,-0.6151771545410156,0.7883676886558533,0.0066904530460936,-0.0103176322846323,2.6568223089940025e-08,0.0003427082847338,-0.008227196522057,1.0137470960617063,-4.78038564324379e-05,0.0059042731299996,-0.6069790720939636,0.7946959137916565,-0.0148869868874006,-0.0049064042207945,0.9755730589281404,-0.0890117287635803,0.0459244847297668,0.4964532852172851,82,78,-9847,8986
10.3,1788168191282,-2.563380241394043,2.676056385040283,1.26776285469532e-05,0.0058061988092958,-0.6151771545410156,0.7883676886558533,0.0066904530460936,-0.0103176322846323,2.6568223089940025e-08,0.0003427082847338,-0.008227196522057,1.0137470960617063,-4.78038564324379e-05,0.0059042731299996,-0.6069790720939636,0.7946959137916565,-0.0148869868874006,-0.0049064042207945,0.9755730589281404,-0.0890117287635803,0.0459244847297668,0.4964532852172851,11,18,-5250,5010
10.4,1788168191382,0.0,0.0,0.0001254249364137,0.0061058169230818,-0.5499492883682251,0.8351756930351257,0.007419263609177,-0.0125237024771786,2.704017495341307e-07,0.0002988773048855,-0.0030476995743811,0.6024807095527649,5.4338015615940094e-05,0.0060657570138573,-0.5477139353752136,0.8366437554359436,0.0025585636934349,0.0018970184894204,-0.1339572537611509,0.0136628746986389,-0.1237575411796569,-0.0569868087768554,11,18,-5250,5010
10.5,1788168191482,0.0,0.0,0.0001254249364137,0.0061058169230818,-0.5499492883682251,0.8351756930351257,0.007419263609177,-0.0125237024771786,2.704017495341307e-07,0.0002988773048855,-0.0030476995743811,0.6024807095527649,3.766454756259918e-05,0.0060311965644359,-0.5497079491615295,0.8353351950645447,0.0006995589444762,-0.0012260799735267,-0.0969064757592857,-0.0250871777534484,0.1726064085960388,-0.0253849029541015,11,18,-5250,5010
10.6,1788168191582,3.521126747131348,-2.873239517211914,-4.538171924650669e-05,0.0059696771204471,-0.5594561100006104,0.8288384675979614,0.0107176925141049,-0.0038036102333769,4.219363381455285e-07,-0.000328990019625,-0.003402863163501,-0.4606274962425232,-3.472808748483658e-05,0.0062832031399011,-0.5918118953704834,0.8060516119003296,-0.0044263004098243,0.0125561251467337,-1.0242201876508823,-0.1254803538322448,0.1624482870101928,0.2759075164794922,11,18,-5250,5010
10.7,1788168191682,3.2676055431365967,-2.450704336166382,-0.0001387298107147,0.0060836565680801,-0.5976178646087646,0.8017579913139343,0.0098599878233083,0.0069278086254453,-1.5441631732053355e-06,2.6561030608718283e-05,-0.0014666224597021,-1.0313069820404053,0.0001428732648491,0.0057909479364752,-0.6354032754898071,0.7721587419509888,0.0043829697910453,0.0151603019701797,-0.9241649784937892,0.034187376499176,-0.3275722861289978,-0.1996850967407226,135,79,11971,-7088
10.8,1788168191782,3.746478796005249,-2.9577465057373047,-0.0001387298107147,0.0060836565680801,-0.5976178646087646,0.8017579913139343,0.0098599878233083,0.0069278086254453,-1.5441631732053355e-06,2.6561030608718283e-05,-0.0014666224597021,-1.0313069820404053,0.0001428732648491,0.0057909479364752,-0.6354032754898071,0.7721587419509888,0.0043829697910453,0.0151603019701797,-0.9241649784937892,0.034187376499176,-0.3275722861289978,-0.1996850967407226,135,79,11971,-7088
10.9,1788168191882,3.746478796005249,-3.380281686782837,-0.0001387298107147,0.0060836565680801,-0.5976178646087646,0.8017579913139343,0.0098599878233083,0.0069278086254453,-1.5441631732053355e-06,2.6561030608718283e-05,-0.0014666224597021,-1.0313069820404053,0.0010387748479843,0.006570097990334,-0.6808679699897766,0.732375979423523,0.0095301648426404,0.0199952337167057,-1.0844410641953468,-1.3383923768997192,0.158929169178009,-0.7567415237426758,5,161,6880,-10958
11.0,1788168191982,3.0985915660858154,-3.323943614959717,0.0009444085881114,0.0066757053136825,-0.7099470496177673,0.7042227983474731,-0.0117194312389878,0.008606851289265,-2.1478915799810354e-07,0.0013228537281975,0.0072041307576,-0.9817075133323668,0.0016297427937388,0.0065718097612261,-0.7390185594558716,0.6736510992050171,0.0209020171263693,0.0110452992631912,-0.974494173863449,0.2746767997741699,-0.4492667913436889,-0.7037210464477539,107,92,10253,-9509
11.1,1788168192082,3.2676055431365967,-3.4084506034851074,0.0012048054486513,0.0062987422570586,-0.7571268677711487,0.6532363891601562,-0.0043638014270361,0.0046982495857031,-1.6838509124062805e-07,0.0021510715596377,-0.0180987827479839,-1.0401902198791504,0.0016297427937388,0.0065718097612261,-0.7390185594558716,0.6736510992050171,0.0209020171263693,0.0110452992631912,-0.974494173863449,0.2746767997741699,-0.4492667913436889,-0.7037210464477539,73,83,9451,-8975
11.2,1788168192182,3.802816867828369,-2.366197109222412,0.0012048054486513,0.0062987422570586,-0.7571268677711487,0.6532363891601562,-0.0043638014270361,0.0046982495857031,-1.6838509124062805e-07,0.0021510715596377,-0.0180987827479839,-1.0401902198791504,0.0014951787889003,0.0062844902276992,-0.7951249480247498,0.6064112186431885,0.0027945500768053,-0.0095849094712837,-1.0668577705838629,-0.2339258193969726,-0.304722249507904,0.6416988372802734,58,8,10385,-4867
11.3,1788168192282,3.802816867828369,-2.366197109222412,0.0012048054486513,0.0062987422570586,-0.7571268677711487,0.6532363891601562,-0.0043638014270361,0.0046982495857031,-1.6838509124062805e-07,0.0021510715596377,-0.0180987827479839,-1.0401902198791504,0.0014951787889003,0.0062844902276992,-0.7951249480247498,0.6064112186431885,0.0027945500768053,-0.0095849094712837,-1.0668577705838629,-0.2339258193969726,-0.304722249507904,0.6416988372802734,58,8,10385,-4867
11.4,1788168192382,4.704225540161133,-1.5774648189544678,0.0016161641106009,0.0059712165966629,-0.829501211643219,0.5584707856178284,0.0222639181617691,0.0019086063136639,-6.947988342374722e-07,0.0016877182060852,-0.0006409709458239,-0.814813494682312,0.0013844706118106,0.0058658877387642,-0.8514066338539124,0.5244717001914978,-0.0037632747692735,-0.0115930837803216,-0.9362852845266808,0.927092969417572,-0.1011033654212951,-0.3977689743041992,213,24,15976,-4003
11.5,1788168192482,5.380281925201416,-1.2957746982574463,0.0014876557979732,0.0059439837932586,-0.85291987657547,0.5220059156417847,0.0359995652705824,-0.0006891761183229,5.828978779613796e-06,-0.0016695758095011,-0.0020629817154258,-0.9378702044487,0.0015354566276073,0.0062121078372001,-0.862683117389679,0.505704402923584,-0.0066260371766872,0.0201261734223052,-1.0966582952772796,0.3823314309120178,-0.2522349953651428,-0.1510772705078125,213,24,15976,-4003
11.6,1788168192582,2.6478872299194336,-0.6197183132171631,0.0014029922895133,0.0061971601098775,-0.8662670850753784,0.4995405972003937,0.0540867137368001,-0.0026504850571565,-1.4274264322563189e-05,-0.0061529604718089,0.0072488114237785,-1.0908888578414917,0.0015475237742066,0.0063796723261475,-0.8903987407684326,0.4551340639591217,-0.0024202123585021,-0.0006725716373196,-0.264560307459689,-0.7527491450309753,0.0842406153678894,-0.168975830078125,42,37,1825,-1977
11.7,1788168192682,0.0,0.0,0.0014029922895133,0.0061971601098775,-0.8662670850753784,0.4995405972003937,0.0540867137368001,-0.0026504850571565,-1.4274264322563189e-05,-0.0061529604718089,0.0072488114237785,-1.0908888578414917,0.0016372809186577,0.0063594449311494,-0.890261173248291,0.4554031491279602,0.0039421618806348,0.0047364091267991,0.0207293288402659,-0.0841538906097412,0.1898947954177856,0.0535163879394531,42,37,1825,-1977
11.8,1788168192782,0.0,0.0,0.0015561080072075,0.0063705155625939,-0.8901892900466919,0.455543577671051,-0.0021283471633671,0.0016346336705115,-3.0797489226055883e-09,0.0,0.0,0.0,0.0015463950112462,0.0063281450420618,-0.8901317119598389,0.4556567370891571,9.860105601130078e-05,-0.0035371738448299,-0.0176123482229861,0.1420860290527343,-0.0936703085899353,0.0587015151977539,0,0,0,0
11.9,1788168192882,0.0,0.0,0.0015561080072075,0.0063705155625939,-0.8901892900466919,0.455543577671051,-0.0008747430556016,0.000840785680333,-3.9364698818054135e-09,0.0,0.0,0.0,0.0016011465340852,0.0062468945980072,-0.8902419805526733,0.4554422199726105,0.000852642549451,-0.0024313518353601,0.0008007733383558,0.0833446383476257,-0.0503450036048889,-0.015024185180664,0,0,0,0
12.0,1788168192982,0.0,0.0,0.0015561080072075,0.0063705155625939,-0.8901892900466919,0.455543577671051,0.0,0.0,0.0,0.0,0.0,0.0,0.001619460992515,0.0062450421974062,-0.8902681469917297,0.4553911387920379,-0.0005024769507036,0.0002135880059675,-0.002300228165223,-0.02608323097229,-0.0309352874755859,0.0222949981689453,0,0,0,0
12.1,1788168193082,0.0,0.0,0.0015561080072075,0.0063705155625939,-0.8901892900466919,0.455543577671051,0.0,0.0,0.0,0.0,0.0,0.0,0.0016187606379389,0.0062376866117119,-0.8902395963668823,0.4554468989372253,-0.0006928463118753,-9.90300993249932e-05,0.0026063847598203,0.0492720007896423,-0.0023343563079833,0.0245418548583984,0,0,0,0
12.2,1788168193182,0.0,0.0,0.0015561080072075,0.0063705155625939,-0.8901892900466919,0.455543577671051,0.0,0.0,0.0,0.0,0.0,0.0,0.0015930663794279,0.0062411054968833,-0.8902491927146912,0.4554283320903778,-0.0006679952182671,-0.0009459011832044,-8.668703236505742e-05,0.0004132986068725,-0.0019899606704711,0.0117549896240234,0,0,0,0
12.3,1788168193282,0.0,0.0,0.0015561080072075,0.0063705155625939,-0.8901892900466919,0.455543577671051,0.0,0.0,0.0,0.0,0.0,0.0,0.0015930663794279,0.0062411054968833,-0.8902491927146912,0.4554283320903778,-0.0006679952182671,-0.0009459011832044,-8.668703236505742e-05,0.0004132986068725,-0.0019899606704711,0.0117549896240234,0,0,0,0
12.4,1788168193382,0.0,0.0,0.0015561080072075,0.0063705155625939,-0.8901892900466919,0.455543577671051,0.0,0.0,0.0,0.0,0.0,0.0,0.0015974780544638,0.0062392121180891,-0.8902645707130432,0.4553981721401214,-0.0002654098527107,-0.0001620832688148,-0.000322020773057,-0.024690568447113,-0.0146466493606567,0.0151853561401367,0,0,0,0
12.5,1788168193482,0.0,0.0,0.0015561080072075,0.0063705155625939,-0.8901892900466919,0.455543577671051,0.0,0.0,0.0,0.0,0.0,0.0,0.0016050022095441,0.0062167095020413,-0.8902605772018433,0.4554063379764557,0.0012750672713568,-0.0001956462608405,0.0004997003774335,0.0129818320274353,-0.03125,0.0098876953125,0,0,0,0
12.6,1788168193582,0.0,0.0,0.0015561080072075,0.0063705155625939,-0.8901892900466919,0.455543577671051,0.0,0.0,0.0,0.0,0.0,0.0,0.0016069514676928,0.0062177618965506,-0.8902480602264404,0.4554305672645569,0.0005274286730159,-0.0005820431837976,-0.00121706789969,-0.0195227861404418,-0.0147879719734191,-0.0386590957641601,0,0,0,0
12.7,1788168193682,0.0,0.0,0.0015561080072075,0.0063705155625939,-0.8901892900466919,0.455543577671051,0.0,0.0,0.0,0.0,0.0,0.0,0.0016108155250549,0.0062306700274348,-0.8902512192726135,0.4554243385791778,-0.0001646938083515,0.0014434441700996,0.0010148704391147,-0.0049213767051696,-0.0183451175689697,0.0222587585449218,0,0,0,0
12.8,1788168193782,0.0,0.0,0.0015561080072075,0.0063705155625939,-0.8901892900466919,0.455543577671051,0.0,0.0,0.0,0.0,0.0,0.0,0.0016017062589526,0.0062202354893088,-0.8902450203895569,0.4554368257522583,-0.0005308544881289,0.0004577588006449,0.0009358708954674,0.0113559365272521,0.0068536400794982,0.0005769729614257,0,0,0,0
12.9,1788168193882,0.0,0.0,0.0015561080072075,0.0063705155625939,-0.8901892900466919,0.455543577671051,0.0,0.0,0.0,0.0,0.0,0.0,0.0015749707818031,0.0062159430235624,-0.8902628421783447,0.4554020464420318,0.0002219730746403,-0.0006962209653761,-0.0002432424595019,-0.0068122744560241,0.0283658504486084,0.0111637115478515,0,0,0,0
13.0,1788168193982,0.0,0.0,0.0015561080072075,0.0063705155625939,-0.8901892900466919,0.455543577671051,0.0,0.0,0.0,0.0,0.0,0.0,0.0015477687120437,0.0062344428151845,-0.8902822732925415,0.4553637206554413,-0.0010748869308154,-0.0005842163161132,-0.0016175705019036,-0.001706063747406,-0.0414342880249023,0.0144472122192382,0,0,0,0
13.1,1788168194082,0.0,0.0,0.0015561080072075,0.0063705155625939,-0.8901892900466919,0.455543577671051,0.0,0.0,0.0,0.0,0.0,0.0,0.0015153186395764,0.0062855994328856,-0.8902764320373535,0.4553747475147247,-0.0021508557171043,0.0005432903144613,-0.0003479861415486,0.0055003762245178,-0.0305905938148498,0.0197410583496093,0,0,0,0
13.2,1788168194182,0.0,0.0,0.0015561080072075,0.0063705155625939,-0.8901892900466919,0.455543577671051,0.0,0.0,0.0,0.0,0.0,0.0,0.0015121027827262,0.0063676508143544,-0.8902464509010315,0.455432116985321,-0.0016786845655468,0.001297505510496,0.0004749072710221,0.0135133862495422,-0.0119600296020507,0.0016450881958007,0,0,0,0
13.3,1788168194282,0.0,0.0,0.0015561080072075,0.0063705155625939,-0.8901892900466919,0.455543577671051,0.0,0.0,0.0,0.0,0.0,0.0,0.0015121027827262,0.0063676508143544,-0.8902464509010315,0.455432116985321,-0.0016786845655468,0.001297505510496,0.0004749072710221,0.0135133862495422,-0.0119600296020507,0.0016450881958007,0,0,0,0
13.4,1788168194382,0.0,0.0,0.0015561080072075,0.0063705155625939,-0.8901892900466919,0.455543577671051,0.0,0.0,0.0,0.0,0.0,0.0,0.0014535365626215,0.0064117079600691,-0.8902630805969238,0.4553990960121155,-0.0014529734210101,-0.0016252820800518,-0.0017755604608336,0.0110514163970947,-0.0203076004981994,-0.0057201385498046,0,0,0,0
13.5,1788168194482,0.0,0.0,0.0015561080072075,0.0063705155625939,-0.8901892900466919,0.455543577671051,0.0,0.0,0.0,0.0,0.0,0.0,0.0014632800593972,0.0064092362299561,-0.8902513980865479,0.455422043800354,-0.0002038213286937,3.02974469543705e-05,-0.00136578985481,-0.0357230305671691,-0.0069217085838317,0.0192108154296875,0,0,0,0
13.6,1788168194582,0.0,0.0,0.0015561080072075,0.0063705155625939,-0.8901892900466919,0.455543577671051,0.0,0.0,0.0,0.0,0.0,0.0,0.0014442978426814,0.0063805570825934,-0.8902422189712524,0.4554403722286224,0.000573900566043,-0.0010269735506055,0.0006983406573905,-0.0111120343208312,-0.0038322210311889,0.0067119598388671,0,0,0,0
13.7,1788168194682,0.0,0.0,0.0015561080072075,0.0063705155625939,-0.8901892900466919,0.455543577671051,0.0,0.0,0.0,0.0,0.0,0.0,0.0013984534889459,0.006399949081242,-0.8902456760406494,0.45543372631073,-0.0006298343357164,0.0005811914165587,0.0001049821380628,-0.0170086622238159,-0.0088455080986022,-0.0167627334594726,0,0,0,0
13.8,1788168194782,0.0,0.0,0.0015561080072075,0.0063705155625939,-0.8901892900466919,0.455543577671051,0.0,0.0,0.0,0.0,0.0,0.0,0.0013805720955133,0.0064373351633548,-0.890217661857605,0.4554879069328308,-0.0005548523781569,0.0001599752912924,0.003256834475429,0.0044871568679809,0.0078411102294921,0.0084943771362304,0,0,0,0
13.9,1788168194882,0.0,0.0,0.0015561080072075,0.0063705155625939,-0.8901892900466919,0.455543577671051,0.0,0.0,0.0,0.0,0.0,0.0,0.0013918597251176,0.0064992308616638,-0.890201985836029,0.4555177092552185,-0.0001004664401953,-1.0411081610778332e-05,-0.0009293313656686,0.0106655359268188,-0.0094141364097595,0.0047950744628906,0,0,0,0
14.0,1788168194982,0.0,0.0,0.0015561080072075,0.0063705155625939,-0.8901892900466919,0.455543577671051,0.0,0.0,0.0,0.0,0.0,0.0,0.0013918597251176,0.0064992308616638,-0.890201985836029,0.4555177092552185,-0.0001004664401953,-1.0411081610778332e-05,-0.0009293313656686,0.0106655359268188,-0.0094141364097595,0.0047950744628906,0,0,0,0
14.1,1788168195082,0.0,0.0,0.0015561080072075,0.0063705155625939,-0.8901892900466919,0.455543577671051,0.0,0.0,0.0,0.0,0.0,0.0,0.001367156393826,0.0065422765910625,-0.8901965618133545,0.4555276930332184,0.0007943291699019,0.0015004385438742,-0.0005317028579978,-0.0126996040344238,-0.0034189224243164,-0.011479377746582,0,0,0,0
14.2,1788168195182,0.0,0.0,0.0015561080072075,0.0063705155625939,-0.8901892900466919,0.455543577671051,0.0,0.0,0.0,0.0,0.0,0.0,0.001367156393826,0.0065422765910625,-0.8901965618133545,0.4555276930332184,0.0007943291699019,0.0015004385438742,-0.0005317028579978,-0.0126996040344238,-0.0034189224243164,-0.011479377746582,0,0,0,0
14.3,1788168195282,0.0,0.0,0.0015561080072075,0.0063705155625939,-0.8901892900466919,0.455543577671051,0.0,0.0,0.0,0.0,0.0,0.0,0.0013774940744042,0.006513119675219,-0.8901652097702026,0.4555893540382385,0.0006270180745504,-0.0001026418914845,0.0002329890043145,0.0160319805145263,0.0188478231430053,-0.011357307434082,0,0,0,0
14.4,1788168195382,0.0,0.0,0.0015561080072075,0.0063705155625939,-0.8901892900466919,0.455543577671051,0.0,0.0,0.0,0.0,0.0,0.0,0.0013567209243774,0.0065075755119323,-0.8901545405387878,0.4556103646755218,0.0002270066643784,-0.0008979832590031,0.0007476618923523,-0.0005596280097961,0.0167579650878906,-0.0043020248413085,0,0,0,0
14.5,1788168195482,0.0,0.0,0.0015561080072075,0.0063705155625939,-0.8901892900466919,0.455543577671051,0.0,0.0,0.0,0.0,0.0,0.0,0.001383788883686,0.006560786627233,-0.8901578783988953,0.4556030035018921,-0.0004161665351195,0.0018390310598959,6.35898574552383e-05,-0.0032102465629577,0.0045912861824035,0.0010633468627929,0,0,0,0
14.6,1788168195582,0.0,0.0,0.0015561080072075,0.0063705155625939,-0.8901892900466919,0.455543577671051,0.0,0.0,0.0,0.0,0.0,0.0,0.0013615945354104,0.0065917549654841,-0.8901731371879578,0.4555728137493133,-0.0004667162827252,-0.0008149915246497,-0.0011219622887791,-0.0105714201927185,-0.0236604809761047,0.0153455734252929,0,0,0,0
14.7,1788168195682,0.0,0.0,0.0015561080072075,0.0063705155625939,-0.8901892900466919,0.455543577671051,0.0,0.0,0.0,0.0,0.0,0.0,0.001387320458889,0.0065988535061478,-0.8901886343955994,0.4555421769618988,-0.0015480290612879,0.0015183246528737,-0.0014299389528767,-0.0136597752571105,-0.0239705443382263,0.0189924240112304,0,0,0,0
14.8,1788168195782,0.0,0.0,0.0015561080072075,0.0063705155625939,-0.8901892900466919,0.455543577671051,0.0,0.0,0.0,0.0,0.0,0.0,0.0013767955824732,0.006613009609282,-0.8901749849319458,0.4555688500404358,-0.0009027786904645,-0.0012421972209091,-0.0005801926355877,-0.0064233541488647,-0.0093129277229309,-0.0024404525756835,0,0,0,0
14.9,1788168195882,0.0,0.0,0.0015561080072075,0.0063705155625939,-0.8901892900466919,0.455543577671051,0.0,0.0,0.0,0.0,0.0,0.0,0.0013833818957209,0.0066097248345613,-0.8901627063751221,0.4555926918983459,0.0002324166284943,0.0001690224224919,0.0010752281155043,-0.0117021799087524,0.0013113021850585,-0.0077991485595703,0,0,0,0
15.0,1788168195982,0.0,0.0,0.0015561080072075,0.0063705155625939,-0.8901892900466919,0.455543577671051,0.0,0.0,0.0,0.0,0.0,0.0,0.0013729687780141,0.0066451989114284,-0.8901410102844238,0.4556345641613006,-4.0156726230210266e-05,0.001237492868241,0.0001937055671882,-0.0028084516525268,0.012614369392395,-0.005899429321289,0,0,0,0
15.1,1788168196082,0.0,0.0,0.0015561080072075,0.0063705155625939,-0.8901892900466919,0.455543577671051,0.0,0.0,0.0,0.0,0.0,0.0,0.0013762321323156,0.0066348621621727,-0.8901377320289612,0.4556413292884826,0.0001159910149808,0.0003176368202269,-0.0015558143175897,-0.0115883946418762,-0.0164170861244201,-0.0024394989013671,0,0,0,0
15.2,1788168196182,0.0,0.0,0.0015561080072075,0.0063705155625939,-0.8901892900466919,0.455543577671051,0.0,0.0,0.0,0.0,0.0,0.0,0.0013859160244464,0.0066488496959209,-0.890160083770752,0.4555973410606384,-0.0018627906553851,-0.0007491889531228,-0.0008952408098416,0.0013189911842346,-0.0091325640678405,-0.0095157623291015,0,0,0,0
15.3,1788168196282,0.0,0.0,0.0015561080072075,0.0063705155625939,-0.8901892900466919,0.455543577671051,0.0,0.0,0.0,0.0,0.0,0.0,0.0013859160244464,0.0066488496959209,-0.890160083770752,0.4555973410606384,-0.0018627906553851,-0.0007491889531228,-0.0008952408098416,0.0013189911842346,-0.0091325640678405,-0.0095157623291015,0,0,0,0
15.4,1788168196382,0.0,0.0,0.0015561080072075,0.0063705155625939,-0.8901892900466919,0.455543577671051,0.0,0.0,0.0,0.0,0.0,0.0,0.0014244290068745,0.0066731013357639,-0.8901589512825012,0.4555990397930145,-0.0009842168108777,0.0005213660910869,-0.0009146746896003,0.0129624605178833,-0.0235615968704223,-0.0095100402832031,0,0,0,0
15.5,1788168196482,0.0,0.0,0.0015561080072075,0.0063705155625939,-0.8901892900466919,0.455543577671051,0.0,0.0,0.0,0.0,0.0,0.0,0.0014224499464035,0.006672915071249,-0.8901492357254028,0.4556180536746979,-0.0003860978431409,-0.0004912470261533,0.0001789763733386,0.0020176172256469,0.0068151354789733,0.0193252563476562,0,0,0,0
15.6,1788168196582,0.0,0.0,0.0015561080072075,0.0063705155625939,-0.8901892900466919,0.455543577671051,0.0,0.0,0.0,0.0,0.0,0.0,0.0014334013685584,0.0066802538931369,-0.8901256918907166,0.455663800239563,6.023504058361439e-05,-0.0010724432315173,0.0013856423433373,0.0060340762138366,0.0231387615203857,-0.0236759185791015,0,0,0,0
15.7,1788168196682,0.0,0.0,0.0015561080072075,0.0063705155625939,-0.8901892900466919,0.455543577671051,0.0,0.0,0.0,0.0,0.0,0.0,0.0014633042737841,0.0066777113825082,-0.8901416659355164,0.455632746219635,0.000642221300104,0.0010268222589892,-0.0013902194429126,-0.0099025964736938,0.0135952830314636,0.033696174621582,0,0,0,0
15.8,1788168196782,0.0,0.0,0.0015561080072075,0.0063705155625939,-0.8901892900466919,0.455543577671051,0.0,0.0,0.0,0.0,0.0,0.0,0.0014359699562191,0.006657282821834,-0.8901534676551819,0.455609917640686,-0.0003125404678352,0.0002778543300042,-0.0017127442026082,0.0147561430931091,-0.0024935007095336,-0.0165567398071289,0,0,0,0
15.9,1788168196882,0.0,0.0,0.0015561080072075,0.0063705155625939,-0.8901892900466919,0.455543577671051,0.0,0.0,0.0,0.0,0.0,0.0,0.0014187544584274,0.0066519007086753,-0.8901711702346802,0.4555754661560058,-0.0012146039858234,-0.0003468685399383,-0.0005878025387628,0.0143530964851379,0.0064954757690429,-0.0111351013183593,0,0,0,0
16.0,1788168196982,0.0,0.0,0.0015561080072075,0.0063705155625939,-0.8901892900466919,0.455543577671051,0.0,0.0,0.0,0.0,0.0,0.0,0.0014154305681586,0.0066349171102046,-0.8901554346084595,0.4556064903736114,0.0002529888989712,-0.0012631874273064,0.0004981157503763,-0.0021120309829711,0.0079317688941955,0.0049562454223632,0,0,0,0
16.1,1788168197082,0.0,0.0,0.0015561080072075,0.0063705155625939,-0.8901892900466919,0.455543577671051,0.0,0.0,0.0,0.0,0.0,0.0,0.0014052269980311,0.0066526131704449,-0.8901780843734741,0.4555620551109314,0.0004271380363502,0.0005496533256731,0.0005910222855212,-0.011185884475708,-0.0132750868797302,0.0173912048339843,0,0,0,0
16.2,1788168197182,0.0,0.0,0.0015561080072075,0.0063705155625939,-0.8901892900466919,0.455543577671051,0.0,0.0,0.0,0.0,0.0,0.0,0.0014023529365658,0.0066533740609884,-0.8901775479316711,0.4555629789829254,-9.9635912168679e-05,-0.0001109224728371,5.218263669431638e-05,-0.0074965953826904,0.0156380534172058,-0.0148086547851562,0,0,0,0
16.3,1788168197282,0.0,0.0,0.0015561080072075,0.0063705155625939,-0.8901892900466919,0.455543577671051,0.0,0.0,0.0,0.0,0.0,0.0,0.0014464203268289,0.0066909883171319,-0.8901901245117188,0.4555379450321197,7.193272521335472e-05,0.0015507732320044,0.0006740420069674,-0.019080102443695,0.0050225853919982,0.010232925415039,0,0,0,0
16.4,1788168197382,0.0,0.0,0.0015561080072075,0.0063705155625939,-0.8901892900466919,0.455543577671051,0.0,0.0,0.0,0.0,0.0,0.0,0.0014226092025637,0.0066739479079842,-0.8902159929275513,0.4554874897003174,0.0004376968881783,-0.0016281730874928,-0.001298130421584,0.0252732634544372,-0.0201178789138793,-0.0040655136108398,0,0,0,0
16.5,1788168197482,0.0,0.0,0.0015561080072075,0.0063705155625939,-0.8901892900466919,0.455543577671051,0.0,0.0,0.0,0.0,0.0,0.0,0.0013939943164587,0.0066610081121325,-0.8902236819267273,0.4554728269577026,0.0004221679525686,-0.0002145718175316,0.0013989456909092,-0.0292252898216247,0.0087037086486816,-0.0113706588745117,0,0,0,0
16.6,1788168197582,0.0,0.0,0.0015561080072075,0.0063705155625939,-0.8901892900466919,0.455543577671051,0.0,0.0,0.0,0.0,0.0,0.0,0.0013526016846299,0.0066404286772012,-0.8902304768562317,0.4554600715637207,-0.0002717358067085,-0.001571375338615,-0.0005602199971079,0.0128210186958312,0.0050090551376342,0.0193252563476562,0,0,0,0
16.7,1788168197682,0.0,0.0,0.0015561080072075,0.0063705155625939,-0.8901892900466919,0.455543577671051,0.0,0.0,0.0,0.0,0.0,0.0,0.0013711033388972,0.0066505884751677,-0.8902223110198975,0.4554757177829742,0.0013092375068557,-0.0015149836311586,-0.0001863763894292,0.0061767101287841,0.0141673684120178,-0.0166034698486328,0,0,0,0
16.8,1788168197782,0.0,0.0,0.0015561080072075,0.0063705155625939,-0.8901892900466919,0.455543577671051,0.0,0.0,0.0,0.0,0.0,0.0,0.0013503991067409,0.0066492827609181,-0.8902284502983093,0.4554636478424072,-0.0005664031907473,-0.000442617662853,0.001525107665144,0.0074416399002075,0.0285974740982055,0.0103979110717773,0,0,0,0
16.9,1788168197882,0.0,0.0,0.0015561080072075,0.0063705155625939,-0.8901892900466919,0.455543577671051,0.0,0.0,0.0,0.0,0.0,0.0,0.0013366853818297,0.0066657289862632,-0.8902462720870972,0.4554287195205688,-0.0007760670219922,0.0006265401102393,0.0003022421824814,-0.0088123679161071,0.0290352702140808,0.0049505233764648,0,0,0,0
17.0,1788168197982,0.0,0.0,0.0015561080072075,0.0063705155625939,-0.8901892900466919,0.455543577671051,0.0,0.0,0.0,0.0,0.0,0.0,0.0013366434723138,0.0066510522738099,-0.8902597427368164,0.45540252327919,0.000958211797208,0.0010243893035445,-0.0012756814212134,0.0270320177078247,-0.0052826404571533,-0.0111970901489257,0,0,0,0
17.1,1788168198082,0.0,0.0,0.0015561080072075,0.0063705155625939,-0.8901892900466919,0.455543577671051,0.0,0.0,0.0,0.0,0.0,0.0,0.0013470323756337,0.0066511649638414,-0.8902394771575928,0.4554421305656433,0.0003640802357482,-0.0006674208037703,0.0009105364393293,-0.0123589634895324,0.0107359290122985,0.0012712478637695,0,0,0,0
17.2,1788168198182,0.0,0.0,0.0015561080072075,0.0063705155625939,-0.8901892900466919,0.455543577671051,0.0,0.0,0.0,0.0,0.0,0.0,0.0012882174924015,0.0065945209935307,-0.8902227282524109,0.4554758965969085,0.0007231458773096,-0.0008500319284563,0.0004784304956901,-0.0067132115364074,0.0372265577316284,-0.0022010803222656,0,0,0,0
17.3,1788168198282,0.0,0.0,0.0015561080072075,0.0063705155625939,-0.8901892900466919,0.455543577671051,0.0,0.0,0.0,0.0,0.0,0.0,0.001297878101468,0.006628937087953,-0.8902257680892944,0.4554694592952728,5.6820519431974736e-05,0.0004444962810715,0.0016502374727691,-0.0171125531196594,-0.0072494745254516,0.0191202163696289,0,0,0,0
17.4,1788168198382,0.0,0.0,0.0015561080072075,0.0063705155625939,-0.8901892900466919,0.455543577671051,0.0,0.0,0.0,0.0,0.0,0.0,0.0012860521674156,0.006578299216926,-0.8902139663696289,0.4554934203624725,0.0004242691388859,0.0003002360573485,0.0006865335245353,-0.0265940427780151,-0.0006934404373168,-0.0168342590332031,0,0,0,0
17.5,1788168198482,0.0,0.0,0.0015561080072075,0.0063705155625939,-0.8901892900466919,0.455543577671051,0.0,0.0,0.0,0.0,0.0,0.0,0.0013008508831262,0.0065735792741179,-0.8902122378349304,0.4554967582225799,0.0004111031111731,-0.0005555055529705,-0.0012393565948631,0.0291492342948913,0.0151135921478271,0.0176000595092773,0,0,0,0
17.6,1788168198582,0.0,0.0,0.0015561080072075,0.0063705155625939,-0.8901892900466919,0.455543577671051,0.0,0.0,0.0,0.0,0.0,0.0,0.0012528700754046,0.0065587786957621,-0.8902226090431213,0.4554768800735473,0.0004215496982545,-0.0014687709939812,-0.0002143163612204,0.028289794921875,-0.0205225944519042,-0.0094947814941406,0,0,0,0
17.7,1788168198682,0.0,0.0,0.0015561080072075,0.0063705155625939,-0.8901892900466919,0.455543577671051,0.0,0.0,0.0,0.0,0.0,0.0,0.0012685004621744,0.0065254857763648,-0.8902215361595154,0.4554794430732727,6.14761405826325e-05,0.0006106136745577,-0.0005266042264704,-0.0418064594268798,-0.0050857067108154,-0.0079383850097656,0,0,0,0
17.8,1788168198782,0.0,0.0,0.0015561080072075,0.0063705155625939,-0.8901892900466919,0.455543577671051,0.0,0.0,0.0,0.0,0.0,0.0,0.0012712366878986,0.0064895991235971,-0.8902116417884827,0.4554992616176605,0.0004215770399378,0.0017222779004776,-0.0010948489884632,0.006287395954132,-0.0148364305496215,0.0209665298461914,0,0,0,0
17.9,1788168198882,0.0,0.0,0.0015561080072075,0.0063705155625939,-0.8901892900466919,0.455543577671051,0.0,0.0,0.0,0.0,0.0,0.0,0.0012693302705883,0.006470438092947,-0.8902051448822021,0.4555122554302215,0.0002370450123622,-0.0014555751649087,-3.536389746777904e-05,0.0062062740325927,0.0119101405143737,-0.0076589584350585,0,0,0,0
18.0,1788168198982,0.0,0.0,0.0015561080072075,0.0063705155625939,-0.8901892900466919,0.455543577671051,0.0,0.0,0.0,0.0,0.0,0.0,0.0012372955679893,0.006486521102488,-0.8901972770690918,0.4555273652076721,-0.0003201892710941,-0.0006505124530388,0.0015118480093459,-0.0104168653488159,0.0214205980300903,0.0030784606933593,0,0,0,0
18.1,1788168199082,0.0,0.0,0.0015561080072075,0.0063705155625939,-0.8901892900466919,0.455543577671051,0.0,0.0,0.0,0.0,0.0,0.0,0.0012355502694845,0.0064804954454302,-0.8901917338371277,0.4555383920669555,-0.0008239440133849,0.0008285942567944,0.0005003161796506,0.0290400385856628,0.0033935904502868,-0.0022182464599609,0,0,0,0
18.2,1788168199182,0.0,0.0,0.0015561080072075,0.0063705155625939,-0.8901892900466919,0.455543577671051,0.0,0.0,0.0,0.0,0.0,0.0,0.0012023728340864,0.0064314045011997,-0.8901968598365784,0.4555290937423706,-0.000113678460624,-0.0018043716984961,-0.0007477408135881,-0.0006653666496276,-0.0186679363250732,-0.0132303237915039,0,0,0,0
18.3,1788168199282,0.0,0.0,0.0015561080072075,0.0063705155625939,-0.8901892900466919,0.455543577671051,0.0,0.0,0.0,0.0,0.0,0.0,0.0012315157800912,0.0063983853906393,-0.89019775390625,0.4555278122425079,0.0007598511806002,-0.0007744140242573,0.0026466682304737,-0.0076714158058166,0.009199321269989,-0.0041742324829101,0,0,0,0
18.4,1788168199382,0.0,0.0,0.0015561080072075,0.0063705155625939,-0.8901892900466919,0.455543577671051,0.0,0.0,0.0,0.0,0.0,0.0,0.0012328317388892,0.0064138676971197,-0.8902057409286499,0.45551198720932,5.910061250037237e-05,0.0008345698454525,0.0005083921274578,0.0031753778457641,0.0075804591178894,0.0174245834350585,0,0,0,0
18.5,1788168199482,0.0,0.0,0.0015561080072075,0.0063705155625939,-0.8901892900466919,0.455543577671051,0.0,0.0,0.0,0.0,0.0,0.0,0.0012637935578823,0.0064107067883014,-0.8901835083961487,0.4555553793907165,0.0004120741903097,0.0008391949738074,0.0010513502906712,0.0019790530204772,0.0001505017280578,-0.0005664825439453,0,0,0,0
18.6,1788168199582,0.0,0.0,0.0015561080072075,0.0063705155625939,-0.8901892900466919,0.455543577671051,0.0,0.0,0.0,0.0,0.0,0.0,0.0012357011437416,0.0063844341784715,-0.8901916146278381,0.4555397927761078,6.330229014555767e-05,-0.0018274557098573,-0.0016577305941167,0.0137369036674499,-0.0109019875526428,0.0191965103149414,0,0,0,0
18.7,1788168199682,0.0,0.0,0.0015561080072075,0.0063705155625939,-0.8901892900466919,0.455543577671051,0.0,0.0,0.0,0.0,0.0,0.0,0.0012656608596444,0.0063849249854683,-0.8901777267456055,0.4555670022964477,0.0014761475927669,0.000118735333903,0.0012261779019377,-0.0143883824348449,0.0248478651046752,0.0012664794921875,0,0,0,0
18.8,1788168199782,0.0,0.0,0.0015561080072075,0.0063705155625939,-0.8901892900466919,0.455543577671051,0.0,0.0,0.0,0.0,0.0,0.0,0.001224486157298,0.0063489153981208,-0.8901574015617371,0.4556073248386383,0.0005572914122637,-0.0010773814608173,0.0011660200445787,-0.0153829455375671,-0.0040944814682006,-0.0078392028808593,0,0,0,0
18.9,1788168199882,0.0,0.0,0.0015561080072075,0.0063705155625939,-0.8901892900466919,0.455543577671051,0.0,0.0,0.0,0.0,0.0,0.0,0.0011852895841002,0.0063255066052079,-0.8901724219322205,0.4555784165859222,-0.0001069219463258,-0.0003655614889257,-0.0016685970782332,-9.834766387939452e-05,-0.0166961550712585,-0.0114259719848632,0,0,0,0
19.0,1788168199982,0.0,0.0,0.0015561080072075,0.0063705155625939,-0.8901892900466919,0.455543577671051,0.0,0.0,0.0,0.0,0.0,0.0,0.0012054797261953,0.0063025895506143,-0.890160083770752,0.4556026458740234,-0.0004811020266455,-0.0004029807640451,-0.0005758220556146,0.0072014331817626,0.0222172737121582,-0.0022468566894531,0,0,0,0
19.1,1788168200082,0.0,0.0,0.0015561080072075,0.0063705155625939,-0.8901892900466919,0.455543577671051,0.0,0.0,0.0,0.0,0.0,0.0,0.0012245839461684,0.0063069323077797,-0.8901364207267761,0.4556489884853363,-0.0010106858894899,0.0011686217730199,0.0017334815612584,-0.0068134665489196,-0.0030432343482971,0.0047731399536132,0,0,0,0
19.2,1788168200182,0.0,0.0,0.0015561080072075,0.0063705155625939,-0.8901892900466919,0.455543577671051,0.0,0.0,0.0,0.0,0.0,0.0,0.0012338003143668,0.0063481200486421,-0.8901466727256775,0.4556281566619873,-0.0005180097036777,0.0010717413208159,0.0007158646012494,-0.0206547975540161,-0.0167672038078308,0.0064554214477539,0,0,0,0
19.3,1788168200282,0.0,0.0,0.0015561080072075,0.0063705155625939,-0.8901892900466919,0.455543577671051,0.0,0.0,0.0,0.0,0.0,0.0,0.0012618862092494,0.0063745966181159,-0.8901512026786804,0.4556189179420471,-0.0008412980802185,0.001554512257406,-0.0009311718548967,0.0051699876785278,-0.0112028717994689,0.0191688537597656,0,0,0,0
19.4,1788168200382,0.0,0.0,0.0015561080072075,0.0063705155625939,-0.8901892900466919,0.455543577671051,0.0,0.0,0.0,0.0,0.0,0.0,0.001207260414958,0.0063774036243557,-0.8901250958442688,0.455670028924942,-0.0008565984160155,-0.0029062392400212,0.0013861774512827,0.0061883330345153,0.0182192921638488,-0.0130348205566406,0,0,0,0
19.5,1788168200482,0.0,0.0,0.0015561080072075,0.0063705155625939,-0.8901892900466919,0.455543577671051,0.0,0.0,0.0,0.0,0.0,0.0,0.0012189587578177,0.0063776085153222,-0.8901315331459045,0.4556575715541839,-0.0001396808762476,-0.000132629589022,0.0029360120399143,-0.0025832056999206,0.0091525316238403,-0.0131120681762695,0,0,0,0
19.6,1788168200582,0.0,0.0,0.0015561080072075,0.0063705155625939,-0.8901892900466919,0.455543577671051,0.0,0.0,0.0,0.0,0.0,0.0,0.0011778222396969,0.0063613494858145,-0.8901315927505493,0.4556576907634735,-0.0003087270513993,-0.0010969988664862,-0.0014588058455294,-0.0214939713478088,-0.0177797079086303,0.0082473754882812,0,0,0,0
19.7,1788168200682,0.0,0.0,0.0015561080072075,0.0063705155625939,-0.8901892900466919,0.455543577671051,0.0,0.0,0.0,0.0,0.0,0.0,0.0012082429602742,0.0063398918136954,-0.890128493309021,0.4556640088558197,0.001421727154379,0.0008268393683484,-0.0008959508419816,-0.0013449788093566,-0.0219658017158508,-0.0024604797363281,0,0,0,0
19.8,1788168200782,0.0,0.0,0.0015561080072075,0.0063705155625939,-0.8901892900466919,0.455543577671051,0.0,0.0,0.0,0.0,0.0,0.0,0.0011703819036483,0.0064081484451889,-0.8901346921920776,0.4556508362293243,-0.0008491146889833,-3.40893834353411e-05,-0.0014669157764625,0.000388741493225,0.0118920803070068,0.003087043762207,0,0,0,0
19.9,1788168200882,0.0,0.0,0.0015561080072075,0.0063705155625939,-0.8901892900466919,0.455543577671051,0.0,0.0,0.0,0.0,0.0,0.0,0.0011796802282333,0.0064441170543432,-0.8901365995407104,0.4556468427181244,-0.0001500983467401,0.0004911685579318,0.0006806090504925,-0.0368051528930664,0.0088865756988525,-0.0042676925659179,0,0,0,0
20.0,1788168200982,0.0,0.0,0.0015561080072075,0.0063705155625939,-0.8901892900466919,0.455543577671051,0.0,0.0,0.0,0.0,0.0,0.0,0.0011883666738867,0.0064231306314468,-0.8901398777961731,0.4556406438350677,-0.0003193013948654,0.0013929071922826,-0.001829248667952,-0.0171176791191101,-0.004160463809967,0.0047416687011718,0,0,0,0
20.1,1788168201082,0.0,0.0,0.0015561080072075,0.0063705155625939,-0.8901892900466919,0.455543577671051,0.0,0.0,0.0,0.0,0.0,0.0,0.0011843666434288,0.0064489962533116,-0.8901370167732239,0.4556457102298736,-0.0005002392533299,-3.8076850260615766e-05,-0.0009365656232939,-0.0259522199630737,0.0142745375633239,0.0101737976074218,0,0,0,0
20.2,1788168201182,0.0,0.0,0.0015561080072075,0.0063705155625939,-0.8901892900466919,0.455543577671051,0.0,0.0,0.0,0.0,0.0,0.0,0.0011693704873323,0.0064218919724226,-0.8901025652885437,0.4557136297225952,0.0007314674468689,-0.0004002089472032,0.0013922102656733,0.0004205107688903,-0.0040994882583618,0.0281696319580078,0,0,0,0
20.3,1788168201282,0.0,0.0,0.0015561080072075,0.0063705155625939,-0.8901892900466919,0.455543577671051,0.0,0.0,0.0,0.0,0.0,0.0,0.0011643068864941,0.006438254378736,-0.8900913000106812,0.455735445022583,2.8198057847829703e-05,0.0001445322708001,0.0007252456936303,-0.0388973355293273,0.0179160833358764,-0.0006475448608398,0,0,0,0
20.4,1788168201382,-1.5492957830429075,1.5211267471313477,0.0015561080072075,0.0063705155625939,-0.8901892900466919,0.455543577671051,0.0,0.0,0.0,0.0,0.0,0.0,0.0011586183682084,0.0064737228676676,-0.8898802399635315,0.4561469256877899,-0.0025968326251524,0.0022670057493534,0.0308766331439941,-0.4383626580238342,0.3209184408187866,0.0099773406982421,238,156,-8831,8963
20.5,1788168201482,-3.802816867828369,3.7183098793029785,0.0008348068222403,0.0063485223799943,-0.8808342218399048,0.4733816087245941,-0.0003640531043846,-0.0005824622340229,2.1080231520012877e-08,-0.0039292364381253,-0.0154574140906333,0.6692204475402832,0.0006922418251633,0.0062206359580159,-0.8681948184967041,0.4961841106414795,8.158903903164817e-06,-0.0125405578624327,1.070954532655786,0.14359712600708,-0.0137606263160705,0.0230941772460937,94,91,-9630,9806
20.6,1788168201582,-3.2676055431365967,3.436619758605957,0.000665359199047,0.0063368342816829,-0.8550775647163391,0.5184609293937683,0.0084160003964317,-0.0084678748141219,1.10604722863238e-06,-0.0093453451991081,-0.0054977582767605,1.1017075777053833,0.0012528309598565,0.0066676000133156,-0.8380614519119263,0.5455337166786194,0.0068755784446804,0.0175587720241548,0.964814454908058,-0.0973165035247802,-0.1371639370918274,0.0395460128784179,82,42,-9825,8812
20.7,1788168201682,-3.2676055431365967,3.323943614959717,0.0012224689126014,0.0066452757455408,-0.8292175531387329,0.5588852167129517,0.003446633423324,-0.0077442129465874,-5.106019731154532e-07,-0.0031016438733786,0.0011521094711497,0.9754387140274048,0.0012816721573472,0.0066354973241686,-0.8127301931381226,0.582601010799408,-0.0003747114674663,0.0062506448682318,0.9998124372521834,0.1849253177642822,-0.3350057601928711,-0.6749095916748047,81,46,-9988,8969
20.8,1788168201782,-3.239436626434326,3.2957746982574463,0.0009888666681945,0.0064584929496049,-0.801515519618988,0.5979382991790771,0.0034668847197302,-0.0099333774833828,6.475177735939369e-07,-0.0059173377230763,-0.0062496252357959,1.011365532875061,0.0009408127516508,0.0064663011580705,-0.7855473756790161,0.6187671422958374,-0.0055737473904537,-0.0250006334064587,1.014316220487141,0.0695786476135253,-0.3223597407341003,-0.1024322509765625,105,55,-9919,8962
20.9,1788168201882,-3.2676055431365967,3.239436626434326,0.000754723092541,0.0063412068411707,-0.7663864493370056,0.642348051071167,0.0034888416229344,-0.0100216430978108,1.918526289497894e-06,-0.0057904170826077,-0.0263753030449152,1.0129276514053345,0.0005630208179354,0.0062794666737318,-0.7474300265312195,0.6643106937408447,-0.0063910120446317,0.0039155361645217,0.9614258307849548,-0.0429146289825439,-0.4497339129447937,0.3150091171264648,95,84,-9581,9092
21.0,1788168201982,-3.211267709732056,3.3521127700805664,0.0003963594790548,0.0061508798971772,-0.7351568341255188,0.6778689622879028,0.0020063019262146,-0.0072345705933939,-5.167814847452382e-07,-0.0058804587461054,-0.0105531467124819,0.989148736000061,0.0004292633384466,0.0060064475983381,-0.7170752286911011,0.6969698667526245,0.0013003636927344,-0.0154510381958765,0.9783851208077236,-0.2780896425247192,-0.3946154713630676,-0.1510200500488281,99,76,-9925,8871
21.1,1788168202082,-3.2957746982574463,3.323943614959717,0.0001400620676577,0.005602597258985,-0.7015566229820251,0.7125917077064514,0.0041052783764912,-0.0088634327556605,1.3748852456545512e-06,-0.0005917424568906,-0.0248918384313583,1.0209224224090576,0.0002896897494792,0.0059228502213954,-0.6845313310623169,0.7289594411849976,-0.0124352126647442,0.0092737228398724,1.0002121523933831,-0.0066182613372802,-0.5739421844482422,0.2966394424438476,76,92,-9211,9078
21.2,1788168202182,-3.380281686782837,3.239436626434326,-9.67509113252163e-05,0.0061018858104944,-0.6604030728340149,0.7508864998817444,0.0043778407446038,-0.0054167932924209,1.3081819498734272e-06,-0.0172750391066074,-0.0090623376891016,1.00666344165802,-0.0003547053784132,0.0059571033343672,-0.647036612033844,0.7624355554580688,-0.0091085098077596,-0.0209986243774976,0.9908749232436525,0.1360868215560913,-0.6373110413551331,0.0204019546508789,53,67,-8705,9231
21.3,1788168202282,-3.3521127700805664,3.183098554611206,-8.900999091565609e-05,0.0061562731862068,-0.6237614154815674,0.7815905809402466,0.0056349755662222,-0.0069637659345996,-1.4101249383519157e-07,-0.0019560479559004,0.0004311983357183,0.992000937461853,-0.0003461400046944,0.0058723064139485,-0.6044127941131592,0.7966496348381042,-0.0074700446545304,-0.0014734814080489,0.8986758050025511,0.0571576356887817,-0.3335158228874206,0.7002553939819336,48,90,-9111,9599
21.4,1788168202382,-3.1549296379089355,3.323943614959717,-0.0005276964511722,0.0056282086297869,-0.5853883028030396,0.8107333779335022,0.0028342459062511,-0.0083498895807803,6.55317141470247e-08,-0.0054039191454648,-0.0162886101752519,1.0119242668151855,-0.0005344739183783,0.0058049689978361,-0.5548786520957947,0.8319108486175537,-0.0034543292325061,0.0033442312742673,1.0161779054936824,-0.1541400551795959,0.2123039960861206,0.4303998947143554,69,69,-9582,9224
21.5,1788168202482,-3.3521127700805664,3.323943614959717,-0.0007204604335129,0.0055124810896813,-0.5451696515083313,0.8383073806762695,0.003266055010428,-0.0099471667137837,1.1438528500163188e-06,-0.0040378575213253,-0.0151891475543379,1.017942190170288,-0.0010428382083773,0.0051796482875943,-0.5167943239212036,0.8560933470726013,-0.0052682558946373,-0.0170148663266427,0.9853442739363548,-0.0299928784370422,0.1063016057014465,-0.0114049911499023,73,79,-8859,9046
21.6,1788168202582,-3.380281686782837,3.2676055431365967,-0.0010523833334445,0.0053649139590561,-0.4978526532649994,0.8672443628311157,0.0040855296418158,-0.0082681819558118,1.2148707542984366e-06,-0.0079355435445904,0.0004250016936566,0.9906999468803406,-0.0011906698346138,0.0051064547151327,-0.4741974472999573,0.8804029822349548,-0.0024525705948159,-0.0220980497862755,0.988774147796178,-0.1544505357742309,0.2377985119819641,-0.1407222747802734,82,67,-9331,9104
21.7,1788168202682,-3.211267709732056,3.2676055431365967,-0.0012577200541272,0.0050854152068495,-0.4551975429058075,0.8903750777244568,0.0025016064459281,-0.0067712672666699,1.0780886963400238e-07,-0.0057597164995968,-0.0069208871573209,0.99418306350708,-0.0012970883399248,0.0048976307734847,-0.4341492354869842,0.9008267521858216,-0.0001911294539024,-0.0186632307808783,0.9536268092309436,-0.1293704509735107,0.0492112636566162,0.3255748748779297,51,57,-9375,9239
21.8,1788168202782,-3.4084506034851074,3.211267709732056,-0.0013706361642107,0.0050875046290457,-0.4128312468528747,0.9107922911643982,0.0030352512711467,-0.0015096367201569,-5.746074222129863e-07,-0.0103769237175583,0.0006207579863257,1.0066787004470823,-0.0013648187741637,0.0047291098162531,-0.3934153616428375,0.9193477034568788,0.0069775841576553,-0.0253695435876019,0.9798691516955734,-0.1796585321426391,-0.2659564018249511,0.9742193222045898,66,82,-8793,9362
21.9,1788168202882,-3.239436626434326,3.126760482788086,-0.0014953947393223,0.0044246586039662,-0.3690409660339355,0.929401397705078,0.0026708810265143,0.0026064743567198,7.253071677518602e-07,-0.0047097178176045,-0.01512046251446,0.9946300983428956,-0.00159811694175,0.0040901834145188,-0.3382184505462646,0.9410573840141296,-0.0040439325958592,-0.0073233988259406,0.9761565469790872,-0.1299206614494323,0.3961397409439087,0.4958171844482422,83,105,-9429,9634
22.0,1788168202982,-3.126760482788086,2.901408433914185,-0.0018486023182049,0.0036828275769948,-0.3178709745407104,0.9481249451637268,0.0004621577490576,-0.0041653762968875,5.375023305771908e-07,-0.0065857954323291,-0.0153383798897266,0.9674753546714784,-0.0017228405922651,0.003433316014707,-0.2927173972129822,0.9561913013458252,0.0034886901464415,-0.0241204134350692,1.0030410233775835,-0.0118249058723449,0.1319485902786255,-0.1352367401123047,52,57,-7973,8349
22.1,1788168203082,-1.408450722694397,1.4647886753082275,-0.0019501686329022,0.0033482823055237,-0.2754989564418793,0.9612935781478882,0.002707396016576,-0.0024256776324484,4.408567946315848e-07,-0.0095930583775043,-0.0116551704704761,0.874708890914917,-0.0018770042806863,0.0028368327766656,-0.2564677000045776,0.9665467739105223,0.0091978310271275,-0.0210186098046075,0.7488739157484834,0.302977442741394,-0.186310589313507,0.716160774230957,6,34,-2468,2215
22.2,1788168203182,0.0,0.0,-0.0020784488879144,0.0025623738765716,-0.2470950037240982,0.9689856171607972,0.0073141530237163,-0.005704236060674,2.0421656268090195e-06,-0.0053191767074167,-0.0144014898687601,0.4409025609493255,-0.0020525101572275,0.0024005062878131,-0.2438152134418487,0.9698166251182556,0.0056422158965632,-0.0065128538536028,0.0921378833229159,0.540325403213501,-0.0046135187149047,-0.0507783889770507,0,1,0,0
22.3,1788168203282,0.0,0.0,-0.0020751720294356,0.0025408423971384,-0.2463230639696121,0.9691822528839112,0.0011684578364336,-0.0005100443904128,1.0216131853642984e-07,-0.0015532175311818,0.0040030851960182,-0.0800294056534767,-0.0020230486989021,0.0025560297071933,-0.2470455765724182,0.968998372554779,0.0030267489087479,0.0013169400793812,-0.0387931171574617,0.0562740564346313,0.3205639123916626,0.0041475296020507,0,0,0,0
22.4,1788168203382,0.0,0.0,-0.0020370797719806,0.0025533633306622,-0.2469685971736908,0.9690179228782654,-0.0013135459572237,0.0016811838369179,2.4974216790802918e-11,0.0,4.9298503057571e-09,0.0,-0.0020338864997029,0.0025773625820875,-0.2466373443603515,0.969102382659912,-0.0012233475914731,0.0009771150070172,-3.485502672042813e-05,0.0045150518417358,-0.0312181115150451,0.0132198333740234,0,0,0,0
22.5,1788168203482,0.0,0.0,-0.0020370797719806,0.0025533633306622,-0.2469685971736908,0.9690179228782654,0.0,0.0,0.0,0.0,4.7197263874920745e-09,0.0,-0.0020191427320241,0.0025777025148272,-0.2466336488723755,0.969103217124939,0.0005595964162239,-8.746299074563646e-05,-0.0005740967554481,-0.0008659958839416,-0.0171957612037658,0.0294227600097656,0,0,0,0
22.6,1788168203582,0.0,0.0,-0.0020370797719806,0.0025533633306622,-0.2469685971736908,0.9690179228782654,0.0,0.0,0.0,0.0,4.846965051541474e-09,0.0,-0.0020082117989659,0.0025845244526863,-0.2466455101966858,0.9691002368927002,-0.0011400789137938,0.0004351751013407,-0.0037573875244947,-0.0023937821388244,-0.0190831422805786,0.0096511840820312,0,0,0,0
22.7,1788168203682,0.0,0.0,-0.0020370797719806,0.0025533633306622,-0.2469685971736908,0.9690179228782654,0.0,0.0,0.0,0.0,4.858712987498848e-09,0.0,-0.0019922703504562,0.0025699203833937,-0.2466460913419723,0.9691001772880554,-0.0010313367440371,-0.0014886455487145,0.0004808813285755,-0.0079981088638305,0.0218382477760314,0.0133886337280273,0,0,0,0
22.8,1788168203782,0.0,0.0,-0.0020370797719806,0.0025533633306622,-0.2469685971736908,0.9690179228782654,0.0,0.0,0.0,0.0,5.0197126455486796e-09,0.0,-0.0019891746342182,0.0025380980223417,-0.2466877102851867,0.969089686870575,0.0003769884079987,-0.0015033838043438,-0.0005753979881569,-0.0085740089416503,0.009069800376892,0.009739875793457,0,0,0,0
22.9,1788168203882,0.0,0.0,-0.0020370797719806,0.0025533633306622,-0.2469685971736908,0.9690179228782654,0.0,0.0,0.0,0.0,4.830905453445666e-09,0.0,-0.0019885934889316,0.0025256285443902,-0.2467152327299118,0.969082772731781,-0.0008185966130679,0.0007566848944668,-0.0003704807318814,-0.023185908794403,0.0071962475776672,0.0114641189575195,0,0,0,0
23.0,1788168203982,0.0,0.0,-0.0020370797719806,0.0025533633306622,-0.2469685971736908,0.9690179228782654,0.0,0.0,0.0,0.0,4.863697000700995e-09,0.0,-0.0019487421959638,0.0024936012923717,-0.2467562705278396,0.96907240152359,-0.0001512952712117,0.0009856903309159,-0.0014677448667656,0.0109393000602722,-0.0269033908843994,0.0167169570922851,0,0,0,0
23.1,1788168204082,0.0,0.0,-0.0020370797719806,0.0025533633306622,-0.2469685971736908,0.9690179228782654,0.0,0.0,0.0,0.0,4.844258771896648e-09,0.0,-0.0019231745973229,0.0024828864261507,-0.2467188388109207,0.9690820574760436,-0.0005123009669666,-0.0006205432732958,0.0010240946708849,0.0272598266601562,-0.0059015154838562,-0.0082063674926757,0,0,0,0
23.2,1788168204182,0.0,0.0,-0.0020370797719806,0.0025533633306622,-0.2469685971736908,0.9690179228782654,0.0,0.0,0.0,0.0,4.981635992606925e-09,0.0,-0.0019336240366101,0.0025000954046845,-0.2466777116060257,0.9690923690795898,0.0006250484813651,0.0006049893915508,0.0011113923607785,0.0038893222808837,0.0015712976455688,0.0313882827758789,0,0,0,0
23.3,1788168204282,0.0,0.0,-0.0020370797719806,0.0025533633306622,-0.2469685971736908,0.9690179228782654,0.0,0.0,0.0,0.0,4.7762500621217904e-09,0.0,-0.0019040144979953,0.0024784347042441,-0.2467229217290878,0.9690809845924376,0.0003297757514109,0.0005492133759652,0.0012493164841632,-0.0086259245872497,-0.0061490535736083,0.0130472183227539,0,0,0,0
23.4,1788168204382,0.0,0.0,-0.0020370797719806,0.0025533633306622,-0.2469685971736908,0.9690179228782654,0.0,0.0,0.0,0.0,4.86202278437986e-09,0.0,-0.0019380562007427,0.0023982878774404,-0.2467101365327835,0.96908438205719,0.0003796917104224,-0.0018573635473425,-0.0011142393460282,0.0026014447212219,-0.0003462433815002,-0.0032787322998046,0,0,0,0
23.5,1788168204482,0.0,0.0,-0.0020370797719806,0.0025533633306622,-0.2469685971736908,0.9690179228782654,0.0,0.0,0.0,0.0,4.875935655235253e-09,0.0,-0.0019661048427224,0.0023203706368803,-0.2467332333326339,0.9690787196159364,-0.0008165273262241,-0.0015055066898724,0.0004930281157193,-0.0075997710227966,0.0139378309249877,0.0130224227905273,0,0,0,0
23.6,1788168204582,0.0,0.0,-0.0020370797719806,0.0025533633306622,-0.2469685971736908,0.9690179228782654,0.0,0.0,0.0,0.0,7.47367767672813e-09,0.0,-0.0020206160843372,0.0022893687710165,-0.2467505633831024,0.969074249267578,-0.0002245599260054,-0.0022794399295999,0.0018973930392333,-0.0059064030647277,0.0288463830947875,-0.0101404190063476,0,0,0,0
23.7,1788168204682,0.0,0.0,-0.0020370797719806,0.0025533633306622,-0.2469685971736908,0.9690179228782654,0.0,0.0,0.0,0.0,4.722862101402825e-09,0.0,-0.0021217809990048,0.0022687409073114,-0.2467627674341201,0.9690710306167604,-0.0021398362853855,-0.0005833049538595,-0.0002130440326606,-0.0115278363227844,-0.0003352165222167,-0.0101289749145507,0,0,0,0
23.8,1788168204782,0.0,0.0,-0.0020370797719806,0.0025533633306622,-0.2469685971736908,0.9690179228782654,0.0,0.0,0.0,0.0,4.843491829831237e-09,0.0,-0.0021805958822369,0.0022491104900836,-0.2467131167650222,0.9690835475921632,-0.0027390749501978,-0.0001684176103507,-0.0002269479311492,-0.0151601433753967,-0.0196865200996398,0.0078287124633789,0,0,0,0
23.9,1788168204882,0.0,0.0,-0.0020370797719806,0.0025533633306622,-0.2469685971736908,0.9690179228782654,0.0,0.0,0.0,0.0,4.836573364030983e-09,0.0,-0.0022041397169232,0.0022506332024931,-0.2466804236173629,0.969091773033142,-0.0004082194549999,-0.0003158260485462,0.0006780979609721,-0.0166883468627929,0.0039514303207397,-0.0064306259155273,0,0,0,0
24.0,1788168204982,0.0,0.0,-0.0020370797719806,0.0025533633306622,-0.2469685971736908,0.9690179228782654,0.0,0.0,0.0,0.0,7.284902903137436e-09,0.0,-0.0022369381040334,0.0022469758987426,-0.2466706335544586,0.969094216823578,-0.0001658823426814,0.0002669544596061,0.001573347778218,-0.0128986239433288,0.0112170577049255,-0.0081138610839843,0,0,0,0
24.1,1788168205082,0.0,0.0,-0.0020370797719806,0.0025533633306622,-0.2469685971736908,0.9690179228782654,0.0,0.0,0.0,0.0,4.7080805920529656e-09,0.0,-0.0022684521973133,0.0022441009059548,-0.2466877400875091,0.9690897464752196,-0.0006022125399024,-0.000374453354024,0.0001297910085717,-0.0182457566261291,-0.0190669298171997,-0.0208015441894531,0,0,0,0
24.2,1788168205182,0.0,0.0,-0.0021564550697803,0.0023855026811361,-0.246878445148468,0.969041109085083,0.0,0.0,0.0,0.0,-4.863007330158098e-09,0.0,-0.002267463132739,0.0022091204300522,-0.2467136830091476,0.9690831899642944,-0.0007518927962041,-0.001254909449061,-0.0012856568954998,0.0098974704742431,-0.0090340971946716,0.0082263946533203,0,0,0,0
24.3,1788168205282,0.0,0.0,-0.0021564550697803,0.0023855026811361,-0.246878445148468,0.969041109085083,0.0,0.0,0.0,0.0,-4.836867795177113e-09,0.0,-0.0023065190762281,0.0021911170333623,-0.2466893196105957,0.9690893888473512,-0.0015680241731599,-0.0013555311932149,0.0038023998879681,-0.0263991951942443,0.003847062587738,0.008209228515625,0,0,0,0
24.4,1788168205382,0.0,0.0,-0.0021564550697803,0.0023855026811361,-0.246878445148468,0.969041109085083,0.0,0.0,0.0,0.0,-5.009856973714477e-09,0.0,-0.0023201471194624,0.0022090431302785,-0.2466731816530227,0.9690935015678406,2.6729606261294264e-05,1.2752519101489732e-05,0.0019134318150771,0.0011561512947082,0.0165325999259948,-0.0220909118652343,0,0,0,0
24.5,1788168205482,0.0,0.0,-0.0021564550697803,0.0023855026811361,-0.246878445148468,0.969041109085083,0.0,0.0,0.0,0.0,-4.797407360257466e-09,0.0,-0.0023745847865939,0.0022435812279582,-0.2466513067483902,0.9690988063812256,-0.0014341506375842,0.0005334547495003,0.0003012795984363,-0.0235695242881774,-0.0185446143150329,0.0028266906738281,0,0,0,0
24.6,1788168205582,0.0,0.0,-0.0021564550697803,0.0023855026811361,-0.246878445148468,0.969041109085083,0.0,0.0,0.0,0.0,-4.875759351818942e-09,0.0,-0.0024085715413093,0.0021999375894665,-0.2466565817594528,0.9690974950790404,-0.000967007248207,-0.0026026970783535,-5.0616510578763545e-05,-0.0045857429504394,-0.0128712654113769,-0.0186452865600585,0,0,0,0
24.7,1788168205682,0.0,0.0,-0.0021564550697803,0.0023855026811361,-0.246878445148468,0.969041109085083,0.0,0.0,0.0,0.0,-4.820188248544355e-09,0.0,-0.002407107502222,0.0022422429174184,-0.2466611266136169,0.9690962433815002,-4.807880205228199e-05,0.0006052296359631,0.0003263538461498,0.016116976737976,-0.0093493461608886,-0.0185708999633789,0,0,0,0
24.8,1788168205782,0.0,0.0,-0.0021564550697803,0.0023855026811361,-0.246878445148468,0.969041109085083,0.0,0.0,0.0,0.0,-5.009456405247192e-09,0.0,-0.0024114428088068,0.0022416235879063,-0.2466574758291244,0.9690971970558168,0.0008616511354647,-0.0004502468759067,0.0006770010265845,-0.0001294016838073,0.0065855979919433,0.0155410766601562,0,0,0,0
24.9,1788168205882,0.0,0.0,-0.0021564550697803,0.0023855026811361,-0.246878445148468,0.969041109085083,0.0,0.0,0.0,0.0,-4.708592626911923e-09,0.0,-0.0023956699296832,0.0021980926394462,-0.2466434240341186,0.9691008925437928,0.0003296976423596,-0.0005728526296468,0.0002999132738312,-0.0097635388374328,-0.0030716061592102,0.0118770599365234,0,0,0,0
25.0,1788168205982,0.0,0.0,-0.0021564550697803,0.0023855026811361,-0.246878445148468,0.969041109085083,0.0,0.0,0.0,0.0,-4.962414035247775e-09,0.0,-0.0024068774655461,0.0022116973996162,-0.2466329634189605,0.9691035151481628,-0.0008661081306892,-0.0006053882810854,0.0006759413754762,-0.0093142986297607,0.0294936895370483,-0.0274887084960937,0,0,0,0
25.1,1788168206082,0.0,0.0,-0.0021564550697803,0.0023855026811361,-0.246878445148468,0.969041109085083,0.0,0.0,0.0,0.0,-4.8240482719563715e-09,0.0,-0.0024223858490586,0.0022570034489035,-0.2466069310903549,0.9691100120544434,-5.188292810937425e-05,0.0014008142611221,0.0026612327796448,-0.0140450596809387,0.0152503848075866,0.0155515670776367,0,0,0,0
25.2,1788168206182,0.0,0.0,-0.0021564550697803,0.0023855026811361,-0.246878445148468,0.969041109085083,0.0,0.0,0.0,0.0,-4.937931397108741e-09,0.0,-0.0024438248947262,0.0023010615259408,-0.2466499954462051,0.9690988659858704,0.0002417416147131,0.0008117438056798,-0.0015822238530914,-0.0078399777412414,-0.0273600220680236,0.0064411163330078,0,0,0,0
25.3,1788168206282,0.0,0.0,-0.0021564550697803,0.0023855026811361,-0.246878445148468,0.969041109085083,0.0,0.0,0.0,0.0,-4.709731271645978e-09,0.0,-0.0024450533092021,0.0022698938846588,-0.2466199100017547,0.9691065549850464,-0.0011089720062903,0.0008049930052404,0.0001368931235657,0.016850471496582,0.0281362533569335,-0.0183324813842773,0,0,0,0
25.4,1788168206382,0.0,0.0,-0.0021564550697803,0.0023855026811361,-0.246878445148468,0.969041109085083,0.0,0.0,0.0,0.0,-4.849721957356223e-09,0.0,-0.00247098878026,0.0022831968963146,-0.2466771155595779,0.9690919518470764,-0.0002421305631651,-4.6838182865250646e-05,-0.000572991143885,0.0042935013771057,0.0032898187637329,0.0102806091308593,0,0,0,0
25.5,1788168206482,0.0,0.0,-0.0021564550697803,0.0023855026811361,-0.246878445148468,0.969041109085083,0.0,0.0,0.0,0.0,-4.819396437483192e-09,0.0,-0.0024708034470677,0.0023073377087712,-0.2466506063938141,0.9690986275672911,-0.0007559058591448,0.0001243471674612,0.0001404491301408,-0.0041471719741821,-0.0164031982421875,-0.0077743530273437,0,0,0,0
25.6,1788168206582,0.0,0.0,-0.0021564550697803,0.0023855026811361,-0.246878445148468,0.969041109085083,0.0,0.0,0.0,0.0,-4.957578791930928e-09,0.0,-0.0024487748742103,0.0022939909249544,-0.2466417104005813,0.9691008925437928,-0.0002193012387737,0.0017122207945446,0.0001497144812969,0.0065507888793945,-0.03126722574234,-0.0185499191284179,0,0,0,0
25.7,1788168206682,0.0,0.0,-0.0021564550697803,0.0023855026811361,-0.246878445148468,0.969041109085083,0.0,0.0,0.0,0.0,-3.5758638272653798e-09,0.0,-0.002433150075376,0.0022802669554948,-0.2466287314891815,0.9691043496131896,0.00045971118301,-0.0001387819253295,0.0001904051087681,0.0206696987152099,0.022138237953186,-0.0020885467529296,0,0,0,0
25.8,1788168206782,0.0,0.0,-0.0021564550697803,0.0023855026811361,-0.246878445148468,0.969041109085083,0.0,0.0,0.0,0.0,-4.858228930260111e-09,0.0,-0.0024482905864715,0.0022854432463645,-0.2466365694999694,0.9691022634506226,-2.8949954526767635e-05,-0.0004394401657288,-0.0002346178791292,-0.0098882913589477,0.0026261210441589,0.0048856735229492,0,0,0,0
25.9,1788168206882,0.0,0.0,-0.0021564550697803,0.0023855026811361,-0.246878445148468,0.969041109085083,0.0,0.0,0.0,0.0,-4.857781288336582e-09,0.0,-0.0024879276752471,0.0023179603740572,-0.2466433644294738,0.9691004157066344,-0.0005611838565893,0.0017192124331381,0.0006864836995771,-0.0059022903442382,-0.0108864307403564,0.0102357864379882,0,0,0,0
26.0,1788168206982,0.0,0.0,-0.0021564550697803,0.0023855026811361,-0.246878445148468,0.969041109085083,0.0,0.0,0.0,0.0,-4.987759094632338e-09,0.0,-0.0024709785357117,0.0023010792210698,-0.246639221906662,0.9691015481948853,0.0008704531891711,-0.0009325295368498,-0.0012885655337733,0.0100338459014892,0.0048747062683105,0.0067815780639648,0,0,0,0
26.1,1788168207082,0.0,0.0,-0.0021564550697803,0.0023855026811361,-0.246878445148468,0.969041109085083,0.0,0.0,0.0,0.0,-3.578904061996013e-09,0.0,-0.0024828799068927,0.0023104334250092,-0.2466303408145904,0.9691036939620972,0.0004725495030697,0.0002748669011624,-0.0005158312257817,0.0190659165382385,-0.0075318217277526,0.0193567276000976,0,0,0,0
26.2,1788168207182,0.0,0.0,-0.0021564550697803,0.0023855026811361,-0.246878445148468,0.969041109085083,0.0,0.0,0.0,0.0,-4.8699297927612414e-09,0.0,-0.0024527357891201,0.002369419671595,-0.2466354221105575,0.969102382659912,0.0005266463620501,0.0008269821529619,0.0005040339025302,-0.0155728459358215,-0.0078362226486206,0.0138158798217773,0,0,0,0
26.3,1788168207282,0.0,0.0,-0.0021564550697803,0.0023855026811361,-0.246878445148468,0.969041109085083,0.0,0.0,0.0,0.0,-4.847157786258549e-09,0.0,-0.0024425229057669,0.0024102320894598,-0.2467153221368789,0.9690819978713988,0.000547090247004,0.0010195220752243,-0.0023577011861452,0.0338807702064514,0.0084119439125061,-0.0200166702270507,0,0,0,0
26.4,1788168207382,0.0,0.0,-0.0021564550697803,0.0023855026811361,-0.246878445148468,0.969041109085083,0.0,0.0,0.0,0.0,-5.01754815473987e-09,0.0,-0.0024365540593862,0.002411707304418,-0.246771439909935,0.9690676927566528,-0.0005217339024058,0.0015528630438891,-0.0021809923462448,-0.0093406438827514,-0.0116389989852905,0.0138349533081054,0,0,0,0
26.5,1788168207482,0.0,0.0,-0.0021564550697803,0.0023855026811361,-0.246878445148468,0.969041109085083,0.0,0.0,0.0,0.0,-4.707670697712274e-09,0.0,-0.0024502296000719,0.002409603446722,-0.2468015700578689,0.9690598845481871,-0.0001370274701852,-0.0003907998831781,-0.0018843010873214,-0.0004706382751464,-0.0275755524635314,0.0102100372314453,0,0,0,0
26.6,1788168207582,0.0,0.0,-0.0021564550697803,0.0023855026811361,-0.246878445148468,0.969041109085083,0.0,0.0,0.0,0.0,-4.853624613332386e-09,0.0,-0.002475356683135,0.0024564508348703,-0.2468072474002838,0.9690583348274232,-0.0013636696221147,0.0009690442955889,0.000311157867555,0.000363290309906,-0.0142497420310974,-0.0094890594482421,0,0,0,0
26.7,1788168207682,0.0,0.0,-0.0021564550697803,0.0023855026811361,-0.246878445148468,0.969041109085083,0.0,0.0,0.0,0.0,-4.852587220938176e-09,0.0,-0.0024974700063467,0.0024011163040995,-0.2468650192022323,0.9690436124801636,-0.0003277421003978,-0.0005763554393778,-0.0003841174045855,-0.0152405500411987,0.0001872181892395,-0.000528335571289,0,0,0,0
26.8,1788168207782,0.0,0.0,-0.0021564550697803,0.0023855026811361,-0.246878445148468,0.969041109085083,0.0,0.0,0.0,0.0,-7.279905567258993e-09,0.0,-0.0025270646438002,0.0023967185989022,-0.2468578368425369,0.9690455198287964,-0.0006612864566356,-0.0001505566495934,0.0010647554871143,0.0043014287948608,0.0276674628257751,-0.0057287216186523,0,0,0,0
26.9,1788168207882,0.0,0.0,-0.0021564550697803,0.0023855026811361,-0.246878445148468,0.969041109085083,0.0,0.0,0.0,0.0,-4.758730298703995e-09,0.0,-0.0025208862498402,0.002431022003293,-0.2468707710504531,0.9690420627593994,0.0003783006373249,0.0004681775347739,-0.0007475151911123,0.003138244152069,-0.0082640051841735,0.0012874603271484,0,0,0,0
27.0,1788168207982,0.0,0.0,-0.0021564550697803,0.0023855026811361,-0.246878445148468,0.969041109085083,0.0,0.0,0.0,0.0,-4.839403100476147e-09,0.0,-0.0025009298697113,0.0024192230775952,-0.2468894571065902,0.9690374135971068,0.0007105543571938,0.0003998605233059,0.0007966064306933,-0.0059669017791748,-0.0248481631278991,-0.0060205459594726,0,0,0,0
27.1,1788168208082,0.0,0.0,-0.0021564550697803,0.0023855026811361,-0.246878445148468,0.969041109085083,0.0,0.0,0.0,0.0,-4.851843815600887e-09,0.0,-0.0025282790884375,0.0023925136774778,-0.246917113661766,0.9690303802490234,0.0002058356704709,0.0002721965941675,-0.0007264434865762,-0.0137823224067687,-0.0280271172523498,-0.0114593505859375,0,0,0,0
27.2,1788168208182,0.0,0.0,-0.0021564550697803,0.0023855026811361,-0.246878445148468,0.969041109085083,0.0,0.0,0.0,0.0,-4.909407547160072e-09,0.0,-0.0025313394144177,0.0023617725819349,-0.2469072937965393,0.9690330028533936,-0.0001513991209978,-0.0001590100895428,0.0005664480330819,0.0125862956047058,0.0024525523185729,-0.0184001922607421,0,0,0,0
27.3,1788168208282,0.0,0.0,-0.0021564550697803,0.0023855026811361,-0.246878445148468,0.969041109085083,0.0,0.0,0.0,0.0,-3.5734979419999036e-09,0.0,-0.0025423103943467,0.0023948801681399,-0.2469108402729034,0.9690318703651428,0.0001096171104911,-0.0008396681911077,-0.0011262187235838,-0.0120136737823486,0.015383243560791,-0.0130672454833984,0,0,0,0
27.4,1788168208382,0.0,0.0,-0.0021564550697803,0.0023855026811361,-0.246878445148468,0.969041109085083,0.0,0.0,0.0,0.0,-4.8584674061658015e-09,0.0,-0.0025345534086227,0.0023897066712379,-0.2469524294137954,0.9690213799476624,0.0003863788927377,0.0013322796314945,-0.0010928360392028,0.0130801200866699,0.0098391771316528,-0.0165719985961914,0,0,0,0
27.5,1788168208482,0.0,0.0,-0.0021564550697803,0.0023855026811361,-0.246878445148468,0.969041109085083,0.0,0.0,0.0,0.0,-4.8620485415540315e-09,0.0,-0.0025399327278137,0.0024164402857422,-0.2469544410705566,0.9690207242965698,-0.0003212477497106,0.0006398567556947,-0.0020005816415276,-0.009939968585968,-0.0116273760795593,0.0155754089355468,0,0,0,0
27.6,1788168208582,0.0,0.0,-0.0021564550697803,0.0023855026811361,-0.246878445148468,0.969041109085083,0.0,0.0,0.0,0.0,-5.0400426054864064e-09,0.0,-0.002556862309575,0.0024461867287755,-0.2469564974308014,0.969020128250122,-0.0004862544969802,-0.0011073434504892,-0.0005606548737041,0.0139517784118652,0.0427761673927307,0.0015459060668945,0,0,0,0
27.7,1788168208682,0.0,0.0,-0.0021564550697803,0.0023855026811361,-0.246878445148468,0.969041109085083,0.0,0.0,0.0,0.0,-4.813996756780625e-09,0.0,-0.0025604190304875,0.0024289032444357,-0.2469362467527389,0.9690253138542176,0.000198098069638,-0.0002673157739937,0.0019408112181274,-0.0043235421180725,0.0194221138954162,-0.0094003677368164,0,0,0,0
27.8,1788168208782,0.0,0.0,-0.0021564550697803,0.0023855026811361,-0.246878445148468,0.969041109085083,0.0,0.0,0.0,0.0,-4.972302125594297e-09,0.0,-0.0025817807763814,0.0024250587448477,-0.2469612658023834,0.969018816947937,3.4430666658788503e-05,0.0001094615601156,-0.0006277348548061,-0.009944200515747,-0.0053997635841369,0.0012550354003906,0,0,0,0
27.9,1788168208882,0.0,0.0,-0.0021564550697803,0.0023855026811361,-0.246878445148468,0.969041109085083,0.0,0.0,0.0,0.0,-4.8037036570747205e-09,0.0,-0.0025786580517888,0.0024094572290778,-0.2469706833362579,0.9690165519714355,-0.0001366832524832,-0.0006091293185332,-0.0018320295716089,0.0149248242378234,0.003441572189331,-0.0003948211669921,0,0,0,0
28.0,1788168208982,0.0,0.0,-0.0021564550697803,0.0023855026811361,-0.246878445148468,0.969041109085083,0.0,0.0,0.0,0.0,-4.918390583696919e-09,0.0,-0.002586405724287,0.0023938026279211,-0.2469774782657623,0.9690148830413818,0.0005549893492596,0.0004353613629798,-0.0007219242728288,-0.0034665465354919,-0.0325002670288085,0.0209274291992187,0,0,0,0
28.1,1788168209082,0.0,0.0,-0.0021564550697803,0.0023855026811361,-0.246878445148468,0.969041109085083,0.0,0.0,0.0,0.0,-3.578291885020235e-09,0.0,-0.0025665257126092,0.0023904936388134,-0.2469945698976516,0.9690104722976683,0.0007482239456733,0.000638330950321,-0.000211109264729,-0.0159462094306945,0.0084707736968994,0.0066709518432617,0,0,0,0
28.2,1788168209182,0.0,0.0,-0.0021564550697803,0.0023855026811361,-0.246878445148468,0.969041109085083,0.0,0.0,0.0,0.0,-4.8603485680587255e-09,0.0,-0.0025707529857754,0.0023786528035998,-0.2470029592514038,0.969008445739746,0.0002387806592782,-0.0004727548716606,-0.0014093446854646,-0.0233405828475952,-0.0238010883331298,-0.0024919509887695,0,0,0,0
28.3,1788168209282,0.0,0.0,-0.0021564550697803,0.0023855026811361,-0.246878445148468,0.969041109085083,0.0,0.0,0.0,0.0,-4.843108136753926e-09,0.0,-0.0025396579876542,0.0023420453071594,-0.2470356673002243,0.9690002202987672,0.0010119919323848,-0.0013380028535359,-0.0013968659652855,0.0013498663902282,-0.0047178864479064,-0.0238628387451171,0,0,0,0
28.4,1788168209382,0.0,0.0,-0.0021564550697803,0.0023855026811361,-0.246878445148468,0.969041109085083,0.0,0.0,0.0,0.0,-4.8937933705417436e-09,0.0,-0.002530169673264,0.0023301877081394,-0.2470449954271316,0.9689978957176208,0.0005320516741422,-0.0009345186713247,0.0003063989873826,-0.0133489370346069,0.0057945847511291,0.0061321258544921,94,91,-4079,-4079
28.5,1788168209482,-2.5352113246917725,-2.4788732528686523,-0.0023394285235553,0.0024426402524113,-0.247154027223587,0.9689702987670898,-0.007169652020073,0.0002402978005843,4.840690064161512e-07,-0.0077987588010728,0.0004477081238292,-0.0116368820890784,-0.0026075495406985,0.0025965720415115,-0.2477734535932541,0.9688109755516052,-0.0077951835785503,0.0049931129142857,-0.0326241157671592,-1.5473514795303345,0.0020695924758911,0.2742137908935547,112,177,-8409,-8773
28.6,1788168209582,-2.4788732528686523,-2.309859037399292,-0.00248290062882,0.0025252690538764,-0.2475473284721374,0.9688693284988404,-0.0946412444310912,0.0035671287783029,3.176808741951117e-09,0.0,0.0,0.0,-0.0031611174345016,0.0023339660838246,-0.24588043987751,0.9692922234535216,-0.001086002973089,0.0048501454330657,0.0436409881471178,0.2461807131767273,-0.1669718027114868,0.3711891174316406,35,64,-6385,-7018
28.7,1788168209682,-2.253521203994751,-2.2253520488739014,-0.0031638583168387,0.002462682314217,-0.2459043562412262,0.969285786151886,-0.0768451001419303,0.0024615543889136,-2.2176194230969327e-09,-0.0031427876092493,0.005197218619287,0.024130992591381,-0.0032135061919689,0.0023443419486284,-0.2456166297197342,0.9693589210510254,0.0009296526568697,-0.0121087066837351,-0.0050773694114887,-0.1816939115524292,0.0132475495338439,0.0449771881103515,58,102,-6838,-7518
28.8,1788168209782,-2.169013977050781,-2.1408450603485107,-0.0031522046774625,0.002087096683681,-0.2465661466121673,0.969118595123291,-0.0773770791026612,0.0002012043450689,-2.448398297706436e-05,0.0044009047560393,-0.0150686353445053,-0.0287249349057674,-0.0030693328008055,0.0021909056231379,-0.2468505352735519,0.9690462350845336,-0.000698184862684,0.0079518131633785,0.0007156421160055,-0.3445090055465698,-0.1092870831489563,0.6041355133056641,91,89,-7215,-7375
28.9,1788168209882,-2.253521203994751,-2.1408450603485107,-0.0031522049102932,0.002087096683681,-0.2465661615133285,0.969118595123291,-0.0773958888177328,0.002993556546488,1.341077687371532e-09,0.0,4.751777193945372e-09,-6.082274808250077e-07,-0.0033229012042284,0.0023603420704603,-0.2456423789262771,0.9693519473075868,-0.0072209187789339,0.0055500837979765,0.034688613410962,0.1815839409828186,-0.0700724720954895,0.2976837158203125,77,93,-6690,-7098
29.0,1788168209982,-2.3380281925201416,-2.169013977050781,-0.0032484466210007,0.0022715274244546,-0.2461128830909729,0.9692330956459044,-0.0794769736375117,0.0042581128765711,7.849486115443654e-06,-0.0059146774001419,0.0065093478187918,0.0198627207428216,-0.0033450666815042,0.0026448983699083,-0.2454854249954223,0.9693909287452698,-0.0049601969215485,0.0146122108584686,0.0088061380389264,-0.1196438670158386,-0.1989812850952148,-0.6597127914428711,48,85,-6490,-7526
29.1,1788168210082,-2.169013977050781,-2.11267614364624,-0.0035326092038303,0.0025374505203217,-0.2454919815063476,0.9693889617919922,-0.1817590222471561,0.001825897905424,-2.52859928175062e-05,-0.0024900117423385,-0.0117869582027196,0.0109042916446924,-0.0033361287787556,0.0029044607654213,-0.2459778636693954,0.9692654013633728,0.0030755867219336,0.0161953132041807,-0.0343617044301135,-0.0712326169013977,-0.0950018167495727,0.0773458480834961,49,97,-6981,-7704
29.2,1788168210182,-2.05633807182312,-2.169013977050781,-0.0033717849291861,0.0028960539493709,-0.2467487603425979,0.9690693020820618,-0.0792852879883516,-0.0017680656887602,6.841305385146532e-06,0.0001658666151342,0.0026454827748239,-0.014237287454307,-0.0031709736213088,0.0028932513669133,-0.2470740973949432,0.9689871072769164,0.0073200744690261,0.0126978181705364,-0.009400035336884,0.1733754277229309,-0.0156841874122619,0.1146602630615234,85,67,-6249,-5658
29.3,1788168210282,0.0,0.0,-0.0033379353117197,0.002782963681966,-0.2469627857208252,0.9690152406692504,-0.0632182927467347,0.0001468716988573,4.555427706140582e-11,-1.7941377272734371e-09,5.382413181820311e-09,0.0,-0.00341999810189,0.0019695442169904,-0.2467752695083618,0.9690647721290588,0.0018912454207258,-0.0256903556267314,0.0052265261290657,1.2308225631713867,-0.1445344686508178,-0.3661823272705078,0,0,0,0
29.4,1788168210382,0.0,0.0,-0.0032004860695451,0.0028095382731407,-0.2485712617635727,0.968604326248169,0.0181619595773938,0.0005240092685425,-9.498794467345046e-06,0.0005314418231137,0.0204301383346319,-0.0627056360244751,-0.0032005012035369,0.0028111133724451,-0.2485920339822769,0.9685989618301392,-0.0010621260257951,-0.0142063964102849,0.0114840744808899,-0.2939648628234863,0.0237365365028381,0.1900138854980468,0,0,0,0
29.5,1788168210482,0.0,0.0,-0.0031492125708609,0.0029627087060362,-0.2487955242395401,0.9685463905334472,-0.00273761660879,0.0001562285594295,-8.997898352690413e-10,0.0,2.429892287381108e-09,0.0,-0.0031351177021861,0.0028573926538228,-0.2486303299665451,0.9685891270637512,0.0010675943360476,-0.0001083526423713,0.0044468486324752,0.008399486541748,0.0220952630043029,-0.0888662338256836,0,0,0,0
29.6,1788168210582,0.0,0.0,-0.0031492125708609,0.0029627087060362,-0.2487955242395401,0.9685463905334472,-0.0007943930833974,-0.0001753415088865,-2.103499254466185e-09,0.0,1.8428324422004039e-09,0.0,-0.0031312108039855,0.0028371894732117,-0.2487170249223709,0.9685669541358948,0.0004231295035383,0.0015647597945936,-0.0028654350357415,-0.0191720128059387,-0.0052629709243774,-0.029829978942871,0,0,0,0
29.7,1788168210682,0.0,0.0,-0.0031492125708609,0.0029627087060362,-0.2487955242395401,0.9685463905334472,0.0,0.0,0.0,0.0,1.8013035507635775e-09,0.0,-0.0030989907681941,0.0028508882969617,-0.2487112581729889,0.9685685038566588,-0.0001443215938492,0.0007426353093242,-0.0003617754322329,-0.0081115961074829,-0.0005480647087097,0.0007686614990234,0,0,0,0
29.8,1788168210782,0.0,0.0,-0.0031492125708609,0.0029627087060362,-0.2487955242395401,0.9685463905334472,0.0,0.0,0.0,0.0,2.425338152534096e-09,0.0,-0.0031242789700627,0.0028623780235648,-0.2486760020256042,0.9685774445533752,-0.0011647519614922,0.0012970402364421,-0.0012427379957663,-0.0062494874000549,0.0215092897415161,0.0080556869506835,0,0,0,0
29.9,1788168210882,0.0,0.0,-0.0031492125708609,0.0029627087060362,-0.2487955242395401,0.9685463905334472,0.0,0.0,0.0,0.0,2.4289068534244507e-09,0.0,-0.0031199371442198,0.0028543500229716,-0.2486515343189239,0.9685837626457214,-0.0003441170993405,-0.0009854063502388,0.002279272470465,0.0043346881866455,-0.0002265572547912,0.0223798751831054,0,0,0,0
30.0,1788168210982,0.0,0.0,-0.0031492125708609,0.0029627087060362,-0.2487955242395401,0.9685463905334472,0.0,0.0,0.0,0.0,2.4338437931703542e-09,0.0,-0.003123172558844,0.0028702644631266,-0.2486426830291748,0.9685860276222228,-0.0003297611177548,0.0005847227291882,0.0021930255931483,-0.0078800320625305,-0.0072042346000671,0.0061311721801757,0,0,0,0
30.1,1788168211082,0.0,0.0,-0.0031492125708609,0.0029627087060362,-0.2487955242395401,0.9685463905334472,0.0,0.0,0.0,0.0,1.7868477808491432e-09,0.0,-0.003136221319437,0.0028758784756064,-0.248612567782402,0.9685936570167542,-0.0005990944686624,-0.0006167381478966,-0.0008951476839362,-0.0119063258171081,0.0004103779792785,-0.0303516387939453,0,0,0,0
30.2,1788168211182,0.0,0.0,-0.0031492125708609,0.0029627087060362,-0.2487955242395401,0.9685463905334472,0.0,0.0,0.0,0.0,2.4246449292775196e-09,0.0,-0.0031231008470058,0.0028413403779268,-0.2485658675432205,0.9686058163642884,0.0003721490256675,-0.0008015948274288,0.0006776865970501,0.0113023519515991,-0.001991868019104,0.0134220123291015,0,0,-739,-739
30.3,1788168211282,-2.563380241394043,-2.4788732528686523,-0.0031492125708609,0.0029627087060362,-0.2487955242395401,0.9685463905334472,-0.0065330554686474,0.0005019699418794,1.6864844847309136e-09,0.0,2.43062636684499e-09,0.0,-0.0031580021604895,0.0026794159784913,-0.2485084384679794,0.9686209559440612,0.0019899395389896,0.0239287584817159,-0.0036912508602199,0.413590669631958,0.1197877526283264,0.9245309829711914,59,106,-7931,-8116
30.4,1788168211382,-2.281690120697021,-2.3380281925201416,-0.0032143453136086,0.0026416194159537,-0.2486781328916549,0.9685773253440856,-0.0920101935308871,-0.0005368318059423,-1.28909732510911e-09,0.0,0.0,0.0,-0.0031618950888514,0.0026127621531486,-0.2493876963853836,0.9683950543403624,-0.0079748952871685,-0.0240197587700305,-0.0131452736587669,-0.0796922445297241,-0.013374924659729,-0.3534317016601562,56,59,-7128,-6586
30.5,1788168211482,-2.281690120697021,-2.3380281925201416,-0.0031128583941608,0.0027419780381023,-0.2490351647138595,0.9684855341911316,-0.0753471845094099,0.0047454449766064,-9.098631119129641e-10,0.0,2.40128827933006e-09,0.0,-0.0031290119513869,0.0028458144515752,-0.2490704506635666,0.968476176261902,0.0057317241109819,-0.0023508071007705,-0.0100042815208184,-0.1547120809555053,0.1087615489959716,0.1945676803588867,104,75,-7228,-6711
30.6,1788168211582,-2.0281689167022705,-2.08450698852539,-0.0031128583941608,0.0027419780381023,-0.2490351647138595,0.9684855341911316,-0.0786066265808993,-0.0006963168280977,-1.429661959091785e-09,0.0,2.4813116006328073e-09,0.0,-0.0030338633805513,0.0026964778080582,-0.2493547797203064,0.968403697013855,0.0065718008460456,0.0078919094549164,-0.0091878504847736,0.2213889360427856,-0.0504875779151916,0.3051042556762695,124,126,0,0
30.7,1788168211682,-1.2676056623458862,-1.0985915660858154,-0.0030396315269172,0.002635954413563,-0.2494937032461166,0.9683680534362792,-0.0493855947043964,0.000864313678159,-1.1961586597387046e-06,0.0040950495749711,-0.0034480467438697,-0.0197413060814142,-0.0028485422953963,0.0030375458300113,-0.2495140731334686,0.9683622121810912,0.0016960816640365,0.0525940269658659,0.018559519746199,-0.5456453561782837,0.0030034780502319,-0.0410957336425781,31,63,-2361,-2729
30.8,1788168211782,0.0,0.0,-0.0029210087377578,0.0028729748446494,-0.2498323768377304,0.9682804942131042,-0.01843662203211,0.0005304067882558,3.7357845988978686e-06,0.0023713333066552,0.0109549956396222,-0.0146741811186075,-0.0029115257784724,0.0027898950502276,-0.2493789494037628,0.968397617340088,-0.0006282541018497,-0.010306445051942,0.025116700735361,0.358825147151947,-0.0250670909881591,0.2231817245483398,0,0,0,0
30.9,1788168211882,0.0,0.0,-0.0029210089705884,0.0028729746118187,-0.2498323768377304,0.9682804942131042,0.002497605516719,-0.0005719594928214,3.382735075324007e-10,0.0,-3.589555097605057e-09,0.0,-0.0028658835217356,0.0029171509668231,-0.2497851401567459,0.9682927131652832,-0.0003189742022815,-0.0027341859855518,0.0016190599605457,-0.0208614468574523,-0.0501760840415954,0.1603460311889648,0,0,0,0
31.0,1788168211982,0.0,0.0,-0.0029210089705884,0.0028729746118187,-0.2498323768377304,0.9682804942131042,-0.0002057303201519,-0.0002139764511672,-1.1292201626616346e-09,0.0,-4.8476245240181015e-09,0.0,-0.0028794445097446,0.0029279626905918,-0.2497773617506027,0.968294620513916,-0.0001602571570661,-0.003108564420125,0.0006649208471518,0.0015302300453186,-0.0420121550559997,0.000624656677246,0,0,0,0
31.1,1788168212082,0.0,0.0,-0.0029210089705884,0.0028729746118187,-0.2498323768377304,0.9682804942131042,0.0,0.0,0.0,0.0,-4.85713558262546e-09,0.0,-0.002907776273787,0.0029517253860831,-0.2497768998146057,0.9682945013046264,0.0005546568861502,0.00098271608917,0.0010550956750185,-0.0251771807670593,0.0160413980484008,0.0187158584594726,0,0,0,0
31.2,1788168212182,0.0,0.0,-0.0029210089705884,0.0028729746118187,-0.2498323768377304,0.9682804942131042,0.0,0.0,0.0,0.0,-4.892017013702343e-09,0.0,-0.0029225265607237,0.0029729017987847,-0.2497800290584564,0.9682937264442444,-0.0012349077783492,0.0011581870981414,0.0008653213122732,-0.0050202012062072,0.0057160854339599,0.002593994140625,0,0,0,0
31.3,1788168212282,0.0,0.0,-0.0029210089705884,0.0028729746118187,-0.2498323768377304,0.9682804942131042,0.0,0.0,0.0,0.0,-3.636087431146961e-09,0.0,-0.0029511405155062,0.0029495963826775,-0.2498043775558471,0.9682872891426086,-0.0002940254425406,-0.0003156917151661,-0.0014721383643981,0.0015092492103576,-0.008290410041809,0.0187320709228515,0,0,0,0
31.4,1788168212382,0.0,0.0,-0.0029210089705884,0.0028729746118187,-0.2498323768377304,0.9682804942131042,0.0,0.0,0.0,0.0,-4.844047385432759e-09,0.0,-0.0029528187587857,0.0029816478490829,-0.2498449087142944,0.9682767987251282,0.0001997514426751,0.0016956958820603,-0.0002088957681076,-0.0069133043289184,-0.0081373453140258,0.0276756286621093,0,0,0,0
31.5,1788168212482,0.0,0.0,-0.0029210089705884,0.0028729746118187,-0.2498323768377304,0.9682804942131042,0.0,0.0,0.0,0.0,-4.813484721921668e-09,0.0,-0.0029604909941554,0.00300467107445,-0.2498423606157302,0.9682772755622864,-0.0003195058883481,0.0006863505244318,-0.0002387115719226,-0.0368584394454956,0.0300197005271911,-0.0153989791870117,0,0,0,0
31.6,1788168212582,0.0,0.0,-0.0029210089705884,0.0028729746118187,-0.2498323768377304,0.9682804942131042,0.0,0.0,0.0,0.0,-4.910975626160052e-09,0.0,-0.0030110497027635,0.0029970584437251,-0.249807670712471,0.9682862162590028,-0.0018114497461727,-0.0002468697043754,-0.0008808135600724,-0.011819839477539,-0.0054408907890319,0.0301904678344726,0,0,0,0
31.7,1788168212682,0.0,0.0,-0.0029210089705884,0.0028729746118187,-0.2498323768377304,0.9682804942131042,0.0,0.0,0.0,0.0,-4.78460115971302e-09,0.0,-0.0030091665685176,0.0030038757249712,-0.2498050183057785,0.9682868123054504,0.0003723255796599,0.0004404134259763,0.0006840636752966,0.0166237950325012,0.0325899720191955,0.0189743041992187,0,0,-739,-739
31.8,1788168212782,-2.5352113246917725,-2.7042253017425537,-0.0029210089705884,0.0028729746118187,-0.2498323768377304,0.9682804942131042,-0.003142473577898,0.0001470760344529,-4.1272917092834837e-10,0.0,-4.8352912784821456e-09,0.0,-0.003149096854031,0.0029661525040864,-0.2500096261501312,0.9682337045669556,-0.0029632887388467,-0.0252776440471802,-0.0084886537605614,-0.0608689188957214,0.102632462978363,-0.2450942993164062,77,82,-8000,-7362
31.9,1788168212882,-2.366197109222412,-2.309859037399292,-0.0029354374855756,0.0032435972243547,-0.2499200254678726,0.9682565927505492,-0.0934245234064179,0.0012854589599326,2.1213157401680194e-10,0.0,2.413585997729228e-09,0.0,-0.0029818601906299,0.0029414417222142,-0.2509448826313019,0.96799236536026,-0.0037601864737169,-0.0028120520924284,-0.0281327071512482,0.0435616970062255,0.040082573890686,-0.2395219802856445,48,43,-6821,-6615
32.0,1788168212982,-2.309859037399292,-2.11267614364624,-0.0029982579872012,0.0030374825000762,-0.2508337199687958,0.968020796775818,-0.0783663704961617,0.0032700821101543,2.240799933744149e-06,-0.0027657868340611,0.001060910639353,-0.0055493540130555,-0.0031519476324319,0.0029312493279576,-0.2495688050985336,0.9683475494384766,0.0037884383618084,0.0048723156495182,0.0279821645919335,0.1420348882675171,-0.3116835355758667,0.4401750564575195,62,71,-6643,-7161
32.1,1788168213082,0.0,0.0,-0.0031308908946812,0.0029497856739908,-0.2503281235694885,0.9681515097618104,-0.0687906828832667,-0.0032306652927315,5.869285533418378e-10,1.2596118814656164e-08,-8.997227851637035e-09,9.213161433763162e-07,-0.0030114352703094,0.0025350200012326,-0.2504209876060486,0.9681290984153748,-0.0001646889764933,-0.0198777359401666,0.0070937154884825,1.9646899700164795,0.018876314163208,0.187291145324707,17,0,-23698,-23871
32.2,1788168213182,0.0,0.0,-0.0031308908946812,0.0029497856739908,-0.2503281235694885,0.9681515097618104,0.0224030497331566,0.0006529033993415,3.543576621425906e-09,0.0,2.4198882897508156e-09,0.0,-0.0029522916302084,0.0030141351744532,-0.249213233590126,0.9684394598007202,-0.0014087576461349,0.0034484550731573,0.0022959573117057,0.1671615839004516,-0.150684654712677,0.2128410339355468,0,0,-32671,-32671
32.3,1788168213282,0.0,0.0,-0.0030204197391867,0.0029552478808909,-0.2497546225786209,0.968299925327301,-0.0033523362671318,-6.635979857659976e-05,-9.45771586868725e-12,7.263525780842883e-09,-2.421175260280961e-08,2.479283466527704e-06,-0.0029640812426805,0.0030172932893037,-0.24942447245121,0.9683851003646852,-0.0008468174317478,0.0081155727444945,-0.0051993981306252,-0.0469893217086792,-0.0197821855545043,-0.1054611206054687,0,0,0,0
32.4,1788168213382,0.0,0.0,-0.0030204197391867,0.0029552478808909,-0.2497546225786209,0.968299925327301,0.0008524543461939,-0.0004053859161766,-1.3918123263135555e-09,0.0,2.43874165306579e-09,0.0,-0.0029584048315882,0.0029613506048917,-0.2495963126420974,0.9683409333229064,0.0017936765233379,0.0030993169947655,-0.0005506989105745,0.0052883028984069,0.004453420639038,0.0223941802978515,0,0,0,0
32.5,1788168213482,0.0,0.0,-0.0030204197391867,0.0029552478808909,-0.2497546225786209,0.968299925327301,0.0,0.0,0.0,0.0,1.7770671600914054e-09,0.0,-0.0029697762802243,0.0029134470969438,-0.2496109157800674,0.9683372974395752,0.0001855585074664,0.0005868719495368,0.0004771323597317,-0.0153478980064392,0.0045187473297119,0.0025463104248046,0,0,0,0
32.6,1788168213582,0.0,0.0,-0.0030204197391867,0.0029552478808909,-0.2497546225786209,0.968299925327301,0.0,0.0,0.0,0.0,2.3729171960695794e-09,0.0,-0.002991622313857,0.0029392046853899,-0.2496036738157272,0.9683389663696288,-0.0001424809687152,0.0016596536917204,0.0018841607010876,-0.0184867978096008,-0.0074456334114074,-0.0136795043945312,0,0,0,0
32.7,1788168213682,0.0,0.0,-0.0030204197391867,0.0029552478808909,-0.2497546225786209,0.968299925327301,0.0,0.0,0.0,0.0,2.428014012068047e-09,0.0,-0.0029756715521216,0.0029354998841881,-0.2495964169502258,0.9683409333229064,-0.0006619186085266,0.0007744234896326,-0.0008954381449821,-0.0024788975715637,-0.0061291456222534,0.024113655090332,0,0,0,0
