time_s,timestamp_ms,wheel_vels__velocity_left,wheel_vels__velocity_right,odom__orient_x,odom__orient_y,odom__orient_z,odom__orient_w,odom__lin_x,odom__lin_y,odom__lin_z,odom__ang_x,odom__ang_y,odom__ang_z,imu__orient_x,imu__orient_y,imu__orient_z,imu__orient_w,imu__angvel_x,imu__angvel_y,imu__angvel_z,imu__acc_x,imu__acc_y,imu__acc_z,wheel_status__current_ma_left,wheel_status__current_ma_right,wheel_status__pwm_left,wheel_status__pwm_right
0.0,1788344893745,0.0,0.0,-0.0056460271589457,-0.0024711429141461,0.4811228811740875,0.8766314387321472,0.0,0.0,0.0,0.0,0.0,0.0,-0.0037616454064846,-0.0052899764850735,0.877007007598877,0.4804336726665497,-0.0001211570034983,0.0011757331451565,-0.0004204679257568,-0.0064436793327331,0.0100136399269104,-0.025801658630371,0,0,0,0
0.1,1788344893845,0.0,0.0,-0.0056460271589457,-0.0024711429141461,0.4811228811740875,0.8766314387321472,0.0,0.0,0.0,0.0,0.0,0.0,-0.0037616454064846,-0.0052899764850735,0.877007007598877,0.4804336726665497,-0.0001211570034983,0.0011757331451565,-0.0004204679257568,-0.0064436793327331,0.0100136399269104,-0.025801658630371,0,0,0,0
0.2,1788344893945,0.0,0.0,-0.0056460271589457,-0.0024711429141461,0.4811228811740875,0.8766314387321472,0.0,0.0,0.0,0.0,0.0,0.0,-0.0037616454064846,-0.0052899764850735,0.877007007598877,0.4804336726665497,-0.0001211570034983,0.0011757331451565,-0.0004204679257568,-0.0064436793327331,0.0100136399269104,-0.025801658630371,0,0,0,0
0.3,1788344894045,0.0,0.0,-0.0056460271589457,-0.0024711429141461,0.4811228811740875,0.8766314387321472,0.0,0.0,0.0,0.0,0.0,0.0,-0.0037616454064846,-0.0052899764850735,0.877007007598877,0.4804336726665497,-0.0001211570034983,0.0011757331451565,-0.0004204679257568,-0.0064436793327331,0.0100136399269104,-0.025801658630371,0,0,0,0
0.4,1788344894145,0.0,0.0,-0.0056460271589457,-0.0024711429141461,0.4811228811740875,0.8766314387321472,0.0,0.0,0.0,0.0,0.0,0.0,-0.0037616454064846,-0.0052899764850735,0.877007007598877,0.4804336726665497,-0.0001211570034983,0.0011757331451565,-0.0004204679257568,-0.0064436793327331,0.0100136399269104,-0.025801658630371,0,0,0,0
0.5,1788344894245,0.0,0.0,-0.0056460271589457,-0.0024711429141461,0.4811228811740875,0.8766314387321472,0.0,0.0,0.0,0.0,0.0,0.0,-0.0037616454064846,-0.0052899764850735,0.877007007598877,0.4804336726665497,-0.0001211570034983,0.0011757331451565,-0.0004204679257568,-0.0064436793327331,0.0100136399269104,-0.025801658630371,0,0,0,0
0.6,1788344894345,0.0,0.0,-0.0056460271589457,-0.0024711429141461,0.4811228811740875,0.8766314387321472,0.0,0.0,0.0,0.0,0.0,0.0,-0.0037616454064846,-0.0052899764850735,0.877007007598877,0.4804336726665497,-0.0001211570034983,0.0011757331451565,-0.0004204679257568,-0.0064436793327331,0.0100136399269104,-0.025801658630371,0,0,0,0
0.7,1788344894445,0.0,0.0,-0.0056460271589457,-0.0024711429141461,0.4811228811740875,0.8766314387321472,0.0,0.0,0.0,0.0,0.0,0.0,-0.0037616454064846,-0.0052899764850735,0.877007007598877,0.4804336726665497,-0.0001211570034983,0.0011757331451565,-0.0004204679257568,-0.0064436793327331,0.0100136399269104,-0.025801658630371,0,0,0,0
0.8,1788344894545,0.0,0.0,-0.0056460271589457,-0.0024711429141461,0.4811228811740875,0.8766314387321472,0.0,0.0,0.0,0.0,0.0,0.0,-0.0037616454064846,-0.0052899764850735,0.877007007598877,0.4804336726665497,-0.0001211570034983,0.0011757331451565,-0.0004204679257568,-0.0064436793327331,0.0100136399269104,-0.025801658630371,0,0,0,0
0.9,1788344894645,0.0,0.0,-0.0056460271589457,-0.0024711429141461,0.4811228811740875,0.8766314387321472,0.0,0.0,0.0,0.0,0.0,0.0,-0.0037616454064846,-0.0052899764850735,0.877007007598877,0.4804336726665497,-0.0001211570034983,0.0011757331451565,-0.0004204679257568,-0.0064436793327331,0.0100136399269104,-0.025801658630371,0,0,0,0
1.0,1788344894745,0.0,0.0,-0.0056460271589457,-0.0024711429141461,0.4811228811740875,0.8766314387321472,0.0,0.0,0.0,0.0,0.0,0.0,-0.0037616454064846,-0.0052899764850735,0.877007007598877,0.4804336726665497,-0.0001211570034983,0.0011757331451565,-0.0004204679257568,-0.0064436793327331,0.0100136399269104,-0.025801658630371,0,0,0,0
1.1,1788344894845,0.0,0.0,-0.0056460271589457,-0.0024711429141461,0.4811228811740875,0.8766314387321472,0.0,0.0,0.0,0.0,0.0,0.0,-0.0037616454064846,-0.0052899764850735,0.877007007598877,0.4804336726665497,-0.0001211570034983,0.0011757331451565,-0.0004204679257568,-0.0064436793327331,0.0100136399269104,-0.025801658630371,0,0,0,0
1.2,1788344894945,0.0,0.0,-0.0056460271589457,-0.0024711429141461,0.4811228811740875,0.8766314387321472,0.0,0.0,0.0,0.0,0.0,0.0,-0.0037616454064846,-0.0052899764850735,0.877007007598877,0.4804336726665497,-0.0001211570034983,0.0011757331451565,-0.0004204679257568,-0.0064436793327331,0.0100136399269104,-0.025801658630371,0,0,0,0
1.3,1788344895045,0.0,0.0,-0.0056460271589457,-0.0024711429141461,0.4811228811740875,0.8766314387321472,0.0,0.0,0.0,0.0,0.0,0.0,-0.0037616454064846,-0.0052899764850735,0.877007007598877,0.4804336726665497,-0.0001211570034983,0.0011757331451565,-0.0004204679257568,-0.0064436793327331,0.0100136399269104,-0.025801658630371,0,0,0,0
1.4,1788344895145,0.0,0.0,-0.0056460271589457,-0.0024711429141461,0.4811228811740875,0.8766314387321472,0.0,0.0,0.0,0.0,0.0,0.0,-0.0037616454064846,-0.0052899764850735,0.877007007598877,0.4804336726665497,-0.0001211570034983,0.0011757331451565,-0.0004204679257568,-0.0064436793327331,0.0100136399269104,-0.025801658630371,0,0,0,0
1.5,1788344895245,0.0,0.0,-0.0056460271589457,-0.0024711429141461,0.4811228811740875,0.8766314387321472,0.0,0.0,0.0,0.0,0.0,0.0,-0.0037616454064846,-0.0052899764850735,0.877007007598877,0.4804336726665497,-0.0001211570034983,0.0011757331451565,-0.0004204679257568,-0.0064436793327331,0.0100136399269104,-0.025801658630371,0,0,0,0
1.6,1788344895345,0.0,0.0,-0.0056460271589457,-0.0024711429141461,0.4811228811740875,0.8766314387321472,0.0,0.0,0.0,0.0,0.0,0.0,-0.0037616454064846,-0.0052899764850735,0.877007007598877,0.4804336726665497,-0.0001211570034983,0.0011757331451565,-0.0004204679257568,-0.0064436793327331,0.0100136399269104,-0.025801658630371,0,0,0,0
1.7,1788344895445,0.0,0.0,-0.0056460271589457,-0.0024711429141461,0.4811228811740875,0.8766314387321472,0.0,0.0,0.0,0.0,0.0,0.0,-0.0037616454064846,-0.0052899764850735,0.877007007598877,0.4804336726665497,-0.0001211570034983,0.0011757331451565,-0.0004204679257568,-0.0064436793327331,0.0100136399269104,-0.025801658630371,0,0,0,0
1.8,1788344895545,0.0,0.0,-0.0056460271589457,-0.0024711429141461,0.4811228811740875,0.8766314387321472,0.0,0.0,0.0,0.0,0.0,0.0,-0.0037616454064846,-0.0052899764850735,0.877007007598877,0.4804336726665497,-0.0001211570034983,0.0011757331451565,-0.0004204679257568,-0.0064436793327331,0.0100136399269104,-0.025801658630371,0,0,0,0
1.9,1788344895645,0.0,0.0,-0.0056460271589457,-0.0024711429141461,0.4811228811740875,0.8766314387321472,0.0,0.0,0.0,0.0,0.0,0.0,-0.0037616454064846,-0.0052899764850735,0.877007007598877,0.4804336726665497,-0.0001211570034983,0.0011757331451565,-0.0004204679257568,-0.0064436793327331,0.0100136399269104,-0.025801658630371,0,0,0,0
2.0,1788344895745,0.0,0.0,-0.0056460271589457,-0.0024711429141461,0.4811228811740875,0.8766314387321472,0.0,0.0,0.0,0.0,0.0,0.0,-0.0037616454064846,-0.0052899764850735,0.877007007598877,0.4804336726665497,-0.0001211570034983,0.0011757331451565,-0.0004204679257568,-0.0064436793327331,0.0100136399269104,-0.025801658630371,0,0,0,0
2.1,1788344895845,0.0,0.0,-0.0056460271589457,-0.0024711429141461,0.4811228811740875,0.8766314387321472,0.0,0.0,0.0,0.0,0.0,0.0,-0.0037616454064846,-0.0052899764850735,0.877007007598877,0.4804336726665497,-0.0001211570034983,0.0011757331451565,-0.0004204679257568,-0.0064436793327331,0.0100136399269104,-0.025801658630371,0,0,0,0
2.2,1788344895945,0.0,0.0,-0.0056460271589457,-0.0024711429141461,0.4811228811740875,0.8766314387321472,0.0,0.0,0.0,0.0,0.0,0.0,-0.0037660431116819,-0.0052274418994784,0.8770003914833069,0.4804465770721435,0.0009482973714507,-0.000165126729289,0.0004471267364441,-0.0291721820831298,0.0124998092651367,-0.0114459991455078,0,0,0,0
2.3,1788344896045,0.0,0.0,-0.0056460271589457,-0.0024711429141461,0.4811228811740875,0.8766314387321472,0.0,0.0,0.0,0.0,0.0,0.0,-0.0037727737799286,-0.0052253492176532,0.876995325088501,0.4804557263851166,0.0005708550303903,0.0031334661366891,-0.0007748785299532,0.0068325996398925,-0.0235044956207275,0.01361083984375,0,0,0,0
2.4,1788344896145,0.0,0.0,-0.0060032657347619,-0.0023318354506045,0.4813117384910583,0.8765258193016052,0.0007485013263644,-0.0008687852628612,-2.836660676355783e-07,-0.0098735690116882,0.0117337293922901,0.0087414281442761,-0.0037689404562115,-0.0052336938679218,0.8770126104354858,0.480424165725708,-0.000653549135739,-0.0021839782998818,0.0006470636090494,0.006692349910736,0.0197457671165466,0.0030107498168945,0,0,0,0
2.5,1788344896245,0.0,0.0,-0.0060032657347619,-0.0023318354506045,0.4813117384910583,0.8765258193016052,0.0,0.0,0.0,0.0,0.0,0.0,-0.003720000386238,-0.0052261920645833,0.8770114183425903,0.4804266691207886,-0.0001141270549744,-0.0014060973836935,0.000435325949992,0.020256757736206,0.0191227197647094,0.0102128982543945,0,0,0,0
2.6,1788344896345,0.0,0.0,-0.0059468979015946,-0.0023814826272428,0.4813258051872253,0.8765183687210083,5.604550502992685e-05,-6.42108948971998e-05,-7.251746437560944e-07,0.0009978915331885,-0.0027686555404216,0.0006052869139239,-0.003730708733201,-0.0052045434713363,0.8770161271095276,0.4804182946681976,0.0012093115145584,0.000357635784833,0.0009801131730054,0.0082013607025146,0.0209008455276489,-0.043675422668457,0,0,0,0
2.7,1788344896445,0.0,0.0,-0.0059560863301157,-0.0023913090117275,0.4813295900821686,0.8765161633491516,1.527312528822891e-05,-1.744441261251842e-05,-1.9819580033355665e-07,-0.0005042041884735,-0.0001663220464251,0.0001715830294415,-0.0037418603897094,-0.0052059609442949,0.8770046234130859,0.4804392755031585,0.0003978005882827,0.0004780154296,-0.0009904847423181,0.015458345413208,-0.01138836145401,-0.0312137603759765,0,0,0,0
2.8,1788344896545,0.0,0.0,-0.0059560863301157,-0.0023913090117275,0.4813295900821686,0.8765161633491516,0.0,0.0,0.0,0.0,9.482828744467042e-09,0.0,-0.0037418603897094,-0.0052059609442949,0.8770046234130859,0.4804392755031585,0.0003978005882827,0.0004780154296,-0.0009904847423181,0.015458345413208,-0.01138836145401,-0.0312137603759765,0,0,0,0
2.9,1788344896645,0.0,0.0,-0.0059560863301157,-0.0023913090117275,0.4813295900821686,0.8765161633491516,0.0,0.0,0.0,0.0,9.482828744467042e-09,0.0,-0.0037297951057553,-0.0052037695422768,0.8770149946212769,0.4804204404354095,0.000444638080104,-0.0007672603622201,0.0013336398474597,0.0170153975486755,-0.0169814825057983,-0.0150604248046875,0,0,0,0
3.0,1788344896745,0.0,0.0,-0.0059422231279313,-0.0023833941668272,0.4813303053379059,0.8765158653259277,8.58043401223467e-05,-9.930404403545896e-05,-1.1271367909314442e-06,0.0002008462615776,-0.0009269906440749,0.0009730990859679,-0.0037386128678917,-0.005221826955676,0.8770132660865784,0.4804231226444244,-0.0009146325309754,0.0007522935412239,-0.000224975608837,-0.0045545697212219,-0.0237305760383605,-0.0240907669067382,0,0,0,0
3.1,1788344896845,0.0,0.0,-0.0059822467155754,-0.0024094854015856,0.4813438355922699,0.8765081167221069,5.6302778659857015e-05,-6.471035565340548e-05,-7.38670204972426e-07,-0.0010510362917557,-7.336516137002036e-05,0.0006460346630774,-0.0037602148950099,-0.0052744206041097,0.8770120739936829,0.4804247617721557,-0.0013973319514066,-0.0001704072199968,-0.0010007112140709,-0.0083287954330444,-0.022753894329071,0.0100431442260742,0,0,0,0
3.2,1788344896945,0.0,0.0,-0.0059602302499115,-0.0024300455115735,0.4813207387924194,0.8765208721160889,-3.704699058758119e-05,4.3244340317367136e-05,4.989123441580634e-07,0.0010660822736099,-0.0009594072471372,-0.0004358861478976,-0.0037054233253002,-0.0052614212036132,0.8770157098770142,0.4804185628890991,0.0009172266109019,-0.0019939427653224,0.0005591308500103,0.0016294121742248,0.0178541541099548,-0.0005674362182617,0,0,0,0
3.3,1788344897045,0.0,0.0,-0.0059332298114895,-0.0024689114652574,0.4813328087329864,0.8765143752098083,6.0771994244228015e-05,-7.077399476754517e-05,-8.153146015618534e-07,0.0002453847264405,-0.0023373761214315,0.0006648241542279,-0.0036721313372254,-0.0052421381697058,0.8770136833190918,0.4804228544235229,9.978888702351452e-05,0.0002549725101158,0.0002403082309549,0.0120200514793396,0.03702312707901,-0.0166425704956054,0,0,0,0
3.4,1788344897145,0.0,0.0,-0.0059346142224967,-0.0024531092494726,0.4813192188739776,0.87652188539505,-3.53967993726516e-05,4.229174546550218e-05,4.874862276405885e-07,-0.0010754922404885,-7.702063885517418e-05,-0.0004159562813583,-0.0036859065294265,-0.0052584670484066,0.8770087957382202,0.4804314374923706,-0.0010832089758809,0.0002224404570454,-0.0005104747848973,0.0156705975532531,-0.0093279480934143,-0.000650405883789,0,0,0,0
3.5,1788344897245,0.0,0.0,-0.0059686051681637,-0.002461927011609,0.4813298881053924,0.876515805721283,4.650011026687351e-05,-5.351341726676832e-05,-6.166860537587346e-07,-0.0012656166218221,-7.757988350931555e-05,0.0005328527768142,-0.003703792579472,-0.0052972445264458,0.8770154714584351,0.4804185330867767,-0.0018485024467377,-0.0008532818831521,0.0011025198886838,-0.0149715542793273,0.0093269348144531,0.0353116989135742,0,0,0,0
3.6,1788344897345,0.0,0.0,-0.0059804380871355,-0.0024315631017088,0.481330007314682,0.8765156269073486,0.0,0.0,0.0,0.0007015769951976,0.0014472511829808,1.7969556211028248e-05,-0.0037152227014303,-0.0052934912964701,0.8770138621330261,0.4804215133190155,-0.0003812484526497,-0.0015192085875486,0.0003028584299136,-0.0057173371315002,0.027481734752655,-0.0023202896118164,0,0,0,0
3.7,1788344897445,0.0,0.0,-0.0059710699133574,-0.0024711729492992,0.4813279509544372,0.8765167593955994,-1.0249108210558769e-05,1.0486135394478722e-05,1.1917357403888541e-07,-0.0005500093102455,-0.001987351803109,-0.0001314060937147,-0.0037023751065135,-0.0053096404299139,0.8770131468772888,0.4804227948188782,-0.0006176860579894,-0.0001780955463922,0.0002144695183673,-0.0007219314575195,-0.0244938135147094,0.0082578659057617,0,0,0,0
3.8,1788344897545,0.0,0.0,-0.0059507424011826,-0.0024892140645533,0.4813194870948791,0.8765215277671814,1.1086818344623032e-05,-1.3005086286502012e-05,-1.5215564118990428e-07,0.0008352923905476,-0.0001864081859821,0.0001247051259269,-0.0036920728161931,-0.0052809352055191,0.8770132660865784,0.4804230034351349,0.0009784492951498,0.001044403161798,0.0006008132212987,-0.0096650719642639,-0.0108898282051086,0.0496015548706054,0,0,0,0
3.9,1788344897645,0.0,0.0,-0.005915374495089,-0.0024418542161583,0.4813468754291534,0.8765068650245667,7.510662158181081e-05,-8.747767210897444e-05,-1.015422957854155e-06,0.0017693872796371,0.0002303948276676,0.0008648836519569,-0.0036824233829975,-0.0052434066310524,0.8770190477371216,0.4804129898548126,0.0017524424836812,0.0004430883995564,0.0005439499859096,-0.007736325263977,0.0299686193466186,-0.0131044387817382,0,0,0,0
4.0,1788344897745,0.0,0.0,-0.0059257568791508,-0.0024196763988584,0.4813800454139709,0.8764886260032654,4.7081368188299855e-05,-5.534746784768505e-05,-6.382499447923186e-07,0.0003484829503577,0.0007364698685705,0.0005637290887534,-0.0036964081227779,-0.0052255131304264,0.8770420551300049,0.4803708791732788,0.0004395232554777,0.0010689514089732,0.0006188116737108,-2.2709369659423828e-05,-0.0008745193481445,0.0083341598510742,0,0,0,0
4.1,1788344897845,0.0,0.0,-0.0059609152376651,-0.0024536296259611,0.4813766479492187,0.8764901757240295,-4.011240184728499e-05,4.659357054512991e-05,5.35443415717877e-07,-0.0011377790942788,-0.0010583194671198,-0.0004749479703605,-0.003742815926671,-0.0052990643307566,0.8770429491996765,0.4803682565689087,-0.0015095603925513,-0.0003576862931196,8.211459954486018e-05,0.0108698010444641,0.0098281502723693,0.0048093795776367,0,0,0,0
4.2,1788344897945,0.0,0.0,-0.0059980265796184,-0.002478745765984,0.481380432844162,0.8764877915382385,-1.667860328071203e-05,1.9538479016623623e-05,2.2677141452314322e-07,-0.0004358939186204,-0.0012547486694529,-0.0002094879455398,-0.0037102596834301,-0.0053178230300545,0.8770352005958557,0.4803823828697204,0.000252144094686,-0.0022504879604696,-0.0008609288809671,0.0154817700386047,-0.0082256197929382,0.0316839218139648,0,0,0,0
4.3,1788344898045,0.0,0.0,-0.0060042133554816,-0.0024936979170888,0.4813654124736786,0.8764959573745728,2.8022728972159512e-05,-3.315973822237732e-05,-3.883211969837041e-07,-0.0005312861176207,2.5872452170006e-05,0.0003289432206656,-0.0037226472049951,-0.0053411936387419,0.8770342469215393,0.4803836345672607,-0.0003968715053832,-0.0004726677246766,4.052599042236779e-05,-0.0239930152893066,-0.0183396339416503,-0.0043287277221679,0,0,0,0
4.4,1788344898145,0.0,0.0,-0.0060237431898713,-0.0025100293569266,0.4813583493232727,0.876499593257904,-4.485461124396796e-05,5.275618530163738e-05,6.203284410990915e-07,-0.0003299407835584,-0.0002899288956541,-0.0005284345825202,-0.0037440974265336,-0.0053152097389101,0.8770361542701721,0.4803805351257324,0.0004137837343135,0.0002097261100022,0.0007096317414689,0.0197546482086181,0.0227908492088317,-0.0220746994018554,0,0,0,0
4.5,1788344898245,0.0,0.0,-0.0060132830403745,-0.0024579633027315,0.4813703596591949,0.8764932155609131,4.732726432354845e-05,-5.4202675127843794e-05,-6.371771344410668e-07,0.0013845312641933,0.0016390113160014,0.0005606549093499,-0.0037650680169463,-0.0052857743576169,0.8770260810852051,0.4803991019725799,0.0006374224705421,0.0013215157687187,-0.0008462708960183,0.0096120238304138,0.0224656462669372,-0.0185012817382812,0,0,0,0
4.6,1788344898345,0.0,0.0,-0.0060077249072492,-0.0023657188285142,0.4813568294048309,0.8765009641647339,-1.7679817638559538e-05,2.0972164553143076e-05,2.3975463995407304e-07,-0.0004461010394152,0.0005737793981097,-0.000201597387786,-0.0037956852465867,-0.0052392249926924,0.8770251870155334,0.4804009199142456,-0.0014613758056514,-0.0003166963872256,-0.0013145346279593,0.0285427570343017,0.0004011392593383,-0.020359992980957,0,0,0,0
4.7,1788344898445,0.0,0.0,-0.0060207257047295,-0.0023571362253278,0.4813346862792969,0.8765130043029785,3.137468557928039e-07,-4.933222105828941e-07,-5.840839675753499e-09,0.0008254112908616,0.00096514262259,1.6370737284887582e-05,-0.0038257678970694,-0.0052269008010625,0.8770225644111633,0.4804055094718933,-0.0004795840174395,0.0005708968308624,0.0005404664291526,-0.0138046741485595,-0.0264148116111755,-0.0241041183471679,0,0,0,0
4.8,1788344898545,0.0,0.0,-0.0060011162422597,-0.0023671665694564,0.4813301563262939,0.8765155673027039,-3.417408270676342e-05,3.874485429065892e-05,4.397145221317413e-07,0.0008335193269886,-0.001236593350768,-0.0004042524669785,-0.0037791319191455,-0.0052165705710649,0.8770154118537903,0.4804190099239349,0.0005465884613403,-0.000319482721752,3.877389796950321e-05,0.015890896320343,0.0034549236297607,-0.0239391326904296,0,0,0,0
4.9,1788344898645,0.0,0.0,-0.0059907985851168,-0.0023791247513145,0.4813245832920074,0.8765187859535217,1.823292595037553e-05,-2.0824527168586025e-05,-2.355281134664744e-07,-0.0005838108481839,-0.0016342034796252,0.0001809814129956,-0.0037619546055793,-0.0052786441519856,0.8770076632499695,0.4804326593875885,-0.001548930629564,-0.0007430134538377,-0.0005446749282761,0.0023608207702636,-0.0353474020957946,0.0262050628662109,0,0,0,0
5.0,1788344898745,0.0,0.0,-0.0060197599232196,-0.0024187506642192,0.4813236594200134,0.876518964767456,-2.5184146364197523e-06,2.3167367354053656e-06,2.5618400827759778e-08,-0.0013153739273548,-0.0006150074186734,-3.1742318242322654e-05,-0.0037731360644102,-0.0052868770435452,0.8770212531089783,0.4804077744483948,-0.0002391077897837,-0.0004447224955907,3.792752333517355e-05,0.0097479224205017,0.0082785487174987,-0.041853904724121,0,0,0,0
5.1,1788344898845,0.0,0.0,-0.0060210949741303,-0.0024277907796204,0.4813496172428131,0.87650465965271,0.0001041124071547,-0.0001212635645628,-1.4002786294029038e-06,-0.0002229809615528,-0.0003004852042067,0.0011913041817024,-0.0037506790831685,-0.0053062941879034,0.8770122528076172,0.4804239571094513,-0.0003526814244751,-0.0009170052457107,0.000526616277367,0.0288751125335693,0.0046589970588684,-0.0023107528686523,0,0,0,0
5.2,1788344898945,0.0,0.0,-0.0060220761224627,-0.002455415436998,0.4813217222690582,0.8765198588371277,2.267991738815249e-05,-2.6978183741077225e-05,-3.1347595723022e-07,-0.0004810627433471,-0.0005273862625472,0.0002596990088932,-0.0037506790831685,-0.0053062941879034,0.8770122528076172,0.4804239571094513,-0.0003526814244751,-0.0009170052457107,0.000526616277367,0.0288751125335693,0.0046589970588684,-0.0023107528686523,0,0,0,0
5.3,1788344899045,0.0,0.0,-0.0060306694358587,-0.0024498733691871,0.4813257157802582,0.876517653465271,-3.717412218147376e-05,4.356648153437871e-05,5.103992657476298e-07,-8.355989848496392e-06,0.0023128681350499,-0.0004009876574855,-0.0037275804206728,-0.0053217457607388,0.8770070672035217,0.4804335534572601,0.0004201032678508,-0.0019743368615638,-0.0006386634233176,0.0084976553916931,-0.015019953250885,-0.0059700012207031,0,0,0,0
5.4,1788344899145,0.0,0.0,-0.0060306694358587,-0.0024498733691871,0.4813257157802582,0.876517653465271,-3.717412218147376e-05,4.356648153437871e-05,5.103992657476298e-07,-8.355989848496392e-06,0.0023128681350499,-0.0004009876574855,-0.0037644542753696,-0.0052902828902006,0.8770043849945068,0.4804384112358093,0.0008784926025725,0.002288695278595,-0.0007358280901833,0.0023397803306579,-0.0277239084243774,-0.0239810943603515,0,0,0,0
5.5,1788344899245,0.0,0.0,-0.0060306694358587,-0.0024498733691871,0.4813257157802582,0.876517653465271,-3.717412218147376e-05,4.356648153437871e-05,5.103992657476298e-07,-8.355989848496392e-06,0.0023128681350499,-0.0004009876574855,-0.0037103053182363,-0.0052875177934765,0.8770115375518799,0.4804258644580841,-0.0001183496273503,0.0003423598839722,0.0001210079581195,0.0013729333877563,0.0074803233146667,0.0174903869628906,0,0,0,0
5.6,1788344899345,0.0,0.0,-0.0060306694358587,-0.0024498733691871,0.4813257157802582,0.876517653465271,-3.717412218147376e-05,4.356648153437871e-05,5.103992657476298e-07,-8.355989848496392e-06,0.0023128681350499,-0.0004009876574855,-0.0037103053182363,-0.0052875177934765,0.8770115375518799,0.4804258644580841,-0.0001183496273503,0.0003423598839722,0.0001210079581195,0.0013729333877563,0.0074803233146667,0.0174903869628906,0,0,0,0
5.7,1788344899445,0.0,0.0,-0.0059759062714874,-0.0025300472043454,0.4813833832740783,0.8764861226081848,5.0229774748842686e-05,-5.746640374970204e-05,-6.754412061163944e-07,-0.0006035121623426,0.0005029465537518,0.0005747057730332,-0.0037103053182363,-0.0052875177934765,0.8770115375518799,0.4804258644580841,-0.0001183496273503,0.0003423598839722,0.0001210079581195,0.0013729333877563,0.0074803233146667,0.0174903869628906,0,0,0,0
5.8,1788344899545,0.0,0.0,-0.0059759062714874,-0.0025300472043454,0.4813833832740783,0.8764861226081848,5.0229774748842686e-05,-5.746640374970204e-05,-6.754412061163944e-07,-0.0006035121623426,0.0005029465537518,0.0005747057730332,-0.0036018826067447,-0.005386359989643,0.8770506978034973,0.4803541004657745,0.0001450208932525,-0.0022195645830254,-0.0001850269817542,-0.0103818178176879,0.0028672814369201,-0.0040416717529296,0,0,0,0
5.9,1788344899645,0.0,0.0,-0.0059759062714874,-0.0025300472043454,0.4813833832740783,0.8764861226081848,5.0229774748842686e-05,-5.746640374970204e-05,-6.754412061163944e-07,-0.0006035121623426,0.0005029465537518,0.0005747057730332,-0.0035730339586734,-0.0054261796176433,0.8770413398742676,0.4803709387779236,-0.0002502175486282,0.0010161076934197,-0.0007651744720281,-0.0005057454109191,0.0032224655151367,0.0103569030761718,0,0,0,0
6.0,1788344899745,0.0,0.0,-0.0059295799583196,-0.002655200427398,0.4813786149024963,0.8764886856079102,-1.535763175388331e-05,1.7545483493263237e-05,2.113705090805965e-07,-0.0002790271828416,0.0007297818083316,-0.0001654670777497,-0.0035722982138395,-0.0054548811167478,0.8770365715026855,0.4803793430328369,0.0005198075932099,0.0002343785577895,-0.0005207364236025,-0.0169333815574646,-0.0321346521377563,-0.0095424652099609,0,0,0,0
6.1,1788344899845,0.0,0.0,-0.0059295799583196,-0.002655200427398,0.4813786149024963,0.8764886856079102,-1.535763175388331e-05,1.7545483493263237e-05,2.113705090805965e-07,-0.0002790271828416,0.0007297818083316,-0.0001654670777497,-0.0035722982138395,-0.0054548811167478,0.8770365715026855,0.4803793430328369,0.0005198075932099,0.0002343785577895,-0.0005207364236025,-0.0169333815574646,-0.0321346521377563,-0.0095424652099609,0,0,0,0
6.2,1788344899945,0.0,0.0,-0.0059131011366844,-0.0026815549936145,0.4813853204250335,0.8764849901199341,6.453848595476754e-05,-7.394164179877603e-05,-8.948904047159764e-07,0.0007909464766271,-0.0004308005445636,0.0007294173119589,-0.0035538207739591,-0.0054364996030926,0.877044677734375,0.4803648591041565,-0.0001220432313587,-0.0001922608369751,3.874134857123466e-05,-0.0027077198028564,0.0050793290138244,-0.0093507766723632,0,0,0,0
6.3,1788344900045,0.0,0.0,-0.0059131011366844,-0.0026815549936145,0.4813853204250335,0.8764849901199341,6.453848595476754e-05,-7.394164179877603e-05,-8.948904047159764e-07,0.0007909464766271,-0.0004308005445636,0.0007294173119589,-0.0035219052806496,-0.0054553551599383,0.8770628571510315,0.4803316593170166,-0.0004735888769754,-0.0005497254270417,0.0003519200928523,-0.0034142732620239,0.0231040716171264,-0.0218305587768554,0,0,0,0
6.4,1788344900145,0.0,0.0,-0.0058866245672106,-0.0026931767351925,0.481427252292633,0.8764620423316956,7.393464372683726e-05,-8.665573796325272e-05,-1.0519119852732988e-06,0.0005514792283065,6.28132329438813e-06,0.0008636392303742,-0.003501090221107,-0.0054241940379142,0.8770713806152344,0.480316698551178,0.0011314154655276,-0.0005496446490217,0.0004441066990016,0.0054989457130432,-0.0279489159584045,-0.0166254043579101,0,0,0,0
6.5,1788344900245,0.0,0.0,-0.0058450531214475,-0.0027063658926635,0.4814384281635284,0.8764562606811523,1.657357828018823e-05,-1.846825835714285e-05,-2.223152585353909e-07,0.0001649015612201,-0.0007384900236502,0.0001795043499441,-0.0034342277795076,-0.0054199965670704,0.877084493637085,0.4802933931350708,0.0007803480990251,-0.0012629928500216,0.0002656905482412,0.007997453212738,0.0144889950752258,-0.0272140502929687,0,0,0,0
6.6,1788344900345,0.0,0.0,-0.0058234245516359,-0.0027056513354182,0.4814285933971405,0.8764618039131165,-9.333411024238048e-05,0.0001086805130135,1.313341394376878e-06,-0.0002182876487495,0.0005638055154122,-0.0010681165149435,-0.0034429859369993,-0.0054021338000893,0.877076268196106,0.480308473110199,0.0002886158463272,-0.0004638024573572,0.0005814290877379,-0.011471688747406,-0.0091900825500488,-0.0021753311157226,0,0,0,0
6.7,1788344900445,0.0,0.0,-0.0057894485071301,-0.0027107940986752,0.4814490675926208,0.8764508366584778,9.59329667133774e-07,-1.509284450797733e-06,-1.8451296230690253e-08,9.766209404915573e-05,-0.0005097207613289,8.346152753802016e-06,-0.0034311115741729,-0.0054205218330025,0.8770690560340881,0.48032146692276,-0.0015291882801169,-0.0003621370372619,-0.0015252731591504,0.024008572101593,-0.0325393080711364,0.0480871200561523,0,0,0,0
6.8,1788344900545,0.0,0.0,-0.0057787331752479,-0.0027319744694978,0.481456309556961,0.8764468431472778,9.210375678493114e-05,-0.0001057096631351,-1.278917551413257e-06,0.0007424969226121,-0.0006162992212921,0.0010439567267894,-0.0034061903133988,-0.0054223695769906,0.8770759105682373,0.4803091585636139,-0.0001194549238086,-0.0003430396770804,-0.0009644996768499,0.0164915323257446,-0.0018873214721679,-0.034407615661621,0,0,0,0
6.9,1788344900645,0.0,0.0,-0.00577899441123,-0.0027649377007037,0.4814191460609436,0.8764670491218567,-0.0001947640574037,0.0002267876924109,2.7430203873313154e-06,-0.0008539460250176,-0.0015128520317375,-0.0022547408007085,-0.0033990554511547,-0.0054381070658564,0.8770802617073059,0.4803009629249573,6.287562793252647e-05,0.0005032017111703,0.0009608515655102,-0.0071130990982055,0.028874397277832,-0.0414810180664062,0,0,0,0
7.0,1788344900745,0.0,0.0,-0.00577899441123,-0.0027649377007037,0.4814191460609436,0.8764670491218567,-0.0001947640574037,0.0002267876924109,2.7430203873313154e-06,-0.0008539460250176,-0.0015128520317375,-0.0022547408007085,-0.0034173866733908,-0.0054293097928166,0.8770877122879028,0.4802874624729156,3.154699615637089e-05,9.740424996180784e-05,0.0001889297454148,0.0349635481834411,-0.0223236680030822,0.0269031524658203,0,0,0,0
7.1,1788344900845,2.309859037399292,2.563380241394043,-0.0057936669327318,-0.0027420772239565,0.4814579784870147,0.8764457702636719,0.0001414051923499,-0.0001630840073243,-1.9864799491182093e-06,0.0003444534086156,0.0016315444372594,0.0016403002664446,-0.0034019378945231,-0.0057342238724231,0.8761488199234009,0.4819945693016052,-0.00308181155688,-0.0029396536845708,-0.0434106576623833,0.9851449131965636,-0.0140948295593261,0.1449613571166992,257,321,13652,12951
7.2,1788344900945,5.352112770080566,5.042253494262695,-0.0059862663038074,-0.0029592206701636,0.4801637828350067,0.8771534562110901,0.1353136975624112,0.0008738810418317,7.544869575096434e-06,-0.0041223815642297,-0.0013525352114811,-0.0344205237925052,-0.0036045424640178,-0.0055134827271103,0.8756886720657349,0.4828311204910278,-0.0004501246605694,-0.0059507169792134,-0.029881080071199,-0.1619095206260681,-0.0949629545211792,-0.3148708343505859,64,202,15412,18948
7.3,1788344901045,5.239436626434326,5.408450603485107,-0.0059252162463963,-0.0024376651272177,0.4769162535667419,0.8789254426956177,0.1736578960676748,0.001228097098843,-1.0137034198103604e-05,0.0090088229626417,0.0085451090708374,-0.0836265906691551,-0.0035737361758947,-0.005221995525062,0.8741733431816101,0.4855728447437286,0.0063669984293864,0.0139621624764942,-0.0859606296183477,-0.0401816368103027,-0.0369515419006347,0.035710334777832,53,330,14593,17236
7.4,1788344901145,4.901408672332764,4.169013977050781,-0.0055831777863204,-0.0027355710044503,0.4745780229568481,0.8801915049552917,0.1752922494583341,0.0005911235094822,3.5348240826237026e-05,0.0063293622806668,-0.0161052271723747,-0.1050548404455185,-0.0028913151472806,-0.0052008107304573,0.8721976280212402,0.4891174137592315,0.0093473252571062,0.0008825686072565,-0.0505081818890769,-0.0888833999633789,0.3776822090148926,-0.7207126617431641,27,612,12609,22654
7.5,1788344901245,3.126760482788086,3.239436626434326,-0.0052052815444767,-0.0022136189509183,0.4693854749202728,0.8829752206802368,0.1322143597173304,0.0006100295904451,-4.6360429075967454e-05,0.0090883858501911,0.020447889342904,-0.1255819052457809,-0.0032530417665839,-0.0046769622713327,0.868865966796875,0.4950146675109863,-0.0003017988685672,0.0040683761929714,-0.1711171305962815,-1.0484291315078735,0.1203592419624328,0.7515773773193359,7,682,7585,18134
7.6,1788344901345,0.6760563254356384,0.6760563254356384,-0.0050992486067116,-0.0024836263619363,0.4654951095581054,0.8850322365760803,0.0338497084421474,-0.0002336228677682,-9.796034141695973e-08,0.0001628892350709,-0.0053401826880872,-0.0263285171240568,-0.0030425572767853,-0.0046902000904083,0.8683446645736694,0.4959297180175781,-0.0022468358855119,-0.0019998369233901,0.0217739425082775,-0.3273467421531677,0.046444296836853,-0.0883703231811523,0,631,0,12650
7.7,1788344901445,0.0,0.0,-0.0050967326387763,-0.002534193219617,0.4647859930992126,0.8854047060012817,-0.0147467290325901,0.003538754859712,-3.2946696651694523e-06,-0.0030277892947196,-0.0049382839351892,-0.0349958464503288,-0.0028183842077851,-0.0048635499551892,0.8681012392044067,0.4963554143905639,-0.00173883223611,-0.0087320787439148,-0.0084425553642152,0.1554118394851684,0.0070158839225769,0.08453369140625,0,0,0,0
7.8,1788344901545,0.0,0.0,-0.0050432658754289,-0.0024093801621347,0.4654037058353424,0.885080873966217,-0.0005604229056309,-0.0029695559508815,-1.606370420760904e-06,0.0040784464217722,0.0031650201417505,0.0270411185920238,-0.0028183842077851,-0.0048635499551892,0.8681012392044067,0.4963554143905639,-0.00173883223611,-0.0087320787439148,-0.0084425553642152,0.1554118394851684,0.0070158839225769,0.08453369140625,0,0,0,0
7.9,1788344901645,0.0,0.0,-0.0049750143662095,-0.0023979304824024,0.4652835726737976,0.8851444721221924,-0.0002587714815638,-0.0001330402554254,-1.561774276693327e-06,0.0027594740968197,0.0019245400326326,-0.000674185459502,-0.0029063774272799,-0.0046961465850472,0.8681201338768005,0.4963234961032867,0.0013026994276552,0.0023081102601737,0.0006624345487061,-0.0677399039268493,0.1434008479118347,0.0650100708007812,0,0,0,0
8.0,1788344901745,0.0,0.0,-0.0049611036665737,-0.0024596913717687,0.4652969539165497,0.8851373791694641,4.603770431925792e-05,-5.271413767988336e-05,3.464531889574448e-06,-0.0005551199428737,-0.002068914938718,0.0004995351773686,-0.00283177010715,-0.0047236829996109,0.8681302666664124,0.4963057339191437,0.0006961458079513,-0.0006489774460615,0.0009432487437064,-0.0297332406044006,0.0516290068626403,0.0431442260742187,0,0,0,0
8.1,1788344901845,0.0,0.0,-0.0049611036665737,-0.0024596913717687,0.4652969539165497,0.8851373791694641,4.603770431925792e-05,-5.271413767988336e-05,3.464531889574448e-06,-0.0005551199428737,-0.002068914938718,0.0004995351773686,-0.0028084078803658,-0.0047270478680729,0.8681265711784363,0.4963124692440033,0.0003548415288425,-0.0008960730072879,-0.0003193607609775,-0.0193784832954406,-0.018559455871582,0.0356922149658203,0,0,0,0
8.2,1788344901945,0.0,0.0,-0.0049111838452517,-0.0024424840230494,0.4653116762638092,0.8851299285888672,5.247885061502022e-06,-5.571579090542901e-06,-6.017938887283094e-08,0.0005006970022805,0.0008295045699924,5.819362195325084e-05,-0.0028121434152126,-0.0047334600239992,0.8681543469429016,0.4962637424468994,-0.0008743103320434,-0.0022563574214706,0.0012340191722587,0.0381175279617309,0.0049772858619689,0.02508544921875,0,0,0,0
8.3,1788344902045,0.0,0.0,-0.0049204668030142,-0.0024773487821221,0.4653439521789551,0.8851127624511719,-7.649866356035639e-05,-0.0003839624814127,9.68124355450574e-07,-0.0010658770333975,-0.0011659718584269,0.0015866557369008,-0.0028582690283656,-0.0046976702287793,0.8681620955467224,0.4962503910064697,-7.693340844789544e-05,0.0009029292419538,0.0005645711682605,-0.0164799690246582,0.001061201095581,0.0663051605224609,0,0,0,0
8.4,1788344902145,0.0,0.0,-0.0049252086319029,-0.0024408060126006,0.4653480648994446,0.8851107358932495,0.0,0.0,0.0,0.0,0.0,0.0,-0.0028485264629125,-0.0046552317216992,0.8681628704071045,0.4962493777275085,0.0020497312519468,-0.0004917361852008,0.0008072782866003,-0.0233082771301269,0.0296161174774169,0.0044794082641601,0,0,0,0
8.5,1788344902245,2.816901445388794,1.6619718074798584,-0.0048906314186751,-0.0024286606349051,0.4653628766536712,0.885103166103363,-0.0002205042018911,-0.0003676639724971,2.766607446778865e-06,0.0015046739717945,-0.0023029069416224,0.0007044811500236,-0.002697717398405,-0.0046621458604931,0.8658269643783569,0.5003145933151245,0.0014342279490023,0.0070790523985785,-0.1957924383063311,0.5247976779937744,0.0077032446861267,0.1101274490356445,166,880,12342,23056
8.6,1788344902345,2.816901445388794,1.6619718074798584,-0.0044687199406325,-0.0026307560037821,0.454634428024292,0.8906630277633667,0.1051558591234562,-0.0009994032529392,-1.1287293251343504e-05,0.0090534947812557,0.0048590581864118,-0.1985972374677658,-0.002697717398405,-0.0046621458604931,0.8658269643783569,0.5003145933151245,0.0014342279490023,0.0070790523985785,-0.1957924383063311,0.5247976779937744,0.0077032446861267,0.1101274490356445,166,880,12342,23056
8.7,1788344902445,5.211267471313477,4.056337833404541,-0.0046367081813514,-0.0018633678555488,0.4442498385906219,0.8958891034126282,0.1415167279584818,-0.0112137204664632,-8.455889557867943e-05,0.0070928498171269,0.0232467725872993,-0.2468397766351699,-0.0027842903509736,-0.0042818337678909,0.8547489047050476,0.5190165042877197,-0.0082842082609553,-0.0119585215302611,-0.2110887293770341,-0.0698682069778442,0.1649670600891113,1.1840152740478516,166,880,12342,23056
8.8,1788344902545,5.014084339141846,3.802816867828369,-0.0047080190852284,-0.00205032620579,0.4398078918457031,0.8980771899223328,0.154466170408364,0.0022949344229696,2.9834262258970636e-05,-0.0057637039572,-0.0044155581854283,-0.1967508494853973,-0.0030918419361114,-0.0040381019935011,0.8514955639839172,0.524337112903595,0.0023987804957401,0.0302072309990823,-0.1678011429971397,0.0828603506088256,0.053550899028778,-0.3842391967773437,166,880,12342,23056
8.9,1788344902645,0.98591548204422,-1.2676056623458862,-0.0049236989580094,-0.0011324436636641,0.43382528424263,0.9009828567504884,0.1321786456636779,-0.0023929037381526,-2.0112677623509475e-05,0.008314499631524,0.0206276066601276,-0.1085918471217155,-0.0033906679600477,-0.0035444945096969,0.8493198752403259,0.5278558135032654,0.0058966075074128,-0.0120227913697642,-0.0702426238507296,-2.367597818374634,0.1846336126327514,0.6063289642333984,11,535,0,-16005
9.0,1788344902745,0.98591548204422,-1.2676056623458862,-0.0045868414454162,-0.0012941180029883,0.3825369477272033,0.923927903175354,-0.0007961722463997,0.0107919055538858,-1.2228224461876318e-06,-0.0004925537505187,0.0153663046658039,-1.7172647714614868,-0.003330809995532,-0.0035324962809681,0.7944631576538086,0.607292890548706,-0.003189661735224,0.0163989701523234,-2.020516846287544,-0.4401163458824157,0.0112208724021911,-0.3599653244018554,60,253,17928,-23797
9.1,1788344902845,6.535211086273193,-6.11267614364624,-0.0047271219082176,-0.0011975944507867,0.3386647701263428,0.9408944845199584,0.0054372836055437,0.0115044707946969,1.45609537410024e-06,-0.0031009300146251,0.0158442817628383,-2.0355145931243896,-0.0032796245068311,-0.0034258486703038,0.7435494065284729,0.6686642169952393,0.0035966061428614,0.0013127929348758,-1.9316537971421768,-0.44486004114151,-0.009229838848114,0.733769416809082,63,311,17256,-23489
9.2,1788344902945,5.97183084487915,-5.97183084487915,-0.0048134890384972,-0.0004354187403805,0.2019205242395401,0.979390025138855,-0.0042760179228006,0.0176920008476061,2.38692392519771e-06,-0.0042404984124004,0.03300067409873,-1.8217840194702148,-0.0035776244476437,-0.0030617825686931,0.6729586720466614,0.7396650910377502,0.0074161605578234,-0.0017241751787536,-1.81198604566152,-0.4075573682785034,-0.4525797367095947,-0.4102659225463867,119,321,18421,-24018
9.3,1788344903045,6.197183132171631,-5.830986022949219,-0.0048134890384972,-0.0004354187403805,0.2019205242395401,0.979390025138855,-0.0042760179228006,0.0176920008476061,2.38692392519771e-06,-0.0042404984124004,0.03300067409873,-1.8217840194702148,-0.003607053309679,-0.0026887776330113,0.6446645855903625,0.7644522786140442,0.0104106063794648,0.0234795471807518,-1.8354914564235092,0.114019751548767,-0.0292914509773254,-0.4223051071166992,105,285,17698,-23053
9.4,1788344903145,6.197183132171631,-5.830986022949219,-0.0037406766787171,-0.0006024552858434,0.0037325699813663,0.9999858140945436,-0.0181926315206877,0.0129291569515428,-6.729218295795208e-06,0.0104693183675408,0.005046906415373,-1.8984605073928835,-0.0031090825796127,-0.002606107853353,0.5767964124679565,0.8168778419494629,0.0046151554669692,-0.0056795172832549,-1.908767054001003,-0.0312665104866027,0.0465829372406005,-0.0288705825805664,105,285,17698,-23053
9.5,1788344903245,6.14084529876709,-6.11267614364624,-0.003212152980268,-0.0007787316571921,-0.0811295062303543,0.9966980814933776,-0.0122587223174791,0.0206534089506969,6.837840230711474e-06,0.0116791501641273,0.0107110310345888,-1.92175567150116,-0.0023962287232279,-0.0021329689770936,0.4544497430324554,0.8907666802406311,0.0028747431575341,0.0502461554304481,-1.9005107691520495,-0.0650917291641235,0.0103784203529357,-0.5230236053466797,105,285,17698,-23053
9.6,1788344903345,6.2253522872924805,-6.8450703620910645,-0.0048198518343269,0.0007999645313248,-0.1832752525806427,0.9830495119094848,0.0005142222816062,0.0262367160193536,-4.756590401055406e-05,-0.0200001168996095,0.0395882278680801,-1.8336577415466309,-0.0028633968904614,-0.0024697566404938,0.3602710664272308,0.9328400492668152,0.1534661857364964,-0.1222590685132671,-1.856737762156783,-0.373005747795105,-0.3834019303321838,0.0336599349975585,67,170,17628,-17738
9.7,1788344903445,6.2253522872924805,-6.478873252868652,-0.0032955333590507,-0.0017636541742831,-0.2599993348121643,0.9656015634536744,0.0047244771472702,0.0296288213605011,-1.041458178339165e-06,-0.0011380950454622,-0.007091439794749,-1.9305416345596316,-0.0018442263826727,-0.0029771504923701,0.3141060173511505,0.9493814706802368,0.0303212645425908,-0.0261489418695525,-2.028499809975068,0.3742372393608093,0.565876305103302,-0.9027137756347656,68,170,17646,-17143
9.8,1788344903545,6.253520965576172,-6.394366264343262,-0.0033658863976597,-0.0014830967411398,-0.3680626451969147,0.9297937154769896,-0.0083646819010448,0.0348654697680084,-5.845096023081084e-06,-0.0139424074441194,0.0146084232255816,-1.917884826660156,-0.0020697079598903,-0.0030895667150616,0.1958288103342056,0.9806309938430786,-0.0130271208523674,0.0302786584689739,-1.8903230911214544,-0.2532252669334411,-0.3829413652420044,-0.5839443206787109,88,141,17649,-17473
9.9,1788344903645,3.94366192817688,-3.746478796005249,-0.0036530448123812,-0.0017134915105998,-0.4403465092182159,0.8978188633918762,-0.0110172311557888,0.012169927373928,-8.84502405417991e-06,-0.0094481501728296,-0.0073072244413197,-1.7101402282714844,-0.0020949440076947,-0.0030429763719439,0.0941571146249771,0.9955505132675172,-0.0001303537251458,0.032775773910473,-1.489813822818461,-0.5394482612609863,0.5579408407211304,-0.4530372619628906,19,227,8289,-11867
10.0,1788344903745,1.436619758605957,-0.7323943376541138,-0.0033183260820806,-0.0014660176821053,-0.4684330224990845,0.8834916353225708,0.0050338138543181,0.0086363151778949,2.2736110355106423e-06,0.0036906548775732,0.018138725310564,-1.2774523496627808,-0.0018369993194937,-0.0033311387524008,0.0535809956490993,0.9985562562942504,-0.001373731366296,-0.0054388340003273,-0.3612661555944698,-0.030453622341156,0.3930343985557556,-0.0488557815551757,0,465,956,-9949
10.1,1788344903845,1.436619758605957,-0.7323943376541138,-0.0033022603020071,-0.0018030779901891,-0.492778480052948,0.870146632194519,-0.0021021149554406,0.003221072097297,-1.925499150465527e-06,-0.0005726325907744,-0.001926397671923,-0.2331213355064392,-0.0017953356727957,-0.0032609039917588,0.0514601692557334,0.998668134212494,0.0018778452366934,0.0035374651304395,-0.1039810894622086,-0.2555348873138428,0.1907830238342285,-0.0319986343383789,0,465,956,-9949
10.2,1788344903945,-2.4788732528686523,2.873239517211914,-0.0032315556891262,-0.0018269955180585,-0.4891619086265564,0.8721851110458374,-0.0139522559340481,-2.382660432016405e-05,7.365119230422892e-07,0.003376833628863,0.0002248052624054,0.1619440019130706,-0.0017953356727957,-0.0032609039917588,0.0514601692557334,0.998668134212494,0.0018778452366934,0.0035374651304395,-0.1039810894622086,-0.2555348873138428,0.1907830238342285,-0.0319986343383789,28,533,-6783,17568
10.3,1788344904045,-3.1549296379089355,2.816901445388794,-0.0034892931580543,-0.0016157508362084,-0.447591632604599,0.8942298293113708,0.017282396701685,-0.0072350187347217,-3.1780073366705674e-06,-0.0015545630594715,-0.0035117999650537,0.8060506582260132,-0.0021501583978533,-0.003426369279623,0.1177946403622627,0.993029773235321,-0.0028074454040546,-0.0121392398433767,0.8372177284848826,-0.5036475658416748,0.3782510161399841,0.3905134201049804,177,382,-12193,15711
10.4,1788344904145,-3.323943614959717,2.9577465057373047,-0.0036994232796132,-0.001792682451196,-0.4265555143356323,0.9044520854949952,0.005305438230414,0.0048889914963074,9.086106694094168e-07,-0.0015354012139141,-0.012154403142631,0.9194295406341552,-0.0022219382226467,-0.003184488043189,0.175249770283699,0.9845163226127625,-0.0048832905797292,0.0002580155682059,0.9877885988498868,-0.1964539885520935,-0.1440551877021789,-0.489506721496582,177,382,-12193,15711
10.5,1788344904245,-3.2957746982574463,3.802816867828369,-0.0035872929729521,-0.0018253910820931,-0.3595964610576629,0.9330992102622986,0.0093344647884027,-0.0087172180721445,3.32233480813828e-06,0.0095240687951445,-0.0185127444565296,1.0318403244018557,-0.0018674060702323,-0.0035457257181406,0.2396861016750335,0.970842182636261,0.0083488201044939,0.0033917536315308,1.006452169171994,0.2216185927391052,-0.1143900752067565,0.2260322570800781,64,125,-10667,9721
10.6,1788344904345,-2.816901445388794,2.619718313217163,-0.0034067428205162,-0.0016886083176359,-0.3029801845550537,0.9529892206192015,0.0024130641949609,-0.0160351119493997,-4.2741186782381015e-06,0.0031830922234803,0.0144142992794513,0.9512826204299928,-0.0020437072962522,-0.0032510282471776,0.2622036039829254,0.9650049209594728,-0.0115629594784627,0.0010094217030488,0.8772962148218538,-0.1367692351341247,-0.176738440990448,-0.0100164413452148,67,90,-9490,10475
10.7,1788344904445,-3.323943614959717,3.1549296379089355,-0.0036009701434522,-0.0017297293525189,-0.286973088979721,0.957930326461792,-0.0113974296015517,-0.0075956411767029,6.181441979018177e-06,-0.0067414324730634,-0.0075501715764403,0.876966655254364,-0.0020862463861703,-0.0034957565367221,0.3121656477451324,0.9500189423561096,-0.0001986184147433,-0.0010357267294104,0.9889290292463048,-0.1364762187004089,-0.1867330074310302,0.1156902313232421,60,89,-10232,11330
10.8,1788344904545,-2.985915422439575,2.929577350616455,-0.0036637308076024,-0.0015734252519905,-0.2395331114530563,0.9708799719810486,-0.0136558041374055,-0.014163047545438,-1.5380109691470631e-06,-0.005112512037158,0.0097644962370395,0.9880829453468324,-0.0036362893879413,-0.0025913845747709,0.3615007698535919,0.9323611855506896,-0.0339319728954048,0.0169973040038205,0.8697858582548104,0.2871832847595215,-0.3825693130493164,0.4404840469360351,60,89,-10232,11330
10.9,1788344904645,-1.8028168678283687,5.85915470123291,-0.0047702603042125,-4.538829671218991e-05,-0.1636613756418228,0.9865050315856934,0.0328102839048543,-0.0096886747310707,-1.3549541276024214e-05,-0.0065281381830573,-0.0024298897478729,1.0275393724441528,-0.0027438513934612,-0.0034463321790099,0.4266505241394043,0.9044058322906494,0.0158995703889284,-0.0365551493498844,1.2138966657652062,0.5738369822502136,0.2324206233024597,-0.690007209777832,38,362,-3399,18589
11.0,1788344904745,-0.6760563254356384,6.957746505737305,-0.004149536602199,-0.0013114884495735,-0.1460935026407241,0.9892613291740416,0.0872394208811321,-0.0076232768370955,5.019267800097977e-05,0.0546718426048755,-0.0807514935731887,1.1659657955169678,-0.0027438513934612,-0.0034463321790099,0.4266505241394043,0.9044058322906494,0.0158995703889284,-0.0365551493498844,1.2138966657652062,0.5738369822502136,0.2324206233024597,-0.690007209777832,1,199,-1790,22520
11.1,1788344904845,1.774647831916809,8.0563383102417,-0.0051917806267738,-0.0004081357619725,-0.0827911123633384,0.9965533018112184,0.1445475530745441,-0.0065148885688605,-3.920063731999636e-05,-0.0327291414141655,0.0181418042629957,1.1074118614196775,-0.0045908363536,-0.0027347393333911,0.494398683309555,0.8692188858985901,0.0006186984310245,0.0211976902830814,1.025540308518796,0.2033931612968444,0.0441992878913879,-0.2511634826660156,169,350,7811,28199
11.2,1788344904945,1.9154930114746092,8.563380241394043,-0.0053799538873136,0.0001337089634034,-0.0331108644604682,0.9994372129440308,0.1861849956625248,-0.0059295484316367,-8.18608139417788e-05,0.0008195050177164,0.0062104631215333,0.927490234375,-0.0034240931272506,-0.0030713528394699,0.5439911484718323,0.839078426361084,0.0100169956391118,0.0178678102886464,1.053318742805084,-0.1353814005851745,0.2944027781486511,-0.2596578598022461,70,234,6169,25447
11.3,1788344905045,1.7464789152145386,8.309859275817871,-0.0044851191341876,-0.0011525969021022,0.0458312667906284,0.9989384412765504,0.1858769541752861,-0.004688220134584,1.0510957405787477e-05,-0.001769054797478,-0.0057122567668557,1.0083259344100952,-0.0033508809283375,-0.00327312014997,0.5958291888237,0.8030974864959717,-0.0062812088956115,0.0013157312103898,0.9334451341965112,-0.1932445168495178,0.0423135161399841,1.2875165939331057,50,424,6573,26140
11.4,1788344905145,2.2253520488739014,7.154929637908936,-0.0047722603194415,-0.0007917881011962,0.0910711213946342,0.9958326816558838,0.1726034880511316,-0.0077108830905397,-4.049301666816721e-05,-0.0070960000157356,0.003797038923949,0.8800755143165588,-0.0035333121195435,-0.0034180097281932,0.6162626147270203,0.7875254154205322,0.0003869163424192,-0.0233099185657535,0.8411164305372454,0.0268543362617492,0.169046938419342,-0.4592857360839844,50,424,6573,26140
11.5,1788344905245,2.3380281925201416,7.943662166595459,-0.0050642662681639,-0.0002727033861447,0.1267434358596801,0.9919225573539734,0.1756872668585934,-0.0049600221587355,-6.778162113476264e-05,-0.0012162418570369,0.0167905576527118,0.8008745312690735,-0.0043331589549779,-0.0028360988944768,0.6504527926445007,0.7595291137695312,-0.0055214767656212,0.010287902360699,0.8555681199872046,-0.0495659708976745,-0.0079853534698486,0.1110773086547851,80,713,6869,30358
11.6,1788344905345,1.6901408433914185,8.22535228729248,-0.0047306767664849,0.0001885029487311,0.1723757982254028,0.9850199222564696,0.1694996043524797,-0.0059171400713154,1.1437639481546429e-05,0.010782160796225,0.0071452530100941,0.8238729238510132,-0.0042269956320524,-0.0027185305953025,0.6924484372138977,0.7214498519897461,-0.0147977467720746,-0.0143433393577728,0.7472663121408781,0.1108282208442688,-0.0047199726104736,0.0915193557739257,76,680,7032,29745
11.7,1788344905445,2.563380241394043,7.661972045898437,-0.0051129139028489,9.69060929492116e-05,0.2028061151504516,0.9792055487632751,0.1570047124677049,-0.0035484039607616,6.378773278316993e-06,-0.0121889095753431,0.0015025881584733,0.7897093296051025,-0.0044371718540787,-0.0026637269183993,0.7010676264762878,0.7130760550498962,-0.0081813422609908,0.008395696715985,0.7921157800111538,0.2368955612182617,0.0772674083709716,-0.6156425476074219,116,637,8449,28587
11.8,1788344905545,1.94366192817688,8.028168678283691,-0.0056549259461462,0.0005831436719745,0.2290753424167633,0.973392128944397,0.1714457845561647,-0.001299004616014,-1.3506189289265622e-05,-0.0131653323769569,0.0128223793581128,0.7627183794975281,-0.0111262444406747,-0.0032949736341834,0.7357544302940369,0.6771491169929504,-0.1536064401414857,0.1232348611908855,0.7721282332380606,0.0936173200607299,0.2410383224487304,-1.254777908325195,128,443,7635,29535
11.9,1788344905645,2.08450698852539,7.690140724182129,-0.0123991761356592,0.0039856014773249,0.2649717628955841,0.9641682505607604,0.1743017641334023,-0.0151926164708774,-0.0002504091310966,-0.1399848908185959,0.1176342815160751,0.8782187700271606,-0.0130574963986873,-0.0038426760584115,0.7611919641494751,0.6483837962150574,-0.0084301867475446,-0.0612870081237546,0.8881305087193699,0.0829313397407531,0.2121263742446899,-0.9217824935913086,79,475,7304,26906
12.0,1788344905745,2.0,8.14084529876709,-0.0129471644759178,0.0036333661992102,0.3086385428905487,0.951084315776825,0.186575050807568,0.0028600473539475,4.083736476789297e-05,-0.0139193478971719,-0.0306370984762907,0.8755868077278137,-0.0021269330754876,-0.0030162967741489,0.8003976941108704,0.5994580984115601,0.0767796213242438,-0.1062221279624671,0.977508534850839,-0.0403661727905273,1.058454513549805,0.7725677490234375,17,238,6434,25602
12.1,1788344905845,2.05633807182312,8.619718551635742,-0.0031919353641569,-0.0018966416828334,0.3739195466041565,0.927453637123108,0.1654699606806451,-0.0017841804589337,4.174023953102426e-05,-0.0003383127623237,-0.0272956397384405,0.9451945424079896,-0.001661485992372,-0.0032974351197481,0.8143696784973145,0.5803348422050476,0.0016209793088661,-0.0251589713047428,0.9463247948978348,0.031116247177124,-0.209867775440216,1.098127365112305,62,329,7967,23165
12.2,1788344905945,3.211267709732056,6.788732528686523,-0.0027540307492017,-0.0024550734087824,0.4129236340522766,0.9107581973075868,0.1686249107283997,-0.0017599174604827,8.32663261220526e-05,-0.0050318562425673,-0.0176180358976125,0.5983107089996338,-0.0010545970872044,-0.0035506961867213,0.8395176529884338,0.5433199405670166,-0.0095522340200637,-0.0079509735091725,0.5543472513968518,0.0871421694755554,-0.0529134273529052,0.450448989868164,97,399,10811,22472
12.3,1788344906045,3.2957746982574463,7.070422649383545,-0.0030110357329249,-0.0023099076934158,0.421826034784317,0.9066688418388368,0.1579356943268143,0.0056053621853619,-3.446635379168777e-06,-0.0078721549361944,0.0098094157874584,0.4716355502605438,-0.0008293911814689,-0.0040127886459231,0.8540716767311096,0.520139217376709,-0.0044587493455328,-0.0394735947490032,0.5424078682519629,-0.1325621008872985,-0.1456885933876037,-0.0117559432983398,76,353,9715,24327
12.4,1788344906145,3.0985915660858154,6.647887229919434,-0.0027806446887552,-0.0031482116319239,0.4451510608196258,0.8954455852508545,0.1695600705913331,9.001889841317032e-05,9.568176780861653e-05,-0.0016154567711055,-0.0348187685012817,0.5378659963607788,-0.0004277899861335,-0.0040698386728763,0.8654402494430542,0.500995397567749,0.013827332643274,-0.0156103348567515,0.5459539039642138,-0.2175297737121582,-0.0500876307487487,0.1878986358642578,65,455,10242,26140
12.5,1788344906245,3.436619758605957,6.3380279541015625,-0.002447651233524,-0.003347395453602,0.469920814037323,0.8826988339424133,0.1677239500520179,0.0017728419580175,2.311790615892566e-05,0.0059054414741694,-0.01178197003901,0.5699949264526367,-0.0003221938386559,-0.0047157378867268,0.8821797966957092,0.4708890616893768,-0.0138040352547906,-0.0024968999033506,0.4831159371754521,0.0340256690979003,0.0653572082519531,-1.1691036224365234,65,455,10242,26140
12.6,1788344906345,3.6056337356567374,6.507042407989502,-0.0035813045687973,-0.0037511137779802,0.5047925710678101,0.8632251024246216,0.1800470098451498,0.0095719855706648,-3.307087841576396e-05,-0.0227791629731655,0.002370057394728,0.4829383790493011,-0.0009210063144564,-0.0048275897279381,0.8876756429672241,0.4604431986808777,-0.0141795193326723,0.0172197187661651,0.4741518360000741,-0.2255748510360717,0.2849342823028564,0.6814098358154297,92,334,10966,24785
12.7,1788344906445,3.436619758605957,7.436619758605957,-0.0070196627639234,-0.0028121678624302,0.523189127445221,0.8521830439567566,0.1736365795151098,0.0028410689288776,-0.0002383119378685,-0.0740676820278167,0.0849548280239105,0.4725072681903839,-0.0060609355568885,-0.0071211708709597,0.9018021821975708,0.4320478439331054,-0.096542228631128,0.0735188215685843,0.4036542163548305,0.3095639944076538,-0.2468467950820922,-0.0699691772460937,81,336,12209,19545
12.8,1788344906545,4.253520965576172,6.309859275817871,-0.011690242215991,-0.0021310024894773,0.5403993129730225,0.8413247466087341,0.1772645465030384,0.0042800773246347,-4.289148552541714e-05,-0.0392425544559955,0.032202310860157,0.3875166773796081,-0.0075301444157958,-0.0079684611409902,0.9055444598197936,0.4241098463535309,-0.0565528608527103,0.0357160248931861,0.3514987415738307,-0.270054817199707,-0.2694618701934814,0.1703767776489257,81,336,12209,19545
12.9,1788344906645,4.02816915512085,6.02816915512085,-0.006829347461462,-0.0032708928920328,0.5532037019729614,0.8330115675926208,0.1773374275882359,0.0116632236452541,0.0003768628997118,0.146082267165184,-0.1562676578760147,0.397198736667633,-0.0015189852565526,-0.0053284065797924,0.9198617339134216,0.3922038376331329,0.0102246911808741,-0.0070768403828853,0.373476228876062,0.2077032327651977,-0.3222661018371582,1.433976173400879,111,312,11324,23008
13.0,1788344906745,3.746478796005249,6.197183132171631,-0.0044391280971467,-0.0034025008790194,0.5722662210464478,0.8200487494468689,0.1759298170911108,0.0031323430844498,-7.491091936637455e-06,-0.0028720418922603,0.0140332663431763,0.3747353553771972,-0.0022204341366887,-0.0053037656471133,0.9275456070899964,0.3736657798290252,-0.0009348894365068,0.0083777351885398,0.3541484119369866,0.3270500898361206,0.0404459238052368,-0.0120840072631835,91,270,12306,22367
13.1,1788344906845,4.2816901206970215,5.7183098793029785,-0.0046063037589192,-0.0034150765277445,0.5782885551452637,0.8158121109008789,0.1718964751257109,0.007747400624235,6.784637230820846e-07,-0.0070877578109502,0.0021971734240651,0.3659857213497162,-0.0022204341366887,-0.0053037656471133,0.9275456070899964,0.3736657798290252,-0.0009348894365068,0.0083777351885398,0.3541484119369866,0.3270500898361206,0.0404459238052368,-0.0120840072631835,100,186,12861,20620
13.2,1788344906945,4.366197109222412,4.901408672332764,-0.0052201314829289,-0.0024625887162983,0.5889548063278198,0.80814528465271,0.1724710972263514,0.0024607941054115,-7.388244113514131e-05,0.0030619197059422,0.0193353313952684,0.2402133196592331,-0.0035205762833356,-0.0051234206184744,0.933624267578125,0.3581999540328979,-0.001603603188163,0.0042796665901287,0.1663464844998958,0.4244686365127563,0.0206445455551147,-0.353245735168457,127,413,14741,22850
13.3,1788344907045,4.563380241394043,5.436619758605957,-0.0061831451021134,-0.0017342017963528,0.5973660945892334,0.8019430637359619,0.1668867107491275,0.00215798456116,-7.82827336624732e-05,0.0043067527003586,0.0105047738179564,0.0870428308844566,-0.0042680408805608,-0.0047884015366435,0.9348177909851074,0.3550697565078735,0.0026327991039977,-0.0131658380073824,0.0826082575845539,0.2543220520019531,0.146022081375122,-0.5253610610961914,84,422,13886,23441
13.4,1788344907145,4.507042407989502,5.605633735656738,-0.0056648692116141,-0.002025936730206,0.6028745770454407,0.797813355922699,0.1706820103420708,0.0007995393478099,4.623560084860156e-05,0.0015758904628455,-0.013732561841607,0.1423367112874984,-0.0034978706389665,-0.0046348376199603,0.937823474407196,0.3470640480518341,0.0135210155719015,-0.0119788619886276,0.1360015978400329,-0.2271474003791809,0.2293459773063659,-0.5149898529052734,74,347,13603,22201
13.5,1788344907245,4.647887229919434,5.183098793029785,-0.0050861285999417,-0.0020690504461526,0.6086585521697998,0.7934132218360901,0.1713340415814352,0.005379941808488,-6.340843026878037e-06,0.0060098068788647,-0.0078633064404129,0.1676066517829895,-0.0031839609146118,-0.004384534433484,0.9406864643096924,0.339233934879303,0.0037153041229873,0.014153232723533,0.1444109999982646,0.2094301581382751,-0.1198076605796814,0.1145849227905273,94,472,13142,23476
13.6,1788344907345,4.507042407989502,5.352112770080566,-0.0051083210855722,-0.0018709143623709,0.6113388538360596,0.791350245475769,0.1733484353093576,0.0031626473705307,1.733980703226261e-05,0.0039257211610674,0.0061186929233372,0.1354710459709167,-0.0035064844414591,-0.0046907979995012,0.943270981311798,0.3319721221923828,-0.0078135649533158,-0.0071245222764542,0.1682542034696085,0.0183376669883728,0.2485062479972839,0.1733360290527343,28,412,11311,24984
13.7,1788344907445,3.6619718074798575,6.309859275817871,-0.0061577931046485,-0.0018294011242687,0.6214476227760315,0.7834294438362122,0.1738113466541354,0.0068658168067947,-1.634942464053288e-05,-0.0181052759289741,0.0355864465236663,0.2477472275495529,-0.0042403545230627,-0.0047812024131417,0.94520503282547,0.3264146149158478,-0.0139089849862986,0.0261665541114204,0.2439919814817539,0.0954334139823913,0.3336554169654846,-0.2679824829101562,51,294,9906,21286
13.8,1788344907545,3.6619718074798575,6.647887229919434,-0.0128720551729202,-0.001574267167598,0.639511227607727,0.7686723470687866,0.160612574448043,-0.0009927515285053,-0.0001506864587917,-0.1009125486016273,0.0655697658658027,0.3828721046447754,-0.0042403545230627,-0.0047812024131417,0.94520503282547,0.3264146149158478,-0.0139089849862986,0.0261665541114204,0.2439919814817539,0.0954334139823913,0.3336554169654846,-0.2679824829101562,51,294,9906,21286
13.9,1788344907645,3.859154939651489,6.985915660858154,-0.0143722249194979,-0.0018636458553373,0.6535053849220276,0.756783127784729,0.1672567180345195,0.0087109727816281,-6.950087234673308e-06,-0.0309840552508831,0.0123412488028407,0.4005815684795379,-0.0097408043220639,-0.0087689496576786,0.9590793251991272,0.2828340232372284,0.0295546297683838,-0.057176659193811,0.4176221092491016,-0.218324601650238,-0.4748762845993042,-0.4563455581665039,77,328,11529,20210
14.0,1788344907745,3.859154939651489,6.985915660858154,-0.0036560765001922,-0.0027309821452945,0.6708395481109619,0.7415884733200073,0.1743180148143615,0.0049819839588856,0.0006038722853251,0.1244979351758956,-0.1178024932742118,0.4107187688350677,-0.000874388962984,-0.003910494968295,0.9663398265838624,0.2572379112243652,0.0208031616937146,-0.0269070143184264,0.3877022709952016,-0.0791900157928466,0.1019708514213562,-0.6016788482666016,77,328,11529,20210
14.1,1788344907845,4.14084529876709,6.422535419464111,-0.00283930497244,-0.0028275216463953,0.6765949130058289,0.7363445162773132,0.1751322449901396,-0.0009837987860322,3.411464510067688e-05,0.0267126187682151,-0.0325465910136699,0.3868255019187927,-0.0003300188109278,-0.0037608733400702,0.9693979620933532,0.2454658299684524,-0.0008749702814958,0.003354564042911,0.2635987270726504,-0.0529054999351501,0.1169197559356689,0.1473865509033203,77,328,11529,20210
14.2,1788344907945,4.14084529876709,6.422535419464111,-0.0018393625505268,-0.0030610843095928,0.6918747425079346,0.7220087647438049,0.1679538710124368,0.0053827995652026,5.452762433939026e-05,0.0135083347558975,-0.0228683296591043,0.2619454562664032,3.145728260278702e-05,-0.0035680476576089,0.9712662100791932,0.2379691451787948,0.0088582529408183,-0.0106581523576754,0.2464604871369332,-0.0800895690917968,0.3480788469314575,0.3135080337524414,77,328,11529,20210
14.3,1788344908045,4.14084529876709,6.3380279541015625,-0.00152544665616,-0.0034702983684837,0.6984639763832092,0.7156350016593933,0.165479074260711,0.0016754800337429,3.5315076330003424e-05,-0.0029695483390241,-0.0188369881361722,0.1897565424442291,-3.2033771276474e-05,-0.0035796388983726,0.9743667840957642,0.224936693906784,0.0021503777969339,0.04272405245514,0.2085611056084892,0.2910202741622925,0.1681822538375854,-0.3369178771972656,80,535,13183,21718
14.4,1788344908145,4.3380279541015625,6.197183132171631,-0.0015669063432142,-0.0036642008926719,0.7057070136070251,0.7084925174713135,0.1693954916642695,0.0027164551793789,1.489503216335501e-05,-0.0040908060036599,-0.0201785583049058,0.2043492197990417,0.0004055462777614,-0.003998558036983,0.977061927318573,0.2129173129796981,-0.0076060729669633,0.0227534843316987,0.2407137453192018,-0.039859652519226,-0.176090657711029,1.125166893005371,80,429,12658,24888
14.5,1788344908245,4.507042407989502,5.6619720458984375,-0.0012451673392206,-0.0035527066793292,0.7143715620040894,0.6997564435005188,0.1764167097456885,-0.0020365044033022,1.5215283171930471e-05,0.0192356556653976,-0.0200938135385513,0.2851693630218506,0.0011914893984794,-0.0036726426333189,0.9795199036598206,0.2013104408979416,-0.0018931773352987,-0.0004171760640819,0.1632044227614163,0.3120326399803161,-0.2526854276657104,-0.4175100326538086,94,401,13788,20051
14.6,1788344908345,4.450704097747803,5.211267471313477,-0.001129362382926,-0.003450175281614,0.7215304374694824,0.6923730969429016,0.1784011208339839,0.0028122068154767,-3.4765184769492726e-05,0.0010900746565312,0.0099720861762762,0.150404468178749,0.0014578225091099,-0.0038503538817167,0.9815726280212402,0.1910454779863357,-0.0098070044993374,-0.0357102891136255,0.1723757144762988,0.3202180862426758,-0.1616033911705017,0.4216775894165039,96,301,13496,22270
14.7,1788344908445,4.535211086273193,6.11267614364624,-0.0008190625812858,-0.0041696056723594,0.7270009517669678,0.6866232752799988,0.1785527353926277,0.0008998610683393,6.44422016164615e-05,-0.0069568469189107,-0.0174328442662954,0.1847121864557266,0.0010834913700819,-0.0041158683598041,0.9831586480140686,0.1827049106359481,-0.0093245428667857,0.0328679908965007,0.1756267083970183,0.1043015718460083,0.1754223704338073,1.848830223083496,117,317,13892,18055
14.8,1788344908545,4.676056385040283,5.577464580535889,-0.0026901946403086,-0.0041592763736844,0.7337552309036255,0.679395854473114,0.1728037853525569,0.0064923997295339,-0.0001795283351879,-0.0362472906708717,0.04351756721735,0.1790475696325302,-0.0003278870135545,-0.0051675839349627,0.98406183719635,0.1777511239051818,-0.0489316575362484,0.0392204638869108,0.1453882769962153,0.0252417922019958,-0.0020222067832946,-0.4491548538208008,81,339,13639,22217
14.9,1788344908645,4.619718074798584,5.6619720458984375,-0.0067472802475094,-0.0046741017140448,0.7366759181022644,0.6761961579322815,0.1625818450529928,-0.0041489514598981,-0.000159009584252,-0.082204021513462,0.0892302021384239,0.0898404344916343,-0.0041910232976078,-0.0081458175554871,0.9848756790161132,0.1730204820632934,-0.0783225363671589,0.1013931425575314,0.1030190904611402,0.0314579010009765,0.2730835080146789,0.5315761566162109,66,379,13218,20309
15.0,1788344908745,4.591549396514893,5.97183084487915,-0.0071242982521653,-0.0048588584177196,0.742872416973114,0.6693773865699768,0.1802671152229342,0.0031729901051047,-3.913438528505221e-05,0.0132915936410427,-0.0216023866087198,0.1511922776699066,-0.0006499951705336,-0.0057021919637918,0.9869282841682434,0.1610579639673233,0.1230892600013636,-0.1269009318072483,0.194137843945548,-0.0129708647727966,0.2496179938316345,0.6025810241699219,63,247,13202,18502
15.1,1788344908845,4.873239517211914,5.295774459838867,-0.0002904904540628,-0.0046769152395427,0.7481810450553894,0.6634780764579773,0.165082900362534,0.0065426671468375,0.0003429485497391,0.0804467499256134,-0.1077389344573021,0.1539411097764969,0.002948042936623,-0.0038331598043441,0.987764298915863,0.1558792293071746,0.0540482722569263,-0.079803818018016,0.1663527003360269,0.7177826762199402,0.0397617816925048,0.4159803390502929,112,201,15003,18996
15.2,1788344908945,4.957746505737305,5.267605781555176,0.000950833549723,-0.0048638838343322,0.7510988712310791,0.6601710915565491,0.180735730717358,0.000479513444429,0.000114649096588,0.006573814433068,-0.0139130726456642,0.0689365491271019,0.0033601960167288,-0.0035476656630635,0.9884182214736938,0.1516759097576141,0.0018351703594719,0.0012093100957651,0.0828604880414951,-0.2045109272003173,-0.232567548751831,-0.0262928009033203,101,161,14494,18310
15.3,1788344909045,4.788732528686523,5.577464580535889,0.0013019868638366,-0.0052304146811366,0.7533894777297974,0.6575524210929871,0.1685474035036971,0.0025481931921855,4.462818967522011e-06,-0.0007426036172546,-0.0117741823196411,0.0598305128514766,0.0037931846454739,-0.0036599934101104,0.9888730645179749,0.1486683338880539,0.0038687859450418,-0.003881383677629,0.0286525937940183,-0.0753871202468872,-0.2799473404884338,-0.9242839813232422,87,306,15143,17631
15.4,1788344909145,4.901408672332764,5.042253494262695,0.0011426049750298,-0.0051179509609937,0.7540255784988403,0.6568241119384766,0.1690811805993237,0.0020540120047928,2.2678441994092156e-05,-0.0019730040803551,-0.0006982626509852,0.0107342218980193,0.0039349403232336,-0.0036718333140015,0.988883376121521,0.1485955566167831,0.0004624916233789,-0.009894643070665,-0.0047693843602891,0.1169910430908203,0.1598140001296997,-0.444498062133789,137,582,14979,21666
15.5,1788344909245,5.211267471313477,4.535211086273193,0.0010369818191975,-0.0048829289153218,0.753803014755249,0.6570814251899719,0.1706995301779693,0.0021571494987692,-6.180041174993201e-05,0.002085254760459,0.0186535194516181,-0.016935272142291,0.0035216659307479,-0.0036017848178744,0.9888251423835754,0.1489951014518737,0.0009339542189045,0.002919918738894,-0.0082284480437929,0.1364551186561584,0.1825870871543884,0.5595579147338867,97,469,15031,23025
15.6,1788344909345,4.985915660858154,4.873239517211914,0.0013265778543427,-0.0048322384245693,0.7533130049705505,0.6576431393623352,0.1749601503937405,-0.00099529553297,-1.6757080205750636e-05,0.0080599198117852,0.0035894000902771,0.0022550914436578,0.0037615494802594,-0.0031888978555798,0.9887747764587402,0.1493319422006607,0.0100307369594452,-0.0074461809078934,0.0136477883418378,-0.2390815615653991,0.0903626084327697,0.7796478271484375,77,417,15244,21075
15.7,1788344909445,4.985915660858154,5.295774459838867,0.0015824637375772,-0.004771014675498,0.7535196542739868,0.657406210899353,0.184455203083642,-0.0013747281437411,-1.6792294412536062e-05,0.0109562575817108,-0.0077897021546959,0.0158996172249317,0.0036869747564196,-0.0029920963570475,0.9887830018997192,0.1492839157581329,-0.002377527348051,0.0031895071518366,-0.0069444491124968,0.0710346698760986,0.2944711446762085,0.0372467041015625,89,330,15231,19441
15.8,1788344909545,4.929577350616455,4.901408672332764,0.0007483360823243,-0.0039674062281847,0.7532537579536438,0.6577178239822388,0.1712756307517992,0.0028474868122028,-0.0001032535502589,-0.0038839718326926,0.0436169542372226,-0.0213700160384178,0.0025844201445579,-0.0029966784641146,0.9887423515319824,0.149576187133789,-0.0041856386996891,0.0014297837395106,0.0097640834720114,0.1886215806007385,-0.1732798814773559,0.6083240509033203,73,428,14805,20434
15.9,1788344909645,5.126760482788086,5.408450603485107,0.0004092416493222,-0.0038561383262276,0.753739058971405,0.6571623682975769,0.1705947450389736,0.004925142786714,-2.8850485952459465e-05,-0.0048139682039618,0.0075505240820348,0.0291706919670104,0.0009547732770442,-0.003267141059041,0.9889692068099976,0.1480822116136551,-0.0236322364676725,0.0652229755399654,0.0271909836530651,-0.0297982096672058,0.3825737833976745,0.2290658950805664,85,212,14520,17714
16.0,1788344909745,4.901408672332764,4.422535419464111,-0.0036899982951581,-0.0033842800185084,0.7546511292457581,0.6561071276664734,0.1788915999393769,0.000632512633857,-0.000263222685042,-0.0631970018148422,0.0666683390736579,0.0160981994122266,-0.0022856891155242,-0.0053859855979681,0.989026665687561,0.1476211100816726,-0.0430845756308675,0.0568977580096727,-0.0014471894946534,-0.0844331383705139,-0.2657948136329651,-0.6174392700195312,86,275,15428,20124
16.1,1788344909845,5.352112770080566,5.323943614959717,-0.009428821504116,-0.0028281377162784,0.7528948783874512,0.6580672264099121,0.1862760885066951,0.0038699216380971,-0.0001837319395891,-0.0147293731570243,0.0340293496847152,-0.0416430123150348,-0.006646679714322,-0.0074316943064332,0.9885913729667664,0.1502924114465713,0.0075488154437035,0.0112651964176548,-0.0194064207312402,-0.2204436063766479,-0.1756230592727661,1.5422725677490234,77,318,14967,17141
16.2,1788344909945,5.042253494262695,4.816901206970215,-0.0104752797633409,-0.002572301775217,0.7521746158599854,0.6588755249977112,0.1689144623782695,-0.0011932407901685,-0.0001000237339415,-0.0196118894964456,0.0386012122035026,-0.0430746525526046,-0.0070554781705141,-0.0063961734995245,0.9883811473846436,0.1516970694065094,0.075686263390719,-0.0401631387897341,-0.0074448042843476,0.1063739657402038,-0.151402473449707,-0.0146703720092773,78,333,15922,18955
16.3,1788344910045,5.154929637908936,4.732394218444824,-0.006036561448127,-0.0009330271277576,0.7516776919364929,0.6595023274421692,0.1806136270486802,-0.0008007892131639,0.0002725072266936,0.1265819221735,-0.0978895276784896,-0.0170769244432449,-0.0028121937066316,-0.0027262046933174,0.988093376159668,0.1538057923316955,0.0608481410057578,-0.0561067030252092,-0.0770865317723584,0.237638771533966,-0.2344319224357605,0.4325370788574219,83,321,14314,20398
16.4,1788344910145,5.014084339141846,5.380281925201416,-0.0039940415881574,-0.000202553695999,0.7506450414657593,0.6606935858726501,0.1788308938214752,8.42348779937429e-05,-4.2112961405032526e-06,0.0111267948523163,0.0167607963085174,0.0057915425859391,-0.0034893443807959,-0.0023569576442241,0.9882816076278688,0.1525837332010269,-0.0103793837582343,0.0228493805855688,0.0538369570127469,-0.0095325112342834,0.1006806492805481,-0.4806699752807617,62,373,14376,19523
16.5,1788344910245,4.676056385040283,5.042253494262695,-0.0045440434478223,4.45100013166666e-05,0.752100944519043,0.6590321063995361,0.1755390824304576,0.0002167885942306,-6.364090878898675e-05,-0.0071412287652492,0.0232944805175066,0.0695156082510948,-0.0045807715505361,-0.002491739578545,0.9887537956237792,0.1494616419076919,-9.100327319165086e-05,0.028820627257566,0.0676746169776079,0.3795223832130432,-0.0708213448524475,-2.161531925201416,72,328,14671,19429
16.6,1788344910345,4.901408672332764,4.760563373565674,-0.0054561318829655,0.0005312571302056,0.7541806697845459,0.6566440463066101,0.1770066223254524,0.002036381787842,-4.63170251473763e-05,-0.0010840567993,0.0056352787651121,0.0341707095503807,-0.0050168419256806,-0.0024662800133228,0.9888558387756348,0.1487713307142257,-0.0028211876766783,0.028657811216782,0.046282379924439,-0.2780401110649109,0.242452323436737,-0.0812311172485351,115,339,16220,18778
16.7,1788344910445,5.605633735656738,4.253520965576172,-0.0060988953337073,0.0008586733601987,0.753320038318634,0.6576251983642578,0.173480076486226,-0.0033990480085282,-7.702251778886508e-05,-0.0027910021599382,0.021093787625432,-0.0735132545232772,-0.0059354240074753,-0.002598320133984,0.988454818725586,0.1513778269290924,-0.0050709817167792,0.0268182561944379,-0.1164191858216572,-0.0129002928733825,-0.1361361145973205,-1.1858673095703125,139,496,16519,18080
16.8,1788344910545,5.6619720458984375,4.253520965576172,-0.0059453351423144,0.0007739563006907,0.7486976981163025,0.6628844738006592,0.1836410115187084,-0.0034286424383204,8.004797486070495e-05,0.0066589983180165,-0.013797896914184,-0.1697296947240829,-0.0054710321128368,-0.0023157261312007,0.987254798412323,0.1590367704629898,0.015856253901509,0.0080814705732533,-0.1717191199800425,-0.0396929383277893,-0.1231892108917236,0.3551139831542969,86,365,16267,20980
16.9,1788344910645,5.6619720458984375,4.760563373565674,-0.0057508833706378,0.001069807447493,0.7441532611846924,0.6679832339286804,0.1850424337852197,-0.0029852094045227,-4.441658041766705e-06,0.0024795040953904,-0.0062299482524394,-0.1335707604885101,-0.0043012760579586,-0.0020128665491938,0.9857932329177856,0.1678960472345352,0.0129489907399286,-0.0399868234221173,-0.177069859594405,0.0268833637237548,-0.3219431638717651,-0.2115468978881836,114,400,16034,18289
17.0,1788344910745,5.633802890777588,4.2253522872924805,-0.0043774992227554,0.0001730674412101,0.7376663088798523,0.6751512289047241,0.1829443042474866,-0.0045556823619507,0.0001359385292754,-0.0013573262840509,-0.0212600491940975,-0.1658785194158554,-0.0034388769418001,-0.0022292919456958,0.9841430187225342,0.1773295402526855,-0.0020834270356559,-0.0261685414087666,-0.1642331977876712,0.0444889664649963,-0.066394031047821,1.501079559326172,85,392,15605,19525
17.1,1788344910845,5.6619720458984375,4.704225540161133,-0.0041760266758501,-0.0001185284927487,0.7329623103141785,0.6802563667297363,0.1776234418852217,-0.0025800972799694,3.323834899271396e-05,-0.005716576706618,-0.0086105782538652,-0.1611386388540268,-0.0039500417187809,-0.0025770952925086,0.9827589988708496,0.1848309338092804,-0.0125142836936404,0.0190779750407873,-0.1576137212330008,-0.0849106907844543,-0.2976160049438476,0.9324874877929688,66,371,15572,17781
17.2,1788344910945,5.126760482788086,5.211267471313477,-0.0045596556738018,-0.0003463239409029,0.7279624938964844,0.6856017112731934,0.1909267429733274,-0.0036910919119933,-3.4940719122363e-06,-0.0084042130038142,-0.0095666162669658,-0.141023963689804,-0.0034221606329083,-0.0030548330396413,0.982035994529724,0.1886379420757293,-0.0174613294199646,-0.0194375098134544,-0.1256165210411035,-0.1160809993743896,-0.1243344545364379,0.343973159790039,62,318,14828,17461
17.3,1788344911045,4.985915660858154,4.563380241394043,-0.0096236802637577,-0.0014131073839962,0.7247089743614197,0.6889863610267639,0.1805877372215268,-0.0008398633783124,-8.320631475587555e-05,-0.0537935346364975,0.0226100236177444,-0.0488274544477462,-0.0072369528934359,-0.0062345117330551,0.9815045595169068,0.1912002712488174,-0.0565367681068476,0.0150909989683095,-0.0545157915278927,-0.1705313324928283,-0.2935996651649475,0.9495162963867188,58,344,15433,19019
17.4,1788344911145,5.183098793029785,5.070422649383545,-0.0120759773999452,-0.001732547301799,0.7240229249000549,0.6896679401397705,0.1793093184729496,-0.0016535014915369,-8.583867224366425e-05,-0.0287227127701044,0.0180752966552972,-0.0070500802248716,-0.009076221846044,-0.0081011280417442,0.9811694622039796,0.1927657276391983,-0.007308130415822,-0.0131730522552408,-0.0266263623349778,-0.0234240293502807,-0.2330383062362671,1.9638538360595703,95,277,15422,18211
17.5,1788344911245,5.126760482788086,5.464788913726807,-0.0129421846941113,-0.0018654009327292,0.7235549688339233,0.6901429295539856,0.1796619830903248,0.0039480062367896,-5.416976134534409e-05,-0.0275945179164409,0.0217180550098419,-0.0267161354422569,-0.0079328976571559,-0.0076698334887623,0.981017768383026,0.1936037093400955,0.0756063456895941,-0.0623771030960359,-0.0050038859614887,0.0043623447418212,0.0396555066108703,-0.6577787399291992,58,333,15495,16929
17.6,1788344911345,5.183098793029785,4.929577350616455,-0.0060476697981357,-0.0017826384864747,0.7232470512390137,0.6905605792999268,0.1902719000382116,-0.0017820202207226,0.0004807277961183,0.1313038766384124,-0.1148629188537597,0.0012634331360459,-0.0020431531593203,-0.0034119002521038,0.9809264540672302,0.1943386048078537,0.0856104148994274,-0.0994132562322416,-0.0547594305484021,-0.1005923748016357,-0.0359320640563964,-0.1748037338256836,100,411,15691,20914
17.7,1788344911445,5.267605781555176,5.492957592010498,-0.0018437487306073,-0.0019291538046672,0.7225756049156189,0.6912867426872253,0.1809738410028923,-0.0071377000851808,0.0002188885806025,0.0505979843437671,-0.0630941390991211,-0.0088389422744512,-0.0007119383662939,-0.0028218179941177,0.980536699295044,0.1963141560554504,-0.0120837963174606,0.0027091861718861,-0.0415721014382333,-0.4191741347312927,0.3141312599182129,0.260782241821289,91,222,15138,15716
17.8,1788344911545,5.014084339141846,4.535211086273193,-0.0020916699431836,-0.0019658622331917,0.7214875817298889,0.6924213767051697,0.1824944530131444,0.0015336169263935,-1.6950683470750446e-05,-0.0058446400798857,0.0046647191047668,-0.0464114919304847,-0.0004901653155684,-0.0029264679178595,0.9804347157478333,0.1968223005533218,-0.0042785691639021,-0.0171875575438471,-0.0377115463441981,0.1162911057472229,-0.303982138633728,0.616455078125,104,280,16067,18800
17.9,1788344911645,5.267605781555176,4.422535419464111,-0.0020916699431836,-0.0019658622331917,0.7214875817298889,0.6924213767051697,0.1824944530131444,0.0015336169263935,-1.6950683470750446e-05,-0.0058446400798857,0.0046647191047668,-0.0464114919304847,5.263742059469223e-05,-0.0030697435140609,0.9801681041717528,0.1981438994407653,-0.0019236653128861,-0.0316860572795563,-0.0448305073229059,-0.3155115246772766,-0.0191584229469299,0.9690876007080078,127,246,15364,18704
18.0,1788344911745,5.183098793029785,4.02816915512085,-0.0016024534124881,-0.0029804869554936,0.716742992401123,0.6973292231559753,0.1760000098935394,0.0005018531418271,1.6864616016656171e-06,-0.0076311375014483,-0.007861909456551,-0.1035227999091148,5.201157182455063e-05,-0.0033370545133948,0.9793369770050048,0.2022077292203903,-0.0107187332507611,-0.0002808357115724,-0.1028461022275333,0.0715572834014892,-0.0183181166648864,-0.0840120315551757,124,523,15790,22961
18.1,1788344911845,5.267605781555176,5.267605781555176,-0.0018495237454771,-0.0024672928266227,0.7125778794288635,0.7015863060951233,0.1791541251537324,-0.0035659242341246,-2.3475777906297325e-05,0.0034256153739988,-0.0026332978159189,-0.0945278257131576,-0.0003321710973978,-0.0030341986566781,0.9780240654945374,0.208469733595848,0.0067674944256405,-0.0047567346155363,-0.0844215206667294,-0.0341394543647766,0.2876906394958496,-0.4108591079711914,73,472,15781,23447
18.2,1788344911945,5.295774459838867,5.633802890777588,-0.0016512610018253,-0.0026071011088788,0.7112056016921997,0.7029773592948914,0.1784157877604643,-0.001530983760683,5.687813758640341e-05,0.0016112867742776,-0.0097272284328937,-0.0814689472317695,-1.0446645319461824e-05,-0.0030899671837687,0.977544903755188,0.2107048481702804,0.002315832232065,0.0034098163912905,-0.0549543842648325,0.399592638015747,0.5100827217102051,0.3612537384033203,82,400,15808,22350
18.3,1788344912045,5.239436626434326,5.605633735656738,-0.0009041152661666,-0.0024891684297472,0.7101254463195801,0.7040702700614929,0.1808040484802,-0.0031463783946314,6.392584338501537e-05,0.0083560952916741,-0.0135575206950306,-0.0293037965893745,0.0005786204710602,-0.0026318887248635,0.9773041009902954,0.2118243128061294,0.0138348309235952,-0.0297460266519287,-0.0393958106416145,0.1256422400474548,0.0112837553024292,0.1216144561767578,81,410,14855,17612
18.4,1788344912145,5.239436626434326,5.352112770080566,-0.0010604655835777,-0.0025362314190715,0.7081212401390076,0.7060855627059937,0.1827044346693719,0.0045623472835008,-3.451627187598738e-05,-0.0109012592583894,0.005100823007524,-0.0576084814965724,0.0006354721263051,-0.002814101986587,0.976620078086853,0.2149533480405807,-0.0077516479930779,-0.0064267615634539,-0.0247225996256927,-0.0422205924987793,0.2530508041381836,-0.296823501586914,81,410,14855,17612
18.5,1788344912245,5.211267471313477,5.577464580535889,-0.0008728756802156,-0.0027440784033387,0.7079829573631287,0.7062236070632935,0.1821443163863136,0.002478995077707,-1.604681244841804e-06,-0.0005930317565798,-0.0110855232924222,-0.0077877193689346,0.0001313770189881,-0.0026534292846918,0.9765130281448364,0.2154423743486404,-0.0035969283056315,0.0239268240302477,-0.0296423009631468,0.1659225821495056,-0.2560136914253235,-1.0295228958129885,88,367,15446,18914
18.6,1788344912345,5.239436626434326,4.676056385040283,-0.0016571916639804,-0.0022376973647624,0.7074158787727356,0.7067920565605164,0.182022137679218,0.0022009192593931,-0.0001075052848827,-0.0097844963893294,0.0259432177990674,-0.0299676917493343,-0.0032053533941507,-0.004845917224884,0.9758014678955078,0.2185812592506408,-0.0455289551017869,0.06629882422997,-0.0577495220550472,0.0613390207290649,-0.1776841878890991,-0.3254919052124023,102,357,15271,18402
18.7,1788344912445,5.211267471313477,4.253520965576172,-0.0071252835914492,-0.0021077918354421,0.7041594386100769,0.7100030183792114,0.1771963663145597,-0.0043387315590613,-0.0001366182861791,-0.0297858994454145,0.0482456237077713,-0.0578980036079883,-0.0032053533941507,-0.004845917224884,0.9758014678955078,0.2185812592506408,-0.0455289551017869,0.06629882422997,-0.0577495220550472,0.0613390207290649,-0.1776841878890991,-0.3254919052124023,102,357,15271,18402
18.8,1788344912545,3.2676055431365967,3.6619718074798575,-0.0093245794996619,-0.0020935568027198,0.7024380564689636,0.7116807699203491,0.1752558319885428,-0.0109121967359513,-5.79174858359899e-05,-0.0614719055593013,0.0627229660749435,-0.0955596789717674,-0.0081371422857046,-0.0076291058212518,0.9743546843528748,0.2247413843870163,5.341830262855713e-06,0.0062390748135433,-0.0633994968471359,-1.4444196224212646,-0.4074476957321167,-1.0493478775024414,125,339,14896,20099
18.9,1788344912645,0.0,3.014084577560425,-0.0075661046430468,-0.0014126577880233,0.706596314907074,0.7075752019882202,0.0905648397135528,0.0031828309187698,0.0001290804437266,0.0970777869224548,-0.0982077941298484,0.2597425580024719,-0.0062444936484098,-0.0056563038378953,0.975735366344452,0.2187907695770263,0.0936205820850532,-0.0951830621963318,0.2193690831672397,-0.9331315755844116,0.2471053600311279,1.0473432540893557,95,231,1078,14148
19.0,1788344912745,-1.3521126508712769,1.887323975563049,-0.0041284998878836,-0.0012050302466377,0.7225154042243958,0.6913414597511292,0.028181009964219,0.0017159752943249,7.908253523294075e-06,0.024217939004302,-0.0216385517269372,0.373490959405899,-0.0023124236613512,-0.0028047068044543,0.9828553795814514,0.184342160820961,0.0276277858385542,-0.0251116869824122,0.5414908980596761,-0.2149944305419922,0.1853519678115844,0.1312465667724609,126,251,-5603,11198
19.1,1788344912845,-2.197183132171631,1.8591549396514893,-0.0019698163960129,-0.0009969547390937,0.7407011985778809,0.6718310117721558,-0.0050536941685817,0.0039396525859241,-2.1873435441184404e-06,0.0406659618020057,-0.0394725576043129,0.6266169548034668,-0.0012870458886027,-0.0016796076670289,0.988951563835144,0.1482243537902832,0.0030816674756428,0.0029468913060905,0.5819217101332597,0.216476023197174,-0.2544503211975097,-0.1681442260742187,110,392,-7786,11294
19.2,1788344912945,-1.5211267471313477,1.6619718074798584,-0.001983962021768,-0.0007664415752515,0.7509546279907227,0.6603504419326782,0.0020276220714371,0.0004576417504858,3.665560322955696e-07,0.0058949813246726,0.0052951797842979,0.6096252799034119,-0.0012746723368763,-0.0016392394900321,0.9899765849113464,0.1412164568901062,0.0022771740220698,-0.0012995766722222,0.4699236504028554,-0.004342496395111,-0.20879727602005,-0.1466941833496093,53,202,-6235,9146
19.3,1788344913045,-1.5211267471313477,1.5492957830429075,-0.0018742331303656,-0.000586109526921,0.7659317255020142,0.6429188251495361,0.0023949974037393,0.0004698902339876,7.825013081671203e-07,0.0048981518484652,-0.0042372676543891,0.4220353662967682,-0.0010041035711765,-0.0014249272644519,0.9945501089096068,0.1042454913258552,-0.0005568743435844,-0.0037681988623348,0.4887231470348623,0.1353852152824401,0.0304535031318664,0.1831245422363281,87,209,-6588,8659
19.4,1788344913145,-1.4647886753082275,1.6901408433914185,-0.0015895987162366,-0.0007225252920761,0.7898727059364319,0.613268256187439,0.0010821269009716,-8.640418428741854e-05,1.5768320746618942e-06,-0.0017508463934063,-0.0029812804423272,0.4755588173866272,-0.0008686920627951,-0.0014156717807054,0.9961082935333252,0.0881218090653419,0.0023580421441344,-0.0074663878397884,0.4577820502885247,0.0203195214271545,0.0484459400177001,0.0016422271728515,91,186,-6716,8134
19.5,1788344913245,-1.3239436149597168,1.436619758605957,-0.0013432938139885,-0.000741004711017,0.8029582500457764,0.5960333943367004,0.0005155343536872,0.001109258032844,3.846011653494016e-06,0.0001896226312965,-0.0032007365953177,0.4775816798210144,-0.0007024900987744,-0.0014205127954483,0.9981238842010498,0.0612063929438591,-0.0047942854262432,-0.0042572951851549,0.3825318961231458,0.3123948574066162,-0.1765934228897094,0.0065135955810546,0,178,-4707,6341
19.6,1788344913345,-0.9295774698257446,1.1267606019973757,-0.0013881091726943,-0.0008285566000267,0.8141466975212097,0.5806569457054138,0.0035638891866501,-0.0016840503485667,-5.954660646365788e-07,-0.0016325663309544,0.0008597139385528,0.3465912640094757,-0.0007954137399792,-0.0014996333047747,0.998852789402008,0.0478568524122238,-0.0049493398407824,0.0060101657219414,0.3158957312217096,-0.0070106983184814,-0.0512896180152893,0.0317420959472656,48,292,-5598,7506
19.7,1788344913445,-1.1267606019973757,1.2394366264343262,-0.0014780630590394,-0.0008458725642412,0.8184743523597717,0.5745405554771423,-0.0001104030874045,0.0024234650372622,1.8748714226447409e-06,-0.0030822770204395,0.0022545969113707,0.3241987228393554,-0.0008612340316176,-0.0014360891655087,0.9995872378349304,0.0286822766065597,0.0021912900034907,-0.0006513384223612,0.3422773896832379,-0.0500102639198303,0.0621812343597412,0.0303411483764648,123,250,-5504,7258
19.8,1788344913545,-1.154929518699646,1.154929518699646,-0.0015228663105517,-0.0007832296541891,0.8227863311767578,0.5683482885360718,0.0015190921436868,0.0005092529590381,3.769023179677127e-06,0.0009261430241167,0.0028234992641955,0.3489823043346405,-0.0008612340316176,-0.0014360891655087,0.9995872378349304,0.0286822766065597,0.0021912900034907,-0.0006513384223612,0.3422773896832379,-0.0500102639198303,0.0621812343597412,0.0303411483764648,67,310,-5202,7805
19.9,1788344913645,-1.0704225301742554,1.211267590522766,-0.0012456023832783,-0.0012085371417924,0.8429114818572998,0.5380495190620422,-0.0036781256881595,0.0005640684781178,-2.3342210897337717e-06,-0.0045903921127319,-0.0074479752220213,0.3224228620529175,0.0003691473975777,0.0017241509631276,-0.999981701374054,0.0058022560551762,-0.0026057467294651,-0.004129581034562,0.3438799078983069,0.0725113153457641,-0.0331405401229858,-0.002211570739746,137,328,-5063,7861
20.0,1788344913745,-0.7605633735656738,0.7605633735656738,-0.001224226783961,-0.0012644253438338,0.8474702835083008,0.5308399796485901,-0.0007530059209017,0.0013818263669808,4.065595077926884e-06,-0.001560153090395,-0.0024944201577454,0.3405401110649109,0.0001630159094929,0.0017270613461732,-0.9998262524604796,0.0185582749545574,0.000495269846493,-0.0080202417978856,0.2372104028139841,0.1298421025276184,0.0383448004722595,0.0969362258911132,111,270,-4567,8117
20.1,1788344913845,-0.7887324094772339,0.8450704216957092,-0.0010525468969717,-0.0014159992570057,0.8572248220443726,0.5149394869804382,-0.0019930646912308,0.0005281996416334,-2.736815273199961e-06,-0.0011111319763585,-0.0015788188902661,0.2539398968219757,0.0001362059265375,0.0017582178115844,-0.9996547102928162,0.0262207612395286,0.0007964402410572,-0.0049184074270801,0.2533105439706476,0.1943181753158569,-0.0075529217720031,0.044748306274414,84,270,-4563,8557
20.2,1788344913945,0.0,2.5352113246917725,-0.0010262252762913,-0.0015916310949251,0.8634046912193298,0.504508376121521,-0.0010151573654563,0.0021028525289454,2.268068634165912e-06,-0.0048357537016272,0.0023208435159176,0.244841530919075,2.5982968509197235e-05,0.0019363136962056,-0.9991967678070068,0.0400274582207202,-0.0080332110147809,0.0091765558975776,0.2361345151290543,0.5591455698013306,0.216791570186615,0.0694608688354492,2,546,0,15595
20.3,1788344914045,2.2253520488739014,4.619718074798584,-0.0011261848267167,-0.0017243848415091,0.8673344254493713,0.4977216422557831,0.0206731671918271,0.0032108737699362,-5.30609066754056e-07,-0.0074690207839012,0.0002025575522566,0.353366881608963,2.5982968509197235e-05,0.0019363136962056,-0.9991967678070068,0.0400274582207202,-0.0080332110147809,0.0091765558975776,0.2361345151290543,0.5591455698013306,0.216791570186615,0.0694608688354492,169,824,10619,26049
20.4,1788344914145,4.197183132171631,6.901408672332764,-0.0013391801621764,-0.0018151703989133,0.8798308372497559,0.4752816259860992,0.152650320318588,3.612560009729588e-05,-1.4859466324009627e-05,-0.0010087108239531,0.0026625376194715,0.3045452833175659,0.000148581340909,0.00216971244663,-0.9971092939376832,0.0759505406022071,0.0055024223569098,-0.0008665772655487,0.266344937870181,0.243796169757843,-0.1553390026092529,-0.1246089935302734,110,778,13260,28216
20.5,1788344914245,3.88732385635376,6.8450703620910645,-0.001367281191051,-0.0015338216908276,0.8845291137695312,0.466480553150177,0.1888501811455033,0.0039931031451878,-1.1427159659209774e-05,0.0077717085368931,0.0045829773880541,0.3357689976692199,1.7546117305755615e-05,0.0011336812749505,-0.994904398918152,0.1008166223764419,0.0298827729676988,-0.0294488754465885,0.5116193413886466,-0.0437833070755004,0.5314510464668274,0.0681476593017578,76,426,12167,24069
20.6,1788344914345,3.6619718074798575,6.760563373565674,-0.0004945889813825,-0.0009937729919329,0.8986313343048096,0.4387032091617584,0.1888235154136469,0.003486711619927,1.9334827133232083e-05,0.0023672943934798,0.0043224883265793,0.4069494009017944,-0.0003557074815034,0.0011054957285523,-0.9940323233604432,0.1090796217322349,-0.0006669919666394,-0.0183887785292746,0.3984501551336706,-0.2889944314956665,-0.2632709741592407,-0.567540168762207,104,331,12641,21844
20.7,1788344914445,3.859154939651489,6.2253522872924805,-0.0001084780378732,-0.0012796842493116,0.9067119359970092,0.4217484593391418,0.1843866576972889,-0.0011553637296143,3.727736862161514e-05,0.0051948642358183,-0.0147889200598001,0.408993124961853,-0.00066396035254,0.0011267019435763,-0.9911215305328368,0.1329522728919983,0.0084529311965184,-0.0197114747252172,0.4289926614068993,-0.0298351645469665,0.4006262421607971,-0.974074363708496,109,228,11963,22298
20.8,1788344914545,3.8309860229492183,5.915493011474609,-0.0008251941180787,-0.0019345503533259,0.9105830192565918,0.4133208394050598,0.1775094140371546,0.003869775542867,2.340063887310677e-05,-0.0354914739727973,0.0144217060878872,0.3690306842327118,0.0016423277556896,0.0052376231178641,-0.9881232976913452,0.1535650342702865,-0.0629123997185795,0.0361444585478132,0.3008762356414896,-0.0098391771316528,-0.3416029214859009,1.6616783142089844,89,229,12946,21854
20.9,1788344914645,4.3380279541015625,5.605633735656738,-0.0044383695349097,-0.0036345047410577,0.917206346988678,0.3983711004257202,0.180166118829856,0.0033539802497784,-0.0001004692198614,-0.0457868911325931,0.0298434495925903,0.3415700197219848,0.0014143828302621,0.0056039374321699,-0.9868981838226318,0.161240741610527,-0.0172195620133463,-0.0084094637836822,0.3204449969946844,-0.0247712731361389,-0.037256896495819,0.163156509399414,125,256,12811,21630
21.0,1788344914745,4.169013977050781,5.943662166595459,-0.005155901890248,-0.004391822963953,0.9232770204544068,0.3840751051902771,0.1915352536962488,0.0022394229555495,0.0001422405179471,0.0907640978693962,-0.0865604132413864,0.2340727299451828,0.0032169427722692,0.0079058650881052,-0.9853997826576232,0.1700422614812851,0.0553738733791133,-0.0432811424042559,0.2107265872878922,-0.2785905599594116,0.0305497050285339,-0.5475940704345703,125,256,12811,21630
21.1,1788344914845,4.169013977050781,5.943662166595459,-0.0003503000480122,-0.0023341956548392,0.9257218241691588,0.3781976699829101,0.1829593613830538,0.0017631142215371,0.0005206264449743,0.1656435877084732,-0.1638266444206237,0.2825267314910888,-0.002694608643651,0.0002319533377885,-0.9824168682098388,0.1866808235645294,0.041828708493055,-0.0604988217333401,0.2471253218381344,-0.4579122066497803,-0.10517019033432,-0.3244485855102539,125,256,12811,21630
21.2,1788344914945,0.9295774698257446,2.5352113246917725,0.002102903323248,-0.0017493574414402,0.9320693612098694,0.3622695803642273,0.0935002124666061,0.0023461862298857,-6.909200463864204e-06,-0.0044550974853336,0.0011269432725384,0.249200165271759,-0.0026642736047506,0.0004248702898621,-0.979986310005188,0.1990463733673095,-0.0043761222332437,0.0010451607115751,0.2571722078133731,-0.5486595034599304,-0.2897769808769226,0.1901655197143554,37,147,0,6950
21.3,1788344915045,0.3943662047386169,0.0,0.002102903323248,-0.0017493574414402,0.9320693612098694,0.3622695803642273,0.0935002124666061,0.0023461862298857,-6.909200463864204e-06,-0.0044550974853336,0.0011269432725384,0.249200165271759,-0.0028566215187311,0.0004631578922271,-0.978331744670868,0.2070232927799224,-0.0048825352602542,0.0042640235707145,0.0275349069631947,0.0981372594833374,-0.2914763689041137,0.1963996887207031,91,0,5222,-486
21.4,1788344915145,3.633802890777588,2.366197109222412,0.0022867389488965,-0.001887165941298,0.9358664155006408,0.3523424565792084,0.0096849260912038,-0.0034460850097831,1.5204078630604785e-06,-0.0004408689856063,-0.0022996601182967,-0.0289193354547023,-0.0030007744207978,0.0003616362810134,-0.9798336029052734,0.1997921764850616,0.0004215421732755,-0.0017494132636878,-0.2400586363573802,1.027079463005066,0.1578280329704284,0.1311588287353515,223,324,14100,12388
21.5,1788344915245,6.309859275817871,4.197183132171631,0.0017144340090453,-0.0019743777811527,0.93084979057312,0.3653928339481354,0.1423261401327085,-0.0001200246956331,-3.536258873426115e-05,-0.007855987176299,0.0115161556750535,-0.1755357533693313,-0.0027623707428574,0.0010142838582396,-0.9824712872505188,0.1863906979560852,-0.0206602013104039,-0.0128237081734592,-0.2800867669033283,0.6395988464355469,-0.088809847831726,-0.5924167633056641,90,262,17753,16449
21.6,1788344915345,5.7183098793029785,3.746478796005249,0.0009518862934783,-0.0024796230718493,0.92461895942688,0.3808840215206146,0.1833598406690044,-0.0040358375176439,-9.02300993021271e-05,-0.0142440516501665,0.0228264220058918,-0.3349638283252716,-0.0021255137398838,0.0015142345800995,-0.9843127131462096,0.1764136850833892,-0.0056752091957256,0.0249479975451869,-0.3564674647388515,-0.3327751755714416,0.1801222562789917,0.82623291015625,58,377,15937,17222
21.7,1788344915445,5.295774459838867,4.2253522872924805,0.0008991943323053,-0.0027836021035909,0.9226465225219728,0.3856357932090759,0.1764493809292612,0.0005775391047566,-3.83455553313222e-07,-0.0174018442630767,-0.0032027706038206,-0.2882718443870544,-0.0021128114312887,0.0020587081089615,-0.9870577454566956,0.1603384464979171,-0.0053552648520736,0.0265651174908813,-0.2462900297543413,-0.0321605205535888,-0.3544073104858398,-0.0250606536865234,65,883,15960,26819
21.8,1788344915545,5.605633735656738,3.492957830429077,0.0012398741673678,-0.0032857763580977,0.9142853021621704,0.4050555229187011,0.1643511759356185,-0.0034719333847204,3.66947893654457e-05,-0.0028102276846766,-0.0241112224757671,-0.2807459235191345,-0.0022506983950734,0.0021365601569414,-0.9876522421836852,0.1566319167613983,-0.0069826718522601,-0.0076468420591885,-0.2493412773231887,0.2690690159797668,-0.1505427956581115,-0.251953125,84,880,16098,32767
21.9,1788344915645,5.239436626434326,6.14084529876709,0.0012694466859102,-0.0031317996326833,0.910300076007843,0.4139353334903717,0.1779495113329325,-0.0022422799166807,3.609645240734463e-05,-0.0013485313393175,0.0023555161897093,-0.1597993522882461,-0.0033303378149867,0.0018168482929468,-0.9906410574913024,0.1364401131868362,0.0036314595169648,-0.030773098210856,-0.1053278697018898,0.9820890426635742,0.588957667350769,0.2010688781738281,85,800,14860,26528
22.0,1788344915745,1.887323975563049,1.6901408433914185,0.0013584186090156,-0.0030747279524803,0.9100735783576964,0.4144330620765686,0.1968542838695897,0.0062347512460723,0.0001058463482425,0.0015875142998993,0.0059703532606363,0.0867160409688949,-0.0026717977598309,0.0018555782735347,-0.9901151657104492,0.1402190774679184,0.0026216108167589,0.0259321446446673,0.1525528229707398,-1.6668120622634888,-0.4790794849395752,-1.076528549194336,157,75,0,0
22.1,1788344915845,-3.0985915660858154,0.0,0.0011426251148805,-0.0030939816497266,0.9105333089828492,0.4134225249290466,0.132268784506648,-0.0018052614473503,-1.5781720611611225e-05,-0.0049447794444859,0.0088257798925042,0.0527327619493007,-0.0030510993674397,0.0022782664746046,-0.9905734062194824,0.1369306147098541,-0.0105313383419165,-0.0252404491345753,-0.1664860771935719,-0.5518847703933716,0.4116021394729614,-0.1016101837158203,157,75,0,0
22.2,1788344915945,-6.450704097747803,6.056337833404541,0.0012110819807276,-0.003253627102822,0.9124387502670288,0.4091985821723938,-0.0481176258976166,-0.0013682094740569,-9.660974908342529e-06,0.0061034364625811,0.001559063210152,0.3005679547786712,-0.0018870187923312,0.0027928026393055,-0.978613257408142,0.2056809812784195,-0.0165159913498901,0.0444911888655575,1.906205660765372,-0.281434416770935,-0.3813361525535583,0.0571136474609375,272,781,-21029,28245
22.3,1788344916045,-6.450704097747803,6.056337833404541,0.0012110819807276,-0.003253627102822,0.9124387502670288,0.4091985821723938,-0.0481176258976166,-0.0013682094740569,-9.660974908342529e-06,0.0061034364625811,0.001559063210152,0.3005679547786712,-0.0009446907788515,0.0044945115223526,-0.9591138958930968,0.2829830944538116,-0.0478779828738332,0.0481300686976967,1.938030601593536,-0.149998128414154,-0.1786844134330749,-0.3639612197875976,272,781,-21029,28245
22.4,1788344916145,-6.14084529876709,6.563380241394043,-0.0048583904281258,-0.0075167585164308,0.979884922504425,0.1993623971939087,0.0014267978176491,-0.0002079054989209,-2.873213576254338e-06,-0.0850722268223762,0.0384884513914585,1.882581353187561,-0.0009446907788515,0.0044945115223526,-0.9591138958930968,0.2829830944538116,-0.0478779828738332,0.0481300686976967,1.938030601593536,-0.149998128414154,-0.1786844134330749,-0.3639612197875976,117,361,-18479,20095
22.5,1788344916245,-6.2253522872924805,5.77464771270752,-0.0055703138932585,-0.0097167026251554,0.9932261109352112,0.1156567856669426,0.0049284912626989,-0.0082364789410764,8.19485803948992e-06,-0.0647396594285965,-0.0330647006630897,1.846992254257202,0.0006578993052244,0.0151231493800878,-0.8765428066253662,0.4810858070850372,-0.1252108977195775,0.0988551514447586,1.9981645889555897,-0.1324272751808166,-0.1526188254356384,-0.480936050415039,73,398,-17651,21984
22.6,1788344916345,-6.309859275817871,6.0,-0.0046412367373704,-0.0092354761436581,0.999944269657135,0.002160576172173,0.0110647388068676,-0.000568670442805,2.439368118888106e-05,0.105848342180252,-0.1509000658988952,1.9102213382720947,-0.0011786203831434,0.0098108937963843,-0.8422826528549194,0.5389456152915955,0.1329252537037742,-0.1848377030430984,1.9127788860292896,-0.1225972175598144,-0.2733080387115478,-0.891291618347168,52,451,-17436,23326
22.7,1788344916445,-6.197183132171631,5.943662166595459,-0.0003716672654263,0.0047138556838035,-0.9964988231658936,0.0834727212786674,0.0033348086416209,0.0001495197853506,-4.727240973779199e-06,0.0808389782905578,-0.1282376050949096,1.915847659111023,-0.0025081587955355,0.0039465483278036,-0.7867017388343811,0.6173155903816223,0.0077745778752595,-0.0001035635188731,1.840499824062077,0.0486654043197631,-0.016265869140625,0.2655830383300781,47,336,-17533,23467
22.8,1788344916545,-6.197183132171631,7.014084339141846,-0.0002640426391735,0.0046046795323491,-0.9914591312408448,0.1303368210792541,0.0095655592206522,0.0018187944997312,-1.4403137121246616e-06,0.0044596125371754,-0.0049882703460752,1.8857179880142207,-0.0027460334822535,0.0037639215588569,-0.7241054773330688,0.6896736025810242,-0.0077201051564335,-0.0271675920970233,1.9444196114132928,0.1294282674789428,-0.2069562077522277,-0.2774972915649414,99,230,-17923,18171
22.9,1788344916645,-6.197183132171631,5.380281925201416,-5.96512109041214e-06,0.0047638686373829,-0.9742171168327332,0.2255621403455734,0.0088073402198219,0.0018518492542882,7.930538567564975e-07,-0.0026131183840334,0.0076101538725197,1.955302357673645,-0.0024791210889816,0.0041331695392727,-0.6164038777351379,0.7874155044555664,-0.0031787569936758,0.0051552581560992,1.7339649108672095,-0.1361752152442932,-0.330126404762268,-0.1543874740600586,70,497,-17954,24106
23.0,1788344916745,-5.802816867828369,4.704225540161133,-5.96512109041214e-06,0.0047638686373829,-0.9742171168327332,0.2255621403455734,0.0088073402198219,0.0018518492542882,7.930538567564975e-07,-0.0026131183840334,0.0076101538725197,1.955302357673645,-0.0029240809381008,0.0035903062671422,-0.5962737202644348,0.8027678728103638,-0.0056225360072179,-0.0561092220952545,1.746397381248154,-0.160655677318573,-0.0639288425445556,0.1465673446655273,90,873,-17897,30366
23.1,1788344916845,-4.197183132171631,3.7183098793029785,-0.0012166803935542,0.0040867109782993,-0.9025687575340272,0.4305245578289032,-0.0165782531799887,-0.0010763996503989,-5.869080470086566e-07,0.0026581594720482,-0.0119767840951681,1.691946029663086,-0.0032446393743157,0.0023559974506497,-0.5069286823272705,0.8619787096977234,0.0104018802139187,-0.0289100254960783,1.5429433389834666,0.5879490971565247,-0.8279692530632019,0.1300888061523437,78,652,-7480,23410
23.2,1788344916945,-4.197183132171631,3.7183098793029785,-0.0012166803935542,0.0040867109782993,-0.9025687575340272,0.4305245578289032,-0.0165782531799887,-0.0010763996503989,-5.869080470086566e-07,0.0026581594720482,-0.0119767840951681,1.691946029663086,-0.0033537140116095,0.0015769964084029,-0.4731568098068237,0.8809704184532166,0.0079479877359445,-0.0088758000164524,0.5968253895449022,0.9499140381813048,-0.0116240978240966,0.2756786346435547,34,665,-5192,20895
23.3,1788344917045,1.5211267471313477,-1.408450722694397,-0.0012166803935542,0.0040867109782993,-0.9025687575340272,0.4305245578289032,-0.0165782531799887,-0.0010763996503989,-5.869080470086566e-07,0.0026581594720482,-0.0119767840951681,1.691946029663086,-0.0033534467220306,0.0014764331281185,-0.4677507281303406,0.8838528990745544,-0.0017799883496777,-0.0147009789275349,-0.2364133526487018,1.378404140472412,-0.2659774422645569,-0.127105712890625,338,148,11192,-8912
23.4,1788344917145,1.5211267471313477,-1.408450722694397,-0.0019797363784164,0.0031277912203222,-0.8764763474464417,0.48143070936203,0.0262707600926638,-0.0022595978948554,-4.8212838848829856e-06,-0.0019315069075673,0.0037974996957927,-0.5518466234207153,-0.0033534467220306,0.0014764331281185,-0.4677507281303406,0.8838528990745544,-0.0017799883496777,-0.0147009789275349,-0.2364133526487018,1.378404140472412,-0.2659774422645569,-0.127105712890625,338,148,11192,-8912
23.5,1788344917245,3.577464818954468,-3.0422534942626958,-0.0016195077914744,0.0037400836590677,-0.8992620706558228,0.4373912811279297,0.0067818253333762,-0.0027291827345164,-8.016735930008674e-07,-0.0181644707918167,0.0157448630779981,-1.0541317462921145,-0.00333530921489,0.0022719139233231,-0.5483654737472534,0.8362290859222412,0.0021878631993964,0.0049680200585398,-1.013940223261283,0.0788652896881103,0.171502411365509,0.1351995468139648,84,425,11440,-16757
23.6,1788344917345,3.2676055431365967,-3.211267709732056,-0.0014335070736706,0.0038200828712433,-0.921824276447296,0.3875867426395416,-0.0004683488778444,0.0015924358195029,-1.2930076541018805e-06,-0.0014512473717331,0.0090997628867626,-0.9980606436729432,-0.0032623559236526,0.002450511790812,-0.5689334273338318,0.8223733901977539,-0.0017428802689439,0.0115351820881248,-0.9917600660070754,-0.1133745908737182,-0.1689038276672363,0.1282167434692382,119,354,10622,-16221
23.7,1788344917445,4.14084529876709,-2.3380281925201416,-0.0006896625855006,0.0042865020222961,-0.9383887052536012,0.3455542922019958,0.0057647134441391,-0.0027081733486685,-5.919325625356889e-06,-0.0054581244476139,0.0251432936638593,-0.9990938305854796,-0.0029564453288912,0.003168880008161,-0.620097279548645,0.7845129370689392,-0.0019998370170585,-0.0082677564827159,-0.964928209023452,0.796497642993927,0.078603982925415,1.2421751022338867,95,339,11178,-14095
23.8,1788344917545,4.985915660858154,-1.2394366264343262,-0.0007227712194435,0.0042444714345037,-0.9535240530967712,0.3012858629226684,0.0463214679457923,-0.0008604946042518,-7.352007941338605e-06,0.0035716737620532,0.0045789857394993,-0.8961096405982971,-0.0029406519606709,0.0032146843150258,-0.6347910761833191,0.772671639919281,-0.0003235782415264,0.0059810495632369,-0.8916421771819057,-0.4271217584609985,-0.2289836406707763,-0.3142576217651367,228,148,17971,-5450
23.9,1788344917645,7.774647712707519,0.0,-0.0007227712194435,0.0042444714345037,-0.9535240530967712,0.3012858629226684,0.0463214679457923,-0.0008604946042518,-7.352007941338605e-06,0.0035716737620532,0.0045789857394993,-0.8961096405982971,-0.00259521137923,0.0034664534032344,-0.684645414352417,0.7288634777069092,0.0036067722872639,0.0091934737501764,-1.085064634490989,0.4398949742317199,-0.2859894633293152,0.6888618469238281,211,69,24226,3665
24.0,1788344917745,8.760563850402832,0.5633803009986877,-0.0003784087020903,0.0043061221949756,-0.9664039611816406,0.2569913864135742,0.1083618807013198,-0.0107406512759983,-4.234572912535401e-05,0.0049135386943817,0.0156103707849979,-1.007259726524353,-0.0022488757967948,0.0033921832218766,-0.7273540496826172,0.6862502694129944,0.0113254276265498,0.0664358898180606,-1.176050481173288,-0.2498402595520019,-0.2840285897254944,-0.1562128067016601,97,429,22422,11405
24.1,1788344917845,8.591548919677734,1.5492957830429075,-0.0003032881359104,0.0040466524660587,-0.9844976663589478,0.1753507703542709,0.1708965101066375,-0.007400333925507,-5.411656262954792e-05,0.0028091317508369,0.0134438946843147,-1.168246150016785,-0.0021545253694057,0.0034335125237703,-0.7491704225540161,0.6623649001121521,0.0016651735258554,0.0080010574178282,-1.1315920172949276,0.0975475311279296,-0.1453419327735901,-1.2149171829223633,88,376,21970,11141
24.2,1788344917945,8.197182655334473,1.7183098793029783,0.0005300671327859,0.0040141670033335,-0.9929118752479552,0.1187842115759849,0.1718942363474802,-0.004684908742444,-0.0001385728549546,0.0064576463773846,0.0307179614901542,-1.039667725563049,-0.001390079036355,0.0035372748970985,-0.7973864674568176,0.6034570336341858,0.0041360567504574,0.0248295977376599,-0.925348194659652,0.2802138924598694,-0.1788792610168457,0.5794734954833984,111,409,23533,11312
24.3,1788344918045,8.28169059753418,1.6056338548660278,0.0005300671327859,0.0040141670033335,-0.9929118752479552,0.1187842115759849,0.1718942363474802,-0.004684908742444,-0.0001385728549546,0.0064576463773846,0.0307179614901542,-1.039667725563049,-0.0009368620812892,0.0032447958365082,-0.8267263174057007,0.5625941157341003,0.007949497040145,0.0088093813434599,-0.9999327295410518,-0.1387946605682373,-0.1762906312942505,-0.0317583084106445,79,379,22665,10502
24.4,1788344918145,8.28169059753418,1.6338027715682983,0.0005300671327859,0.0040141670033335,-0.9929118752479552,0.1187842115759849,0.1718942363474802,-0.004684908742444,-0.0001385728549546,0.0064576463773846,0.0307179614901542,-1.039667725563049,-0.0007861861959099,0.0032195961102843,-0.8564496636390686,0.5162198543548584,0.0092704274869594,0.0026341009783459,-0.974595019448439,-0.1340371370315551,-0.3298524618148803,-0.4885749816894531,101,396,23143,11877
24.5,1788344918245,7.746479034423828,2.253521203994751,-0.0014294686261564,-0.0033455481752753,0.9987708926200868,0.0494320020079612,0.1602526538059547,0.0029061671848987,-1.430195345167664e-05,-0.0067701707594096,0.0188813377171754,-1.0070221424102783,-0.0006480766460299,0.0035268766805529,-0.8802593946456909,0.4744793474674225,0.0004643916998569,0.0075940459813636,-0.9158786107324706,-0.3780831694602966,-0.0546883940696716,0.9688606262207032,77,496,20128,14903
24.6,1788344918345,7.521126747131348,2.816901445388794,-0.0010457369498908,-0.0032657769042998,0.9950713515281676,0.0991023480892181,0.1733409652534758,-0.0021777218871613,7.939749255814611e-05,0.0036511314101517,-0.0065265903249382,-0.780961275100708,-0.0010912548750638,0.0033148629590868,-0.8990489840507507,0.4378343522548675,-0.0041571846557993,-0.0081053390543264,-0.7223469611131356,0.2826436161994934,-0.1823149919509887,-0.0024909973144531,76,361,20213,14746
24.7,1788344918445,7.690140724182129,2.7042253017425537,-0.0008416078635491,-0.0033830157481133,0.9934946298599244,0.113825649023056,0.1620635009048004,0.000713376742833,1.1045491334403808e-05,-0.0041916584596037,-0.0080254534259438,-0.7201945781707764,-0.0012307818979024,0.0033852811902761,-0.9105072021484376,0.4134776294231415,-0.0060130733495219,0.0102394775286042,-0.7656922835130173,-0.1702246665954589,-0.2555618286132812,1.462265968322754,93,368,20460,14366
24.8,1788344918545,7.098591327667236,2.7887322902679443,-0.0007084941025823,-0.003670921549201,0.9885093569755554,0.1511130779981613,0.1800796881436614,-0.0017290429575385,-2.7632470295618944e-06,-0.0064026131294667,-0.0021648802794516,-0.7614343166351318,-0.00122482329607,0.0034109149128198,-0.9272579550743104,0.3744055926799774,0.0020840354904722,-0.0139563009395399,-0.6459297464031701,0.3578358888626098,-0.2161266207695007,-0.6329450607299805,75,389,19981,14138
24.9,1788344918645,6.957746505737305,3.380281686782837,-0.0016519915079697,-0.0036105152685195,0.9788299798965454,0.2046367973089218,0.1829290197855717,-0.0018284860366177,-9.079191136756322e-05,-0.0075128744356334,0.0257623009383678,-0.6617278456687927,-0.0010024616494774,0.0038515450432896,-0.9422396421432496,0.3349158465862274,-0.0044594805697944,-0.0126624005655435,-0.6208067770887843,-0.0081009268760681,0.0853411555290222,-0.6771039962768555,92,357,19011,15054
25.0,1788344918745,6.929577350616455,3.2957746982574463,-0.0016519915079697,-0.0036105152685195,0.9788299798965454,0.2046367973089218,0.1829290197855717,-0.0018284860366177,-9.079191136756322e-05,-0.0075128744356334,0.0257623009383678,-0.6617278456687927,-0.0003204690292477,0.0043538454920053,-0.9485266804695128,0.3166672587394714,-0.0146816149705077,0.0208507123694981,-0.5537656663742707,0.1622823476791381,-0.1668041348457336,-0.5449485778808594,87,304,19301,14931
25.1,1788344918845,6.901408672332764,2.929577350616455,-0.0030970429070293,-0.0047250823117792,0.9660752415657043,0.2581991255283355,0.1834561084807518,-0.0014856308756268,-7.542907353134907e-05,-0.0379405990242958,0.0281655266880989,-0.5532015562057495,0.0004356782883405,0.0062970835715532,-0.9561506509780884,0.2928073704242706,-0.0313648825430479,0.0344776951606042,-0.5745187301787362,0.0250613689422607,-0.2152370810508728,1.313899040222168,91,303,18943,16020
25.2,1788344918945,6.704225540161133,3.6056337356567374,-0.0041629476472735,-0.0053214970976114,0.9624476432800292,0.2713832259178161,0.1783084575813704,0.0029405691818409,-9.949188915034332e-05,-0.0329029373824596,0.0377357751131057,-0.5434201955795288,0.0014737183228135,0.0086136329919099,-0.963760495185852,0.2666257917881012,-0.0253869921748381,0.0116176000220174,-0.4598316866522074,-0.4374063014984131,-0.2405760288238525,0.4533891677856445,70,318,18035,14240
25.3,1788344919045,6.704225540161133,3.6056337356567374,-0.0054486896842718,-0.0059256851673126,0.9589316844940186,0.2835228741168976,0.1839478543174106,-0.0022748686477567,-0.0001691830677991,-0.0361371673643589,0.046356938779354,-0.5080607533454895,0.0015646088868379,0.0087489197030663,-0.9666945934295654,0.255778431892395,-0.0026955901608512,0.0084955947420043,-0.450199087785333,0.1307137608528137,0.1607669591903686,0.5311908721923828,84,363,19405,14967
25.4,1788344919145,6.309859275817871,3.4084506034851074,-0.0054486896842718,-0.0059256851673126,0.9589316844940186,0.2835228741168976,0.1839478543174106,-0.0022748686477567,-0.0001691830677991,-0.0361371673643589,0.046356938779354,-0.5080607533454895,0.0031934240832924,0.0110250916332006,-0.9756171703338624,0.2191788554191589,-0.0564323559538398,0.0638235848046281,-0.5018059144561423,0.3036675453186035,-0.1080015301704406,0.7377347946166992,120,489,19625,16819
25.5,1788344919245,6.619718074798584,3.6619718074798575,-0.0092243328690528,-0.0075664073228836,0.939052939414978,0.343565434217453,0.1688465008635022,0.0035620877089535,-0.0002166329013696,-0.0528959371149539,0.0892609879374504,-0.4936865568161011,0.0039448132738471,0.0114079099148511,-0.9794132709503174,0.201504036784172,0.0271558683787916,-0.0088754786452867,-0.4120054256887623,-0.0560078620910644,-0.2132948040962219,-0.1124515533447265,120,489,19625,16819
25.6,1788344919345,6.253520965576172,4.11267614364624,-0.0046509611420333,-0.005270124413073,0.9271060824394226,0.3747328817844391,0.1761183170427852,-0.0039608581615173,0.000340531483184,0.0927297621965408,-0.0802680850028991,-0.3555516898632049,0.0008909925818443,0.0065404325723648,-0.9835711121559144,0.180400475859642,0.0832005762904875,-0.0565310546831806,-0.3324881827077032,-0.0895221829414367,0.085651159286499,-0.6732950210571289,78,432,17257,16294
25.7,1788344919445,6.197183132171631,3.6619718074798575,-0.0025879191234707,-0.0041604284197092,0.9242855310440063,0.3816703855991363,0.177473230297604,-0.0010564341141593,0.0001423646847026,0.0733820721507072,-0.0583709515631198,-0.3022916913032532,-0.0006017088890075,0.0031531760469079,-0.987562894821167,0.1571921110153198,0.012511344160943,0.0154030138882358,-0.310547485076282,-0.0332018733024597,-0.0595186948776245,-0.4963445663452148,78,432,17257,16294
25.8,1788344919545,5.943662166595459,3.802816867828369,-0.0011849062284454,-0.0030064503662288,0.9153928756713868,0.4025486409664154,0.1760342291180473,-0.0049136895846488,-1.7181812649373623e-05,0.0011429651640355,0.0067108115181326,-0.2525478303432464,-0.0006017088890075,0.0031531760469079,-0.987562894821167,0.1571921110153198,0.012511344160943,0.0154030138882358,-0.310547485076282,-0.0332018733024597,-0.0595186948776245,-0.4963445663452148,80,407,16445,18886
25.9,1788344919645,6.0,5.014084339141846,-0.0014784605009481,-0.002977303462103,0.911267638206482,0.411801129579544,0.1845009148149768,-0.0047380332408442,-7.238124598535894e-05,0.0001358195440843,0.015134104527533,-0.222822293639183,-0.0004137586802244,0.0033080596476793,-0.990237295627594,0.1393519937992096,0.0006373229652882,-0.0043723527595147,-0.2172321112617647,-0.2029194831848144,0.1056674122810363,-0.3180904388427734,60,163,16337,12402
26.0,1788344919745,5.77464771270752,4.676056385040283,-0.0014784605009481,-0.002977303462103,0.911267638206482,0.411801129579544,0.1845009148149768,-0.0047380332408442,-7.238124598535894e-05,0.0001358195440843,0.015134104527533,-0.222822293639183,-0.0003944914788007,0.0033135553821921,-0.9918172359466552,0.1276222467422485,0.0001954976965765,-0.0020934919152858,-0.2735900409611163,0.4901438951492309,0.0863388180732727,0.948984146118164,124,291,17267,13734
26.1,1788344919845,5.915493011474609,3.6619718074798575,-0.00179103622213,-0.0030365185812115,0.903001308441162,0.429623395204544,0.1746993360293942,-0.0016389819608879,-3.816114808623353e-05,-0.0070852446369826,0.0157241895794868,-0.3058800995349884,-7.403921335935593e-05,0.003444586880505,-0.994192361831665,0.1075625270605087,-0.0001113984402218,0.0021747554911681,-0.3696899054690275,-0.0580752491950988,-0.1476326584815979,-0.26861572265625,77,377,16474,15383
26.2,1788344919945,5.605633735656738,4.309859275817871,-0.0020973742939531,-0.0025956144090741,0.8917880058288574,0.4524411559104919,0.1630396428910805,-0.0057752250018488,-0.0001199267008188,0.0063888244330883,0.0201827492564916,-0.2648013532161712,5.271937698125839e-05,0.0033629070967435,-0.9947035312652588,0.102730855345726,0.0063764530669019,0.0089641274618253,-0.324066719395795,0.0615261197090148,-0.1306030750274658,-0.9455318450927734,83,881,15990,27112
26.3,1788344920045,5.464788913726807,4.985915660858154,-0.0020973742939531,-0.0025956144090741,0.8917880058288574,0.4524411559104919,0.1630396428910805,-0.0057752250018488,-0.0001199267008188,0.0063888244330883,0.0201827492564916,-0.2648013532161712,-0.0001053661108016,0.0030914936214685,-0.9964130520820618,0.0845666453242302,-0.002059854304438,0.0187494072853788,-0.2055104937138139,0.2040731310844421,-0.0835433006286621,0.4432201385498047,84,877,16499,28975
26.4,1788344920145,4.084506988525391,4.0,-0.0015377749223262,-0.002421645913273,0.88435959815979,0.4667975008487701,0.1817046851667968,-0.0041556802482406,7.434140044599934e-06,0.0056829964742064,0.0066485693678259,-0.1582655608654022,-0.0006490927189588,0.0024581169709563,-0.9966878294944764,0.0812831968069076,0.0038057903117486,0.00749661681587,0.1589317387315704,-0.5337233543395996,-0.0133600234985351,-0.6782255172729492,84,877,16499,28975
26.5,1788344920245,0.9295774698257446,-2.7323944568634038,-0.0007792041869834,-0.0023086869623512,0.884358286857605,0.4668024778366089,0.0890563373046562,-0.0003432281058942,-3.7969500854108575e-06,0.0,0.0,0.0,-0.0006887437775731,0.0024102320894598,-0.99684077501297,0.0793872401118278,-0.0048438080724598,-0.0115344879361205,-0.1086009950155427,-0.5016366243362427,-0.6552200317382812,0.1670312881469726,84,877,16499,28975
26.6,1788344920345,6.3380279541015625,-6.2253522872924805,-0.0005954162916168,-0.0023210339713841,0.8814182281494141,0.4723305404186249,-0.0337969155569727,0.0004199103878964,-4.994627640956962e-06,0.0028873544652014,-0.0061120400205254,-0.249742329120636,-2.339575439691544e-05,-0.0028802845627069,0.9999958276748656,0.0002278294414281,-0.016948451842202,0.0498800702802847,-2.090844257640923,-0.4376441836357116,0.0158122777938842,-1.186288833618164,239,387,20936,-24524
26.7,1788344920445,6.2816901206970215,-5.6619720458984375,-0.0014706584624946,-0.0029810366686433,0.815575897693634,0.5786406397819519,0.0178549570738711,-7.812271921007811e-05,4.954452548149462e-06,-0.0166045241057872,-0.0037586675025522,-2.056955099105835,-0.0003413138911128,-0.0034044003114104,0.9967692494392396,0.0802450999617576,-0.0106984619306495,0.0488249169894185,-1.941522763022103,-0.125307023525238,0.082437515258789,0.849390983581543,239,387,20936,-24524
26.8,1788344920545,5.943662166595459,-6.056337833404541,-0.0024636841844767,-0.0024784281849861,0.7870455384254456,0.6168850660324097,0.0004471347565288,-0.0003483025476598,-2.7564411691339622e-06,-0.0077320765703916,0.0502171143889427,-1.905948519706726,-0.0012162094935774,-0.0033076833933591,0.9866117238998412,0.1630487293004989,-0.0016168020343507,0.0486289124528682,-1.8409752938215065,0.208670973777771,0.1000913977622985,0.3631439208984375,87,371,18154,-23839
