time_s,timestamp_ms,wheel_vels__velocity_left,wheel_vels__velocity_right,odom__orient_x,odom__orient_y,odom__orient_z,odom__orient_w,odom__lin_x,odom__lin_y,odom__lin_z,odom__ang_x,odom__ang_y,odom__ang_z,imu__orient_x,imu__orient_y,imu__orient_z,imu__orient_w,imu__angvel_x,imu__angvel_y,imu__angvel_z,imu__acc_x,imu__acc_y,imu__acc_z,wheel_status__current_ma_left,wheel_status__current_ma_right,wheel_status__pwm_left,wheel_status__pwm_right
0.0,1788524341023,0.0,0.0,0.0006190136773511,0.0048234374262392,-0.9185283184051514,0.3953252136707306,-3.1626122898791165e-05,3.714225142594916e-05,1.5213904759616846e-07,-0.001059042988345,-0.0002672470873221,-0.0003743407432921,0.0007467120885848,0.0048053245991468,-0.9286892414093018,0.3708271086215973,-2.761618422382714e-05,-0.0008110534012076,0.0015516120524261,-0.0205792784690856,-0.0207242965698242,-0.006805419921875,0,0,0,0
0.1,1788524341123,0.0,0.0,0.0006190136773511,0.0048234374262392,-0.9185283184051514,0.3953252136707306,-3.1626122898791165e-05,3.714225142594916e-05,1.5213904759616846e-07,-0.001059042988345,-0.0002672470873221,-0.0003743407432921,0.0007467120885848,0.0048053245991468,-0.9286892414093018,0.3708271086215973,-2.761618422382714e-05,-0.0008110534012076,0.0015516120524261,-0.0205792784690856,-0.0207242965698242,-0.006805419921875,0,0,0,0
0.2,1788524341223,0.0,0.0,0.0006190136773511,0.0048234374262392,-0.9185283184051514,0.3953252136707306,-3.1626122898791165e-05,3.714225142594916e-05,1.5213904759616846e-07,-0.001059042988345,-0.0002672470873221,-0.0003743407432921,0.0007467120885848,0.0048053245991468,-0.9286892414093018,0.3708271086215973,-2.761618422382714e-05,-0.0008110534012076,0.0015516120524261,-0.0205792784690856,-0.0207242965698242,-0.006805419921875,0,0,0,0
0.3,1788524341323,0.0,0.0,0.0006190136773511,0.0048234374262392,-0.9185283184051514,0.3953252136707306,-3.1626122898791165e-05,3.714225142594916e-05,1.5213904759616846e-07,-0.001059042988345,-0.0002672470873221,-0.0003743407432921,0.0007467120885848,0.0048053245991468,-0.9286892414093018,0.3708271086215973,-2.761618422382714e-05,-0.0008110534012076,0.0015516120524261,-0.0205792784690856,-0.0207242965698242,-0.006805419921875,0,0,0,0
0.4,1788524341423,0.0,0.0,0.0006190136773511,0.0048234374262392,-0.9185283184051514,0.3953252136707306,-3.1626122898791165e-05,3.714225142594916e-05,1.5213904759616846e-07,-0.001059042988345,-0.0002672470873221,-0.0003743407432921,0.0007467120885848,0.0048053245991468,-0.9286892414093018,0.3708271086215973,-2.761618422382714e-05,-0.0008110534012076,0.0015516120524261,-0.0205792784690856,-0.0207242965698242,-0.006805419921875,0,0,0,0
0.5,1788524341523,0.0,0.0,0.0006190136773511,0.0048234374262392,-0.9185283184051514,0.3953252136707306,-3.1626122898791165e-05,3.714225142594916e-05,1.5213904759616846e-07,-0.001059042988345,-0.0002672470873221,-0.0003743407432921,0.0007467120885848,0.0048053245991468,-0.9286892414093018,0.3708271086215973,-2.761618422382714e-05,-0.0008110534012076,0.0015516120524261,-0.0205792784690856,-0.0207242965698242,-0.006805419921875,0,0,0,0
0.6,1788524341623,0.0,0.0,0.0006190136773511,0.0048234374262392,-0.9185283184051514,0.3953252136707306,-3.1626122898791165e-05,3.714225142594916e-05,1.5213904759616846e-07,-0.001059042988345,-0.0002672470873221,-0.0003743407432921,0.0007467120885848,0.0048053245991468,-0.9286892414093018,0.3708271086215973,-2.761618422382714e-05,-0.0008110534012076,0.0015516120524261,-0.0205792784690856,-0.0207242965698242,-0.006805419921875,0,0,0,0
0.7,1788524341723,0.0,0.0,0.0006190136773511,0.0048234374262392,-0.9185283184051514,0.3953252136707306,-3.1626122898791165e-05,3.714225142594916e-05,1.5213904759616846e-07,-0.001059042988345,-0.0002672470873221,-0.0003743407432921,0.0007467120885848,0.0048053245991468,-0.9286892414093018,0.3708271086215973,-2.761618422382714e-05,-0.0008110534012076,0.0015516120524261,-0.0205792784690856,-0.0207242965698242,-0.006805419921875,0,0,0,0
0.8,1788524341823,0.0,0.0,0.0006190136773511,0.0048234374262392,-0.9185283184051514,0.3953252136707306,-3.1626122898791165e-05,3.714225142594916e-05,1.5213904759616846e-07,-0.001059042988345,-0.0002672470873221,-0.0003743407432921,0.0007467120885848,0.0048053245991468,-0.9286892414093018,0.3708271086215973,-2.761618422382714e-05,-0.0008110534012076,0.0015516120524261,-0.0205792784690856,-0.0207242965698242,-0.006805419921875,0,0,0,0
0.9,1788524341923,0.0,0.0,0.0006190136773511,0.0048234374262392,-0.9185283184051514,0.3953252136707306,-3.1626122898791165e-05,3.714225142594916e-05,1.5213904759616846e-07,-0.001059042988345,-0.0002672470873221,-0.0003743407432921,0.0007467120885848,0.0048053245991468,-0.9286892414093018,0.3708271086215973,-2.761618422382714e-05,-0.0008110534012076,0.0015516120524261,-0.0205792784690856,-0.0207242965698242,-0.006805419921875,0,0,0,0
1.0,1788524342023,0.0,0.0,0.0006190136773511,0.0048234374262392,-0.9185283184051514,0.3953252136707306,-3.1626122898791165e-05,3.714225142594916e-05,1.5213904759616846e-07,-0.001059042988345,-0.0002672470873221,-0.0003743407432921,0.0007467120885848,0.0048053245991468,-0.9286892414093018,0.3708271086215973,-2.761618422382714e-05,-0.0008110534012076,0.0015516120524261,-0.0205792784690856,-0.0207242965698242,-0.006805419921875,0,0,0,0
1.1,1788524342123,0.0,0.0,0.0006190136773511,0.0048234374262392,-0.9185283184051514,0.3953252136707306,-3.1626122898791165e-05,3.714225142594916e-05,1.5213904759616846e-07,-0.001059042988345,-0.0002672470873221,-0.0003743407432921,0.0007467120885848,0.0048053245991468,-0.9286892414093018,0.3708271086215973,-2.761618422382714e-05,-0.0008110534012076,0.0015516120524261,-0.0205792784690856,-0.0207242965698242,-0.006805419921875,0,0,0,0
1.2,1788524342223,0.0,0.0,0.0006190136773511,0.0048234374262392,-0.9185283184051514,0.3953252136707306,-3.1626122898791165e-05,3.714225142594916e-05,1.5213904759616846e-07,-0.001059042988345,-0.0002672470873221,-0.0003743407432921,0.0007467120885848,0.0048053245991468,-0.9286892414093018,0.3708271086215973,-2.761618422382714e-05,-0.0008110534012076,0.0015516120524261,-0.0205792784690856,-0.0207242965698242,-0.006805419921875,0,0,0,0
1.3,1788524342323,0.0,0.0,0.0006190136773511,0.0048234374262392,-0.9185283184051514,0.3953252136707306,-3.1626122898791165e-05,3.714225142594916e-05,1.5213904759616846e-07,-0.001059042988345,-0.0002672470873221,-0.0003743407432921,0.0007467120885848,0.0048053245991468,-0.9286892414093018,0.3708271086215973,-2.761618422382714e-05,-0.0008110534012076,0.0015516120524261,-0.0205792784690856,-0.0207242965698242,-0.006805419921875,0,0,0,0
1.4,1788524342423,0.0,0.0,0.0006190136773511,0.0048234374262392,-0.9185283184051514,0.3953252136707306,-3.1626122898791165e-05,3.714225142594916e-05,1.5213904759616846e-07,-0.001059042988345,-0.0002672470873221,-0.0003743407432921,0.0007467120885848,0.0048053245991468,-0.9286892414093018,0.3708271086215973,-2.761618422382714e-05,-0.0008110534012076,0.0015516120524261,-0.0205792784690856,-0.0207242965698242,-0.006805419921875,0,0,0,0
1.5,1788524342523,0.0,0.0,0.0006190136773511,0.0048234374262392,-0.9185283184051514,0.3953252136707306,-3.1626122898791165e-05,3.714225142594916e-05,1.5213904759616846e-07,-0.001059042988345,-0.0002672470873221,-0.0003743407432921,0.0007467120885848,0.0048053245991468,-0.9286892414093018,0.3708271086215973,-2.761618422382714e-05,-0.0008110534012076,0.0015516120524261,-0.0205792784690856,-0.0207242965698242,-0.006805419921875,0,0,0,0
1.6,1788524342623,0.0,0.0,0.0006190136773511,0.0048234374262392,-0.9185283184051514,0.3953252136707306,-3.1626122898791165e-05,3.714225142594916e-05,1.5213904759616846e-07,-0.001059042988345,-0.0002672470873221,-0.0003743407432921,0.0007467120885848,0.0048053245991468,-0.9286892414093018,0.3708271086215973,-2.761618422382714e-05,-0.0008110534012076,0.0015516120524261,-0.0205792784690856,-0.0207242965698242,-0.006805419921875,0,0,0,0
1.7,1788524342723,0.0,0.0,0.0006190136773511,0.0048234374262392,-0.9185283184051514,0.3953252136707306,-3.1626122898791165e-05,3.714225142594916e-05,1.5213904759616846e-07,-0.001059042988345,-0.0002672470873221,-0.0003743407432921,0.0007467120885848,0.0048053245991468,-0.9286892414093018,0.3708271086215973,-2.761618422382714e-05,-0.0008110534012076,0.0015516120524261,-0.0205792784690856,-0.0207242965698242,-0.006805419921875,0,0,0,0
1.8,1788524342823,0.0,0.0,0.0006190136773511,0.0048234374262392,-0.9185283184051514,0.3953252136707306,-3.1626122898791165e-05,3.714225142594916e-05,1.5213904759616846e-07,-0.001059042988345,-0.0002672470873221,-0.0003743407432921,0.0007467120885848,0.0048053245991468,-0.9286892414093018,0.3708271086215973,-2.761618422382714e-05,-0.0008110534012076,0.0015516120524261,-0.0205792784690856,-0.0207242965698242,-0.006805419921875,0,0,0,0
1.9,1788524342923,0.0,0.0,0.0006190136773511,0.0048234374262392,-0.9185283184051514,0.3953252136707306,-3.1626122898791165e-05,3.714225142594916e-05,1.5213904759616846e-07,-0.001059042988345,-0.0002672470873221,-0.0003743407432921,0.0007467120885848,0.0048053245991468,-0.9286892414093018,0.3708271086215973,-2.761618422382714e-05,-0.0008110534012076,0.0015516120524261,-0.0205792784690856,-0.0207242965698242,-0.006805419921875,0,0,0,0
2.0,1788524343023,0.0,0.0,0.0006190136773511,0.0048234374262392,-0.9185283184051514,0.3953252136707306,-3.1626122898791165e-05,3.714225142594916e-05,1.5213904759616846e-07,-0.001059042988345,-0.0002672470873221,-0.0003743407432921,0.0007467120885848,0.0048053245991468,-0.9286892414093018,0.3708271086215973,-2.761618422382714e-05,-0.0008110534012076,0.0015516120524261,-0.0205792784690856,-0.0207242965698242,-0.006805419921875,0,0,0,0
2.1,1788524343123,0.0,0.0,0.0006190136773511,0.0048234374262392,-0.9185283184051514,0.3953252136707306,-3.1626122898791165e-05,3.714225142594916e-05,1.5213904759616846e-07,-0.001059042988345,-0.0002672470873221,-0.0003743407432921,0.0007467120885848,0.0048053245991468,-0.9286892414093018,0.3708271086215973,-2.761618422382714e-05,-0.0008110534012076,0.0015516120524261,-0.0205792784690856,-0.0207242965698242,-0.006805419921875,0,0,0,0
2.2,1788524343223,0.0,0.0,0.0006190136773511,0.0048234374262392,-0.9185283184051514,0.3953252136707306,-3.1626122898791165e-05,3.714225142594916e-05,1.5213904759616846e-07,-0.001059042988345,-0.0002672470873221,-0.0003743407432921,0.0007467120885848,0.0048053245991468,-0.9286892414093018,0.3708271086215973,-2.761618422382714e-05,-0.0008110534012076,0.0015516120524261,-0.0205792784690856,-0.0207242965698242,-0.006805419921875,0,0,0,0
2.3,1788524343323,0.0,0.0,0.0006190136773511,0.0048234374262392,-0.9185283184051514,0.3953252136707306,-3.1626122898791165e-05,3.714225142594916e-05,1.5213904759616846e-07,-0.001059042988345,-0.0002672470873221,-0.0003743407432921,0.0007467120885848,0.0048053245991468,-0.9286892414093018,0.3708271086215973,-2.761618422382714e-05,-0.0008110534012076,0.0015516120524261,-0.0205792784690856,-0.0207242965698242,-0.006805419921875,0,0,0,0
2.4,1788524343423,0.0,0.0,0.0006190136773511,0.0048234374262392,-0.9185283184051514,0.3953252136707306,-3.1626122898791165e-05,3.714225142594916e-05,1.5213904759616846e-07,-0.001059042988345,-0.0002672470873221,-0.0003743407432921,0.0007467120885848,0.0048053245991468,-0.9286892414093018,0.3708271086215973,-2.761618422382714e-05,-0.0008110534012076,0.0015516120524261,-0.0205792784690856,-0.0207242965698242,-0.006805419921875,0,0,0,0
2.5,1788524343523,0.0,0.0,0.0006190136773511,0.0048234374262392,-0.9185283184051514,0.3953252136707306,-3.1626122898791165e-05,3.714225142594916e-05,1.5213904759616846e-07,-0.001059042988345,-0.0002672470873221,-0.0003743407432921,0.0007467120885848,0.0048053245991468,-0.9286892414093018,0.3708271086215973,-2.761618422382714e-05,-0.0008110534012076,0.0015516120524261,-0.0205792784690856,-0.0207242965698242,-0.006805419921875,0,0,0,0
2.6,1788524343623,0.0,0.0,0.0006190136773511,0.0048234374262392,-0.9185283184051514,0.3953252136707306,-3.1626122898791165e-05,3.714225142594916e-05,1.5213904759616846e-07,-0.001059042988345,-0.0002672470873221,-0.0003743407432921,0.0007467120885848,0.0048053245991468,-0.9286892414093018,0.3708271086215973,-2.761618422382714e-05,-0.0008110534012076,0.0015516120524261,-0.0205792784690856,-0.0207242965698242,-0.006805419921875,0,0,0,0
2.7,1788524343723,0.0,0.0,0.0006190136773511,0.0048234374262392,-0.9185283184051514,0.3953252136707306,-3.1626122898791165e-05,3.714225142594916e-05,1.5213904759616846e-07,-0.001059042988345,-0.0002672470873221,-0.0003743407432921,0.0007467120885848,0.0048053245991468,-0.9286892414093018,0.3708271086215973,-2.761618422382714e-05,-0.0008110534012076,0.0015516120524261,-0.0205792784690856,-0.0207242965698242,-0.006805419921875,0,0,0,0
2.8,1788524343823,0.0,0.0,0.0006190136773511,0.0048234374262392,-0.9185283184051514,0.3953252136707306,-3.1626122898791165e-05,3.714225142594916e-05,1.5213904759616846e-07,-0.001059042988345,-0.0002672470873221,-0.0003743407432921,0.0007467120885848,0.0048053245991468,-0.9286892414093018,0.3708271086215973,-2.761618422382714e-05,-0.0008110534012076,0.0015516120524261,-0.0205792784690856,-0.0207242965698242,-0.006805419921875,0,0,0,0
2.9,1788524343923,0.0,0.0,0.0006190136773511,0.0048234374262392,-0.9185283184051514,0.3953252136707306,-3.1626122898791165e-05,3.714225142594916e-05,1.5213904759616846e-07,-0.001059042988345,-0.0002672470873221,-0.0003743407432921,0.0007467120885848,0.0048053245991468,-0.9286892414093018,0.3708271086215973,-2.761618422382714e-05,-0.0008110534012076,0.0015516120524261,-0.0205792784690856,-0.0207242965698242,-0.006805419921875,0,0,0,0
3.0,1788524344023,0.0,0.0,0.0006190136773511,0.0048234374262392,-0.9185283184051514,0.3953252136707306,-3.1626122898791165e-05,3.714225142594916e-05,1.5213904759616846e-07,-0.001059042988345,-0.0002672470873221,-0.0003743407432921,0.0007467120885848,0.0048053245991468,-0.9286892414093018,0.3708271086215973,-2.761618422382714e-05,-0.0008110534012076,0.0015516120524261,-0.0205792784690856,-0.0207242965698242,-0.006805419921875,0,0,0,0
3.1,1788524344123,0.0,0.0,0.0006190136773511,0.0048234374262392,-0.9185283184051514,0.3953252136707306,-3.1626122898791165e-05,3.714225142594916e-05,1.5213904759616846e-07,-0.001059042988345,-0.0002672470873221,-0.0003743407432921,0.0007467120885848,0.0048053245991468,-0.9286892414093018,0.3708271086215973,-2.761618422382714e-05,-0.0008110534012076,0.0015516120524261,-0.0205792784690856,-0.0207242965698242,-0.006805419921875,0,0,0,0
3.2,1788524344223,0.0,0.0,0.0006190136773511,0.0048234374262392,-0.9185283184051514,0.3953252136707306,-3.1626122898791165e-05,3.714225142594916e-05,1.5213904759616846e-07,-0.001059042988345,-0.0002672470873221,-0.0003743407432921,0.0007467120885848,0.0048053245991468,-0.9286892414093018,0.3708271086215973,-2.761618422382714e-05,-0.0008110534012076,0.0015516120524261,-0.0205792784690856,-0.0207242965698242,-0.006805419921875,0,0,0,0
3.3,1788524344323,0.0,0.0,0.0006190136773511,0.0048234374262392,-0.9185283184051514,0.3953252136707306,-3.1626122898791165e-05,3.714225142594916e-05,1.5213904759616846e-07,-0.001059042988345,-0.0002672470873221,-0.0003743407432921,0.0007467120885848,0.0048053245991468,-0.9286892414093018,0.3708271086215973,-2.761618422382714e-05,-0.0008110534012076,0.0015516120524261,-0.0205792784690856,-0.0207242965698242,-0.006805419921875,0,0,0,0
3.4,1788524344423,0.0,0.0,0.0006190136773511,0.0048234374262392,-0.9185283184051514,0.3953252136707306,-3.1626122898791165e-05,3.714225142594916e-05,1.5213904759616846e-07,-0.001059042988345,-0.0002672470873221,-0.0003743407432921,0.0007467120885848,0.0048053245991468,-0.9286892414093018,0.3708271086215973,-2.761618422382714e-05,-0.0008110534012076,0.0015516120524261,-0.0205792784690856,-0.0207242965698242,-0.006805419921875,0,0,0,0
3.5,1788524344523,0.0,0.0,0.0006190136773511,0.0048234374262392,-0.9185283184051514,0.3953252136707306,-3.1626122898791165e-05,3.714225142594916e-05,1.5213904759616846e-07,-0.001059042988345,-0.0002672470873221,-0.0003743407432921,0.0007467120885848,0.0048053245991468,-0.9286892414093018,0.3708271086215973,-2.761618422382714e-05,-0.0008110534012076,0.0015516120524261,-0.0205792784690856,-0.0207242965698242,-0.006805419921875,0,0,0,0
3.6,1788524344623,0.0,0.0,0.0006421577418223,0.0048367911949753,-0.9185206294059752,0.3953428268432617,6.580854012718345e-05,-7.650566896965253e-05,-3.146764657650452e-07,-0.0001274081296287,0.0010653274366632,0.0007788114598952,0.000796384178102,0.0048461258411407,-0.9286924600601196,0.3708183467388153,-0.0007065366545445,0.0013672821413376,-0.001049004733136,-0.0049881935119628,-0.0149380564689636,-0.0102605819702148,3,0,0,0
3.7,1788524344723,0.0,0.0,0.0006385716842487,0.0048563368618488,-0.9185239672660828,0.3953348100185394,2.9539454784644286e-05,-3.469069137876872e-05,-1.4206536810726664e-07,-0.0003410677309148,-0.0008532025385648,0.0003364652802702,0.0007644323632121,0.0048313485458493,-0.9286781549453736,0.3708544671535492,-0.0003673427747263,-0.0009558247817838,-0.0002666584041558,-0.0075708627700805,0.0154342055320739,0.006108283996582,0,0,0,0
3.8,1788524344823,0.0,0.0,0.0006038680439814,0.0048711239360272,-0.91852468252182,0.3953330516815185,-8.848425472512869e-05,0.0001025190327169,4.154687565279095e-07,-0.0015676331240683,-0.0014740254264324,-0.0010350950760766,0.0007642339915037,0.0048662889748811,-0.9286774396896362,0.3708559274673462,-0.0004165281580024,0.0018688093914716,0.0020815168666259,-0.0179607272148132,-0.0125045776367187,-0.0174980163574218,2,0,0,0
3.9,1788524344923,0.0,0.0,0.0006384822772815,0.0048750648275017,-0.9185124635696412,0.3953615725040436,4.859865634904333e-06,-5.134994881301163e-06,-1.900523903600828e-08,0.0003085082862526,-0.0001481368235545,4.595587961375713e-05,0.0007537147030234,0.0048510357737541,-0.9286773800849916,0.3708561062812805,-0.0001867585918903,-0.0011264287510771,-0.0009764100462828,0.0123853087425231,0.0161648392677307,-0.0368680953979492,0,0,0,0
4.0,1788524345023,0.0,0.0,0.0006441740551963,0.0048727309331297,-0.9185113906860352,0.3953639268875122,0.0001126873921442,-0.0001312722243235,-5.495796309909325e-07,0.0006202576914802,0.0008477238588966,0.0013188164448365,0.0007751248776912,0.0048548625782132,-0.9286805987358092,0.370848000049591,2.4189291627213373e-07,0.0005901801825593,-0.00175639067869,0.0071760416030883,-0.0219320654869079,0.002354621887207,0,0,0,0
4.1,1788524345123,0.0,0.0,0.0006407189648598,0.0048713916912674,-0.9185150265693665,0.3953555822372436,-3.5760118128176555e-05,4.178032421499124e-05,1.726147365838452e-07,-5.213682470639469e-06,-0.0001688519696472,-0.0004188110178802,0.0007981015369296,0.0048357844352722,-0.92867773771286,0.3708554208278656,0.0006849098966022,-0.0006168824692995,0.0020465221196847,-0.006945252418518,-0.0260841250419616,0.0076351165771484,0,0,0,0
4.2,1788524345223,0.0,0.0,0.0006535592256113,0.0048255338333547,-0.91852468252182,0.3953337669372558,-6.808025214608884e-05,7.857349598723472e-05,3.1412549551879226e-07,0.0008048122981563,-0.0010102152591571,-0.0007943972595967,0.0008359812200069,0.0048317266628146,-0.9286894798278807,0.3708258867263794,0.0001584636491113,0.002399862421378,0.0013512838970439,0.0097849369049072,-0.0103883147239685,0.0222253799438476,0,0,0,0
4.3,1788524345323,0.0,0.0,0.0007075541652739,0.0048521975986659,-0.9185289144515992,0.3953234255313873,0.0,0.0,0.0,0.0,-2.3321389264197023e-09,0.0,0.0008880849927663,0.004852863959968,-0.9286968111991882,0.370807021856308,-5.872195399093867e-06,0.0020639232873954,-0.0011267270001817,-0.0015094280242919,-0.0263380408287048,-0.0084857940673828,5,0,0,0
4.4,1788524345423,0.0,0.0,0.0007686387980356,0.0048589538782835,-0.9185261130332948,0.3953298926353454,3.819460623259181e-05,-4.411877705647689e-05,-1.704979425701477e-07,0.0007864508079364,0.0014514634385704,0.0004560167726594,0.0008916966617107,0.0048347068950533,-0.9286893010139464,0.3708259761333465,-0.0001918613735078,0.00030960741544,-0.0008621727574114,0.037888765335083,0.0163497328758239,-0.0007600784301757,0,0,0,0
4.5,1788524345523,0.0,0.0,0.0007584808627143,0.0048662149347364,-0.9185410141944884,0.3952950835227966,-0.0001277180539027,0.0001484818811216,5.641557501244343e-07,-0.0004136278585065,-0.0002462425618432,-0.0014823862584307,0.0008849129080772,0.0048294849693775,-0.928684949874878,0.3708370923995971,0.0011996913519927,-0.0016480667611264,0.0016584154377536,0.0251152515411376,0.0144652128219604,0.0045461654663085,5,0,0,0
4.6,1788524345623,0.0,0.0,0.000741399009712,0.0048418715596199,-0.918524444103241,0.3953337371349334,0.0,0.0,0.0,0.0,3.453394681329769e-09,0.0,0.0008694203570485,0.004851927049458,-0.9286990761756896,0.3708015084266662,-0.0003521702269136,0.0013513018744422,-0.0011377375975799,-0.0054288506507873,0.0097419619560241,-0.015420913696289,0,0,0,0
4.7,1788524345723,0.0,0.0,0.0007398518500849,0.0048759547062218,-0.9185394048690796,0.3952987492084503,0.0,0.0,0.0,0.0,0.0,0.0,0.00084775313735,0.0048465803265571,-0.9286876320838928,0.3708302080631256,-0.0003518494601971,-0.0020220206803119,-0.000980601548189,-0.0006406903266906,-0.0083552598953247,0.0114221572875976,0,0,0,0
4.8,1788524345823,0.0,0.0,0.000733359134756,0.0048708859831094,-0.9185314178466796,0.3953173458576202,-4.343341623571847e-05,4.9724227368591714e-05,1.9184664057566254e-07,0.0001103553659049,0.0006506312638521,-0.000492135877721,0.0008610449731349,0.0048235906288027,-0.9286925792694092,0.3708180487155914,0.0007176734383125,-0.0002562150107017,-0.0006174404708067,0.0209320783615112,5.424022674560547e-05,0.0187940597534179,3,0,0,0
4.9,1788524345923,0.0,0.0,0.0007523552048951,0.0048704799264669,-0.918542206287384,0.3952924609184265,-9.315828589077175e-05,0.0001088192491467,4.263868159922903e-07,0.0003181636857334,0.0006961426115594,-0.0010813728440552,0.0009248303249478,0.0048549268394708,-0.9286975860595704,0.3708048462867737,0.0008404305851155,0.0007638463735449,0.0019862578033299,0.002604067325592,-0.0231355428695678,0.0113353729248046,0,0,0,0
5.0,1788524346023,0.0,0.0,0.0007958591450005,0.0048663388006389,-0.9185286164283752,0.3953238427639007,0.0,0.0,0.0,0.0,0.0,0.0,0.0009027272462844,0.0048463009297847,-0.9286907315254213,0.3708223402500152,-0.0005896882695289,-0.0010674261909018,-0.0008873367624851,0.0236449241638183,0.0127366781234741,0.0188980102539062,0,0,0,0
5.1,1788524346123,0.0,0.0,0.0007373623084276,0.00488459225744,-0.918543577194214,0.3952887952327728,0.0,0.0,0.0,0.0,2.3287169970132027e-09,0.0,0.0008537601679563,0.0048269880935549,-0.9286946654319764,0.3708128333091736,0.00088715430097,-0.0011412768106976,-0.0004347792009448,0.0101551413536071,0.0182811021804809,-0.0026969909667968,0,0,0,0
5.2,1788524346223,0.0,0.0,0.0007045569363981,0.0048592151142656,-0.9185463190078736,0.3952828645706177,-0.0001118068372318,0.000129406313224,5.007449653002215e-07,-0.0008055096841417,-0.0006344157154671,-0.0013046052772551,0.0008150665089488,0.0048232432454824,-0.9286914467811584,0.370820939540863,0.0005102873454125,-0.001516723131255,0.0025708400773074,0.0004988312721252,0.0383270382881164,-0.0133886337280273,0,0,0,0
5.3,1788524346323,0.0,0.0,0.0006533786654472,0.0048462483100593,-0.9185277819633484,0.3953262269496918,0.0001627410063542,-0.0001892634850542,4.446653142012377e-07,-0.0003378418623469,-0.0020947826560586,0.0018776737852022,0.0008163126185536,0.004835651256144,-0.9286903142929076,0.370823860168457,0.0013141715212236,0.0010188448389265,0.0008678031928439,-0.0174300670623779,-0.0208179950714111,-0.0013399124145507,0,0,0,0
5.4,1788524346423,0.0,0.0,0.0006815665401518,0.0048443414270877,-0.9185258746147156,0.3953305184841156,1.628251797614826e-05,-1.8929319872335635e-05,-7.681585572501656e-08,0.0005133798113092,0.0010009746765717,0.0001935867912834,0.0007527004927396,0.0047874962911009,-0.9286875128746032,0.3708314597606659,0.0003599836085273,-0.0030985148975142,-0.0009903202057924,-0.0064358115196228,-0.0231062173843383,0.0094881057739257,0,0,0,0
5.5,1788524346523,0.0,0.0,0.0006166468374431,0.0048164194449782,-0.918533742427826,0.3953127861022949,0.0,0.0,0.0,0.0,0.0,0.0,0.0007246937602758,0.0047937147319316,-0.9286854863166808,0.3708367049694061,0.0003345965228015,-0.0009557627589493,0.0011304866871172,0.0109690427780151,0.029196560382843,0.0243310928344726,0,0,0,0
5.6,1788524346623,0.0,0.0,0.0006175379967316,0.0048199561424553,-0.918544590473175,0.395287424325943,-0.0001906538631856,0.0002221432945285,-3.694213157784276e-07,0.000118925323477,0.0008704689680598,-0.0022058696486055,0.0007675969973206,0.0047994190827012,-0.9287026524543762,0.3707936108112335,0.000715796788138,0.0013446116653159,0.0002936721193797,-0.0166206359863281,0.0024435520172119,-0.0317049026489257,0,0,0,0
5.7,1788524346723,0.0,0.0,0.0006175379967316,0.0048199561424553,-0.918544590473175,0.395287424325943,0.0,0.0,0.0,0.0,-2.312174673946288e-09,0.0,0.0007578851655125,0.0048157218843698,-0.9287002086639404,0.3707993030548095,-0.0004960766807194,0.0009401954538607,-0.0017563984226714,0.0027235746383666,-0.0407149195671081,0.0273780822753906,0,0,0,0
5.8,1788524346823,0.0,0.0,0.0006175379967316,0.0048199561424553,-0.918544590473175,0.395287424325943,0.0,0.0,0.0,0.0,-2.312174673946288e-09,0.0,0.0007578851655125,0.0048157218843698,-0.9287002086639404,0.3707993030548095,-0.0004960766807194,0.0009401954538607,-0.0017563984226714,0.0027235746383666,-0.0407149195671081,0.0273780822753906,0,0,0,0
5.9,1788524346923,0.0,0.0,0.0006175379967316,0.0048199561424553,-0.918544590473175,0.395287424325943,0.0,0.0,0.0,0.0,-2.312174673946288e-09,0.0,0.0007578851655125,0.0048157218843698,-0.9287002086639404,0.3707993030548095,-0.0004960766807194,0.0009401954538607,-0.0017563984226714,0.0027235746383666,-0.0407149195671081,0.0273780822753906,0,0,0,0
6.0,1788524347023,0.0,0.0,0.0006175379967316,0.0048199561424553,-0.918544590473175,0.395287424325943,0.0,0.0,0.0,0.0,-2.2870407789810088e-09,0.0,0.0006975959986448,0.0048179468140006,-0.928682506084442,0.3708439469337463,-0.0007452040701144,-0.0008610960396155,-0.000622950266054,0.0034888982772827,0.0047247409820556,0.0187234878540039,0,0,0,0
6.1,1788524347123,0.0,0.0,0.0006175379967316,0.0048199561424553,-0.918544590473175,0.395287424325943,0.0,0.0,0.0,0.0,-2.3135264815010714e-09,0.0,0.0006865290924906,0.0048165991902351,-0.9286742806434632,0.3708644509315491,-0.0001535097670219,-4.602632832929576e-05,0.0014889570902347,0.019517958164215,0.038776159286499,0.0266885757446289,303,236,11054,9028
6.2,1788524347223,3.8309860229492183,3.183098554611206,0.0001253538066521,0.0047755567356944,-0.9196917414665222,0.3926121592521667,0.0771821348471647,-0.0021125659561439,3.183330643325764e-05,-0.0040894849225878,-0.0031440125312656,-0.089096114039421,0.0002931030467152,0.0048024961724877,-0.9298848509788512,0.367819219827652,-0.0030936554237358,0.014799986521978,-0.0858901138393236,1.1143581867218018,0.2536176443099975,-0.5041313171386719,180,185,13321,10377
6.3,1788524347323,5.943662166595459,4.788732528686523,0.0002017586957663,0.0051081227138638,-0.9210411906242372,0.3894314467906952,0.1174577083210183,-0.0031677581282934,-4.398878433478094e-05,-0.0089712925255298,0.007198526058346,-0.1152098178863525,0.0002212701365351,0.0055275298655033,-0.9327630996704102,0.360447496175766,-0.0151986452806721,0.0057673357341057,-0.1534109029507175,0.6460400819778442,-0.341094434261322,0.2433013916015625,99,152,16832,14048
6.4,1788524347423,5.492957592010498,4.647887229919434,-0.0001370590180158,0.0057873073965311,-0.9252640008926392,0.3792796730995178,0.1656887109630078,-0.0012358734112169,5.6884921638511934e-05,-0.0071359281428158,0.0002923111314885,-0.1488744467496872,-0.0001549050211906,0.0057632289826869,-0.9356327056884766,0.3529279828071594,-0.0026110221907458,0.0010749750815683,-0.13922104711825,-0.4468919634819031,-0.2830938100814819,-0.326730728149414,104,91,16285,12593
6.5,1788524347523,5.633802890777588,4.591549396514893,0.0003922185860574,0.0053983526304364,-0.9277631640434264,0.3731305599212646,0.1624386302505026,-0.0067220404887997,-0.0001485490529351,0.024909509345889,0.0416682697832584,-0.1555909961462021,0.0004984606057405,0.0053893066942691,-0.937449872493744,0.3480781316757202,0.0175683868290098,0.0206317493404545,-0.1647687282323666,-0.0416049361228942,0.290550172328949,-1.7428836822509766,92,86,15994,12787
6.6,1788524347623,5.802816867828369,4.2253522872924805,0.0005134297534823,0.0057883285917341,-0.9310280680656432,0.3649015426635742,0.1649655802783706,-0.0058454865268933,3.440083334204792e-05,-0.0040557873435318,0.0015760165406391,-0.150113433599472,0.0004055872559547,0.0056496364995837,-0.9406811594963074,0.3392446041107178,0.0103472982675183,-0.0076503829333366,-0.1496562972352996,0.4855326414108276,-0.2359071969985962,0.3796043395996094,107,66,17753,11448
6.7,1788524347723,5.6619720458984375,4.056337833404541,0.0007818203885108,0.0052891573868691,-0.9355691075325012,0.3531031012535095,0.1539307697583113,-0.0059261862174226,-0.0001574951664395,0.0343899987637996,0.037148542702198,-0.3051871061325073,0.0010071489959955,0.0053509855642914,-0.944532036781311,0.3283741176128387,0.0237599006688352,0.0111594705935671,-0.2430514332457708,0.0462321639060974,-0.0182756781578063,0.0965080261230468,110,125,18104,12309
6.8,1788524347823,5.126760482788086,4.563380241394043,0.0011279804166406,0.0050330515950918,-0.9397677183151244,0.3417749106884002,0.1583113111477803,-0.0032715314213418,2.6000701644974308e-05,0.0123130688443779,0.0024960141163319,-0.2228835821151733,0.0012529864907264,0.0050776926800608,-0.9496257305145264,0.3133428692817688,-0.0057898412880083,-0.0015613357398193,-0.1437743831906006,-0.0190714597702026,0.0794630646705627,0.4452552795410156,102,97,17387,13007
6.9,1788524347923,5.605633735656738,4.507042407989502,0.0016930630663409,0.0050432598218321,-0.9421795010566713,0.3350663185119629,0.163317921251934,-0.0034990820580688,-3.3732963668834694e-05,0.0106920395046472,0.0214526839554309,-0.1426493525505066,0.0013518668711185,0.0046139508485794,-0.9515473246574402,0.3074646890163421,0.0107904388632958,-0.0351140495585548,-0.1296583633931135,-0.0419952869415283,0.1461284160614013,0.4258222579956054,93,85,15949,12880
7.0,1788524348023,5.464788913726807,4.422535419464111,0.0015954832779243,0.0045926165767014,-0.9447252750396729,0.3278270065784454,0.1573437139830215,-0.003565808647291,7.355653263531186e-06,0.0054247602820396,0.0087339412420988,-0.1443492323160171,0.0015746243298053,0.0044176364317536,-0.9533138871192932,0.3019447922706604,0.0136315373196648,-0.0003522001941883,-0.127195403167531,-0.2376120090484619,-0.0238013267517089,-0.0812664031982421,109,117,16622,12599
7.1,1788524348123,5.070422649383545,5.014084339141846,0.0011009309673681,0.0043047913350164,-0.9456390142440796,0.3251877725124359,0.1675780732159757,-0.0044694237354434,6.963829578492651e-05,0.0064396611414849,-0.0300153978168964,-0.1522636264562606,0.0008638389408588,0.0045244554057717,-0.9562450647354126,0.2925306260585785,-0.0077483674208649,-0.0080249293660587,-0.193735916323854,0.009243905544281,0.1353081464767456,-0.0553092956542968,21,220,11933,17169
7.2,1788524348223,4.591549396514893,5.633802890777588,0.000591569696553,0.0044148433953523,-0.9484776854515076,0.3168127536773681,0.1637298574674764,-0.0025860618822754,1.8136552654891103e-05,-0.0018682586960494,-0.0139354849234223,-0.1617553681135177,0.0007364703342318,0.0043156659230589,-0.9566722512245178,0.2911342680454254,0.0111089113795053,-0.0118386106221959,-0.0978704739803717,0.1309369206428527,-0.0589498281478881,0.3032751083374023,68,110,12518,15899
7.3,1788524348323,4.816901206970215,5.605633735656738,0.0050273034721612,0.0062408056110143,-0.9450990557670592,0.3266858756542206,0.1740774621823569,0.002055485723603,-0.0003085753784988,-0.0028040939942002,0.14102104306221,0.2085486650466919,0.005492728203535,0.0062652258202433,-0.9528711438179016,0.3032607734203338,-0.004290928432943,0.0881928179568826,0.1727315200389146,-0.1546776890754699,0.269055962562561,-2.5804100036621094,77,89,13260,14463
7.4,1788524348423,4.816901206970215,5.126760482788086,0.0050273034721612,0.0062408056110143,-0.9450990557670592,0.3266858756542206,0.1740774621823569,0.002055485723603,-0.0003085753784988,-0.0028040939942002,0.14102104306221,0.2085486650466919,0.004780264571309,0.0063023790717124,-0.9518650770187378,0.3064152002334595,0.004778376484203,-0.0139225414542629,0.031803308995895,0.366051971912384,-0.0122011303901672,-0.7778472900390625,97,131,14836,14838
7.5,1788524348523,4.676056385040283,5.295774459838867,0.0043653803877532,0.0064568519592285,-0.9435616135597228,0.3311053514480591,0.16361684851974,0.0002563825616321,-0.0001516817710366,-0.0070506227202713,0.012162871658802,0.0457846745848655,0.0035706553608179,0.0065561039373278,-0.950705587863922,0.3100053071975708,-0.0172238953035108,0.0339522254733141,0.0345375661808031,0.096771240234375,0.0023713707923889,-2.4678330421447754,82,100,15327,14419
7.6,1788524348623,5.070422649383545,4.985915660858154,0.0027122520841658,0.0065545924007892,-0.94205504655838,0.3353830873966217,0.1610225897395307,0.0025910964206449,6.85245555462673e-05,-0.013339496217668,-0.0217838622629642,0.0210206247866153,0.0035706553608179,0.0065561039373278,-0.950705587863922,0.3100053071975708,-0.0172238953035108,0.0339522254733141,0.0345375661808031,0.096771240234375,0.0023713707923889,-2.4678330421447754,96,108,14973,14358
7.7,1788524348723,5.239436626434326,4.929577350616455,0.0022081593051552,0.0065111154690384,-0.9419905543327332,0.3355690240859985,0.1735286620742004,8.763907927957746e-05,-3.05159501919741e-07,0.0,0.0,0.0,0.0013625314459204,0.0062381634488701,-0.9504416584968568,0.3108373582363128,-0.0062693511787422,-0.0528414939501268,0.0068714513822474,-0.0687488913536071,-0.1241368055343627,1.2320985794067385,119,70,15374,13290
7.8,1788524348823,5.183098793029785,4.929577350616455,0.000447433674708,0.0057519702240824,-0.9426966309547424,0.3336012661457062,0.1678450234122959,-0.0024932107453761,0.0001224493006254,0.0005456049111671,-0.0301649272441864,-0.0618673376739025,0.0003028828650712,0.0048867147415876,-0.9516999125480652,0.3069906532764435,0.0265064790642279,0.014975728099503,-0.0345701401319484,-0.3041509389877319,-0.188292920589447,-0.1959371566772461,98,79,15533,13452
7.9,1788524348923,5.211267471313477,4.704225540161133,-0.0005984985036775,0.0032160291448235,-0.9434067010879515,0.3316217958927154,0.1664123651022658,-0.0023609798234442,0.000186952097095,0.0628216117620468,-0.058317631483078,-0.0309883803129196,-0.0010215565562248,0.0030101304873824,-0.9524927139282228,0.3045448064804077,-0.0121313518747834,0.0015085693324636,-0.080764182694535,-0.2591184377670288,-0.2145504355430603,-0.5603427886962891,88,96,15432,13840
8.0,1788524349023,5.183098793029785,4.8450703620910645,-0.0011049496242776,0.0031063226051628,-0.944570243358612,0.3282927274703979,0.1613383922915775,-0.0008480945221094,0.0001102666624133,-0.007509590126574,-0.0073141655884683,-0.0881628915667533,-0.0012925742194056,0.0030744243413209,-0.9531389474868774,0.3025147020816803,-0.0026698190798089,-0.0056572351872575,-0.054309896901797,-0.0130724906921386,0.098951518535614,-1.0631580352783203,81,143,15425,13906
8.1,1788524349123,5.239436626434326,4.957746505737305,-0.0020974276121705,0.0029270476661622,-0.9452677965164183,0.3262756168842315,0.1680377739522313,0.0004438377760897,8.25225008952942e-05,-0.0050011938437819,-0.0277405958622694,-0.0533022172749042,-0.0018737027421593,0.0030494034290313,-0.9536354541778564,0.3009428977966308,-0.0047998861687379,-0.0134037328603187,-0.0290567599615076,0.1686190962791443,-0.208762526512146,-0.5648431777954102,101,113,15275,13579
8.2,1788524349223,5.323943614959717,4.816901206970215,-0.0016711752396076,0.0032844692468643,-0.9458659887313844,0.3245364427566528,0.1642579804931869,-0.0008729864378655,2.2272690082410587e-05,-0.0051896097138524,-0.0036335051991045,-0.0467294491827487,-0.0017076451331377,0.0035503255203366,-0.9547386765480042,0.2974199652671814,-0.0114617536214195,0.0053910534252807,-0.0718226935443619,0.0757173299789428,0.2353836297988891,-0.0540523529052734,91,95,14508,13913
8.3,1788524349323,5.211267471313477,4.957746505737305,-0.001887668389827,0.0034617786295711,-0.9467138051986694,0.3220517933368683,0.1673951291490282,-0.0023346179551631,-1.5431083021004748e-06,-0.0029620483983308,0.0003242359380237,-0.0437415800988674,-0.0023094965144991,0.0038730772212147,-0.9554343223571776,0.2951695322990417,-0.0093437876121543,-0.0175815514945747,-0.0444527391406157,-0.0532870888710022,-0.184166133403778,0.1524858474731445,61,111,15200,13680
8.4,1788524349423,5.154929637908936,4.816901206970215,-0.0035937209613621,0.0043702684342861,-0.9476950764656068,0.3191269636154175,0.1611983502918242,-0.0015741289965564,0.0001383237661991,-0.0419113300740718,-0.0472088865935802,-0.0809822529554367,-0.0026876330375671,0.0044731330126523,-0.9562195539474488,0.2926037609577179,0.0224037083610207,0.0641422553784704,-0.0612548157310622,-0.341008722782135,0.0450561046600341,0.4510936737060547,133,141,15168,13975
8.5,1788524349523,5.77464771270752,4.507042407989502,-0.0025231465697288,0.0044473884627223,-0.9485011696815492,0.316732257604599,0.1616805802625172,-0.0023615125481871,-4.668490742223384e-05,0.0032989976461976,0.0185263510793447,-0.0505811721086502,-0.0019351439550518,0.0045405197888612,-0.9575289487838744,0.2882951200008392,0.0079232144613831,0.0128458531921473,-0.1888693469751978,0.0870941281318664,-0.3374776840209961,0.021097183227539,100,96,15929,12836
8.6,1788524349623,5.577464580535889,4.563380241394043,-0.0022814346011728,0.0046904766932129,-0.9514505863189696,0.3077572882175445,0.1657731277894758,-0.00885179448442,-4.126622678356646e-05,-0.0040272958576679,0.0054722968488931,-0.1744230240583419,-0.0019266959279775,0.0047931689769029,-0.9590854644775392,0.2830698192119598,-0.0036214148861086,0.0223427699370024,-0.1784461473838837,-0.0993687510490417,0.2611637711524963,-0.158975601196289,79,101,16219,12870
8.7,1788524349723,5.577464580535889,4.591549396514893,-0.0015870812349021,0.0050520254299044,-0.95268052816391,0.3039272129535675,0.1611155920025815,-0.0031679925608784,-2.4324302966466408e-05,-0.0054268650710582,0.0322780460119247,-0.1636363565921783,-0.0015403674915432,0.0054491441696882,-0.961978554725647,0.2730665206909179,-0.0153223271758597,0.0501204853130183,-0.1570157070967435,-0.2364290356636047,0.1868194937705993,0.3659381866455078,97,112,16172,12893
8.8,1788524349823,5.183098793029785,4.929577350616455,-0.0013256534002721,0.0052373283542692,-0.95593523979187,0.2935279309749603,0.1587551631269683,-0.0048633368511867,-1.070571453393945e-05,0.0035833809524774,0.0116037968546152,-0.1247226595878601,-0.0006888015195727,0.0053333733230829,-0.963537335395813,0.2675200700759887,0.0039542116462019,0.0587100211688804,-0.0722871073417776,-0.6321448683738708,0.0643308758735656,0.2368898391723632,70,162,14801,13991
8.9,1788524349923,5.183098793029785,4.901408672332764,-0.0013083476806059,0.005195090547204,-0.9563214778900146,0.2922679185867309,0.1555155966657097,-0.0028444906313075,-1.0048838087735115e-05,-0.0030743286479264,-0.0047336854040622,-0.0297623835504055,-0.0012487992644309,0.0052455514669418,-0.963729977607727,0.266824722290039,-0.016028413505541,-0.0182840830868696,-0.0262276832003363,0.118405282497406,-0.0369812846183776,0.5208883285522461,116,127,15984,13290
9.0,1788524350023,5.267605781555176,4.8450703620910645,-0.0016125694382935,0.0049571036361157,-0.9574466347694396,0.2885632812976837,0.155818696303198,-0.0023624040870531,6.039818254250524e-05,0.0041186157613992,-0.0142982602119445,-0.1150939986109733,-0.0013099517673254,0.0052169123664498,-0.9640032649040222,0.2658361196517944,-0.0001665421947888,-0.0175746277004208,-0.0267883886722925,0.2496235966682434,-0.1488906145095825,0.5675811767578125,84,134,15000,13960
9.1,1788524350123,5.267605781555176,4.704225540161133,-0.0016125694382935,0.0049571036361157,-0.9574466347694396,0.2885632812976837,0.155818696303198,-0.0023624040870531,6.039818254250524e-05,0.0041186157613992,-0.0142982602119445,-0.1150939986109733,0.000289105810225,0.0051662120968103,-0.9654532670974731,0.2605251371860504,0.0052026212208814,0.1022779684687021,-0.0463449880972248,-2.1896872520446777,0.2797492742538452,4.954801559448242,105,137,15265,14489
9.2,1788524350223,5.239436626434326,4.8450703620910645,-0.0016107747796922,0.0046930667012929,-0.9586623907089232,0.2845028936862945,0.156852988737577,-0.0022817624787756,0.000129324163807,-0.0022637685760855,0.009557138197124,-0.0452002435922622,-0.0024973908439278,0.0041388608515262,-0.9660723209381104,0.258226603269577,0.0130770953555391,-0.0530830438887626,-0.0557079609045351,0.2753409147262573,-0.2074565291404724,0.4651021957397461,95,95,15468,14056
9.3,1788524350323,5.183098793029785,4.8450703620910645,-0.002439069095999,0.0041059269569814,-0.9589808583259584,0.2834303975105285,0.1702862044327416,-0.0031537242081547,0.0001635582953065,0.0163958203047513,-0.0479138493537902,-0.0563406199216842,-0.0016883593052625,0.0040476098656654,-0.966699719429016,0.2558756470680237,0.0154332389846365,0.0211808014546864,-0.0684440247992347,-0.1992249488830566,0.1167110800743103,0.277653694152832,88,105,15493,13903
9.4,1788524350423,5.070422649383545,5.154929637908936,-0.0013770228251814,0.0041805924847722,-0.9602052569389344,0.279260516166687,0.1631256885325888,0.0016573298941009,-7.24847081189407e-05,-0.0005297003663145,0.0163049641996622,-0.0632484480738639,-0.0006618909537792,0.0044364370405673,-0.9672992825508118,0.2535980939865112,-0.0020496298746589,0.0284987851718952,0.0019837338950534,0.0653504133224487,0.2213041186332702,-0.4799413681030273,91,114,14645,14128
9.5,1788524350523,4.957746505737305,5.098591327667236,-0.0002962994622066,0.0043929195962846,-0.9601686596870422,0.2793864905834198,0.1747006910791463,0.0021656087354243,-3.1940214424694217e-05,0.0060614184476435,0.0097068808972835,0.0080854715779423,0.0001272242516279,0.004285879433155,-0.9671811461448668,0.2540515065193176,0.0133617930160768,0.0091745600684479,0.0215439085550326,0.0579263567924499,0.2625192999839782,-0.1564521789550781,84,103,15153,14100
9.6,1788524350623,5.154929637908936,4.901408672332764,0.0006254970212467,0.003658547764644,-0.9599233269691468,0.2802383601665497,0.1698460386539695,2.7723637955670216e-05,-4.507277457680104e-07,0.0266055297106504,-0.0101311048492789,0.0181395784020423,0.0016497774049639,0.0034437570720911,-0.9673556089401244,0.2533939778804779,0.0048446748465775,0.0589465917600504,-0.0690545350612522,-0.0934067964553833,-0.2085530757904052,-1.3803348541259766,70,147,14665,14617
9.7,1788524350723,4.957746505737305,4.704225540161133,0.0014176422264426,0.0035340418107807,-0.9603874683380128,0.2786422967910766,0.1668666254332278,0.000501808290638,-8.411359795797797e-05,0.0048110140487551,0.0100017264485359,-0.03250203281641,0.0017213132232427,0.0034283781424164,-0.967616617679596,0.2523952424526214,0.0020214583000396,-0.0003172894160942,-0.0300695311657155,0.375395119190216,0.0754600763320922,1.550410270690918,139,73,15072,13046
9.8,1788524350823,5.014084339141846,4.929577350616455,0.0021105224732309,0.0038669491186738,-0.9613250494003296,0.275380939245224,0.165902813482016,-0.0022727963630193,-0.0001246241803079,-0.0078280456364154,0.0198041312396526,-0.0917523056268692,0.002486833371222,0.0040587093681097,-0.9684420228004456,0.2491934597492218,-0.0120981186221576,0.0120264320243118,-0.0600642542360737,-0.2516094446182251,-0.0432823896408081,-0.3769302368164062,83,108,16040,13680
9.9,1788524350923,5.239436626434326,4.8450703620910645,0.0031147026456892,0.0037396657280623,-0.962101936340332,0.2726469039916992,0.1606184504284537,-0.0023698651817821,-3.025046359377212e-05,0.0004902143846265,0.0239725746214389,-0.0741821080446243,0.0031035132706165,0.0036080721765756,-0.9690731763839722,0.2467275559902191,0.0163418758498848,0.0173645046493396,-0.0716214862320482,-0.1029367446899414,-0.375841736793518,0.1379032135009765,121,90,15207,13797
10.0,1788524351023,5.070422649383545,5.183098793029785,0.0032943089026957,0.0034878202714025,-0.9630331993103028,0.2693400382995605,0.1611035876504523,-0.0016671812186154,2.4344165396801672e-05,0.0256459172815084,0.0241169370710849,-0.0678543969988823,0.0042080339044332,0.0034019127488136,-0.9696489572525024,0.244441732764244,-0.0042974866863679,0.032040885417343,0.0305821930362887,-0.2764251232147217,0.084008514881134,0.3521919250488281,130,122,14853,14000
10.1,1788524351123,5.042253494262695,5.098591327667236,0.0041202208958566,0.0031382022425532,-0.9627480506896972,0.2703500688076019,0.1598713577600538,0.0029491846508697,-8.986970073147441e-05,0.0133621403947472,0.0120335845276713,0.0133741991594433,0.0043600257486104,0.0028709704056382,-0.9695539474487304,0.2448220551013946,0.0125346303033278,-0.0317363907913565,-0.0034681641602907,0.1345479488372802,-0.2278239727020263,1.086956024169922,80,128,15002,14070
10.2,1788524351223,5.154929637908936,5.070422649383545,0.0044825943186879,0.0033152238465845,-0.962652623653412,0.2706821262836456,0.1619159755080905,0.0006558211027405,-0.0001469128774259,-0.0092308977618813,0.0165075846016407,0.0100631192326545,0.0050725536420941,0.0035145077854394,-0.969442903995514,0.2452395260334015,-0.0124829963911383,0.0377807004950319,0.0126886615665698,-0.1955330967903137,-0.3037578463554382,-0.0568227767944335,88,104,14565,14264
10.3,1788524351323,5.436619758605957,4.957746505737305,0.0049981670454144,0.0036951652728021,-0.9624210596084596,0.2714903652667999,0.1787437682042064,0.0008631248590298,-7.910000696252004e-05,-0.001176633988507,0.0122946938499808,0.0141262151300907,0.0050890455022454,0.0039408579468727,-0.9695595502853394,0.2447710931301117,-0.0185804084892961,-0.0048442770838357,-0.0482966347137317,-0.0025411248207092,-0.1213896870613098,0.529231071472168,105,103,14525,13242
10.4,1788524351423,4.901408672332764,5.126760482788086,0.0044974717311561,0.0041105537675321,-0.9627573490142822,0.2702983319759369,0.1654378486893437,0.0020089694050704,-1.120362996935062e-06,-0.0066299117170274,-0.0183293279260396,-0.0042980490252375,0.0039453636854887,0.0038410015404224,-0.9695444107055664,0.2448535412549972,0.0017852990348343,-0.0231813407450585,0.0093182892562994,0.4935921430587768,-0.0264181494712829,-0.0700225830078125,109,92,15163,13932
10.5,1788524351523,5.042253494262695,5.154929637908936,0.0040682447142899,0.0040750047191977,-0.9627131819725036,0.2704628407955169,0.1666667831830624,0.0028520593565844,0.0001097353106737,-0.0016828055959194,-0.0223367977887392,0.0076786880381405,0.0044955564662814,0.0035466384142637,-0.9694145917892456,0.2453622817993164,0.0127448941038812,0.0388064948946536,0.0086412494476321,-0.5357006192207336,0.096783697605133,-0.4375886917114258,130,73,14111,14365
10.6,1788524351623,5.014084339141846,5.267605781555176,0.0041304277256131,0.0036816648207604,-0.9622976183891296,0.271942526102066,0.173307453178305,0.0030323000836419,-1.324551604748262e-05,0.0058538084849715,0.0118071408942341,0.0527811013162136,0.0044789053499698,0.0036911582574248,-0.9691290855407716,0.2464859038591385,-0.0133176832263002,0.0460462078887036,0.0437578170725999,-0.313885748386383,-0.1286723017692566,-0.5128202438354492,91,104,13955,14560
10.7,1788524351723,4.704225540161133,5.211267471313477,0.0042266035452485,0.0033001306001096,-0.9616393446922302,0.2742645144462585,0.1656812379434149,-0.0003276516419892,1.3957192371144908e-05,0.0045712953433394,0.0090399151667952,0.0359758883714675,0.0042950939387083,0.0031035039573907,-0.9684072136878968,0.2493181824684143,0.0040727285087612,-0.0076051916119174,0.0487803753014903,0.0712905526161193,-0.2646307349205017,0.3463764190673828,90,119,15008,14654
10.8,1788524351823,5.098591327667236,4.704225540161133,0.0053273257799446,0.003525136038661,-0.9611772298812866,0.2758578658103943,0.1660677601307821,0.0005059211993566,-5.688256442841313e-05,-0.0044990396127104,0.0347001478075981,0.0215445924550294,0.0040521761402487,0.0028456961736083,-0.96849125623703,0.2489986717700958,0.012655143237656,-0.0845064200355931,-0.0561041117341,0.4983603358268738,-0.4720581769943237,-1.6390295028686523,139,115,15898,14032
10.9,1788524351923,5.295774459838867,5.126760482788086,0.0008560812566429,0.0023342575877904,-0.961820125579834,0.2736710608005523,0.1691247169219082,-0.0054603765180469,0.0007000259047095,-0.0071061756461858,-0.1582556962966919,-0.0441345497965812,0.0016574515029788,0.0025413585826754,-0.9688368439674376,0.247681125998497,-0.006470650998138,0.0702206768040588,-0.0535453389806195,-1.311735987663269,-0.0731816887855529,2.485970497131348,69,134,14197,14340
11.0,1788524352023,4.957746505737305,4.901408672332764,-0.0005102986469864,0.0023104744032025,-0.9619141221046448,0.2733414769172668,0.1677626430337086,0.0009404691832661,8.81887274067375e-05,-0.0133511051535606,-0.0285209640860557,0.001238998491317,-0.0005255863070487,0.0022337101399898,-0.9688060879707336,0.2478095889091491,-0.036999993073614,-0.0322337138131456,-0.0145215510912548,0.0198757648468017,0.3887364864349365,2.098531723022461,129,101,15212,13837
11.1,1788524352123,5.295774459838867,4.816901206970215,-0.0011532694334164,0.0028533982113003,-0.962438702583313,0.2714815139770508,0.1715458115771194,-0.0012703681879832,-5.384870960310677e-05,-0.013213800266385,0.0018668728880584,-0.0632985830307006,-0.0010377606377005,0.0027763275429606,-0.969289004802704,0.2459068596363067,0.006792961998574,-0.0100538225779873,-0.0715210667605114,0.286924660205841,-0.1851998567581176,-2.0512709617614746,98,114,15049,14063
11.2,1788524352223,5.098591327667236,5.183098793029785,-0.0010651231277734,0.003758363192901,-0.9634203314781188,0.2679665386676788,0.1642043248299213,0.0007588424914723,3.691714638109962e-05,-0.0228999443352222,0.0170349832624197,-0.0659541562199592,-0.0008538765832781,0.003692221827805,-0.9703203439712524,0.241793692111969,0.0078100942450154,0.00583354369469,-0.0362972698480265,-0.4934790134429931,-0.0335942506790161,1.1961803436279297,90,99,14198,14021
11.3,1788524352323,4.8450703620910645,5.098591327667236,-0.0009174106526188,0.0031364066526293,-0.9635012149810792,0.2676839530467987,0.1691334815604034,-0.0010066177226882,-3.0870321993561765e-05,0.0212698001414537,-0.004499998409301,0.0102156475186347,-0.0006332341581583,0.0026895916089415,-0.9702370166778564,0.2421416938304901,0.0210333155432805,0.0311938209243756,0.0027519905814519,0.0418790578842163,0.0651282668113708,-1.637873649597168,95,93,15541,13994
11.4,1788524352423,3.3521127700805664,4.647887229919434,-0.00038410135312,0.0038713233079761,-0.9638103246688844,0.2665606141090393,0.1693780869720123,-0.0005302333730262,-6.427022229177477e-07,-0.0333551876246929,0.0486889146268367,-0.0542769320309162,-0.0006482973694801,0.004848163574934,-0.9705855250358582,0.2407071590423584,-0.0358171580538478,-0.0342094313358706,0.0086150412731251,-0.8492163419723511,0.4786469936370849,0.057112693786621,27,93,5745,12905
11.5,1788524352523,0.591549277305603,4.0,-0.0006699578370898,0.0055386642925441,-0.9620721936225892,0.2727380394935608,0.1112904404793876,0.0051098809225137,2.7563900375380488e-05,-0.0133344465866684,-0.0100419633090496,0.251495897769928,-0.0007815882563591,0.0057090241461992,-0.9654510617256165,0.2605210542678833,-0.010075186033341,-0.008431067724031,0.5197118752655053,-0.293120801448822,-0.2974388003349304,-0.0941219329833984,12,101,0,12040
11.6,1788524352623,-1.5492957830429075,3.521126747131348,-0.0012301469687372,0.0057209669612348,-0.9545627236366272,0.2979526817798614,0.0652027031914602,-0.0012285159931587,1.7212413532824407e-06,-0.0072194607928395,-0.0082881823182106,0.6097956895828247,-0.0009009195491671,0.0058796824887394,-0.9603042006492616,0.2788914144039154,-0.0083440717307804,0.0150677296507533,0.656924109031082,-1.2411233186721802,-0.0415354371070861,0.2900524139404297,176,79,-8151,10863
11.7,1788524352723,-3.577464818954468,3.070422649383545,-0.0009769279276952,0.0056939399801194,-0.9428350329399108,0.3332097232341766,0.0178753048835038,0.0009781699761586,-2.4653427222296748e-06,0.0066471165046095,0.0078824358060956,0.8963037729263306,-0.0005768025293946,0.0055447919294238,-0.9437541961669922,0.3306009769439697,0.0101835095161639,-0.0061012753450363,1.0306050733578422,0.2569949626922607,-0.0641751885414123,0.1460256576538086,113,140,-11398,10632
11.8,1788524352823,-3.239436626434326,3.3521127700805664,-0.0004396357107907,0.005329230800271,-0.9249903559684752,0.3799529373645782,0.0035347458812323,-0.0100876658373828,-2.654336192609106e-06,0.0090876687318086,0.0045502898283302,1.0646966695785522,-0.0001980140805244,0.0054454794153571,-0.9329572319984436,0.3599459528923034,-0.00360062133287,0.0168025321800556,0.9962175596324933,-0.3587518334388733,-0.2314279079437255,0.1842527389526367,72,83,-10920,9679
11.9,1788524352923,-3.549295663833618,3.323943614959717,-0.0006261098897084,0.0051301759667694,-0.9023545384407043,0.4309635460376739,0.0050447988244553,-0.0112208077880605,-3.064160738844744e-06,0.0002740178897511,-0.0163347795605659,1.0070377588272097,-0.0006536431610584,0.0052654119208455,-0.907803475856781,0.4193621873855591,-0.0167258867417322,-0.0017905387154128,0.925962295558644,-0.0017505288124084,-0.2160733938217163,0.0284185409545898,124,173,-10265,10489
12.0,1788524353023,-3.323943614959717,3.323943614959717,-0.0011462313123047,0.0050837048329412,-0.8804724812507629,0.47406867146492,0.0101174024342424,-0.0083230160130247,3.3194648895954e-07,-0.0028887004591524,-0.0206841547042131,0.9851810932159424,-0.0011890046298503,0.0051089683547616,-0.8788091540336609,0.4771445393562317,0.0102700528441443,-0.0058364568844787,1.0011499314948158,0.1250439286231994,-0.142342984676361,0.0243167877197265,78,90,-10129,9958
12.1,1788524353123,-3.239436626434326,3.436619758605957,-0.001569504966028,0.0048787100240588,-0.8524861335754395,0.5227246284484863,0.0092780127491234,-0.0082979234683299,2.124275174695377e-06,0.0033657683525234,-0.015282672829926,0.9763747453689576,-0.0013497248291969,0.0049437843263149,-0.8620808720588684,0.5067447423934937,-0.003229891859934,0.0016687935201855,1.079893568140931,0.3473280072212219,-0.4473777413368225,-0.0735177993774414,70,100,-10516,9590
12.2,1788524353223,-3.3521127700805664,3.239436626434326,-0.0011837580241262,0.0049063651822507,-0.8314471244812012,0.5555810928344727,0.007812620941541,-0.00705319808835,1.400587433997111e-07,5.298474570736289e-05,-0.0011722738854587,0.9691843390464784,-0.0011711763218045,0.0048504723235964,-0.8391689658164978,0.5438478589057922,-0.0041410353726166,-0.0121048115134481,0.9798620823690828,0.2004868388175964,-0.3267059922218323,-0.0196809768676757,134,106,-10585,10209
12.3,1788524353323,-3.323943614959717,3.2676055431365967,-0.0014881164534017,0.0046089892275631,-0.8006742000579834,0.5990803837776184,0.0015756394794799,-0.0056926707532923,-1.503490410899742e-06,-0.0095359170809388,-0.0202692560851573,0.9544444680213928,-0.0014166515320539,0.0046406434848904,-0.8117085099220276,0.5840426683425903,-0.0047897280206954,-0.0125177879569275,0.9734148762617728,0.3843787908554077,-0.5356143712997437,0.7612628936767578,102,106,-10325,10023
12.4,1788524353423,-3.436619758605957,3.2676055431365967,-0.0014872006140649,0.0042615020647645,-0.7723066806793213,0.6352338194847107,0.0013136474565928,0.0017618335796684,1.0880747420117285e-07,0.0014823500532656,-0.0173969510942697,0.9385411739349364,-0.0003984859213232,0.0046676564961671,-0.7702585458755493,0.6377145051956177,0.009281831958411,0.0345354758675333,0.9976222742780616,-0.1617506742477417,0.2658756375312805,-0.0913381576538086,86,107,-9977,9995
12.5,1788524353523,-3.1549296379089355,3.3521127700805664,0.000902087194845,0.0061494931578636,-0.7418761849403381,0.6705081462860107,0.0027780760970697,-0.0087766953632862,1.2596676739114203e-06,-0.0108031947165727,0.0978127941489219,0.9858152866363524,0.0028999084606766,0.0075269024819135,-0.7445340752601624,0.6675358414649963,0.0043582968281058,0.051243439657535,0.936241099407447,-0.6001806855201721,0.2212266325950622,-2.405576229095459,110,73,-10690,9498
12.6,1788524353623,-3.577464818954468,3.323943614959717,0.0018293668981641,0.0071558621712028,-0.7051335573196411,0.7090359926223755,-0.002996516967776,0.0028021195694619,-1.8246654572071144e-06,-0.0156488753855228,-0.0266361869871616,0.9673373699188232,0.0019680457189679,0.0071541406214237,-0.717922568321228,0.6960834264755249,-0.0217260105099462,-0.0264130264770725,1.045434052169078,0.28664231300354,-0.7835046648979187,0.5022487640380859,68,112,-9291,9716
12.7,1788524353723,-3.4084506034851074,3.4084506034851074,0.0011274106800556,0.0075646033510565,-0.6702482104301453,0.7420976161956787,-0.0016205403190779,-0.0023262572367873,-2.95027519141149e-07,-0.0254702735692262,-0.0100957304239273,0.9433176517486572,0.001193094998598,0.007396544329822,-0.680040180683136,0.7331366539001465,-0.0086400526683677,-0.0096262379428813,0.960142727607723,0.0855897665023803,-0.6050013303756714,-0.0401391983032226,94,95,-9873,9598
12.8,1788524353823,-3.323943614959717,3.2957746982574463,0.000685459934175,0.0073812715709209,-0.6348546743392944,0.772596001625061,0.0010043562700203,-0.0081781367122961,1.1244478987188959e-09,-0.0099397310987114,-0.0232367981225252,0.9481827616691588,0.0008808765560388,0.0073605077341198,-0.6551111936569214,0.7554962038993835,-0.0058904715079309,-0.0465005353924021,0.9551748850782126,-0.1920517086982727,0.38599693775177,-0.4784402847290039,125,124,-11560,9995
12.9,1788524353923,-3.492957830429077,3.239436626434326,0.0006204056553542,0.00781168974936,-0.5986948013305664,0.8009388446807861,0.0032259275384471,-0.0070901941458357,5.20436561096381e-07,-0.0143889617174863,0.0026801116764545,0.984861135482788,0.0008205072954297,0.0086381612345576,-0.5936444401741028,0.8046806454658508,-0.0267289196685883,0.030982170648411,0.9497715012600846,-0.148708701133728,-0.0214583873748779,-0.1611413955688476,70,103,-9509,10195
13.0,1788524354023,-2.816901445388794,3.0422534942626958,0.0017495935317128,0.0110042542219161,-0.55352383852005,0.8327588438987732,0.0009262600763915,-0.0047486884184301,3.0797745793200374e-06,-0.0262027774006128,0.0883317589759826,1.0014349222183228,0.0018294993788003,0.0116544719785451,-0.5688391923904419,0.8223641514778137,-0.0588180557595017,0.1471970800006302,0.985651105728633,0.2501771450042724,0.967544972896576,-3.576277732849121,172,145,-12199,10795
13.1,1788524354123,-2.873239517211914,2.929577350616455,0.0004039881750941,0.0097756693139672,-0.5123579502105713,0.8587162494659424,-0.0004580093553,0.0001364271434835,3.320674056812734e-07,-0.0187019258737564,-0.0189203768968582,1.0150797367095947,5.957391113042832e-05,0.0094287414103746,-0.5145323872566223,0.8574190735816956,-0.0295760477571426,-0.0141371352241819,0.8896711758417366,0.0657328367233276,0.1345517635345459,1.0501956939697266,41,83,-9206,8775
13.2,1788524354223,-2.873239517211914,2.8450703620910645,-0.0005068776663392,0.0092622423544526,-0.4768329262733459,0.878944993019104,0.0040081734854914,-0.003615794591949,3.489142929398312e-06,-0.0167112946510314,-0.0188367906957864,0.8387539386749268,-0.000518281944096,0.0090943090617656,-0.4808248877525329,0.8767693638801575,-0.0127109435919766,-0.0137160077220597,0.8646074464107769,-0.1323561668395996,0.1576168537139892,0.1492290496826172,100,122,-9694,9394
13.3,1788524354323,-2.563380241394043,2.619718313217163,-0.0010507183615118,0.0090910643339157,-0.4404666423797607,0.8977224230766296,0.0004101109530801,-0.0064831963892246,9.687662635383695e-07,-0.0178559124469757,-0.0103179179131984,0.8425712585449219,-0.0010129753500223,0.0089615415781736,-0.4547590613365173,0.8905689120292664,-0.0144670987382743,-0.0261684094463116,0.8430376690887332,0.229796826839447,0.0402711629867553,-0.1117229461669921,57,73,-8331,7958
13.4,1788524354423,-2.5352113246917725,2.7042253017425537,-0.0014441050589084,0.0091205490753054,-0.4062877893447876,0.9136984944343568,0.0013126659991537,-0.0047363543897708,8.974297641010393e-07,-0.0115079097449779,-0.0042610629461705,0.7252697348594666,-0.0013868818059563,0.0091177076101303,-0.4141362905502319,0.9101681113243104,-0.0128427241588319,-0.0040256343975436,0.8029710992471542,-0.0019387602806091,-0.2647398710250854,0.2637786865234375,124,126,-8452,8585
13.5,1788524354523,-1.97183096408844,2.197183132171631,-0.0017977324314415,0.0090821636840701,-0.3663531839847564,0.9304298162460328,0.0061146477887615,-0.0082047856982739,3.3319890396356544e-06,-0.0114861391484737,-0.003397217253223,0.7737354040145874,-0.001826380379498,0.0091697955504059,-0.3805341422557831,0.9247196316719056,-0.021361920600655,-0.0084004053606137,0.6280359827371694,0.0105289220809936,-0.4517663717269897,0.1763315200805664,65,121,-8110,7406
13.6,1788524354623,-2.05633807182312,2.281690120697021,-0.0024397857487201,0.0089754117652773,-0.3364657461643219,0.9416497945785522,0.0027982132766553,-0.0094842893653063,3.334407829083551e-06,-0.0142731498926877,-0.0126426443457603,0.6317568421363831,-0.0021740160882472,0.0090493708848953,-0.3631513118743896,0.9316837191581726,-0.0139914996620546,-0.0179104157128559,0.6341876181636856,0.0124720931053161,0.360442042350769,-0.0119132995605468,76,74,-8633,7722
13.7,1788524354723,-2.0281689167022705,1.774647831916809,-0.0034565257374197,0.0072734314016997,-0.3095868527889251,0.9508370757102966,0.005354840991367,-0.0119234331759486,5.644361261098308e-06,-0.0131992241367697,-0.0722497478127479,0.6393646001815796,-0.0043185548856854,0.0053194724023342,-0.3167248666286468,0.948492705821991,-0.0097201262978139,-0.0559947064800216,0.5643400200644003,0.0636363625526428,-0.3367601633071899,0.0603113174438476,109,73,-6835,6684
13.8,1788524354823,-1.887323975563049,1.774647831916809,-0.0046966020017862,0.0045769726857542,-0.2794220447540283,0.9601459503173828,0.0037545702628168,-0.0060939804857498,1.5071737325807863e-06,-0.0048927296884357,-0.0407014116644859,0.6003354787826538,-0.004717718809843,0.0045204740017652,-0.2984009087085724,0.9544183015823364,-0.0088321923780934,-0.0207780074748693,0.5629873504688175,-0.0282376408576965,-0.130063772201538,-0.0178079605102539,95,103,-7079,6991
13.9,1788524354923,-1.887323975563049,1.8309859037399288,-0.0049396893009543,0.0042467094026505,-0.2518205344676971,0.9677520394325256,0.0027829204069811,-0.0095789382845907,7.025154805282055e-07,-0.0018563572084531,-0.0059613115154206,0.571962296962738,-0.0048136273398995,0.0043134428560733,-0.2682374119758606,0.96333110332489,0.0003584167972428,-0.0067364491977756,0.5628570047697241,-0.0238756537437438,-0.0990898609161377,0.0147647857666015,99,103,-7148,6940
14.0,1788524355023,-1.4929577112197876,1.4929577112197876,-0.0050833192653954,0.0040491111576557,-0.2249483615159988,0.9743490219116212,0.0032159786956449,-0.0052898325991863,9.89275650144704e-07,-0.0067277653142809,-0.0060282391496002,0.5461264848709106,-0.0050757294520735,0.0041116317734122,-0.2453089207410812,0.9694229960441588,-0.0080081176278921,-0.0121731389435002,0.4691138993124622,0.052947461605072,-0.0818246006965637,-0.02056884765625,65,114,-5954,5627
14.1,1788524355123,-1.408450722694397,1.5211267471313477,-0.0052713775075972,0.0037801300641149,-0.2047759592533111,0.9787873029708862,0.00470963260555,-0.0045266215651705,4.853926653175192e-07,-0.0016803314210847,-0.0101145124062895,0.4629465937614441,-0.005061587318778,0.0036903340369462,-0.218709260225296,0.9757699370384216,0.0058477916129709,-0.0090071753641732,0.4592964675262662,-0.1585873365402221,0.0473248362541198,0.0042247772216796,140,83,-6821,5880
14.2,1788524355223,-1.5774648189544678,1.408450722694397,-0.0051950323395431,0.0034747021272778,-0.1825642436742782,0.9831740260124208,0.0003924125592099,-0.0030374492298419,4.1662741554630267e-07,-0.001213205163367,-0.0065140719525516,0.4451771676540375,-0.0053400844335556,0.0035053305327892,-0.1984321326017379,0.9800938963890076,-0.0119861136679022,-0.0095697377662089,0.4846836676007739,0.1032377481460571,-0.0082232952117919,-0.0143566131591796,69,139,-6043,6636
14.3,1788524355323,-1.408450722694397,1.6056338548660278,-0.0056058885529637,0.0033084319438785,-0.1568412631750106,0.9876022934913636,0.0056702490800004,-0.0056531053575584,2.0229479660440333e-06,-0.005139838438481,-0.005101962480694,0.4747022688388824,-0.0055220872163772,0.0034481575712561,-0.1820637732744217,0.9832651615142822,-0.0033617408409531,-0.0069241803118012,0.4705900029840298,-0.0271878242492675,-0.0880664587020874,0.2016563415527343,137,103,-6760,5987
14.4,1788524355423,-1.380281686782837,1.1267606019973757,-0.0056761680170893,0.0028878771699965,-0.1336150765419006,0.9910128116607666,0.0025304802740855,-0.0020149810681949,7.843512256423568e-07,-0.0050637517124414,-0.0055896816775202,0.474725067615509,-0.0056870533153414,0.0030422238633036,-0.1545062959194183,0.9879708290100098,-0.0088039693167864,-0.0030378239959772,0.4528005891503905,-0.1235053539276123,-0.1319451332092285,0.1433057785034179,46,62,-4211,4902
14.5,1788524355523,-0.8450704216957092,1.1267606019973757,-0.005973279941827,0.003051763633266,-0.1151063740253448,0.9933305382728576,0.0028093775977708,-0.0031002583161098,-3.533379166973904e-07,-0.0074361418373882,-0.0012865216704085,0.3456287086009979,-0.0059049883857369,0.0032575950026512,-0.1368899792432785,0.9905633330345154,-0.0021261868744716,0.0011456387825853,0.3020809162348543,-0.0525357127189636,-0.1110242009162902,0.0433025360107421,117,132,-6334,5576
14.6,1788524355623,-1.154929518699646,1.2676056623458862,-0.0058375843800604,0.0028911102563142,-0.10004173964262,0.99496191740036,0.0055753095207435,-0.0020557805259489,-3.473743647573206e-07,0.004641827661544,-0.007798995822668,0.3490763902664184,-0.0056647136807441,0.0027769049629569,-0.1177512779831886,0.9930230379104614,0.0033796390172555,-0.01150771350404,0.3858403190042418,-0.0747990608215332,0.0335148572921752,-0.0115118026733398,77,64,-5503,4698
14.7,1788524355723,-1.1267606019973757,1.2676056623458862,-0.0058203837834298,0.002501708921045,-0.0799227133393287,0.9967808723449708,0.0005386405186528,-0.0039868646611069,1.372235157321051e-06,-0.0030348121654242,-0.0069950469769537,0.3671080768108368,-0.0057888757437467,0.0025913789868354,-0.0963825210928917,0.9953242540359496,-0.0029559628583383,0.0043236516246879,0.353617107577746,0.1153518557548523,-0.0523396730422973,0.1021728515625,82,113,-5565,5145
14.8,1788524355823,0.0,0.8169013857841492,-0.0058114011771976,0.0025872888509184,-0.0624775923788547,0.9980261325836182,0.0040050009399103,-0.001947667412509,-3.300314173081944e-07,0.0002504155272617,0.0051446687430143,0.3493048548698425,-0.0056704925373196,0.0028919149190187,-0.0839716792106628,0.9964478611946106,0.0016509773017406,0.008614088919169,0.1740039359634677,-0.0702937245368957,-0.1201525330543518,-0.0341424942016601,153,72,-7585,4078
14.9,1788524355923,0.0,0.0,-0.0055431094951927,0.0025447055231779,-0.0526649393141269,0.99859356880188,0.0004900869531804,-0.0010786595471719,-4.3598247413874484e-07,0.0083740977570414,-0.0088389068841934,0.2020257860422134,-0.0054366532713174,0.0025103390216827,-0.0777010470628738,0.9969587922096252,0.0077492796515865,-0.0224535129087761,0.2118636178972509,0.5157009959220886,0.0895050168037414,0.0264825820922851,41,33,-3465,0
15.0,1788524356023,1.2676056623458862,3.211267709732056,-0.0055161570198833,0.0023205878678709,-0.0500362180173397,0.9987295269966124,0.012273499753929,-0.0016913168852966,-9.85140655377277e-07,0.0,2.2372212971077943e-09,0.0,-0.0054652793332934,0.0022869184613227,-0.0715420097112655,0.9974200129508972,0.005580531086627,0.0040844725896474,0.2703867570843075,0.723906934261322,0.6085454225540161,0.0313978195190429,50,286,3700,13467
15.1,1788524356123,1.4647886753082275,5.830986022949219,-0.0052292956970632,0.001046560704708,-0.0309073533862829,0.9995079636573792,0.0921075660554761,0.0046371696632465,1.7466735778878676e-05,0.0141011970117688,-0.0378575176000595,0.441877007484436,-0.0051514925435185,0.0010744910687208,-0.0567138157784938,0.9983766078948976,0.0247269926170918,-0.0590358995905935,0.4773426802808284,0.5248592495918274,-0.2541559338569641,0.2414913177490234,45,215,6146,18592
15.2,1788524356223,2.11267614364624,7.943662166595459,-0.0026556998491287,-0.0019866400398314,0.0019720119889825,0.9999925494194032,0.1325484922877722,-0.0036181204137922,0.0002767401725851,0.0850266888737678,-0.0986443534493446,0.7715741395950317,-0.0023716753348708,-0.0023161368444561,-0.0188921652734279,0.9998160004615784,0.0751665605412232,-0.0850093216886138,0.8158001621761506,0.7941899299621582,0.7600485682487488,0.4824066162109375,114,235,8463,23543
15.3,1788524356323,2.619718313217163,7.718309879302978,-0.0007936971960589,-0.0040491521358489,0.0400575585663318,0.9991888403892516,0.1765495913062916,0.0046158886252139,1.6605493872986965e-05,0.0440219938755035,-0.0414036959409713,0.8346604704856873,-0.0015546614304184,-0.0042381137609481,0.033405989408493,0.9994316697120668,0.0127608210829432,-0.0819643922594353,0.7224544731704333,0.4702432751655578,0.8328773379325867,0.6233806610107422,43,111,8493,20619
15.4,1788524356423,2.816901445388794,7.295774459838867,-0.0021951941307634,-0.0042617288418114,0.08113644272089,0.9966914653778076,0.1685219224655841,-0.0030918103259874,4.1478622081594894e-05,-0.0183981787413358,-0.0374319665133953,0.6944171190261841,-0.0025338567793369,-0.0038110129535198,0.0650219693779945,0.9978733658790588,-0.0079596129865618,0.0394820586688992,0.6264896169196366,-0.6641433835029602,-0.5084077715873718,2.28817081451416,57,103,9609,19573
15.5,1788524356523,3.070422649383545,7.211267471313477,-0.0025266734883189,-0.0043563218787312,0.1134881600737571,0.9935265183448792,0.1714820128014414,0.0003281160709835,-3.368180373828444e-05,-0.0016181907849386,-0.0065636350773274,0.6530147790908813,-0.002650580368936,-0.0043247872963547,0.0877229645848274,0.996131956577301,-0.0111853916497,-0.0436382808802582,0.6326709108016809,0.6081885695457458,0.5924879908561707,-1.080357551574707,53,141,8340,20129
15.6,1788524356623,3.211267709732056,7.042253494262695,-0.0026706822682172,-0.0039977999404072,0.143421322107315,0.9896500706672668,0.1642219432439714,0.0005072985919065,-0.0001006769750213,-0.0045229354873299,0.0178090464323759,0.6568007469177246,-0.0029161861166357,-0.0038943653926253,0.1376041620969772,0.9904753565788268,0.0054239639713711,0.015199418292179,0.6568229438358064,0.074727714061737,-0.4619317054748535,0.0530061721801757,125,102,10063,18533
15.7,1788524356723,3.690140962600708,6.450704097747803,-0.0027545974589884,-0.0038555485662072,0.1714094579219818,0.9851884245872498,0.1677982195050222,-0.0023443511369261,-1.279420608568282e-05,0.0061012441292405,0.0066652153618633,0.5861765742301941,-0.0028427969664335,-0.0038557052612304,0.1524499803781509,0.988299548625946,0.0008302591618309,-0.0086012502619461,0.4528803198638865,0.1384503841400146,0.3959235548973083,-0.430917739868164,103,101,10858,18164
15.8,1788524356823,3.549295663833618,6.816901206970215,-0.0026087409351021,-0.0040798112750053,0.19332055747509,0.981123685836792,0.1647293408168856,0.0033301326407131,0.0001149879871028,0.005145551636815,-0.0183189865201711,0.4456683099269867,-0.0022032707929611,-0.0043754130601882,0.1841095387935638,0.9828935861587524,0.0080240144965151,0.0148352888961004,0.5881594140937885,-0.3214128017425537,-0.3610943555831909,0.2849903106689453,124,61,10693,17483
15.9,1788524356923,4.169013977050781,6.3380279541015625,-0.0020484798587858,-0.0045067514292895,0.2212553322315216,0.9752033948898317,0.171376096934694,0.0034248652553899,0.000117258838973,0.0032057897187769,-0.0047728708013892,0.4843612015247345,-0.0021301237866282,-0.0045855017378926,0.1975983381271362,0.9802700877189636,0.0019024337045427,0.0267639675305386,0.3956270241943893,-0.2760603427886963,-0.0613664984703063,-0.3807458877563476,75,82,11222,16408
16.0,1788524357023,4.394366264343262,5.7183098793029785,-0.0018323538824915,-0.0044295093975961,0.2374833822250366,0.971379816532135,0.1663222320344596,0.0060644507985388,-2.8461802683764983e-05,0.0110508119687438,0.0132956355810165,0.3177483677864074,-0.0019462602213025,-0.0044019892811775,0.2163281738758087,0.9763088822364808,0.0010907327288943,-0.0156722052939695,0.203906466357792,-0.3311433792114258,-0.2048942446708679,0.4728384017944336,48,136,12204,16624
16.1,1788524357123,4.253520965576172,5.802816867828369,-0.0021040793508291,-0.0031229262240231,0.2473097294569015,0.9689291715621948,0.1615602083938076,0.0068993259048335,-0.000106050640036,0.0040997951291501,0.0493614971637725,0.2187889218330383,-0.0021486263722181,-0.0020814165472984,0.2254606485366821,0.9742477536201476,0.0148403834357109,0.0616105230167206,0.2539644145123273,0.5222594738006592,0.4701210260391235,-0.0297422409057617,60,129,11890,17490
16.2,1788524357223,3.9718310832977295,6.169013977050781,-0.0022188676521182,-0.0021348232403397,0.2602569162845611,0.965534508228302,0.1666379444526552,0.0027523190071191,0.0002194425510762,0.0054232142865657,-0.0430271439254283,0.2848243415355682,-0.0025953529402613,-0.0008356878533959,0.2400650680065155,0.970753014087677,0.0008780401933174,0.082529922718412,0.3577345476514577,0.4374924302101135,0.8075891733169556,-1.8493781089782717,85,132,11802,16971
16.3,1788524357323,4.14084529876709,5.88732385635376,-0.0046458463184535,0.0005674617132171,0.2755718827247619,0.9612690806388856,0.1680446821413845,0.0056421457306403,-0.000260161142917,-0.0252359472215175,0.0681217387318611,0.2312364876270294,-0.0043596802279353,0.0004082983359694,0.248980239033699,0.9684986472129822,-0.0197647657238663,0.0670932446298497,0.2302864604670417,0.05872243642807,0.0168033242225646,0.8979272842407227,97,138,13141,16824
16.4,1788524357423,4.507042407989502,6.056337833404541,-0.0061535332351922,0.001524445367977,0.2872745096683502,0.95782732963562,0.1671593659174626,0.004490055996331,-0.0002546839540626,-0.0270262472331523,0.0279647503048181,0.2505979239940643,-0.0065691191703081,0.0016793133690953,0.269531786441803,0.9629676342010498,-0.0145268547930535,-0.0427100239268138,0.2598051011436731,0.0406421422958374,-0.1653472185134887,-0.0481777191162109,70,124,11626,16250
16.5,1788524357523,4.2253522872924805,5.943662166595459,-0.0067086201161146,0.0018852866487577,0.2990410029888153,0.954214870929718,0.1611750714532754,0.004168403347846,3.832789819815848e-05,-0.0065807178616523,0.0002669791574589,0.2787637710571289,-0.0064935889095067,0.0019775731489062,0.277832567691803,0.9606056213378906,0.0077337045506485,-0.0096428813044014,0.2796364033093595,-0.1809120178222656,0.0153446793556213,-0.7128057479858398,73,102,12658,16258
16.6,1788524357623,4.169013977050781,6.02816915512085,-0.005366881377995,0.0015796904917806,0.3131563067436218,0.9496850967407228,0.1661701080713779,0.007922066635255,-3.726159985711594e-05,0.0375752411782741,-0.016693128272891,0.2570726573467254,-0.004210284911096,0.0010570855811238,0.2908283472061157,0.9567654132843018,0.0887881768114169,-0.0988585611312029,0.2907079973757823,-0.2059754729270935,-0.0373829007148742,0.7809934616088867,91,67,12838,15673
16.7,1788524357723,4.450704097747803,5.943662166595459,-0.0048032011836767,0.0015962929464876,0.3256823718547821,0.9454656839370728,0.1649536433567472,0.0061342222171439,5.551361335945113e-05,-0.0007660486735403,-0.0014872623141855,0.2533627152442932,-0.004651672206819,0.0016263909637928,0.3019504249095917,0.9533109664916992,0.0134787305795741,0.0180171147138866,0.2556018349509521,-0.025164783000946,0.1371511220932006,-0.6769905090332031,86,102,11954,16241
16.8,1788524357823,4.394366264343262,5.7183098793029785,-0.0043938178569078,0.0016638530651107,0.337319552898407,0.9413784742355348,0.1707900581615151,-0.0008857486747774,1.5010631281135282e-05,0.0126111516728997,0.004483523312956,0.2401135116815567,-0.004002733156085,0.0014971513301134,0.3164460361003876,0.9486009478569032,0.009047896237984,-0.0010784514078218,0.1465127848759451,-0.0333846807479858,0.2101596593856811,-0.782496452331543,86,102,11954,16241
16.9,1788524357923,4.197183132171631,5.915493011474609,-0.0041160979308187,0.0011691378895193,0.3449398577213287,0.938615083694458,0.1629232140393224,0.0023546822441888,5.2825913205453656e-05,0.000192814390175,-0.0129008386284112,0.2127608507871627,-0.0039392504841089,0.0010520303621888,0.3237891495227813,0.94612056016922,0.0033303018609844,-0.0168716702133025,0.2708121819799928,0.1220748424530029,-0.0261743068695068,-0.2066707611083984,99,119,12424,16502
17.0,1788524358023,4.2816901206970215,6.02816915512085,-0.0035768044181168,0.0011787122348323,0.3594308793544769,0.933164119720459,0.1631888266495952,0.003819865100795,-2.4972125179617683e-05,0.0171448141336441,0.0012568476377055,0.2837769985198974,-0.0034956978633999,0.0012946100905537,0.334669679403305,0.9423282146453856,0.0244779857275288,-0.0146052961249054,0.2970465509441386,0.3360912203788757,-0.0975028872489929,-0.466343879699707,119,88,12757,16049
17.1,1788524358123,5.239436626434326,4.957746505737305,-0.0034060459583997,0.0007095201872289,0.3710218369960785,0.928617537021637,0.1740960625678181,-0.0002649920337947,-2.2010123451623735e-05,0.0035598098766058,-0.0181884206831455,0.2489454597234726,-0.0037475042045116,0.0010984558612108,0.3472934663295746,0.9377483129501344,-0.0197901976950889,0.0196850866337103,0.1416380061482724,-0.0035759210586547,-0.1355391144752502,0.5857200622558594,119,88,12757,16049
17.2,1788524358223,5.126760482788086,5.070422649383545,-0.0038666664622724,0.0011064546415582,0.3707624673843384,0.9287189841270448,0.154183734527231,-0.0057840763450329,-1.0389579757410924e-05,0.0073006255552172,0.0154078584164381,-0.0450007617473602,-0.0037094885483384,0.0014564180746674,0.3460708260536194,0.9381999373435974,0.0055456373600923,0.0029711397812312,0.0084980011833976,-0.1088255047798156,0.0587976574897766,0.6098155975341797,81,93,14819,14061
17.3,1788524358323,5.295774459838867,4.985915660858154,-0.0035284217447042,0.0011678806040436,0.3709160685539245,0.928658962249756,0.1736947957147668,0.0019285093694901,1.906092475338323e-05,0.0078135011717677,-0.0106150712817907,0.0104273641481995,-0.0038113016635179,0.0013060541823506,0.3457895219326019,0.938303530216217,-0.01035221514147,0.0144872613585098,-0.0293848811376072,-0.1120262742042541,-0.1102409362792968,0.7954006195068359,110,151,13927,14432
17.4,1788524358423,5.042253494262695,5.070422649383545,-0.0039337291382253,0.000781713053584,0.3706324994564056,0.9287709593772888,0.162232194363093,-0.0008873558951503,1.095028618008312e-06,-0.016051135957241,-0.024314833804965,0.0080108698457479,-0.0040225768461823,0.0003900341689586,0.3463371098041534,0.9381014704704284,-0.018973510471467,-0.0111065142304627,0.0295374665700356,0.2825266122817993,0.1668285131454467,0.122568130493164,112,109,14820,14155
17.5,1788524358523,5.070422649383545,4.985915660858154,-0.004432690795511,-7.59555259719491e-05,0.3707162737846374,0.9287355542182922,0.1624735936998615,0.0009802042945711,5.962760581631104e-05,-0.0284985844045877,-0.0093511529266834,-0.0126550924032926,-0.0048316093161702,-0.0005492493510246,0.3456906676292419,0.93833589553833,-0.0233699797865526,-0.0294262893117281,-0.018750922743968,-0.0496044158935546,0.007453978061676,0.5218772888183594,82,114,14463,14396
17.6,1788524358623,4.901408672332764,5.211267471313477,-0.0048855748027563,0.0001788332592695,0.3705758452415466,0.9287893176078796,0.1606227678395853,-0.0063685161649736,-7.716614745809136e-05,0.0084711192175745,0.0286484807729721,0.005600192118436,-0.0047119054943323,0.0005931677296757,0.3451256453990936,0.9385445713996888,0.0170699760776298,0.0141579695672958,-0.048668160889949,-0.1020852923393249,-0.226108968257904,0.6527557373046875,45,206,12027,16887
17.7,1788524358723,4.647887229919434,5.521126747131348,-0.0043918546289205,0.0009169635595753,0.3721520006656647,0.9281609058380128,0.1644690269957043,0.0044812661185725,-2.451857260173312e-05,0.0191578269004821,0.011517971754074,0.098898708820343,-0.0045138811692595,0.0018591620028018,0.3527823090553283,0.9356927275657654,-3.2512013757438985e-05,0.0156438115799202,0.1654125553205363,-0.2444361448287964,-0.0900261998176574,1.1970949172973633,107,125,13310,15396
17.8,1788524358823,4.507042407989502,5.549295902252197,-0.0044031767174601,0.0020032071042805,0.3814312815666199,0.9243844747543336,0.1610402481561568,0.0043372479655526,1.847797986271822e-05,0.0120604261755943,-0.0037668223958462,0.1721044480800628,-0.0042288582772016,0.0020734332501888,0.3583076000213623,0.9335917830467224,0.0085900200355804,-0.0014716934103844,0.1660507387330079,0.0274053215980529,0.1870312690734863,-0.633213996887207,99,103,13689,14921
17.9,1788524358923,4.816901206970215,5.267605781555176,-0.0049250242300331,0.0046544219367206,0.3890085518360138,0.9212092161178588,0.1628025503589871,0.0017309884128869,-0.0002232711980545,0.0103163262829184,0.080317385494709,0.1640737205743789,-0.0036863600835204,0.0026517612859606,0.3675654232501983,0.929986536502838,0.0069714284288228,-0.1122318116670252,0.1363665651158084,0.6020247936248779,-0.0801520943641662,-1.5081920623779297,137,88,14662,14297
18.0,1788524359023,4.929577350616455,5.183098793029785,-0.0038621425628662,0.003204641630873,0.3932465314865112,0.9194194078445436,0.1676958549954143,-0.0024087718961006,-0.000215551210524,0.0060999686829745,0.0255269203335046,0.0499881766736507,-0.0035602897405624,0.0033567789942026,0.3693704009056091,0.9292693734169006,0.0145300640700788,0.0168080745019728,0.0379685837921649,-1.1560015678405762,-0.5027964115142822,1.057729721069336,73,91,14628,14460
18.1,1788524359123,4.478873252868652,5.633802890777588,-0.0022525792010128,-6.680825026705861e-05,0.3945201933383941,0.9188844561576844,0.160729393058074,-0.0045318052303088,0.0003422750305275,0.0046551520936191,-0.1418804377317428,0.036845538765192,-0.0015610000118613,-0.0013574296608567,0.3752368092536926,0.9269267320632936,0.0048758373399081,-0.0305210457142242,0.1779742063707086,-0.0851054191589355,0.0771727561950683,0.7720413208007812,79,99,13592,15770
18.2,1788524359223,4.873239517211914,4.901408672332764,-0.0009834597585722,-0.0018045604228973,0.402084082365036,0.9156004786491394,0.1709063484685504,0.0004275231718043,4.716192898469269e-05,0.0221280120313167,-0.0391815491020679,0.1725436449050903,-0.0014795390889048,-0.0023685321211814,0.3788589239120483,0.9254502654075624,-0.041478280512955,0.0005554059047008,-0.019448930378678,0.3844383955001831,-0.5104441046714783,-0.1057214736938476,97,151,14713,14922
18.3,1788524359323,5.154929637908936,5.042253494262695,-0.0020743149798363,-0.0018400875851511,0.4038038253784179,0.9148414134979248,0.1611580473672962,-0.0019443848422066,-0.0001072843087215,-0.0169560145586729,0.0281194485723972,0.0211982764303684,-0.0025232238695025,-0.0017236014828085,0.3801139295101166,0.9249346256256104,-0.0215656069216892,0.009913165635796,0.0366675579105774,0.1516763567924499,0.1870146989822387,0.0395441055297851,95,132,15323,14043
18.4,1788524359423,4.901408672332764,4.957746505737305,-0.0028008150402456,-0.0019502243958413,0.4045127928256988,0.9145259261131288,0.1649535284849529,-0.0038403004930016,3.744781870526433e-07,-0.0132860681042075,0.0039283204823732,0.0005090275080874,-0.0030807657167315,-0.0019916901364922,0.3799276649951935,0.9250088930130004,-0.0044522377345269,0.0012747839036453,0.0050314573578277,0.0660830736160278,0.1051796078681945,0.115692138671875,91,124,13805,13835
18.5,1788524359523,4.676056385040283,5.126760482788086,-0.0028277880046516,-0.0025777937844395,0.4044399857521057,0.9145565629005432,0.1683058179759073,0.0012369134441825,5.816416519090949e-06,-0.0035460572689771,-0.0209296271204948,0.0079200863838195,-0.003233429044485,-0.0026063295081257,0.3812342286109924,0.924469232559204,-0.019121861968008,0.0234357418357682,0.0432110907135329,-0.1256625652313232,-0.0370408296585083,0.1890668869018554,124,127,14638,15011
18.6,1788524359623,4.929577350616455,4.985915660858154,-0.0034762504510581,-0.0026786511298269,0.406889408826828,0.9134668707847596,0.1683774122412596,0.0028663467325053,-3.279983614395131e-05,-0.0125051485374569,0.0080305440351367,0.0542401522397995,-0.0031079249456524,-0.003534760326147,0.3826357722282409,0.9238873720169068,-0.0009233212167722,-0.053642931965946,0.0006240594125215,0.1394479274749755,-0.0575988888740539,0.9701967239379884,103,98,15201,14145
18.7,1788524359723,4.901408672332764,5.070422649383545,-0.003372959094122,-0.0034656748175621,0.4066590070724487,0.9135672450065612,0.1643996125157716,0.0016610008844025,1.2235394531338064e-05,-0.0053322757594287,-0.0100021660327911,-0.0109646171331405,-0.0037831906229257,-0.0036026211455464,0.3821399807929992,0.9240897297859192,0.0020482176027307,-0.0165739692846518,0.0125989866255904,0.1651802659034729,-0.11452317237854,-0.6106901168823242,110,101,14044,14011
18.8,1788524359823,5.014084339141846,5.042253494262695,-0.0037772534415125,-0.0039117913693189,0.4066434204578399,0.913570761680603,0.1628911447196696,-0.0009023922197025,6.106235338182738e-08,-0.0083798132836818,-0.0009112120023928,0.0091365855187177,-0.0038290843367576,-0.0035065645352005,0.3827783465385437,0.9238256812095642,0.0024869645064936,0.0332419016966464,0.0163515327649665,-0.2240066528320312,0.1420148611068725,-0.0400238037109375,82,102,14612,14148
18.9,1788524359923,4.929577350616455,5.211267471313477,-0.0034925295040011,-0.0040611117146909,0.4072291553020477,0.9133103489875792,0.1668971926750154,-0.0005391729288908,3.2781013663259004e-05,6.563541683135554e-05,-0.0157462023198604,0.0056485049426555,-0.0039574699476361,-0.0038462067022919,0.3823173344135284,0.924014687538147,-0.0153894921455283,0.0049250811691997,-0.0256858453879142,0.0449551939964294,-0.2339269518852234,-0.545745849609375,88,149,13802,15187
19.0,1788524360023,4.957746505737305,5.070422649383545,-0.0045223962515592,-0.0045453440397977,0.4072628617286682,0.9132884740829468,0.1661334261481938,-0.0003847382784715,8.786427721221547e-07,-0.044895976781845,-0.0083805350586771,0.0103702917695045,-0.0034585054963827,-0.0026060435920953,0.3862931132316589,0.92236590385437,0.027214962383778,0.0026825833367547,0.0858055645544379,0.6551826000213623,-0.0692777037620544,0.0705022811889648,192,64,15982,13533
19.1,1788524360123,5.183098793029785,5.126760482788086,-0.0034921371843665,-0.0022598141804337,0.4101310074329376,0.9120171666145324,0.1725543629234056,-0.0031004499094214,-0.0001100514565963,0.0106936860829591,0.0215345788747072,0.0014520719414576,-0.0035347566008567,-0.0016627022996544,0.3853064775466919,0.9227803349494934,0.0134031751917808,0.0073151451197339,-0.0154072585334235,-0.0647871494293212,0.1305141448974609,-0.1300563812255859,100,121,15237,14228
19.2,1788524360223,5.239436626434326,4.985915660858154,-0.0034388164058327,-0.0009791981428861,0.4096368551254272,0.9122416377067566,0.1648033287584865,-0.0019709491748577,-6.861133769219898e-05,0.0145871499553322,0.0275394339114427,-0.0002303008950548,-0.0036635631695389,-0.0005389628931879,0.3843713402748108,0.9231711626052856,-0.0016725845145859,0.0308070576606181,-0.0607858157632548,-0.1053767204284668,-0.1081801652908325,-0.4014005661010742,75,154,15693,14479
19.3,1788524360323,4.873239517211914,5.014084339141846,-0.0034612722229212,-0.0004330836818553,0.4085720479488373,0.912719428539276,0.1698543870131341,-0.0024322441465262,-5.888544794059945e-05,0.0107349026948213,0.0129724247381091,-0.0213548950850963,-0.0038067288696765,-0.0010159648954868,0.382579356431961,0.9239141941070556,-0.0185858639896058,-0.0511951055308141,-0.039486308297981,0.0516138076782226,-0.0686888694763183,-0.2240419387817382,67,129,14664,14406
19.4,1788524360423,4.929577350616455,5.239436626434326,-0.0038443282246589,-0.0005451008328236,0.4069615006446838,0.9134370684623718,0.1645658859603534,-0.0006191895050677,4.60768863525452e-05,0.0027515010442584,0.0140185607597231,-0.0170519389212131,-0.0036372020840644,-0.0013581989333033,0.3826757073402405,0.9238746166229248,0.0007618140482015,0.0249170891962563,0.0101957401457764,-0.4069297909736633,0.1631340384483337,-1.234846115112305,60,122,14376,14285
19.5,1788524360523,5.183098793029785,4.788732528686523,-0.0034749305341392,-0.0025324840098619,0.4078399837017059,0.9130433201789856,0.1627512418586899,0.0056835359513416,0.0001961953795552,-0.0131600461900234,-0.0412665605545043,0.0396496839821338,-0.0032415585592389,-0.0022486401721835,0.3826562166213989,0.9238824844360352,0.0092275673311682,0.0280823203247138,-0.0688354287400652,-0.0393555164337158,-0.1228699088096618,-0.2188138961791992,110,129,15274,13584
19.6,1788524360623,5.323943614959717,4.8450703620910645,-0.0031749627087265,-0.002471046289429,0.4059996902942657,0.9138643741607666,0.1659544057364667,-0.0043475909557075,1.993227522497508e-05,0.0027673814911395,-0.0024793690536171,-0.071095086634159,-0.0032991245388984,-0.002041489817202,0.3799535632133484,0.9249973893165588,-0.009211689402282,0.0140514267917185,-0.0418990771157253,0.048698604106903,0.2925290465354919,0.1420583724975586,93,114,15100,14168
19.7,1788524360723,5.521126747131348,4.591549396514893,-0.0031920187175273,-0.0019803438335657,0.4038802683353424,0.9148041605949402,0.1706886080989703,0.0013351974066101,-5.476454233164843e-05,-0.0013220383552834,0.0132730947807431,-0.0463720560073852,-0.0030598044395446,-0.001295250840485,0.3755311071872711,0.9268038868904114,0.01971072979195,0.0356380418584611,-0.1843025391687163,-0.2970359325408935,-0.451646089553833,0.0933504104614257,95,74,17028,12166
19.8,1788524360823,5.7183098793029785,4.535211086273193,-0.0031555164605379,-0.0009074440458789,0.3966327905654907,0.9179714918136596,0.1571142827290084,-0.0049407742908597,1.3578761212269504e-05,0.0056194150820374,0.0249899514019489,-0.1768438667058944,-0.0048554418608546,0.0014076111838221,0.364494264125824,0.931191861629486,0.001050967908263,0.0651783427950213,-0.1678915104561981,0.557672381401062,-0.0047060251235961,-2.53356409072876,108,135,16001,13226
19.9,1788524360923,5.521126747131348,4.591549396514893,-0.004998754709959,-0.0001960694789886,0.3870291113853454,0.9220539331436156,0.1586090798595218,-0.0005088353310651,0.0001465476822293,-0.0256947558373212,-0.0504854768514633,-0.1391240954399109,-0.0054511604830622,0.0002824747934937,0.3590331971645355,0.9333088397979736,0.0028845258234881,-0.003428404337717,-0.1257755274909437,-0.2789984941482544,-0.1267194151878357,2.443221092224121,91,120,15944,12858
20.0,1788524361023,5.408450603485107,4.591549396514893,-0.0057746320962905,0.0001560868695378,0.380850076675415,0.9246187806129456,0.1653908328999074,-0.0061309798141459,-2.561151772415964e-05,-0.0124390637502074,0.007933696731925,-0.1474784314632415,-0.0056281154975295,0.0007875226438045,0.3526324033737182,0.9357447028160096,0.0160915682857177,0.0281602182439852,-0.1464871086898873,-0.1691663265228271,0.0593129396438598,-0.4879617691040039,101,94,16336,12795
20.1,1788524361123,5.830986022949219,4.197183132171631,-0.0054529719054698,0.0004310610238462,0.3743508160114288,0.927271008491516,0.1673529824712363,0.0007750442267336,-1.711089498675222e-06,0.0065174368210136,-0.006157137453556,-0.1508635431528091,-0.0050198631361126,0.0006397934630513,0.3466277420520782,0.937989056110382,0.0197669034949817,-0.0095458127083762,-0.1328204329179133,0.2297035455703735,-0.0398239493370056,-0.5599555969238281,132,41,17557,11327
20.2,1788524361223,5.97183084487915,4.2253522872924805,-0.0040922802872955,0.0002039363607764,0.3642363548278808,0.9312975406646729,0.1624075012400387,-0.0062806273021669,1.958576640334625e-05,0.0240588914602994,-0.0185936130583286,-0.2433726191520691,-0.0034492136910557,-0.0003302106633782,0.3318943977355957,0.9433102607727052,-0.0245041041098694,-0.0025895228709541,-0.3065515524850427,-0.174229621887207,0.250809907913208,0.1833791732788086,110,107,17337,12090
20.3,1788524361323,5.77464771270752,4.2816901206970215,-0.0045345872640609,-0.0004163952544331,0.3496169745922088,0.9368816614151,0.1515252174534476,-0.0013517835549735,-0.000109846077477,-0.0465345010161399,0.0207899846136569,-0.3464304804801941,-0.0045689037069678,0.0001050969585776,0.3193506598472595,0.9476255774497986,0.0109716242764769,0.0009822606540016,-0.2456492909190416,-0.2271586060523986,0.293413758277893,0.300079345703125,107,105,18201,11577
20.4,1788524361423,5.97183084487915,4.253520965576172,-0.004740247502923,0.0001700905850157,0.338071346282959,0.9411085247993468,0.1606385249181394,-0.0033928723151596,-2.532161230420417e-05,-0.0025361464358866,0.009663195349276,-0.267176479101181,-0.0047232378274202,0.0002963813021779,0.3082086741924286,0.9513070583343506,-0.0048574391220967,-0.0173566745838834,-0.2773828079718997,0.0932890772819519,0.2203423976898193,0.7666635513305664,110,103,17377,11928
20.5,1788524361523,5.88732385635376,4.2253522872924805,-0.0046240617521107,0.000236153951846,0.3270971477031708,0.9449793696403505,0.1598172608155701,-0.0040177777831321,-6.235758608486541e-05,0.0041016596369445,0.0052907494828104,-0.2438864707946777,-0.0041553564369678,0.0003546299412846,0.2943776547908783,0.9556800723075868,0.0104829792432096,-0.0434239974367477,-0.237640282050031,0.4144308567047119,-0.3748869299888611,-0.3618402481079101,110,78,17390,11474
20.6,1788524361623,5.408450603485107,4.676056385040283,-0.0042104562744498,0.0004036878235638,0.3157449066638946,0.9488347172737122,0.1604384635074882,-0.0051641680831699,-4.677569986124734e-05,0.0055449423380196,0.0029105860739946,-0.2409056276082992,-0.004188192076981,0.0003105271607637,0.2864185571670532,0.9580954313278198,0.003705810690958,0.0165687230670993,-0.0989050029781146,-0.2638640999794006,0.2000004053115844,-0.9832677841186525,87,72,15906,12509
20.7,1788524361723,5.802816867828369,4.2816901206970215,-0.0048262909986078,-0.0009661390213295,0.3043443858623504,0.9525493383407592,0.1646963234820969,-0.0052032423807176,0.0001162825789351,-0.0251769535243511,-0.022349327802658,-0.1725329458713531,-0.004940140992403,-0.0013800505548715,0.2771444022655487,0.960814654827118,-0.0344269175727239,-0.0194415126877267,-0.2266288636882243,0.0174396038055419,-0.1132776141166687,0.6849946975708008,121,119,17558,11732
20.8,1788524361823,5.830986022949219,4.14084529876709,-0.0047326027415692,-0.000772526662331,0.2986641228199005,0.954346239566803,0.1607985373811276,-0.0007006629553858,7.602164645799164e-05,0.0065980567596852,0.0080676395446062,-0.2596801519393921,-0.0045549254864454,-0.0010740859434008,0.2658769190311432,0.963995635509491,-0.0015746481366375,0.0306507688907579,-0.2533938028323366,-0.1862547993659973,-0.1164454221725463,0.6406183242797852,89,98,17199,11740
20.9,1788524361923,5.97183084487915,4.169013977050781,-0.0044758478179574,-0.0013736481778323,0.2869823575019836,0.9579244256019592,0.1589424720812499,-0.0019167356709047,-3.8035636260008646e-05,0.0010271172504872,0.0078616663813591,-0.2658511996269226,-0.0044334679841995,-0.0014191512018442,0.2544557452201843,0.9670732617378236,-0.001864850408966,-0.0221545822043775,-0.2663245608075762,0.0148782134056091,0.0681053400039672,-0.1345758438110351,73,114,17284,11799
21.0,1788524362023,5.295774459838867,4.929577350616455,-0.0045539746060967,-0.0015956838615238,0.2743377685546875,0.9616212248802184,0.163881111293254,-0.0011130416072317,1.848368795684168e-05,-0.0070914374664425,-0.0013152110623195,-0.2687318325042724,-0.004618807695806,-0.0019535347819328,0.2451832592487335,0.9694637656211852,-0.0057321163439861,-0.0215232256252475,-0.02113435458809,0.2488847374916076,-0.2496445775032043,0.1879615783691406,137,56,15722,13308
21.1,1788524362123,5.098591327667236,4.901408672332764,-0.0042857155203819,-0.0018401166889816,0.2683728635311126,0.9633038640022278,0.164999853957438,-0.0055738275242597,-7.322746962488765e-05,0.0151842068880796,-0.0046884487383067,-0.0171828474849462,-0.0042693875730037,-0.0018179500475525,0.2427412420511245,0.9700799584388732,-0.002949690969197,-0.0268507889044336,0.0055511852978723,0.3172909617424011,0.5304638743400574,-0.930537223815918,118,92,16407,13668
21.2,1788524362223,5.464788913726807,4.478873252868652,-0.003818231401965,-0.0014293815474957,0.2679662704467773,0.9634196758270264,0.1686448529141972,0.0029062923694364,-2.0826317335362123e-05,0.0247992742806673,0.0120457466691732,-0.0186725221574306,-0.0041014738380908,-0.0009935060515999,0.2406148612499237,0.9706115126609802,0.0102099921397568,0.0469060535840261,-0.0910225978330254,0.2022805213928222,-0.1862009167671203,-1.1734943389892578,121,89,17008,12692
21.3,1788524362323,5.549295902252197,4.507042407989502,-0.0041471887379884,-0.0010021170601248,0.2630731165409088,0.9647664427757264,0.1678250834145166,-0.0007886160998074,-1.038077552368129e-05,-0.0004481092037167,0.0107340384274721,-0.1417972147464752,-0.0041911993175745,-0.0005600238218903,0.2315698117017746,0.972809076309204,-0.0107802233363508,0.0450802470373541,-0.1780436748960894,-0.2542164921760559,-0.0047995448112487,-0.7007732391357422,129,105,16426,12930
21.4,1788524362423,5.408450603485107,4.450704097747803,-0.0041248183697462,-0.001176654943265,0.2547402679920196,0.9670000672340392,0.1585827823734237,-0.0020087800636633,-2.591968159511058e-05,-0.0070208739489316,-0.0035772684495896,-0.155982494354248,-0.0044326717033982,0.0007167290896177,0.2247694432735443,0.974401593208313,0.0137673012885088,0.0992561428844576,-0.159235370299405,0.7492144703865051,-0.222017228603363,-0.3444051742553711,100,122,16480,13084
21.5,1788524362523,6.11267614364624,4.02816915512085,-0.0046664890833199,0.0019134584581479,0.2407715022563934,0.9705686569213868,0.1603696570780049,-0.0097863665294545,0.0003454502110154,-0.0060653993859887,-0.0516379326581954,-0.2708457410335541,-0.0046334825456142,0.0019344994798302,0.2157679796218872,0.9764317870140076,0.0016325241034399,-0.0107705447729804,-0.2793039331173406,-0.3325394988059997,0.1387885808944702,0.0522422790527343,105,73,17376,11575
21.6,1788524362623,5.802816867828369,4.11267614364624,-0.0046668034046888,0.0010270768543705,0.2335185706615448,0.9723405838012696,0.1539408989007417,-0.0066897589276676,0.0001330258229875,-0.0075106476433575,-0.0325309000909328,-0.292870283126831,-0.0043843425810337,0.0005825068801641,0.1989826709032058,0.9799929857254028,-0.0101153983105111,-0.0178167973953419,-0.2917384055532631,-0.2962309122085571,0.0497153997421264,0.6607751846313477,106,88,17363,11529
21.7,1788524362723,6.02816915512085,4.056337833404541,-0.0045013348571956,0.0005347869591787,0.2215199321508407,0.9751453399658204,0.1668658012985824,-0.0023143417929236,4.461545974541302e-05,-0.0060319970361888,-0.005697117652744,-0.2847582697868347,-0.0049504162743687,0.000787285156548,0.1872452497482299,0.9823004603385924,-0.0085146266915734,0.0115597056586822,-0.2444384265142323,0.0446192026138305,-0.148978590965271,-0.2384834289550781,83,105,16434,12032
21.8,1788524362823,6.084506988525391,4.084506988525391,-0.0049834405072033,0.0013855198631063,0.2080814987421035,0.9780978560447692,0.1617447995452036,-0.0058966887577445,-6.256305064463202e-05,0.0025795805267989,0.0257767457515001,-0.233335256576538,-0.0051301745697855,0.0021572867408394,0.1753130704164505,0.9844969511032104,0.0007722064090079,0.0458449030709928,-0.2868957642160809,-0.3465387225151062,-0.0127447247505187,-1.0804777145385742,94,91,17208,11881
21.9,1788524362923,5.915493011474609,4.169013977050781,-0.0052483580075204,0.002047105692327,0.1897457838058471,0.981817066669464,0.1602909596139419,-0.0045659462692278,3.049084870220637e-05,-0.0027893034275621,-0.0017684501362964,-0.2469666600227356,-0.0052370484918355,0.0020512705668807,0.164394661784172,0.9863786697387696,-0.0046737989939781,-0.0160063012222576,-0.2454746861010747,0.1564668416976928,-0.1697028279304504,-0.0422115325927734,103,102,17192,11825
22.0,1788524363023,5.690140724182129,4.563380241394043,-0.005016176495701,0.0024451552890241,0.1836257725954055,0.9829803109169006,0.1661209008729956,-0.0019750897897136,1.445567900978741e-05,0.0129295457154512,0.0151120442897081,-0.2499399483203888,-0.0047625536099076,0.00238021556288,0.1522672772407531,0.98832505941391,0.0029987804637188,-0.018866350627159,-0.2414536221858311,0.1517979502677917,0.0315715074539184,-0.1288461685180664,69,148,15870,14145
22.1,1788524363123,5.492957592010498,4.647887229919434,-0.0044279769062995,0.0020752376876771,0.1760554015636444,0.984368085861206,0.1685575431812809,-0.0051700072770487,-1.7780495972035362e-05,0.0145538933575153,-0.0083537185564637,-0.1156482994556427,-0.0022739861160516,0.0002416726201772,0.1485394239425659,0.9889038801193236,0.0586413493163732,-0.1034719165537481,-0.0332434581829951,0.0964956283569336,0.0918529033660888,0.9311237335205078,109,47,16460,12030
22.2,1788524363223,5.549295902252197,4.676056385040283,-0.0055038258433341,-0.0022014272399246,0.1675877571105957,0.985839307308197,0.164389917030102,0.0007184970978412,8.447920884375e-05,-0.1127465218305587,-0.0807889029383659,-0.2487213611602783,-0.0052780909463763,-0.0003697704523801,0.1371287405490875,0.9905391335487366,0.040066285073973,0.1267286229743636,-0.2413720786453587,-0.3841205239295959,0.1031059026718139,2.503636360168457,145,133,16568,13391
22.3,1788524363323,5.154929637908936,5.070422649383545,-0.0055141965858638,9.172013960778712e-06,0.1594074517488479,0.9871974587440492,0.1688815919133182,-0.0007402141786151,-5.868957966256732e-07,0.0,0.0,0.0,-0.0052805067971348,0.0006275307387113,0.1331285536289215,0.9910845160484314,0.016036294461032,-0.0069160485160438,0.0142998495131555,0.23373544216156,0.2950109839439392,-0.35272216796875,105,81,15311,13622
22.4,1788524363423,5.436619758605957,4.873239517211914,-0.0053992914035916,0.0004603275447152,0.1591455787420272,0.9872403144836426,0.1662968575730057,-0.0025764894637123,-6.30161804196828e-05,0.008067057467997,0.0186259113252162,-0.0114255947992205,-0.0052394047379493,0.0005675060674548,0.1304880678653717,0.9914358258247375,0.0030165578461577,-0.0088241562457001,-0.0738270502934031,-0.2416642904281616,0.1719892024993896,0.1986074447631836,110,129,15829,13650
22.5,1788524363523,5.014084339141846,4.873239517211914,-0.0051416321657598,0.0001324304612353,0.1557580530643463,0.9877818822860718,0.1648721063249467,-0.0042433732067696,6.833099802061596e-05,0.003742934204638,-0.0176705755293369,-0.0570513494312763,-0.0050247181206941,-0.0001756260171532,0.1284676492214203,0.9917009472846984,0.0075148707247422,-0.0134436257760609,-0.0395012641298401,0.0450711250305175,-0.0351473093032836,0.4701204299926758,90,86,14143,13935
22.6,1788524363623,5.239436626434326,4.788732528686523,-0.0047293850220739,-0.0003824055020231,0.1542561203241348,0.9880194664001464,0.1617651225082512,0.0011622039242674,2.486422218608517e-05,0.0124855618923902,-0.0078619746491312,-0.0332110300660133,-0.0046476991847157,0.000522194430232,0.1250398904085159,0.9921407103538512,0.0092872960626107,0.0310681369735882,-0.073681614002995,-0.153299868106842,-0.0480374097824096,0.2568273544311523,107,133,15272,13964
22.7,1788524363723,5.126760482788086,4.873239517211914,-0.0048882002010941,0.0002965660532936,0.1486565768718719,0.9888767600059508,0.1671228016909073,-0.0015128729842514,-4.7804147364377935e-05,-0.0015692281303927,0.0020564184524118,-0.0559659227728843,-0.0048855394124984,0.0003939401358366,0.1222603395581245,0.9924859404563904,-0.0057094620444578,-0.0178301908542224,-0.0499339019792752,-0.2255021929740905,0.0241930484771728,1.1621990203857422,115,131,15589,14067
22.8,1788524363823,5.605633735656738,4.816901206970215,-0.0048483880236744,-7.776485290378332e-05,0.147646427154541,0.98902827501297,0.1682126004925249,-0.0036995724851613,-7.850279573400004e-05,-0.0006094205891713,-0.0148458303883671,-0.040924746543169,-0.0049618240445852,0.0007058894261717,0.1197982430458068,0.9927855730056764,0.0030095112889528,0.0439758070892063,-0.0714513272001455,-0.3858688473701477,0.0023616552352905,-0.4626607894897461,78,102,14996,13669
22.9,1788524363923,5.014084339141846,5.154929637908936,-0.0051863496191799,0.0001674317172728,0.1453214436769485,0.9893708825111388,0.1696528803773761,-4.855105963209159e-05,8.103311398756413e-05,-0.0085178548470139,-0.0081623764708638,-0.0379960983991622,-0.0049109449610114,0.000542402267456,0.1194343641400337,0.9928297996520996,0.0089354186483539,0.0315799189637972,0.0267175192883788,-0.217041015625,-0.1127408146858215,0.4895038604736328,112,119,14980,14254
23.0,1788524364023,5.239436626434326,4.873239517211914,-0.0049578761681914,0.000380034209229,0.1456785053014755,0.9893195033073424,0.1687258953592306,-0.0029798399753013,-9.796524684671095e-07,0.0,0.0,0.0,-0.0047051701694726,0.000361162237823,0.1180013343691825,0.9930022358894348,-0.010130091985878,-0.007121597954435,-0.0647651171592947,0.2315584421157837,-0.0439681410789489,0.1675539016723632,92,109,15157,13734
23.1,1788524364123,5.126760482788086,4.816901206970215,-0.0044067045673727,0.0016290405765175,0.1423759758472442,0.9898015260696412,0.1545695877200074,0.0054424234183149,-0.00030720911517,0.017264187335968,0.0260958801954984,-0.0458059087395668,-0.0045599276199936,0.002330164425075,0.1161055341362953,0.9932237267494202,0.021457552007289,0.0438249180256301,-0.0255787821862024,1.1250157356262207,-0.1909429430961609,-4.00853967666626,115,133,15113,13735
23.2,1788524364223,5.267605781555176,4.901408672332764,-0.0043646111153066,0.0004922644584439,0.1412053406238556,0.9899706244468688,0.1685402936703126,-0.0038917199531854,0.0002697651910748,-0.0047024833038449,-0.0450628623366355,-0.0475196540355682,-0.0045512458309531,0.0007852558046579,0.113112099468708,0.9935715198516846,-0.0085307307815672,0.0023063316499228,-0.0614595845848781,-0.0529176592826843,0.0646050572395324,0.3333492279052734,81,94,15167,13583
23.3,1788524364323,5.211267471313477,4.929577350616455,-0.0045333593152463,0.0001975069753825,0.138927087187767,0.990292191505432,0.1724855635197794,0.0005244587357934,2.640622343734308e-05,-0.0048903888091444,-0.0174949020147323,-0.0489749461412429,-0.0044770073145627,6.582122296094894e-05,0.1108592227101326,0.9938260912895204,0.0102054482079798,-0.0161609865821451,-0.0412771415413761,0.0198436975479125,0.1644863486289978,0.7276496887207031,123,114,15650,13722
23.4,1788524364423,5.267605781555176,4.873239517211914,-0.0041344738565385,-0.000370779656805,0.1365628838539123,0.9906226992607116,0.1682769194593024,-0.0015852500705571,-8.626567883567009e-05,0.0151978665962815,-0.0061830575577914,-0.0358114205300807,-0.0036821039393544,-0.0001140292733907,0.1090049594640731,0.9940344095230104,0.0193004170171268,0.0043660912500269,-0.0488420965955529,0.1323422193527221,-0.1467865705490112,0.2577037811279297,127,115,15699,14253
23.5,1788524364523,5.126760482788086,4.957746505737305,-0.0033061353024095,0.0006791457999497,0.1335761398077011,0.9910328388214112,0.173759454505941,-0.0022334090289122,-4.722694070964254e-05,0.0111032230779528,0.0131947854533791,-0.0206309016793966,-0.0030945725739002,0.0002698265016078,0.107030764222145,0.9942508339881896,0.0055364763644169,-0.0386721043035682,-0.0070647669532778,0.098173439502716,-0.0559583306312561,-0.4889144897460937,91,110,14557,14041
23.6,1788524364623,5.436619758605957,4.901408672332764,-0.0032056167256087,0.0004695045063272,0.1334826946258545,0.9910458922386168,0.1698920451980586,-0.0019569372759957,5.999276324307241e-05,0.0028680935502052,-0.0088332602754235,-0.0037982247304171,-0.0030147368088364,-0.0001091752201318,0.1029584184288978,0.994681179523468,0.0047318998131327,-0.0298361261127782,-0.1807865308660725,-0.3663190603256225,0.3425475358963012,0.2009153366088867,52,117,14696,13805
23.7,1788524364723,5.239436626434326,4.816901206970215,-0.0031106516253203,-0.0007178783416748,0.1280225217342376,0.991766095161438,0.1675576348874506,-0.0038576421153212,0.0001072493358439,-0.0057342653162777,-0.027567246928811,-0.0899645909667015,-0.0035971160978078,-0.0018026605248451,0.0999478474259376,0.99498450756073,-0.0155787653733804,-0.0298017149680787,-0.054566858532437,-0.1033328175544738,-0.285516619682312,0.4173917770385742,72,99,15496,13801
23.8,1788524364823,5.239436626434326,4.929577350616455,-0.0031448346562683,-0.0018037790432572,0.1261048763990402,0.9920102953910828,0.1659051676709831,-0.0011313583126295,6.089815533400164e-05,0.0130754718557,0.0005297595635056,-0.0086350813508033,-0.0018216874450445,-0.0013685589656233,0.0999881699681282,0.9949859976768494,0.0752425877695835,0.0151150914044542,0.0182820743760917,0.0921387672424316,-0.0762699246406555,0.100320816040039,127,61,15963,13149
23.9,1788524364923,5.183098793029785,4.873239517211914,-0.0019548975396901,-0.0009206497925333,0.1218434050679206,0.9925469756126404,0.1594117747446246,-0.0046176010030477,-7.745878353266952e-05,-0.0090308282524347,0.0129844825714826,-0.0749049708247184,-0.0019911034032702,-0.000877465121448,0.0953970849514007,0.99543696641922,-0.009151070080332,-0.0082680007395209,-0.0444957089698988,-0.3569523692131042,-0.0918034315109252,0.8410758972167969,99,124,15385,13848
24.0,1788524365023,5.352112770080566,4.8450703620910645,-0.0018742649117484,5.165743641555309e-05,0.1205953285098075,0.992699921131134,0.1656001251198917,-0.0014130214397745,-4.3587584893341525e-05,0.0079062301665544,0.0383136235177516,-0.0502244234085083,-0.0016109701246023,-0.000848239287734,0.0930123180150985,0.9956633448600768,0.0132832413144273,-0.0314928170725471,-0.053628873925118,0.6038232445716858,-0.1248455643653869,-1.8961782455444336,112,118,15431,13794
24.1,1788524365123,5.211267471313477,4.873239517211914,-0.0016937390901148,-0.0014221749734133,0.1179781258106231,0.9930136799812316,0.1693656609055658,0.000673393235464,3.608039607834319e-05,-0.0046283723786473,-0.0244626384228467,-0.0600660406053066,-0.0019076243042945,-0.0007341289892792,0.0901593118906021,0.99592524766922,0.0047348182323488,-0.0248553661721355,-0.0376870180537841,0.5593904256820679,-0.1833154559135437,-1.2251262664794922,97,109,15378,14045
24.2,1788524365223,4.985915660858154,4.929577350616455,-0.0023302659392356,-7.283585728146136e-05,0.1156667023897171,0.993285357952118,0.1660184996660176,-0.0014517663313026,-0.0001942102767171,-0.0149182649329304,0.0307819750159978,-0.044773943722248,-0.0025518331676721,0.0002794731408357,0.0880989804863929,0.9961084127426147,-0.0232705487123728,0.0845487585825756,-0.0419974780978072,0.0288349986076354,0.1231820583343505,-0.622746467590332,84,112,14993,13821
24.3,1788524365323,5.098591327667236,4.873239517211914,-0.0022942763753235,-0.0004208883619867,0.1136164665222168,0.9935219883918762,0.170184835408628,-0.0045935920750226,0.0001232327888874,0.006365843117237,-0.0219514463096857,-0.0296273753046989,-0.0026157097890973,-0.0003326022997498,0.0856470838189125,0.9963220953941344,-0.0014565946509989,0.0452946497329183,-0.0268782171289199,-0.0485631823539733,0.1249075531959533,-0.7955646514892578,120,122,15495,14294
24.4,1788524365423,5.267605781555176,4.901408672332764,-0.0025308253243565,-0.0002319688937859,0.1113841608166694,0.9937741756439208,0.1692193827842506,-0.00028829362276,7.454558717383515e-05,0.0002891842159442,0.0060803331434726,-0.0329738184809684,-0.002533720806241,-0.0003565838560461,0.0839675962924957,0.9964652061462402,-0.0046570348549822,-0.0202442766803013,-0.0486887940514774,0.0299844741821289,-0.2171215415000915,-0.5481033325195312,81,87,15028,13948
24.5,1788524365523,5.211267471313477,4.901408672332764,-0.0026011352892965,-0.0005230207461863,0.109570674598217,0.9939754605293274,0.1666651733288996,-0.002638484225741,-8.81461997993966e-05,-0.0048596365377306,-0.0011872416362166,-0.0438686273992061,-0.0030257487669587,-0.0005435794591903,0.0818784311413765,0.9966376423835754,-0.0190654605420331,-0.0072931240201504,-0.0518448238805397,0.0336971879005432,0.0150327682495117,0.5747613906860352,84,122,15034,13827
24.6,1788524365623,5.211267471313477,4.929577350616455,-0.0031857569701969,-0.0004767689970321,0.1069257706403732,0.9942618012428284,0.1668941565336347,-0.0023569931120315,-3.2576619535176735e-05,-0.0056535913608968,0.0054405708797276,-0.0464549995958805,-0.0032357051968574,-3.1313858926296234e-05,0.0789364501833915,0.996874451637268,0.010006893604649,0.0143919610759386,-0.0435699976182313,-0.2123722434043884,-0.2421391606330871,0.619786262512207,104,132,15585,14441
24.7,1788524365723,5.267605781555176,4.873239517211914,-0.0030206416267901,-0.0002550173667259,0.1049458682537078,0.9944733381271362,0.170731325867429,-0.000384437851861,1.0729159517012485e-07,0.0100978286936879,-0.0007951189763844,-0.0268258713185787,-0.0030308477580547,-0.0002794954925775,0.076887309551239,0.9970351457595824,0.0034107443570188,-0.0046061099427887,-0.0643773125756096,0.193041980266571,0.000831663608551,-0.3569784164428711,100,118,15708,14027
24.8,1788524365823,5.126760482788086,5.070422649383545,-0.0031504069920629,0.0001544436672702,0.1018199399113655,0.9947977662086488,0.1674406317605875,-0.0037890965876913,2.057914532629431e-06,-0.002939186990261,0.0210538711398839,-0.0618015863001346,-0.0030245035886764,0.0021095592528581,0.0744132846593856,0.9972207546234132,0.0127593409225935,0.0831518816854284,-0.0353672754209796,0.8717420697212219,-0.0285191535949707,-5.016075134277344,74,112,14526,14132
24.9,1788524365923,5.154929637908936,5.154929637908936,-0.0030065001919865,-0.0008266962831839,0.10085941106081,0.9948958158493042,0.1709350886165284,6.689308999280115e-05,0.0003110452841027,-0.0076236887834966,-0.1178184375166893,-0.003954648040235,-0.0031875558197498,-0.0001757759600877,0.075526587665081,0.9971386790275574,0.0102792631627237,-0.065735071148533,0.0341172951359519,0.7308034300804138,-0.0832134485244751,-2.2401156425476074,75,80,14930,13987
25.0,1788524366023,5.042253494262695,5.070422649383545,-0.0032727220095694,0.0001972739119082,0.1019928827881813,0.9947797060012816,0.1668389443051626,-0.0035270461110695,3.493319593568401e-05,-0.0004647791793104,-0.0016141891246661,0.0368082597851753,-0.003189455717802,0.0008141361176967,0.0756992921233177,0.9971252679824828,-0.0150076906751599,0.0016579836312297,-0.0053059001703492,0.047146737575531,0.0648757219314575,-0.7509498596191406,94,149,14737,14418
25.1,1788524366123,5.154929637908936,5.126760482788086,-0.0030685423407703,0.0012482090387493,0.1024144664406776,0.9947362542152404,0.1685391360034501,0.0005414681573263,0.0001027396121974,0.0107363099232316,0.0017318262252956,0.004897600505501,-0.0031592529267072,0.0011950498446822,0.0758328735828399,0.997114896774292,0.0173141514209929,0.0346864258245946,0.0014460183969866,-0.0479618310928344,-0.0377670526504516,-0.343454360961914,87,87,14731,13835
25.2,1788524366223,5.295774459838867,4.929577350616455,-0.0033322945237159,0.0012241748627275,0.1023129597306251,0.9947459697723388,0.1625114245932507,-0.0006041548900648,0.0002160811713416,-0.0105864256620407,0.0001361470494884,-0.004094713833183,-0.0038691386580467,0.000756942667067,0.0749682113528251,0.9971781373023988,-0.0140804813164982,0.011578165071085,-0.0524162808474983,0.4279148578643799,-0.0325629115104675,-0.2671041488647461,101,100,16376,13783
25.3,1788524366323,5.154929637908936,4.816901206970215,-0.0039935205131769,0.0007312353118322,0.1003766283392906,0.994941234588623,0.1675409547087344,-0.0051926635093449,-0.0001103841543238,-0.0105158193036913,0.0187264718115329,-0.0645033344626426,-0.0043809814378619,0.0007759416475892,0.0718405246734619,0.997406244277954,-0.0045173043440452,0.0168371426461418,-0.0537168949282873,0.1874256730079651,0.0935620665550232,-2.7269420623779297,87,95,15293,13606
25.4,1788524366423,4.901408672332764,5.267605781555176,-0.0047039468772709,0.0009602898498997,0.0972251147031784,0.9952507615089417,0.1693735714297747,-0.0003815776332451,0.0001096626907423,-0.0185435712337493,0.0026844015810638,-0.0510190278291702,-0.0057759676128625,-8.0866739153862e-06,0.0716357976198196,0.9974141120910645,-0.0246321892789549,0.0119806480801731,0.0311809558536156,-0.9420942068099976,-0.2564204335212707,1.3446788787841797,54,112,13639,14694
25.5,1788524366523,4.929577350616455,5.323943614959717,-0.0048464210703969,0.000213785941014,0.1008341163396835,0.9948914051055908,0.1617228765231538,0.0008724440820391,-8.876388572708554e-05,0.0378018803894519,0.0254039838910102,0.1248168051242828,-0.0045870123431086,-0.0005042245611548,0.0756726190447807,0.997122049331665,0.0050664154607252,-0.0747492196003005,0.0377875839026183,-0.1748303174972534,-0.3332872986793518,0.6463718414306641,63,70,14403,14187
25.6,1788524366623,4.901408672332764,5.098591327667236,-0.0041958563961088,-0.0005534280790016,0.1039698868989944,0.9945714473724364,0.1617696750680851,-0.0075961952754059,2.022688995652738e-05,0.0152735393494367,0.0009944291086867,0.075171485543251,-0.0043941233307123,0.0002351915463805,0.0778612568974495,0.9969545006752014,0.0005851503856837,0.0262619848042241,0.0175123940918343,0.0686230063438415,-0.2885001897811889,0.4792051315307617,81,149,14695,15282
25.7,1788524366723,5.042253494262695,5.239436626434326,-0.0046070166863501,-0.0001607541926205,0.1059636920690536,0.9943593144416808,0.1677187663036664,-0.0026019199219341,-3.818488192943483e-05,-0.0056858770549297,-0.0060958918184041,0.0740693137049675,-0.0050044916570186,-0.0002275053411722,0.0813921242952346,0.996669590473175,-0.0144020985367009,-0.0452801852488081,0.047678466006474,0.3453972339630127,-0.2218625545501709,-0.5550012588500977,91,93,13879,14612
25.8,1788524366823,5.126760482788086,5.380281925201416,-0.0051685222424566,0.0005123154260218,0.1087323799729347,0.9940574169158936,0.1658044142612822,-0.0014303949589293,-0.0001157202897598,-0.0050773685798048,0.0581580623984336,0.061825405806303,-0.0053158076480031,0.0008001718670129,0.0838545933365821,0.9964635372161864,0.0084380219843474,0.0781376658201617,0.0566953291007108,-0.2552427053451538,0.1032447218894958,-1.4598159790039062,102,126,15292,14506
25.9,1788524366923,4.507042407989502,5.211267471313477,-0.0054789273999631,-0.0003458659921307,0.111846350133419,0.9937103390693665,0.170202209422191,0.0006881192631716,0.0001932592974169,-0.008397533558309,-0.0370609238743782,0.0784960016608238,-0.005371524952352,-0.0005219615995883,0.0888707116246223,0.9960286021232604,-0.0063756921044755,-0.0538067708777273,0.1937753238284767,0.3169770836830139,0.4516324400901794,-0.7353601455688477,116,85,15786,14399
26.0,1788524367023,4.985915660858154,5.239436626434326,-0.0055712591856718,-0.0004225835436955,0.1176400333642959,0.9930406212806702,0.1687538316373432,-0.0016204295887136,-0.0001325842947442,-0.004501886665821,0.00888008531183,0.0669374912977218,-0.0053552836179733,-7.396470755338669e-05,0.0921235531568527,0.9957332015037536,0.0150645294788207,-0.02000399426413,0.0435408323209188,0.2860613465309143,0.3681651353836059,1.7640762329101562,104,91,14310,14483
26.1,1788524367123,4.929577350616455,5.239436626434326,-0.0053121438249945,0.0001723393215797,0.1189618334174156,0.992884635925293,0.1685546021328846,0.0005846442212279,1.885090081303088e-05,0.0056165130808949,0.0077078016474843,0.0276707913726568,-0.0051614576950669,0.0004635080695152,0.0938740596175193,0.9955706000328064,0.0089929584447477,0.0303198559135368,0.0433325716541084,-0.4189862608909607,-0.1312026381492614,0.3319377899169922,72,90,14350,14424
26.2,1788524367223,5.042253494262695,4.985915660858154,-0.0049604391679167,0.0003607288235798,0.1214429959654808,0.9925858974456788,0.171806947343405,-0.0012681207247725,-5.954050745081891e-06,0.0081501342356204,0.0084202336147427,0.040648728609085,-0.0049711382016539,0.0006835423409938,0.094804972410202,0.9954832196235656,0.0231348991627549,0.0253794229207405,-0.0079281577186084,-0.2983009815216064,0.0121656060218811,0.0462551116943359,97,118,15001,14278
26.3,1788524367323,4.957746505737305,5.042253494262695,-0.0050222044810652,0.0003950104000978,0.1212308034300804,0.9926116466522216,0.1615900925962496,-0.0015005309848184,-1.3187029404165796e-05,0.0060459063388407,0.0023467000573873,0.0012529718223959,-0.0052907317876815,0.0002165380865335,0.0949996784329414,0.9954631924629213,-0.014617090725445,-0.0461306034681339,0.007867122726417,0.3552584052085876,0.0025994777679443,-0.1366806030273437,79,102,15051,14213
