time_s,timestamp_ms,wheel_vels__velocity_left,wheel_vels__velocity_right,odom__orient_x,odom__orient_y,odom__orient_z,odom__orient_w,odom__lin_x,odom__lin_y,odom__lin_z,odom__ang_x,odom__ang_y,odom__ang_z,imu__orient_x,imu__orient_y,imu__orient_z,imu__orient_w,imu__angvel_x,imu__angvel_y,imu__angvel_z,imu__acc_x,imu__acc_y,imu__acc_z,wheel_status__current_ma_left,wheel_status__current_ma_right,wheel_status__pwm_left,wheel_status__pwm_right
0.0,1788428487001,0.0,0.0,-0.0006719984812662,-0.0029122680425643,0.0581825263798236,0.9983014464378356,0.0,0.0,0.0,-1.7884476122276283e-09,1.9970997300333693e-08,-1.526141915064727e-07,7.92117789387703e-05,-0.0031733196228742,0.3840222954750061,0.9233184456825256,-8.020535505091497e-05,-6.656286755560402e-05,1.9208099396293087e-06,0.0008375644683837,0.0318965315818786,0.0103445053100585,0,0,0,0
0.1,1788428487101,0.0,0.0,-0.0006719984812662,-0.0029122680425643,0.0581825263798236,0.9983014464378356,0.0,0.0,0.0,-1.7884476122276283e-09,1.9970997300333693e-08,-1.526141915064727e-07,7.92117789387703e-05,-0.0031733196228742,0.3840222954750061,0.9233184456825256,-8.020535505091497e-05,-6.656286755560402e-05,1.9208099396293087e-06,0.0008375644683837,0.0318965315818786,0.0103445053100585,0,0,0,0
0.2,1788428487201,0.0,0.0,-0.0006719984812662,-0.0029122680425643,0.0581825263798236,0.9983014464378356,0.0,0.0,0.0,-1.7884476122276283e-09,1.9970997300333693e-08,-1.526141915064727e-07,7.92117789387703e-05,-0.0031733196228742,0.3840222954750061,0.9233184456825256,-8.020535505091497e-05,-6.656286755560402e-05,1.9208099396293087e-06,0.0008375644683837,0.0318965315818786,0.0103445053100585,0,0,0,0
0.3,1788428487301,0.0,0.0,-0.0006719984812662,-0.0029122680425643,0.0581825263798236,0.9983014464378356,0.0,0.0,0.0,-1.7884476122276283e-09,1.9970997300333693e-08,-1.526141915064727e-07,7.92117789387703e-05,-0.0031733196228742,0.3840222954750061,0.9233184456825256,-8.020535505091497e-05,-6.656286755560402e-05,1.9208099396293087e-06,0.0008375644683837,0.0318965315818786,0.0103445053100585,0,0,0,0
0.4,1788428487401,0.0,0.0,-0.0006719984812662,-0.0029122680425643,0.0581825263798236,0.9983014464378356,0.0,0.0,0.0,-1.7884476122276283e-09,1.9970997300333693e-08,-1.526141915064727e-07,7.92117789387703e-05,-0.0031733196228742,0.3840222954750061,0.9233184456825256,-8.020535505091497e-05,-6.656286755560402e-05,1.9208099396293087e-06,0.0008375644683837,0.0318965315818786,0.0103445053100585,0,0,0,0
0.5,1788428487501,0.0,0.0,-0.0006719984812662,-0.0029122680425643,0.0581825263798236,0.9983014464378356,0.0,0.0,0.0,-1.7884476122276283e-09,1.9970997300333693e-08,-1.526141915064727e-07,7.92117789387703e-05,-0.0031733196228742,0.3840222954750061,0.9233184456825256,-8.020535505091497e-05,-6.656286755560402e-05,1.9208099396293087e-06,0.0008375644683837,0.0318965315818786,0.0103445053100585,0,0,0,0
0.6,1788428487601,0.0,0.0,-0.0006719984812662,-0.0029122680425643,0.0581825263798236,0.9983014464378356,0.0,0.0,0.0,-1.7884476122276283e-09,1.9970997300333693e-08,-1.526141915064727e-07,7.92117789387703e-05,-0.0031733196228742,0.3840222954750061,0.9233184456825256,-8.020535505091497e-05,-6.656286755560402e-05,1.9208099396293087e-06,0.0008375644683837,0.0318965315818786,0.0103445053100585,0,0,0,0
0.7,1788428487701,0.0,0.0,-0.0006719984812662,-0.0029122680425643,0.0581825263798236,0.9983014464378356,0.0,0.0,0.0,-1.7884476122276283e-09,1.9970997300333693e-08,-1.526141915064727e-07,7.92117789387703e-05,-0.0031733196228742,0.3840222954750061,0.9233184456825256,-8.020535505091497e-05,-6.656286755560402e-05,1.9208099396293087e-06,0.0008375644683837,0.0318965315818786,0.0103445053100585,0,0,0,0
0.8,1788428487801,0.0,0.0,-0.0006719984812662,-0.0029122680425643,0.0581825263798236,0.9983014464378356,0.0,0.0,0.0,-1.7884476122276283e-09,1.9970997300333693e-08,-1.526141915064727e-07,7.92117789387703e-05,-0.0031733196228742,0.3840222954750061,0.9233184456825256,-8.020535505091497e-05,-6.656286755560402e-05,1.9208099396293087e-06,0.0008375644683837,0.0318965315818786,0.0103445053100585,0,0,0,0
0.9,1788428487901,0.0,0.0,-0.0006719984812662,-0.0029122680425643,0.0581825263798236,0.9983014464378356,0.0,0.0,0.0,-1.7884476122276283e-09,1.9970997300333693e-08,-1.526141915064727e-07,7.92117789387703e-05,-0.0031733196228742,0.3840222954750061,0.9233184456825256,-8.020535505091497e-05,-6.656286755560402e-05,1.9208099396293087e-06,0.0008375644683837,0.0318965315818786,0.0103445053100585,0,0,0,0
1.0,1788428488001,0.0,0.0,-0.0006719984812662,-0.0029122680425643,0.0581825263798236,0.9983014464378356,0.0,0.0,0.0,-1.7884476122276283e-09,1.9970997300333693e-08,-1.526141915064727e-07,7.92117789387703e-05,-0.0031733196228742,0.3840222954750061,0.9233184456825256,-8.020535505091497e-05,-6.656286755560402e-05,1.9208099396293087e-06,0.0008375644683837,0.0318965315818786,0.0103445053100585,0,0,0,0
1.1,1788428488101,0.0,0.0,-0.0006719984812662,-0.0029122680425643,0.0581825263798236,0.9983014464378356,0.0,0.0,0.0,-1.7884476122276283e-09,1.9970997300333693e-08,-1.526141915064727e-07,7.92117789387703e-05,-0.0031733196228742,0.3840222954750061,0.9233184456825256,-8.020535505091497e-05,-6.656286755560402e-05,1.9208099396293087e-06,0.0008375644683837,0.0318965315818786,0.0103445053100585,0,0,0,0
1.2,1788428488201,0.0,0.0,-0.0006719984230585,-0.0029122685082256,0.0581825301051139,0.9983014464378356,0.0,0.0,0.0,1.8128900602931706e-09,-1.873319632750281e-08,1.5469994707473236e-07,7.798336446285248e-05,-0.0031762402504682,0.3840222954750061,0.9233184456825256,-4.775771570983241e-05,-4.48889166832674e-05,3.2190657838149246e-11,-0.0080319046974182,-0.0006024837493896,0.0100936889648437,0,0,0,0
1.3,1788428488301,0.0,0.0,-0.0006719984230585,-0.0029122685082256,0.0581825301051139,0.9983014464378356,0.0,0.0,0.0,1.755068534947668e-09,-1.81357080464295e-08,1.497658530524859e-07,7.357355207204819e-05,-0.0031788619235157,0.3840222358703613,0.923318326473236,-0.0001396717182456,2.409516921947968e-06,-4.58961903838174e-12,-0.0075902342796325,-0.028447687625885,-0.0186662673950195,0,0,0,0
1.4,1788428488401,0.0,0.0,-0.0006719984812662,-0.0029122680425643,0.0581825263798236,0.9983014464378356,0.0,0.0,0.0,0.0,5.701138450220354e-10,0.0,6.452854722738266e-05,-0.0031803827732801,0.3840222358703613,0.923318326473236,-0.0002099627420895,4.075489138128292e-05,-1.284144918028082e-10,-0.0020164251327514,0.0206443667411804,-0.0020961761474609,0,0,0,0
1.5,1788428488501,0.0,0.0,-0.0006719984812662,-0.0029122680425643,0.0581825263798236,0.9983014464378356,0.0,0.0,0.0,-1.8472550156189982e-09,2.0627680896723177e-08,-1.5763242799948785e-07,5.243625491857529e-05,-0.0031805345788598,0.3840222358703613,0.923318326473236,-0.0001412927807407,0.000125105645086,-2.8433721273055867e-10,-0.0064433217048645,-0.0137941837310791,0.0029191970825195,0,0,0,0
1.6,1788428488601,0.0,0.0,-0.0006719984812662,-0.0029122680425643,0.0581825263798236,0.9983014464378356,0.0,0.0,0.0,-1.7750272363059592e-09,1.9821138508291373e-08,-1.5146899556839347e-07,4.642084240913391e-05,-0.0031777452677488,0.3840222358703613,0.923318326473236,-0.0001581363783527,0.0001682265537703,-4.021997864644539e-10,-0.0204554796218872,0.002614676952362,0.0113983154296875,0,0,0,0
1.7,1788428488701,0.0,0.0,-0.0006719984812662,-0.0029122680425643,0.0581825263798236,0.9983014464378356,0.0,0.0,0.0,-1.8238180965468587e-09,2.03659684672175e-08,-1.556324775719986e-07,3.2627955079078674e-05,-0.0031704306602478,0.3840222358703613,0.923318326473236,-0.0001495048777031,0.0002029227161943,1.985495830095064e-06,-0.016459584236145,-0.0098912715911865,0.0238313674926757,0,0,0,0
1.8,1788428488801,0.0,0.0,-0.0006719984812662,-0.0029122680425643,0.0581825263798236,0.9983014464378356,0.0,0.0,0.0,-1.8091381726037523e-09,2.0202042705363965e-08,-1.5437979072885358e-07,2.068374305963516e-05,-0.003161359578371,0.3840222954750061,0.9233184456825256,-9.415462023114791e-05,0.0002072810332468,-2.619385351806774e-10,0.0213136672973632,-0.0407835841178894,-0.0084657669067382,0,0,0,0
1.9,1788428488901,0.0,0.0,-0.0006719984230585,-0.0029122685082256,0.0581825301051139,0.9983014464378356,0.0,0.0,0.0,1.812128447298278e-09,-1.8725327066704267e-08,1.5463496083611974e-07,1.4794059097766876e-05,-0.0031566601246595,0.3840222954750061,0.9233184456825256,-8.006147180661663e-05,0.0001306113647142,-1.570389359365934e-10,0.0102397203445434,0.0221295356750488,0.0097980499267578,0,0,0,0
2.0,1788428489001,0.0,0.0,-0.0006719984230585,-0.0029122685082256,0.0581825301051139,0.9983014464378356,0.0,0.0,0.0,1.8492352094057198e-09,-1.9108764348629848e-08,1.578014092729063e-07,9.287148714065552e-06,-0.0031546140089631,0.3840222954750061,0.9233184456825256,-0.000116109118976,8.565841262200301e-05,-1.5735740280041168e-10,0.0029225349426269,0.0011138319969177,-0.003030776977539,0,0,0,0
2.1,1788428489101,0.0,0.0,-0.0006719984230585,-0.0029122685082256,0.0581825301051139,0.9983014464378356,0.0,0.0,0.0,1.7949570718656103e-09,-1.8547888558373412e-08,1.5316966539558052e-07,-1.409091055393219e-06,-0.0031535737216472,0.3840222954750061,0.9233184456825256,-0.0001922015399754,6.510250476132616e-05,-1.8200039864912795e-10,0.004542052745819,0.0269431471824646,-0.0129823684692382,0,0,0,0
2.2,1788428489201,0.0,0.0,-0.0006719984230585,-0.0029122685082256,0.0581825301051139,0.9983014464378356,0.0,0.0,0.0,0.0,1.095681989582431e-09,0.0,-8.724629878997803e-06,-0.0031540896743535,0.3840222954750061,0.9233184456825256,-0.0001172908508047,3.4609584497829e-05,-6.09439561533546e-11,-0.0136231184005737,-0.0184856057167053,-0.0070381164550781,0,0,0,0
2.3,1788428489301,0.0,0.0,-0.0006719984812662,-0.0029122680425643,0.0581825263798236,0.9983014464378356,0.0,0.0,0.0,-1.8120460687498505e-09,2.02345145083882e-08,-1.546279264630357e-07,-1.198798418045044e-05,-0.0031524868682026,0.3840222954750061,0.9233184456825256,-4.18839155537363e-07,7.520139506277667e-05,-4.28975135795313e-13,-0.0150079131126403,-0.0033521056175231,0.0115852355957031,0,0,0,0
2.4,1788428489401,0.0,0.0,-0.0006719984812662,-0.0029122680425643,0.0581825263798236,0.9983014464378356,0.0,0.0,0.0,-1.888432299423925e-09,2.108749264095877e-08,-1.611462181472234e-07,-9.787268936634064e-06,-0.0031467862427234,0.3840222954750061,0.9233184456825256,6.387414763472411e-05,7.356352091481064e-05,7.077223959648583e-11,-0.0041286945343017,0.0087674856185913,0.0151987075805664,0,0,0,0
2.5,1788428489501,0.0,0.0,-0.0006719984812662,-0.0029122680425643,0.0581825263798236,0.9983014464378356,0.0,0.0,0.0,-1.8313370819811323e-09,2.044993152594543e-08,-1.5627409766239e-07,-6.076879799365997e-06,-0.0031422181054949,0.3840222954750061,0.9233184456825256,0.0001219951125256,5.1140191346248045e-05,9.740524500089719e-11,0.0190573930740356,-0.0222319364547729,-0.0070295333862304,0,0,0,0
2.6,1788428489601,0.0,0.0,-0.0006719984812662,-0.0029122680425643,0.0581825263798236,0.9983014464378356,0.0,0.0,0.0,-1.746153222015323e-09,1.949871020201499e-08,-1.4900507494530757e-07,1.0235235095024109e-06,-0.0031382609158754,0.3840222954750061,0.9233184456825256,0.0002174873551607,-6.524506428851622e-06,-2.1332799861478247e-11,0.0096162557601928,-0.0142197608947753,0.0013647079467773,0,0,0,0
2.7,1788428489701,0.0,0.0,-0.0006719984230585,-0.0029122685082256,0.0581825301051139,0.9983014464378356,0.0,0.0,0.0,1.8142649604868662e-09,-1.8747403629504333e-08,1.5481727189126104e-07,1.30506232380867e-05,-0.0031345523893833,0.3840222954750061,0.9233184456825256,0.0002011687129382,-2.268264625838031e-05,-6.859772686344746e-11,0.0148571729660034,-0.0178276896476745,0.0010366439819335,0,0,0,0
2.8,1788428489801,0.0,0.0,-0.0006719984230585,-0.0029122685082256,0.0581825301051139,0.9983014464378356,0.0,0.0,0.0,1.93237137402491e-09,-1.9967838937873242e-08,1.648956953204106e-07,1.937709748744965e-05,-0.0031329160556197,0.3840222954750061,0.9233184456825256,0.000137582287737,-1.3205765820459908e-05,-2.602586621622377e-11,0.009641408920288,0.0327262878417968,0.0101680755615234,0,0,0,0
2.9,1788428489901,0.0,0.0,-0.0006719984230585,-0.0029122685082256,0.0581825301051139,0.9983014464378356,0.0,0.0,0.0,1.8131459667003467e-09,-1.873584132283668e-08,1.547217891584296e-07,2.6314519345760345e-05,-0.0031304052099585,0.3840223550796509,0.9233185648918152,0.0001624017062896,-9.244270748550404e-06,-2.2562002933738374e-11,-0.0172566175460815,-0.0178244113922119,0.0118236541748046,0,0,0,0
3.0,1788428490001,0.0,0.0,-0.0006719984230585,-0.0029122685082256,0.0581825301051139,0.9983014464378356,0.0,0.0,0.0,1.8811574520327667e-09,-1.943862670827912e-08,1.6052543116984452e-07,3.083702176809311e-05,-0.0031276363879442,0.3840223550796509,0.9233185648918152,9.116878225603056e-05,2.093884147847512e-05,3.0262819333720706e-11,-0.0009490847587585,-0.0209720134735107,0.0188512802124023,0,0,0,0
3.1,1788428490101,0.0,0.0,-0.0006719984812662,-0.0029122680425643,0.0581825263798236,0.9983014464378356,0.0,0.0,0.0,-1.8460368789163795e-09,2.061407755604705e-08,-1.5752847559724614e-07,2.976600080728531e-05,-0.003127921372652,0.3840223550796509,0.9233185648918152,-7.101743666286375e-05,-2.105836566796489e-05,2.170571940081468e-11,0.0184259414672851,-0.0358088612556457,-0.0046682357788085,0,0,0,0
3.2,1788428490201,0.0,0.0,-0.0006719984812662,-0.0029122680425643,0.0581825263798236,0.9983014464378356,0.0,0.0,0.0,-1.8485037944770966e-09,2.0641627074269312e-08,-1.5773899519899717e-07,2.4203211069107056e-05,-0.0031326105818152,0.3840223550796509,0.9233185648918152,-0.0001764451103047,-4.0140941033601966e-05,1.0661021415288034e-10,0.0039147138595581,0.0404746532440185,0.0025997161865234,0,0,0,0
3.3,1788428490301,0.0,0.0,-0.0006719984812662,-0.0029122680425643,0.0581825263798236,0.9983014464378356,0.0,0.0,0.0,-1.814111194597956e-09,2.0257575172877296e-08,-1.548041552723589e-07,1.675821840763092e-05,-0.0031373081728816,0.3840222954750061,0.9233184456825256,-0.0001542786178434,-1.0396095912783665e-05,2.4102432803217385e-11,0.0345913171768188,0.0099040269851684,0.0207462310791015,0,0,0,0
3.4,1788428490401,0.0,0.0,-0.0006719984812662,-0.0029122680425643,0.0581825263798236,0.9983014464378356,0.0,0.0,0.0,-1.873094790383334e-09,2.0916225196288e-08,-1.5983742684966273e-07,1.365412026643753e-05,-0.0031411163508892,0.3840222954750061,0.9233184456825256,-8.484159210949209e-05,-6.46091627079582e-05,1.994338401815125e-06,-0.0088516473770141,0.01850026845932,0.0066967010498046,0,0,0,0
3.5,1788428490501,0.0,0.0,-0.0006719984230585,-0.0029122685082256,0.0581825301051139,0.9983014464378356,0.0,0.0,0.0,1.840034347111441e-09,-1.9013688401514628e-08,1.570162595498914e-07,1.2118369340896606e-05,-0.0031446116045117,0.3840222954750061,0.9233184456825256,-3.132339834608463e-05,-6.54023191688255e-05,3.349324622179632e-11,0.0071592330932617,-0.021418273448944,0.0066328048706054,0,0,0,0
3.6,1788428490601,0.0,0.0,-0.0006719984230585,-0.0029122685082256,0.0581825301051139,0.9983014464378356,0.0,0.0,0.0,1.8500830867296254e-09,-1.9117525340561773e-08,1.578737567342614e-07,1.1943280696868896e-05,-0.0031493762508034,0.3840222954750061,0.9233184456825256,-5.636456859431664e-05,-0.0001049896088602,8.885683994850919e-11,0.0121325850486755,0.0165603160858154,0.0104646682739257,0,0,0,0
3.7,1788428490701,0.0,0.0,-0.0006719984230585,-0.0029122685082256,0.0581825301051139,0.9983014464378356,0.0,0.0,0.0,1.7868944102161775e-09,-1.8464575646248704e-08,1.5248166107539873e-07,1.0547228157520294e-05,-0.0031596645712852,0.3840222954750061,0.9233184456825256,-0.0001460753806086,-0.0001583212977931,3.4806989034404364e-10,-0.0045498609542846,0.0174659490585327,-0.0005617141723632,0,0,0,0
3.8,1788428490801,0.0,0.0,-0.0006719984230585,-0.0029122685082256,0.0581825301051139,0.9983014464378356,0.0,0.0,0.0,1.935789306628521e-09,-2.0003156464554195e-08,1.651873589025854e-07,6.973743438720703e-06,-0.0031695188954472,0.3840222954750061,0.9233184456825256,-0.0001541727065565,-0.0001791816552248,4.1458224012784136e-10,-0.0174158811569213,-0.0093271136283874,0.0045690536499023,0,0,0,0
3.9,1788428490901,0.0,0.0,-0.0006719984812662,-0.0029122680425643,0.0581825263798236,0.9983014464378356,0.0,0.0,0.0,0.0,5.687952886468395e-10,0.0,1.5944242477416992e-06,-0.0031796488910913,0.3840222358703613,0.923318326473236,-0.0001271144097724,-8.952611665174437e-05,-1.9829655849365427e-06,-0.0131902694702148,-0.0363730192184448,0.0099668502807617,0,0,0,0
4.0,1788428491001,0.0,0.0,-0.0006719984812662,-0.0029122680425643,0.0581825263798236,0.9983014464378356,0.0,0.0,0.0,-1.8512045230068e-09,2.0671784284331807e-08,-1.579694526299136e-07,-3.5883858799934387e-06,-0.0031821690499782,0.3840222358703613,0.923318326473236,-0.0001195539362823,3.028521897884461e-05,-5.333625014470264e-11,0.04144948720932,0.0014146566390991,0.0010919570922851,0,0,0,0
4.1,1788428491101,0.0,0.0,-0.0006719984812662,-0.0029122680425643,0.0581825263798236,0.9983014464378356,0.0,0.0,0.0,-1.7806799368358382e-09,1.9884259572222618e-08,-1.5195135460999154e-07,-1.2633390724658966e-05,-0.0031827203929424,0.3840222358703613,0.923318326473236,-0.0002215971006178,9.0467156739586e-05,-2.7411024493987984e-10,0.0240426063537597,0.0184312462806701,0.0171928405761718,0,0,0,0
4.2,1788428491201,0.0,0.0,-0.0006719984230585,-0.0029122685082256,0.0581825301051139,0.9983014464378356,0.0,0.0,0.0,0.0,5.701907834776421e-10,0.0,-2.2827647626399997e-05,-0.0031852209940552,0.3840222358703613,0.923318326473236,-0.0002510289502384,1.6614407127155414e-05,-6.262655466061911e-11,0.009120225906372,0.0100804567337036,0.000288963317871,0,0,0,0
4.3,1788428491301,0.0,0.0,-0.0006719984230585,-0.0029122685082256,0.0581825301051139,0.9983014464378356,0.0,0.0,0.0,1.868953214412272e-09,-1.9312516030822732e-08,1.5948400289289569e-07,-3.1441450119018555e-05,-0.003190373070538,0.3840222358703613,0.923318326473236,-0.0001801838557796,-6.749707767962408e-05,1.9007762026513292e-10,-0.0114058852195739,0.0024207234382629,0.0052013397216796,0,0,0,0
4.4,1788428491401,0.0,0.0,-0.0006719984230585,-0.0029122685082256,0.0581825301051139,0.9983014464378356,0.0,0.0,0.0,1.849070563331168e-09,-1.9107062598777705e-08,1.57787354737593e-07,-3.5558827221393585e-05,-0.0031988639384508,0.3840222358703613,0.923318326473236,-0.0001035546088832,-0.0001470775104823,2.29042009821132e-10,0.0039631128311157,0.0144881606101989,0.0174446105957031,0,0,0,0
4.5,1788428491501,0.0,0.0,-0.0006719984230585,-0.0029122685082256,0.0581825301051139,0.9983014464378356,0.0,0.0,0.0,1.8433710113896491e-09,-1.9048165711410547e-08,1.573009882349652e-07,-3.314856439828873e-05,-0.0032087592408061,0.3840222358703613,0.923318326473236,-1.2382228586141912e-05,-0.0002347503502321,4.511939981102255e-11,-0.0111321806907653,0.0012921690940856,-0.0010948181152343,0,0,0,0
4.6,1788428491601,0.0,0.0,-0.0006719984812662,-0.0029122680425643,0.0581825263798236,0.9983014464378356,0.0,0.0,0.0,0.0,5.588948193135933e-10,0.0,-2.4359673261642456e-05,-0.0032218182459473,0.3840221762657165,0.9233182072639464,7.799649085454001e-05,-0.00027233308621,-3.1912975328305047e-10,0.0099035501480102,0.0077602267265319,-0.0035247802734375,0,0,0,0
4.7,1788428491701,0.0,0.0,-0.0006719984812662,-0.0029122680425643,0.0581825263798236,0.9983014464378356,0.0,0.0,0.0,0.0,5.69429836616564e-10,0.0,-1.5770085155963898e-05,-0.0032302383333444,0.3840221762657165,0.9233182072639464,0.0001303008434757,-0.0002251287038862,-4.4832139962142336e-10,0.027852177619934,-0.0215215682983398,-0.0057859420776367,0,0,0,0
4.8,1788428491801,0.0,0.0,-0.0006719984812662,-0.0029122680425643,0.0581825263798236,0.9983014464378356,0.0,0.0,0.0,-1.849482789140211e-09,2.0652556997902142e-08,-1.578225266030131e-07,-6.182119250297546e-06,-0.0032363170757889,0.3840221762657165,0.9233182072639464,0.0001461363290236,-0.0001762852452147,-3.9796851306110837e-10,0.0262948274612426,0.0051649212837219,0.0033702850341796,0,0,0,0
4.9,1788428491901,0.0,0.0,-0.0006719984812662,-0.0029122680425643,0.0581825263798236,0.9983014464378356,0.0,0.0,0.0,-1.7928041273762572e-09,2.0019644608737508e-08,-1.529859474658224e-07,7.664784789085388e-06,-0.0032407464459538,0.3840221762657165,0.9233182072639464,0.0001925409684599,-9.657326135793596e-05,-1.9800561001015333e-06,0.0017263889312744,0.0243552923202514,0.0072822570800781,0,0,0,0
5.0,1788428492001,0.0,0.0,-0.0006719984230585,-0.0029122685082256,0.0581825301051139,0.9983014464378356,0.0,0.0,0.0,0.0,5.548493886564643e-10,0.0,1.1062249541282654e-05,-0.0032405629754066,0.3840221762657165,0.9233182072639464,0.0002136263824199,-7.561267091206582e-05,-2.425257423213927e-10,0.0179885625839233,0.0151149630546569,0.0018806457519531,0,0,0,0
5.1,1788428492101,0.0,0.0,-0.0006719984230585,-0.0029122685082256,0.0581825301051139,0.9983014464378356,0.0,0.0,0.0,1.9071328960507117e-09,-1.970704133213985e-08,1.627420118666123e-07,3.0498020350933075e-05,-0.0032350234687328,0.3840221762657165,0.9233182072639464,0.000279093642952,-2.5163710845957732e-05,-1.0580849820593042e-10,-0.0265519022941589,-0.021622896194458,0.0002727508544921,0,0,0,0
5.2,1788428492201,0.0,0.0,-0.0006719984230585,-0.0029122685082256,0.0581825301051139,0.9983014464378356,0.0,0.0,0.0,1.811829131170839e-09,-1.872223442944687e-08,1.546094239301965e-07,4.122871905565262e-05,-0.0032293228432536,0.3840221762657165,0.9233182072639464,0.0002936160379318,5.0959446704267805e-05,2.0980146002031864e-10,0.0189243555068969,0.001466155052185,0.006047248840332,0,0,0,0
5.3,1788428492301,0.0,0.0,-0.0006719984230585,-0.0029122685082256,0.0581825301051139,0.9983014464378356,0.0,0.0,0.0,1.8085895003849826e-09,-1.868875720845153e-08,1.5433296596256699e-07,5.502719432115555e-05,-0.0032178657129406,0.3840221762657165,0.9233182072639464,0.0002822486740614,0.0001067783584569,4.4900713702046903e-10,-0.002147614955902,0.0011252164840698,-0.009735107421875,0,0,0,0
5.4,1788428492401,0.0,0.0,-0.0006719984230585,-0.0029122685082256,0.0581825301051139,0.9983014464378356,0.0,0.0,0.0,1.8241193000534395e-09,-1.8849233285322956e-08,1.556581850081784e-07,6.4789317548275e-05,-0.0032087424769997,0.3840222358703613,0.923318326473236,0.000235592298794,9.997708163436964e-05,3.7557451033198326e-10,0.0033760666847229,0.0335473418235778,-0.000253677368164,0,0,0,0
5.5,1788428492501,0.0,0.0,-0.0006719984812662,-0.0029122680425643,0.0581825263798236,0.9983014464378356,0.0,0.0,0.0,-1.867618282247463e-09,2.0855070559377964e-08,-1.593700886814986e-07,7.325690239667892e-05,-0.0032004946842789,0.3840222358703613,0.923318326473236,0.0002480887237356,8.528437190250134e-05,3.179771173937589e-10,-0.0111376643180847,-0.025884211063385,-0.0196866989135742,0,0,0,0
5.6,1788428492601,0.0,0.0,-0.0006719984812662,-0.0029122680425643,0.0581825263798236,0.9983014464378356,0.0,0.0,0.0,-1.8132875201359862e-09,2.024837719716288e-08,-1.5473386838493752e-07,8.155219256877899e-05,-0.0031915744766592,0.3840222358703613,0.923318326473236,0.0001952156859963,9.87494625801328e-05,-1.9351516702883706e-06,-0.0091000795364379,-0.0168501138687133,-0.0135297775268554,0,0,0,0
5.7,1788428492701,0.0,0.0,-0.0006719984812662,-0.0029122680425643,0.0581825263798236,0.9983014464378356,0.0,0.0,0.0,-1.889591372261634e-09,2.110043695324748e-08,-1.6124512569604121e-07,8.729472756385803e-05,-0.003183246590197,0.3840222358703613,0.923318326473236,0.0001906655848056,0.0001506954975911,4.175648945672552e-10,0.0112023949623107,0.011816918849945,-0.005716323852539,0,0,0,0
5.8,1788428492801,0.0,0.0,-0.0006719984230585,-0.0029122685082256,0.0581825301051139,0.9983014464378356,0.0,0.0,0.0,0.0,5.582198037146212e-10,0.0,9.124446660280228e-05,-0.0031747575849294,0.3840222358703613,0.923318326473236,0.0001122028714003,0.0001370479602093,2.3065403126223087e-10,0.0004262924194335,0.003455102443695,-0.0145273208618164,0,0,0,0
5.9,1788428492901,0.0,0.0,-0.0006719984230585,-0.0029122685082256,0.0581825301051139,0.9983014464378356,-0.0004216983344884,-1.3571177806303395e-05,2.396285103618479e-06,1.8300627679934678e-09,-1.8910649046688377e-08,1.5616535620210925e-07,9.121093899011612e-05,-0.0031667277216911,0.3840222358703613,0.923318326473236,3.274202956994323e-05,0.0001060162906542,4.8145854801908016e-11,0.0002361536026,0.0272385478019714,0.001448631286621,0,0,0,0
6.0,1788428493001,0.0,0.0,-0.0006719984230585,-0.0029122685082256,0.0581825301051139,0.9983014464378356,0.0,0.0,0.0,1.8554160430284126e-09,-1.9172631482433644e-08,1.5832883093480635e-07,9.109266102313995e-05,-0.0031636580824851,0.3840222954750061,0.9233184456825256,2.889027021325421e-05,4.666038548614891e-05,2.022870137412128e-11,-0.0288595557212829,-0.0573347806930542,0.0422563552856445,0,0,0,0
6.1,1788428493101,0.0,0.0,-0.0006719984230585,-0.0029122685082256,0.0581825301051139,0.9983014464378356,0.0004354020905806,1.4012194749771344e-05,-2.474156187997371e-06,1.8895334186197488e-09,-1.9525179695278894e-08,1.6124019452945507e-07,8.906330913305283e-05,-0.0031612636521458,0.3840222954750061,0.9233184456825256,-3.408123309210125e-05,9.043686886757768e-05,1.981510949702156e-06,0.0021873116493225,-0.0047351717948913,0.0218677520751953,0,0,0,0
6.2,1788428493201,0.0,0.0,-0.0006719984230585,-0.0029122685082256,0.0581825301051139,0.9983014464378356,0.0,0.0,0.0,1.767216040171604e-09,-1.8261232526128882e-08,1.508024354279769e-07,8.713919669389725e-05,-0.0031557930633425,0.3840222954750061,0.9233184456825256,1.6087129311851314e-05,0.0001081685408148,2.6116793659396702e-11,-0.017260193824768,0.002113938331604,0.0052852630615234,0,0,0,0
6.3,1788428493301,0.0,0.0,-0.0006719984812662,-0.0029122680425643,0.0581825263798236,0.9983014464378356,0.0,0.0,0.0,-1.8603751872348082e-09,2.0774189479766392e-08,-1.5875201597737035e-07,8.617714047431946e-05,-0.00315005145967,0.3840222954750061,0.9233184456825256,2.7065644941849576e-05,0.0001177064397161,4.8165456723536576e-11,0.0062297582626342,-0.0248907208442688,0.0127763748168945,0,0,0,0
6.4,1788428493401,0.0,0.0,-0.0006719984812662,-0.0029122680425643,0.0581825263798236,0.9983014464378356,0.0,0.0,0.0,-1.809906668981398e-09,2.0210624285255108e-08,-1.544453738233642e-07,8.396897464990616e-05,-0.0031454805284738,0.3840222954750061,0.9233184456825256,-4.049444805124461e-06,9.529666227382111e-05,-5.84653360518014e-12,0.0041961669921875,0.0130133628845214,0.0006093978881835,0,0,0,0
6.5,1788428493501,0.0,0.0,-0.0006719984812662,-0.0029122680425643,0.0581825263798236,0.9983014464378356,0.0,0.0,0.0,-1.8520736055904763e-09,2.068148852174545e-08,-1.5804361908067224e-07,7.995497435331345e-05,-0.0031432276591658,0.3840222954750061,0.9233184456825256,-7.896748838538578e-05,6.302295521710147e-05,1.6270560508133916e-06,-0.003210961818695,0.0243870615959167,0.0114622116088867,0,0,0,0
6.6,1788428493601,0.0,0.0,-0.0006719984812662,-0.0029122680425643,0.0581825263798236,0.9983014464378356,0.0,0.0,0.0,-1.7975305688366914e-09,2.0072425499506608e-08,-1.5338927994434925e-07,7.443316280841827e-05,-0.0031424704939126,0.3840222954750061,0.9233184456825256,-0.0001184023564347,9.167235021132108e-05,-1.7030483546724763e-10,-0.0009167790412902,0.0213664174079895,-0.0196857452392578,0,0,0,0
6.7,1788428493701,0.0,0.0,-0.0006719984230585,-0.0029122685082256,0.0581825301051139,0.9983014464378356,0.0,0.0,0.0,1.8481014496529722e-09,-1.9097049275274003e-08,1.5770466177400524e-07,6.755441427230835e-05,-0.0031400797888636,0.3840222954750061,0.9233184456825256,-0.0001370296176439,0.0001169702138434,-2.390895714704541e-10,-0.0114221572875976,-0.0018087029457092,0.0140676498413085,0,0,0,0
6.8,1788428493801,0.0,0.0,-0.0006719984230585,-0.0029122685082256,0.0581825301051139,0.9983014464378356,0.0,0.0,0.0,1.8505073029473351e-09,-1.912190761288457e-08,1.5790995178122105e-07,5.847401916980744e-05,-0.0031319446861743,0.3840222954750061,0.9233184456825256,-4.5049756725921686e-05,0.0001816436800712,-1.1860855429321552e-10,-0.007299780845642,0.0029449462890625,-0.0018215179443359,0,0,0,0
6.9,1788428493901,0.0,0.0,-0.0006719984230585,-0.0029122685082256,0.0581825301051139,0.9983014464378356,0.0,0.0,0.0,1.8255017497637027e-09,-1.8863518747025413e-08,1.557761493131693e-07,5.494803190231323e-05,-0.0031257327646017,0.3840223550796509,0.9233185648918152,3.521781749701399e-06,0.000174176966899,8.313512782168452e-12,0.0107486248016357,0.0168546438217163,0.0095758438110351,0,0,0,0
7.0,1788428494001,0.0,0.0,-0.0006719984812662,-0.0029122680425643,0.0581825263798236,0.9983014464378356,0.0,0.0,0.0,0.0,5.554704474164396e-10,0.0,5.3036026656627655e-05,-0.0031194249168038,0.3840223550796509,0.9233185648918152,1.0419842791335018e-05,0.000128379427742,2.022102722219545e-11,0.0006649494171142,0.0385500192642211,-0.0068893432617187,77,96,3276,3058
7.1,1788428494101,3.521126747131348,3.126760482788086,-0.0008629019139334,-0.0031863623298704,0.0578075721859931,0.9983223080635072,0.0097129754494168,0.0010761149858507,1.5244959724341323e-06,-0.0087762717157602,-0.0110845863819122,-0.0158594567328691,-1.4534220099449158e-05,-0.0032111164182424,0.383367657661438,0.9235902428627014,-0.0035830901356826,0.0182833342099047,-0.0132363939331928,1.028642654418945,0.0259428024291992,0.0365152359008789,156,149,11782,10527
7.2,1788428494201,5.7183098793029785,5.098591327667236,-0.0014138763071969,-0.0032075271010398,0.0559951327741146,0.9984248876571656,0.110506341011168,0.000503824387784,7.2829800429143075e-06,-0.0154943885281682,-0.0093021504580974,-0.0603970661759376,-0.0004298593848943,-0.0041809929534792,0.3804232776165008,0.9248030185699464,-0.0004365889973449,0.0080235845843808,-0.0584450349875945,0.1623170375823974,0.1915996074676513,1.3676795959472656,125,194,17586,15759
7.3,1788428494301,5.042253494262695,4.957746505737305,-0.0014511327026411,-0.0033250954002141,0.0544016025960445,0.99851256608963,0.1851322457305501,-0.0007716082221356,-6.398757219500155e-05,0.0161846745759248,0.0202370602637529,-0.0094094108790159,-0.0002097571268677,-0.0032402016222476,0.3793480992317199,0.9252483248710632,-0.0062311604582307,-0.0060947134892755,-0.0546849017218694,-0.3358956575393677,-0.2336404919624328,1.08074951171875,108,107,15917,13521
7.4,1788428494401,5.126760482788086,4.929577350616455,-0.0008937799138948,-0.0025935764424502,0.051615972071886,0.9986632466316224,0.1711613208872604,1.933759645888645e-06,-3.1273383859040484e-05,0.0125483656302094,0.0114393215626478,-0.0529864057898521,9.951181709766388e-05,-0.0028873048722743,0.3763552010059356,0.926470935344696,0.0045099859425067,0.0071605454618175,-0.0703309764451537,-0.4522357583045959,-0.1920691728591919,1.204726219177246,109,109,15931,13681
7.5,1788428494501,4.169013977050781,3.690140962600708,-0.0010787947103381,-0.0028943808283656,0.0494179911911487,0.9987733960151672,0.1712158582543818,-0.0008414793379154,1.1462536959126664e-05,-0.0084462137892842,-0.0040481342002749,-0.0401427596807479,-0.0001948997378349,-0.0034720823168754,0.3748749494552612,0.9270688891410828,-0.0149585787195,-0.0387372984450781,-0.0339001840971363,-0.307476282119751,-0.0592378973960876,-0.6555948257446289,20,18,6638,6619
7.6,1788428494601,1.1267606019973757,1.0140844583511353,-0.0014895921340212,-0.0027160246390849,0.0477933287620544,0.9988523721694946,0.116430103466696,0.0007199103912737,-4.177334867398241e-05,-0.0137024242430925,0.0147634176537394,-0.0476529113948345,-0.0002986779436469,-0.0031608240678906,0.3737519383430481,0.9275233149528505,0.0015710765554,-0.0091841521011654,-0.0114878442905598,-0.9050561785697936,0.0442026853561401,0.8621397018432617,7,26,18,0
7.7,1788428494701,0.0,0.0,-0.0013617516960948,-0.0029521931428462,0.0471667014062404,0.998881697654724,0.0097945100236103,0.0008630521109917,-4.108459195139017e-06,0.0006555691943503,-0.0103878313675522,-0.0136551745235919,-0.0001624822616577,-0.0035274280235171,0.3737968206405639,0.9275038838386536,0.0007785514109618,0.0021682817993696,0.0147120057102427,0.3681715726852417,-0.0054357051849365,-0.017622947692871,0,0,0,0
7.8,1788428494801,0.0,0.0,-0.0013468738179653,-0.0030778746586292,0.0468282327055931,0.9988973140716552,0.0016198296283028,-0.0001218085630716,-2.328465816822604e-06,0.0002463189011905,-0.0038931835442781,-0.010497841052711,-0.0001814253628253,-0.0034801559522747,0.3735752403736114,0.9275933504104614,-0.0006989434667304,0.0012957078061593,-0.0066718561205011,0.0009689927101135,0.0089530348777771,-0.0320768356323242,0,0,0,0
7.9,1788428494901,0.0,0.0,-0.00134687370155,-0.0030778746586292,0.0468282476067543,0.9988973140716552,0.0008766165624496,-0.0008227570910854,2.332428540799533e-06,-4.29942215163237e-09,3.0710156639912606e-10,1.5723600199635257e-07,-0.0002042697742581,-0.0034562340006232,0.3735067248344421,0.927621066570282,-9.812100226442838e-05,0.0002800715799198,-0.0053074616933227,-0.0451542139053344,0.0359291434288024,0.0469999313354492,0,0,0,0
8.0,1788428495001,0.0,0.0,-0.00134687370155,-0.0030778746586292,0.0468282476067543,0.9988973140716552,0.0,0.0,0.0,5.548886683470755e-09,1.0172959363785594e-08,1.5783500373345305e-07,-0.000236565247178,-0.0034447461366653,0.3734655976295471,0.9276376366615297,-0.0011257734128641,0.0033620180985238,-0.0049605292854376,-0.0536708831787109,-0.0657874941825866,-0.0161266326904296,0,0,0,0
8.1,1788428495101,0.0,0.0,-0.00134687370155,-0.0030778746586292,0.0468282476067543,0.9988973140716552,0.0,0.0,0.0,5.471224806541386e-09,1.0030579034037146e-08,1.5562595478968433e-07,-0.0002221055328845,-0.0034332387149333,0.3735414445400238,0.9276071190834044,0.0006086222667703,0.0006146024776268,0.0025178229904522,0.0452215075492858,-0.0104374289512634,-0.0213432312011718,0,0,0,0
8.2,1788428495201,0.0,0.0,-0.00134687370155,-0.0030778746586292,0.0468282476067543,0.9988973140716552,0.0,0.0,0.0,5.296002747456896e-09,9.709338222307906e-09,1.506418527696951e-07,-0.0001932149752974,-0.0034172441810369,0.3735449910163879,0.9276058077812196,0.000780002550175,-0.0009723539423443,0.0019582930622889,0.0327277183532714,0.0176531672477722,-0.0194807052612304,0,0,0,0
8.3,1788428495301,0.0,0.0,-0.0013468738179653,-0.0030778748914599,0.046828243881464,0.9988973140716552,0.0,0.0,0.0,-5.511920697642836e-09,-9.186535088190341e-09,-1.5678352838222056e-07,-0.0001840768381953,-0.0033804830163717,0.3735312819480896,0.9276114106178284,0.0002560798067248,0.0006200148081,0.0021767904201972,0.0081789493560791,0.0279570221900939,-0.005096435546875,0,0,0,0
8.4,1788428495401,0.0,0.0,-0.0013468738179653,-0.0030778748914599,0.046828243881464,0.9988973140716552,0.0,0.0,0.0,-5.6753428623324e-09,-9.458904770554e-09,-1.614319700138367e-07,-0.0001900251954793,-0.0033741481602191,0.3734780848026275,0.9276328682899476,0.0009637853044061,8.724273921053281e-05,0.0005592432876337,-0.0083639025688171,-0.0084536671638488,0.0025033950805664,0,0,0,0
8.5,1788428495501,0.0,1.0985915660858154,-0.0013468738179653,-0.0030778748914599,0.046828243881464,0.9988973140716552,0.0,0.0,0.0,-5.482010845270224e-09,-9.13668429802783e-09,-1.5593275293213082e-07,-0.0002143941819667,-0.0034056957811117,0.3736496865749359,0.9275636076927184,-0.0017911567769308,0.002778689308732,0.0098878923601211,0.7533583641052246,0.1313596963882446,-0.1159563064575195,217,76,5269,6889
8.6,1788428495601,2.5352113246917725,3.690140962600708,-0.0013101086951792,-0.0034046419896185,0.0484623201191425,0.9988183975219728,0.0297300657800135,-0.0009799038232488,9.72174557222127e-06,0.0011148991761729,-0.0139892371371388,0.0692076086997985,-0.0004627229645848,-0.0035154651850461,0.3782411515712738,0.9257003664970398,-0.0077521047324883,0.0156237490326595,0.1198612513197025,0.151364266872406,-0.1761450171470642,0.8278226852416992,141,226,10146,14654
8.7,1788428495701,4.14084529876709,6.422535419464111,-0.0014834934845566,-0.0029166836757212,0.0574370734393596,0.9983437061309814,0.1335036652543495,0.0034040905204369,3.5658496914244856e-05,0.0031552477739751,0.0102252420037984,0.2116369605064392,-6.418488919734955e-05,-0.0032494710758328,0.3913581967353821,0.9202327728271484,0.0035898502454149,0.0307440874747111,0.2998068756906367,0.180989921092987,0.1405989527702331,-0.5956859588623047,119,152,13978,17439
8.8,1788428495801,4.084506988525391,5.88732385635376,-0.0007551978342235,-0.0036118912976235,0.0697689354419708,0.9975563287734984,0.1885480070917122,0.0001426577023871,-0.000116059349581,0.01726945489645,-0.0014998198021203,0.2779120206832886,0.0012187985703349,-0.0042468011379241,0.4015620052814483,0.9158212542533876,0.0063789368274169,-0.0597577543331613,0.252298573571036,0.0177887678146362,0.1556179523468017,1.9100751876831052,115,105,11487,15892
8.9,1788428495901,3.746478796005249,6.394366264343262,-3.9740989450365305e-06,-0.0044880621135234,0.0811254382133483,0.996693789958954,0.1658804843860437,0.0044557714364285,1.9373909646886235e-06,0.0125921238213777,-0.0152646349743008,0.2304290384054184,0.0017677163705229,-0.0046196840703487,0.4126903414726257,0.9108579754829408,0.0117194086231394,-0.0137376899206453,0.3258315443750801,-0.0677949786186218,0.1994618773460388,-0.6383848190307617,63,161,9983,17843
9.0,1788428496001,3.9718310832977295,6.2253522872924805,0.000212209590245,-0.0048852083273231,0.1003064066171646,0.9949445128440856,0.1678736205560979,0.0064749299614564,-4.391396438332444e-05,0.005228319671005,-0.0015619408804923,0.3876460790634155,0.0016861604526638,-0.0044509032741189,0.4282530546188354,0.9036463499069214,-0.0039150368091048,0.0278011088290373,0.3407372081557726,-0.18268483877182,-0.1214456558227539,-0.2082138061523437,125,122,12336,17301
9.1,1788428496101,4.901408672332764,5.380281925201416,-6.23672385700047e-05,-0.0036209162790328,0.1178151741623878,0.9930289387702942,0.1690133377404271,0.0041115197280228,-0.0001867661735472,0.0014755881857126,0.053511906415224,0.3649823069572449,0.0006686337292194,-0.002281242981553,0.4449166059494018,0.89556884765625,0.0009399605186773,0.0292667003006841,0.1663222931202165,0.3058822154998779,-0.3142595887184143,1.0070571899414062,177,24,15712,11017
9.2,1788428496201,6.11267614364624,4.084506988525391,-0.0004511423758231,0.0008573476225137,0.1244592145085334,0.9922242164611816,0.1733441507886897,-0.0006297006486642,-0.0003288168391641,0.0033439868129789,0.1457608044147491,0.0204272046685218,-0.0004171645268797,-0.0002667913213372,0.4396167695522308,0.8981853127479553,-0.0270229427753968,-0.1253174558549316,-0.2651840062767627,0.5156363248825073,-0.4585415720939636,1.825653076171875,133,63,17017,11151
9.3,1788428496301,5.7183098793029785,4.169013977050781,-0.0005831548478454,-0.0002508064790163,0.1099425703287124,0.9939377307891846,0.1587872456537429,-0.0075642420141278,4.4173870304095926e-05,-0.0121535491198301,-0.025466876104474,-0.3991755843162536,-0.0003739390522241,-0.0012733107432723,0.4204907417297363,0.9072958827018738,-0.00932766802093,-0.0241619570384214,-0.2635433208072453,0.0456632375717163,-0.3038506507873535,-1.6728801727294922,78,91,17115,11912
9.4,1788428496401,5.802816867828369,4.169013977050781,-0.0008360591600649,-0.0014509679749608,0.0935338139533996,0.9956146478652954,0.1663764875968787,0.0024592815078945,6.871912426967469e-05,-0.0062209968455135,-0.0199860241264104,-0.2570038437843323,2.857297658920288e-06,-0.0024520186707377,0.409995436668396,0.9120843410491944,0.0053650730268495,-0.0437272705735617,-0.2639547569483549,0.6853147149085999,-0.2146344780921936,0.2530460357666015,107,118,15561,12040
9.5,1788428496501,6.2816901206970215,4.084506988525391,-0.0007423278293572,-0.0020731282420456,0.0810974687337875,0.9967036843299866,0.1601806828298511,-0.0053076325927088,-5.903461285957558e-05,0.0036779444199055,0.0057176151312887,-0.260228544473648,-9.319186210632324e-05,-0.0021149162203073,0.3989839553833008,0.9169555306434632,-0.0008767420694169,-0.0048003300135658,-0.2504321533467435,-0.0143536925315856,0.0969566106796264,1.4659538269042969,182,109,16632,12135
9.6,1788428496601,5.549295902252197,4.2253522872924805,-0.0008218756993301,-0.0016910429112613,0.0684380978345871,0.9976536631584167,0.1686489631521526,-0.0041003604096067,-6.579077656196659e-05,-0.0015621613711118,0.0103677455335855,-0.2596632838249206,-0.0002110851928591,-0.0015976419672369,0.3873777985572815,0.9219197034835817,0.0108480473584369,0.0198582263515623,-0.252929181476784,-0.0237170457839965,-0.2363261580467224,0.2616863250732422,144,113,16982,11627
9.7,1788428496701,5.943662166595459,4.507042407989502,-0.0002105644671246,-0.0013953426387161,0.0566572435200214,0.998392641544342,0.168696271191893,-0.0042329489739582,-1.3675491814053467e-05,0.0224500652402639,0.0009693573229014,-0.2408947497606277,0.0012062033638358,-0.0024752710014581,0.3761078417301178,0.9265718460083008,0.0115554703907091,-0.0769415325097121,-0.1230967357789839,0.2226195335388183,0.1205177903175354,0.550201416015625,49,155,14954,13357
9.8,1788428496801,5.521126747131348,4.394366264343262,0.0011960926931351,-0.003573969239369,0.0480455495417118,0.9988380074501038,0.1692521709297137,0.002546615435052,0.0002557483644443,0.0316213443875312,-0.0570850558578968,-0.1067727506160736,0.0017005540430545,-0.0033953003585338,0.3702310025691986,0.9289318919181824,-0.0247897743852516,0.0223501543476053,-0.2088767485153888,0.3182323575019836,-0.2226964831352234,-2.5559401512146,121,108,16804,12910
9.9,1788428496901,5.380281925201416,4.619718074798584,-0.0002023460983764,-0.0045617804862558,0.0402240641415119,0.9991801977157592,0.1713863897349661,-0.001655036299937,0.0001545973648252,-0.0331824049353599,-0.030663501471281,-0.1592738926410675,0.000629948452115,-0.0063636191189289,0.3640262484550476,0.9313667416572572,-0.0676176709646369,-0.1021208973758814,-0.1308665240576468,0.3712994456291199,0.0051350593566894,0.66009521484375,132,111,14735,12380
10.0,1788428497001,5.577464580535889,4.901408672332764,-0.0016076413448899,-0.0056634559296071,0.0331796966493129,0.99943208694458,0.1701655285956548,0.0047745877725278,-1.217922902045399e-07,-0.011135003529489,0.0159910302609205,-0.1502237021923065,0.0003735404461622,-0.0053702527657151,0.3590055704116821,0.9333199858665466,0.0009588718111865,0.0373512166297915,-0.0396131755384412,-0.456848680973053,0.4317262172698974,1.2587852478027344,175,64,15081,12483
10.1,1788428497101,5.323943614959717,4.478873252868652,-0.0010008856188505,-0.005720033776015,0.029565317556262,0.9995459914207458,0.1735386874864911,0.0038477781375442,6.976978026017703e-06,0.0168254803866148,-0.0079830549657344,-0.0935849770903587,0.0012746676802635,-0.0063424231484532,0.3537124395370483,0.9353318810462952,0.0069174971697974,-0.0523463424155411,-0.1683753265728735,0.6636080741882324,-0.2420002222061157,-0.6192073822021484,67,101,15802,12598
10.2,1788428497201,5.014084339141846,4.901408672332764,-0.0011814042227342,-0.0069564119912683,0.0214281864464283,0.9997454285621644,0.1630266137167553,-0.0043652816870305,4.3531923286293415e-05,-0.0131984883919358,-0.0251925904303789,-0.1754331737756729,0.0009205751121044,-0.007178840227425,0.3468091189861297,0.937907874584198,-0.0135642047387544,-0.0125872985328357,-0.0466224078706371,0.2157321572303772,0.0863257646560669,-0.2824630737304687,79,118,15398,14105
10.3,1788428497301,4.929577350616455,4.8450703620910645,-0.0016523443628102,-0.0070457439869642,0.0176942385733127,0.9998173117637634,0.1750428366611401,0.0011690213457772,1.6348077933811992e-05,-0.0088988710194826,-0.0003363031428307,-0.0387061275541782,0.0007688235491514,-0.0077546304091811,0.3448881208896637,0.9386115074157716,0.0032660641221935,-0.0523333354649323,-0.0515822682350351,0.5866125822067261,-0.0099492073059082,0.5419673919677734,68,121,15423,13370
10.4,1788428497401,4.901408672332764,4.929577350616455,-0.0019188636215403,-0.0071017295122146,0.0151828173547983,0.9998576641082764,0.1649209196934836,-0.0020730068039721,-1.8106532191174755e-05,-0.0038917653728276,0.0061862864531576,-0.0464286878705024,0.0003476506099104,-0.0070123905315995,0.3430817127227783,0.939279317855835,-0.0025978664832681,0.0245071393827813,-0.0337483513248277,0.0158741474151611,-0.0043784379959106,0.0314769744873046,128,97,15463,13601
10.5,1788428497501,5.042253494262695,4.901408672332764,-0.0019543708767741,-0.0069987005554139,0.0132921850308775,0.9998852610588074,0.1680868808036416,0.0010375822766295,-2.475121146391572e-05,-0.0004939817008562,-0.0037348121404647,-0.0579557120800018,0.0004351865500211,-0.0078694326803088,0.3402489125728607,0.9403024911880492,-0.01389815698246,-0.0311971349072406,-0.0702278801608231,0.3659834861755371,-0.1552570462226867,-0.6277189254760742,159,108,15468,13648
10.6,1788428497601,5.070422649383545,4.816901206970215,-0.002142061246559,-0.0075239776633679,0.009980771690607,0.9999196529388428,0.1663379305123858,-0.0007255234673196,1.923523013917615e-05,-0.0031086222734302,-0.0070389392785727,-0.0679500550031662,0.0006027985364198,-0.0078175123780965,0.3378505110740661,0.9411671161651612,0.0059718305312975,0.00593356160202,-0.058207336447259,-0.0549049973487854,0.3105663657188415,0.4491939544677734,136,120,16419,13903
10.7,1788428497701,5.014084339141846,4.901408672332764,-0.0022675390355288,-0.0071275965310633,0.0076973857358098,0.999942421913147,0.1724594942883396,0.000976050193286,-3.425935562411356e-05,-0.006290144752711,0.0133295552805066,-0.0504108108580112,-1.1037103831768036e-05,-0.0070786587893962,0.3361053466796875,0.9417978525161744,-0.0015200359389303,0.0172101179993878,-0.0286022465713,0.1192137598991394,-0.1086727976799011,-0.3549165725708008,90,119,15502,13658
10.8,1788428497801,4.647887229919434,5.126760482788086,-0.0025518233887851,-0.0060315150767564,0.0059597720392048,0.9999607801437378,0.1728276942014742,0.0022562527775901,-9.646650514878502e-05,-0.0077240201644599,0.0235676150768995,-0.035134233534336,-0.0010886769741773,-0.0031428569927811,0.3347606658935547,0.9422973990440368,0.0204398888168281,0.1419968741384344,0.0249098945501155,0.7973964214324951,-0.0110234022140502,-1.6053142547607422,70,124,15522,14260
10.9,1788428497901,5.070422649383545,5.154929637908936,-0.0018989482196047,-0.0035125210415571,0.00573883485049,0.999975562095642,0.1585416637735438,0.0039940521881511,-0.0002434674973928,0.0134266298264265,0.0247126724570989,0.0191946979612112,-0.0010253069922327,-0.0025687282904982,0.335300087928772,0.9421073794364928,0.0261537343611492,0.1143794474351274,0.0025851418278527,0.0909134745597839,0.1722365021705627,-1.4416828155517578,61,83,14396,14078
11.0,1788428498001,4.929577350616455,5.070422649383545,-0.0021249204874038,-0.0032109527382999,0.0059537505730986,0.9999748468399048,0.1744463881502249,0.0022079738888112,8.656404647663905e-05,-0.0084773413836956,-0.0150457741692662,0.0022255561780184,-0.0010810745880007,-0.0032746717333793,0.3352288007736206,0.9421303868293762,0.0146760440427099,0.0006044154353416,0.0010787380932642,0.3601135015487671,-0.1855241060256958,-2.187812805175781,116,90,13442,14539
11.1,1788428498101,5.267605781555176,4.985915660858154,-0.0020626885816454,-0.0027205543592572,0.0061384476721286,0.999975323677063,0.1740165351161005,0.0014121556520215,-2.411305855700412e-06,0.0027196453884243,0.0202543437480926,0.0076748984865844,-0.0010233130306005,-0.0021650251001119,0.3357741236686706,0.9419395327568054,0.0168204837191313,0.0501157214713473,-2.3273261839665973e-05,-0.3886305093765259,-0.1460658907890319,0.657440185546875,186,105,14133,14345
11.2,1788428498201,4.985915660858154,5.154929637908936,-0.0016041402705013,-0.001799146644771,0.0062806783244013,0.9999773502349854,0.1726176806815883,0.0005322203881267,1.358535417167447e-06,0.0111768702045083,0.0168295260518789,-0.0018384169088676,-0.0005742236971855,-0.0016418248414993,0.3354049324989319,0.9420724511146544,0.0114687792040788,-0.0038717041838858,0.0086089414870367,0.356682538986206,0.1946901679039001,-0.7828960418701172,146,98,13885,14472
11.3,1788428498301,4.816901206970215,5.183098793029785,-0.0011478249216452,-0.0006180724594742,0.0058294148184359,0.9999821782112122,0.1761071544748048,0.0041071596270067,-0.0001594782904143,0.0110285067930817,0.0383987501263618,-0.0117007242515683,-0.0009345300495624,3.0984170734882355e-05,0.3355700373649597,0.9420148134231568,0.002633851436487,0.0551425600147229,0.0083017176865323,-0.2469398379325866,-0.0971114635467529,-0.571476936340332,180,92,14327,14545
11.4,1788428498401,4.788732528686523,4.985915660858154,-0.0009755285573191,5.085146040073596e-05,0.0062162838876247,0.9999802112579346,0.1710718421358423,0.0028671542130227,-5.15416423608905e-06,3.60240786853594e-12,2.497669293610727e-10,-5.902185051809283e-08,-0.000793226994574,6.176251918077469e-05,0.3351436853408813,0.9421666860580444,-0.0127132549497697,0.0288978292482933,-0.024282345568973,-0.1275644898414611,0.0881795883178711,-0.5471973419189453,147,111,15254,13971
11.5,1788428498501,5.042253494262695,5.098591327667236,-0.0009755285573191,5.085146040073596e-05,0.0062162806279957,0.9999802112579346,0.1746490769967472,-0.0003699759273605,-8.007332678358573e-07,3.5690018648781848e-12,1.1420805967610191e-10,-5.8474526554164186e-08,-0.0014112023636698,-0.0009540934115648,0.3350967168807983,0.9421822428703308,-0.0555178292349185,-0.0064814168095414,0.0013832923417204,0.2217358350753784,-0.0394498109817504,-0.1670455932617187,53,152,14334,14595
11.6,1788428498601,4.732394218444824,5.211267471313477,-0.0025548471603542,-0.0004687427717726,0.0052493531256914,0.9999828338623048,0.165665085559066,0.0020720588730205,2.3072409796391715e-05,-0.0451037809252738,-0.015558716841042,-0.02009879052639,-0.0019806157797574,-0.0006194729357957,0.3355233669281006,0.9420296549797058,0.0219732147324643,0.029264769957943,0.0422203165146665,-0.0015898942947387,0.3198773264884949,-0.8225879669189453,84,84,13203,14105
11.7,1788428498701,5.070422649383545,5.014084339141846,-0.0022791228257119,-3.0367813451448452e-05,0.0057031032629311,0.9999811053276062,0.1750789287617456,-0.0004846836036709,-3.190869570522096e-06,-1.8240975136613047e-12,2.33484481748647e-10,-5.977202732765363e-08,-0.0021028043702244,-0.0009701838716864,0.3347137570381164,0.9423170685768129,0.0020297974202203,-0.0012200530208557,0.0182086979414021,-0.0070558190345764,0.1755988001823425,0.766693115234375,106,119,12571,13797
11.8,1788428498801,5.380281925201416,4.985915660858154,-0.0024646706879138,-0.000391618348658,0.0056230504997074,0.9999811053276062,0.1703508907069051,0.000492489061497,-1.1540744935743597e-06,-0.0059115914627909,-0.0039849453605711,0.0107124364003539,-0.0022481763735413,-0.0012680320069193,0.3351198732852936,0.9421720504760742,0.0032680747603679,0.0055743769785438,0.0025362072760124,0.1158782839775085,-0.3501791357994079,-0.0964736938476562,166,111,14355,14159
11.9,1788428498901,4.929577350616455,5.098591327667236,-0.0024646706879138,-0.000391618348658,0.0056230504997074,0.9999811053276062,0.16924251980386,0.0003363726995421,2.644001754237966e-06,0.0,6.049419853937366e-10,0.0,-0.0024457592517137,-0.000980126671493,0.3347960710525512,0.9422869682312012,-0.0138975315589392,0.0256435426373515,-0.0091913774122138,0.0192512869834899,0.1764211654663086,-0.3954038619995117,119,116,15702,13975
12.0,1788428499001,4.873239517211914,4.8450703620910645,-0.0026044410187751,-6.650073919445276e-05,0.0054710204713046,0.9999816417694092,0.1677387195656907,-2.4737475497621e-05,-3.59078895091737e-05,-0.0058486177586019,0.0138280652463436,-0.0064070592634379,-0.0027302652597427,-0.0008333213627338,0.3352303802967071,0.9421318769454956,0.0071885252899551,0.0069392906328374,0.0127181923891357,0.0728378891944885,-0.0008480548858642,0.8024740219116211,170,75,15258,12713
12.1,1788428499101,4.788732528686523,5.070422649383545,-0.0024498528800904,0.0003414220409467,0.0053209885954856,0.9999828338623048,0.1746017744550451,0.0002017286863924,-2.035676655278635e-06,0.0066470419988036,0.0172718819230794,-0.0063151465728878,-0.0025461884215474,2.8022564947605133e-05,0.3337336480617523,0.9426640272140504,0.0041510688626921,0.0046187785761039,-0.0238748219964446,0.124682068824768,-0.0337765216827392,-0.4847517013549804,143,135,15155,14415
12.2,1788428499201,5.183098793029785,4.929577350616455,-0.0023243897594511,0.001014937646687,0.0044938996434211,0.9999867081642152,0.1740891780019461,0.003257156467109,-0.0001305150377563,0.005037625785917,0.016025386750698,-0.0098307626321911,-0.0023733973503112,0.0006205476820468,0.3342483043670654,0.942481815814972,0.0125870825889776,0.0202349243977152,0.018590315616852,-0.0868729948997497,-0.1156285405158996,0.4764785766601562,103,117,15497,13598
12.3,1788428499301,5.267605781555176,5.014084339141846,-0.0017836280167102,0.0016219981480389,0.0045715477317571,0.9999867081642152,0.1675744085694785,-0.0014847395169555,-3.904331921647091e-05,0.0145523454993963,0.0153674306347966,-0.0073767467401921,-0.0021957736462354,0.0014099637046456,0.3318108916282654,0.943342387676239,0.0134803470731386,0.0351882674446861,-0.0536911216960428,-0.1960068345069885,-0.1181238293647766,-0.4620628356933594,53,110,15703,13224
12.4,1788428499401,5.267605781555176,4.760563373565674,-0.0016433001728728,0.0025968102272599,0.0013814648846164,0.9999942779541016,0.1645641594233706,-0.0044941409673026,-2.1554111718977345e-05,0.0012391874333843,0.0283992402255535,-0.0540221743285656,-0.0015160618349909,0.0002695797011256,0.3283270597457886,0.94456285238266,0.0086234801076467,-0.220586246181469,-0.1224118560152229,0.9731366634368896,-0.1019660234451294,-3.288582801818848,141,127,17854,13357
12.5,1788428499501,5.97183084487915,4.507042407989502,-0.0014067717129364,0.0015068940119817,-0.0052345138974487,0.9999841451644896,0.1666685781719779,-0.0033797165355572,7.891115130435102e-05,5.743720976170152e-05,-0.0060780546627938,-0.1861844211816787,-0.0019262703135609,-0.0004773717373609,0.3202794194221496,0.947321116924286,-0.0287519019268971,-0.047186967608911,-0.1829905028141468,0.8322359323501587,0.0123251080513,-3.085376262664795,137,128,14602,12834
12.6,1788428499601,5.267605781555176,4.450704097747803,-0.0020649170037359,-0.0001120093147619,-0.0130772721022367,0.9999123215675354,0.1807458513071694,0.0029227802999185,3.9563155381587975e-05,-0.0077963527292013,-0.0236448980867862,-0.1526804715394973,-0.0018781470134854,-0.0015738485381007,0.3119980692863464,0.9500795602798462,0.0010160541146443,-0.0047477541767639,-0.1238031777662968,-0.2476400136947631,0.0771178007125854,-0.1345329284667968,22,174,13122,14239
12.7,1788428499701,5.436619758605957,4.901408672332764,-0.0021787071600556,-0.0008841181988827,-0.0192214269191026,0.9998124837875366,0.1734620982034848,0.0044990425202722,7.103843177887735e-06,0.0046928143128752,-0.0026031383313238,-0.0595208890736103,-0.0017379559576511,-0.0016662189736962,0.310412049293518,0.9505991339683532,-0.0084658978677151,0.0346478543242699,-0.0545153168875074,-0.0148588418960571,-0.2489077448844909,-0.5861082077026367,104,136,13987,13655
12.8,1788428499801,5.380281925201416,4.816901206970215,-0.0024070569779723,-0.0012243768433108,-0.0210104342550039,0.9997755885124208,0.1773000677908719,0.0032605449523072,5.5042761556725335e-05,-0.0095994472503662,-0.0043330988846719,-0.0539632849395275,-0.0018838448449969,-0.0025388048961758,0.3085135817527771,0.9512147307395936,-0.0056878745461836,-0.0260832299110435,-0.0355996825405686,0.0577435493469238,0.0595183372497558,-0.7917842864990234,80,120,15479,13330
12.9,1788428499901,5.380281925201416,4.985915660858154,-0.0027633982244879,-0.0017958109965547,-0.0231337882578372,0.999726951122284,0.1703559130248962,0.002627563697,-4.303252850134479e-06,-0.0103302495554089,-0.0023922859691083,-0.0505838766694068,-0.0018938183784484,-0.00349529273808,0.3057136237621307,0.9521152973175048,-0.0009939109378505,-0.0230611709841929,-0.0463317733937007,-0.1635180115699768,-0.0651451349258422,0.3700056076049804,68,116,14843,14528
13.0,1788428500001,5.521126747131348,4.929577350616455,-0.0029811251442879,-0.0027591353282332,-0.0250758472830057,0.9996773600578308,0.1709743027508798,-0.0023496392294006,4.313610486218328e-05,-0.0036218245513737,-0.0170455705374479,-0.016977509483695,-0.0017361678183078,-0.0053192833438515,0.3045541942119598,0.9524785876274108,-0.0030599409524472,-0.0351965289997388,-0.057772245531098,0.0100161433219909,-0.1432709693908691,-0.4183263778686523,62,87,15066,13542
13.1,1788428500101,5.464788913726807,5.154929637908936,-0.0035424060188233,-0.004929628688842,-0.0272841751575469,0.9996092915534972,0.1659232908294031,-0.0038844814223067,4.832574125551385e-05,-0.011845133267343,-0.0422697588801384,-0.062048390507698,0.0003389371559023,-0.0059319790452718,0.303725391626358,0.9527410864830016,0.111702055632932,-0.0048815731286405,0.0535646331273373,-0.1737802028656005,0.0632582306861877,-0.11773681640625,139,78,14138,12916
13.2,1788428500201,5.323943614959717,4.788732528686523,-0.0014800571370869,-0.006206773687154,-0.0277647338807582,0.9995941519737244,0.1705156739297889,0.0026697908148108,0.0001050263020158,0.0038281488232314,0.0007767938077449,-0.0232794675976037,7.012020796537399e-05,-0.006169943138957,0.3004152178764343,0.9537886381149292,-0.0060057530742694,0.0514000877534997,-0.0728209106117386,-0.1365774869918823,0.1985079646110534,-2.1972217559814453,112,121,13929,13954
13.3,1788428500301,5.239436626434326,4.8450703620910645,-0.0018194393487647,-0.0056761931627988,-0.0314815640449523,0.9994865655899048,0.1740769686204617,0.001488137361687,-5.535974362302639e-05,0.0022410273086279,0.021888829767704,-0.063362069427967,0.0001368056982755,-0.005664562806487,0.2981930077075958,0.9544888734817504,0.0037870203804783,4.0773303271339245e-05,-0.0476202094023049,-0.1877748966217041,-0.1294220089912414,0.6935338973999023,131,97,13984,13750
13.4,1788428500401,5.380281925201416,5.154929637908936,-0.0014247043291106,-0.0054480354301631,-0.0338177531957626,0.9994121193885804,0.1670213949752828,0.0022768482519499,-3.068074874447449e-05,0.0120704425498843,0.0034335383679717,-0.0478447787463665,0.0005030632019042,-0.0055166976526379,0.2971479892730713,0.9548153281211852,0.0030973869718573,-0.0043312563732971,-0.0074628007766983,-0.0787053704261779,0.0296324491500854,1.040912628173828,167,103,14336,13684
13.5,1788428500501,5.521126747131348,4.929577350616455,-0.0010532145388424,-0.0054223868064582,-0.0345463007688522,0.999387800693512,0.1748103530544494,0.0035134994213972,-4.21191902742132e-05,0.0153650240972638,0.0016397516010329,-0.0306505672633647,0.0009119044989347,-0.0054609840735793,0.2949716746807098,0.955489993095398,0.0110416028906895,-0.0021684210445578,-0.0393279758101628,0.0158720016479492,-0.0208887457847595,0.2785978317260742,95,157,12765,14692
13.6,1788428500601,5.436619758605957,4.8450703620910645,-0.0009181546629406,-0.0054021906107664,-0.0363559275865554,0.9993239045143129,0.1623504985299871,0.001986112261148,-1.5293303753981377e-05,0.0065664784051477,0.0034866835922002,-0.0304054748266935,0.0010300716385245,-0.0057066185399889,0.2945971190929413,0.9556039571762084,-0.0002379336464744,-0.0211083369502578,-0.0542074881532676,-0.1715753674507141,-0.2212139368057251,0.7725028991699219,97,103,13977,13689
13.7,1788428500701,5.154929637908936,5.014084339141846,-0.0008642338798381,-0.0056958817876875,-0.0378037057816982,0.9992685317993164,0.1656977492723713,-0.0009054960781059,8.43512116454576e-06,0.0019751514773815,-0.0049489052034914,-0.0494145005941391,0.001386921852827,-0.0057234624400734,0.292959988117218,0.956106662750244,0.0176323387187152,-0.0187340525264775,0.0058380971042635,0.454984188079834,0.0041876435279846,-0.2469282150268554,102,88,14116,13327
13.8,1788428500801,4.901408672332764,4.957746505737305,-0.0006282095564529,-0.0053735543042421,-0.0388356409966945,0.9992310404777528,0.1700211206810968,0.001344425322098,-2.8112520214138606e-05,0.0082882605493068,0.0100562842562794,-0.0178968533873558,0.0007558185607194,-0.0047279549762606,0.2910032868385315,0.9567101001739502,-0.0278522735589434,0.0588255187741504,-0.0515972476971425,0.0159215331077575,0.0352482199668884,-1.014744758605957,91,125,12539,14131
13.9,1788428500901,4.816901206970215,5.098591327667236,-0.0006655773031525,-0.0049095246940851,-0.0404743887484073,0.9991682767868042,0.1703920682324697,0.0029297558612422,-2.458519663508325e-06,4.162385991435258e-09,2.430536127917549e-08,4.566732059174683e-07,0.0008892063051462,-0.0047127604484558,0.2912684679031372,0.9566293358802797,-0.0069275263649557,0.0187174596412156,-0.0027823676023243,0.1819635033607483,0.0904201865196228,-1.4413137435913086,123,112,15214,13754
14.0,1788428501001,4.676056385040283,5.042253494262695,-0.0006655771867372,-0.0049095246940851,-0.0404743663966655,0.9991682767868042,0.1758925257057291,0.0021579686501992,-2.727914337252438e-07,4.933641051252381e-09,6.32122754140596e-09,4.736295409202285e-07,0.0010860320180654,-0.0053330501541495,0.2912393510341644,0.956634759902954,-0.0048710436544991,-0.0313469720274737,0.0036828332250223,-0.0699410438537597,-0.1865864396095276,1.0424013137817385,70,119,15123,14055
14.1,1788428501101,4.647887229919434,4.873239517211914,-0.0007213340140879,-0.0044963494874536,-0.0402830503880977,0.999177873134613,0.1724873460440307,0.0003713083627299,2.594049383099273e-06,-0.0030318594072014,0.0174094438552856,0.0081470562145113,0.0007620211690664,-0.0060472264885902,0.2910470962524414,0.9566893577575684,-0.014480170236467,-0.0309586460209627,-0.0261254335634736,0.5022705793380737,-0.2508397698402405,-4.178460121154785,77,155,13081,14767
14.2,1788428501201,5.154929637908936,5.070422649383545,-0.0009489256190136,-0.0051759118214249,-0.0393829904496669,0.999210238456726,0.1710016564082826,0.0026878140253194,0.0001214733400706,-0.0014814938185736,-0.0045276009477674,0.0269822031259536,0.0004399754106998,-0.0050308853387832,0.2927305996417999,0.9561815857887268,-0.0162129280011271,0.0091457924025853,-0.0087601431805043,0.1721575856208801,-0.039685308933258,-0.548130989074707,121,93,13594,14437
14.3,1788428501301,5.154929637908936,5.239436626434326,-0.0011357376351952,-0.0047188540920615,-0.0387181863188743,0.99923837184906,0.1735236429085253,0.0009845172865634,-6.288977285660403e-07,-0.0024334266781806,0.0162938516587018,0.0121976528316736,0.0003607207909226,-0.0045120092108845,0.2928873896598816,0.9561362266540528,-0.0007001985678722,0.0043982491788992,-0.0037218375560902,-0.3927002549171448,-0.0293919444084167,0.3188705444335937,158,93,14041,13604
14.4,1788428501401,4.957746505737305,5.126760482788086,-0.0011357378680258,-0.0047188540920615,-0.0387181639671325,0.99923837184906,0.1736955134001056,-0.0039016169216964,-2.0162703394982715e-06,-2.469287441186907e-09,4.012592036417573e-09,4.741031887078862e-07,0.0003436207771301,-0.0048045935109257,0.292082667350769,0.9563810229301452,-0.0097327575296569,-0.0161952832565778,-0.0094021787265851,0.058497130870819,-0.1004729270935058,-0.0043830871582031,131,104,13307,14532
14.5,1788428501501,4.873239517211914,5.126760482788086,-0.0014496146468445,-0.0043354076333343,-0.0394796654582023,0.9992098212242126,0.1772277138430162,0.002884765151963,-1.963861522233442e-06,-0.0145257590338587,0.007673364598304,-0.0152118727564811,1.4807097613811491e-05,-0.0040146997198462,0.2925579249858856,0.9562394022941588,0.0075047544472356,0.0195143941941132,0.0242991783427212,-0.1978306174278259,0.1648696660995483,0.2080106735229492,195,123,15388,14327
14.6,1788428501601,4.985915660858154,5.042253494262695,-0.0014496148796752,-0.0043354076333343,-0.0394797325134277,0.9992098212242126,0.1757572089845785,0.0029478016170307,1.4785053006815704e-06,-1.0106401049370106e-08,-5.6848508123152905e-09,-1.131916860686033e-06,0.0001992937177419,-0.0042486106976866,0.2925433814525604,0.956242859363556,-0.0016365926403533,-0.0378186356444723,0.0036716537585523,0.1275892853736877,0.1540381908416748,0.0860748291015625,108,112,15053,13797
14.7,1788428501701,5.380281925201416,5.042253494262695,-0.0012981217587366,-0.0038959782104939,-0.0392706133425235,0.9992201924324036,0.165872259221465,0.0021718981911546,-8.715388464102996e-07,0.0,0.0,0.0,-4.987511783838272e-05,-0.0050623482093214,0.2928319275379181,0.9561505913734436,-0.0388086891932797,-0.0663447197205732,0.0077107551249657,0.3907251358032226,0.282963752746582,-0.3906784057617187,86,86,13485,14076
14.8,1788428501801,5.154929637908936,4.563380241394043,-0.0018635059241205,-0.0051730209961533,-0.0390184037387371,0.9992233514785768,0.1809632620549977,0.002488985434127,0.0002495291509243,-0.0277556907385587,-0.0584369115531444,-0.0018736140336841,-0.0029629319906234,-0.0040629738941788,0.2911164760589599,0.9566744565963744,-0.0958273456363301,0.1064677877244142,-0.0923720783899554,0.2609370946884155,0.060066282749176,-0.3683357238769531,126,212,13283,15783
14.9,1788428501901,5.323943614959717,5.070422649383545,-0.0043138558976352,-0.0028929631225764,-0.0400634780526161,0.9991835355758668,0.1761556725986032,0.0100324307010255,-0.0001476521517235,-0.0368693806231021,0.0277086682617664,-0.0020492009352892,-0.0031789671629667,-0.0043110605329275,0.2932860553264618,0.956009805202484,-0.0088160062411923,-0.0196241095940695,0.0303645546493738,0.1444944739341735,0.2930563688278198,-0.1430225372314453,182,89,14318,14030
15.0,1788428502001,5.352112770080566,5.070422649383545,-0.0042286803945899,-0.0028789094649255,-0.0383293144404888,0.9992520809173584,0.1691228490897624,-0.0006303156874932,3.0744040293314775e-07,0.0041784918867051,-0.0041132559999823,0.0171502735465765,-0.0027217846363782,-0.0042473636567592,0.2934552729129791,0.9559595584869384,0.0165835375587518,0.0017258690063282,-0.0033126657427206,-0.3114234805107116,-0.124995470046997,0.3730459213256836,155,96,15225,13869
15.1,1788428502101,4.760563373565674,5.126760482788086,-0.0040510226972401,-0.0031751382630318,-0.0380610562860965,0.9992622137069702,0.1701296954440772,0.0019881137112075,9.116663564995836e-07,-4.3006869177020235e-09,3.6248646750891567e-08,-9.43693521548994e-07,-0.0025376453995704,-0.0043403944000601,0.2933935225009918,0.955978512763977,0.0114112399311817,-0.0003678897427283,-0.0012168962699595,-0.1809779405593872,-0.0457591414451599,-0.2031526565551757,92,109,15232,13716
15.2,1788428502201,4.985915660858154,5.070422649383545,-0.003890870604664,-0.0033918707631528,-0.0380467735230922,0.9992626309394836,0.16925650585543,0.0019527297435583,4.235254169410552e-06,0.0069983066059648,-0.0087528973817825,0.0005368082784116,-0.0020419573411345,-0.0049434080719947,0.2935186326503753,0.955938458442688,0.0070108753328867,-0.0090353458686886,0.0060432789830344,0.0761865377426147,-0.1838724613189697,0.2313690185546875,126,120,15374,13977
15.3,1788428502301,5.352112770080566,5.014084339141846,-0.0036810801830142,-0.0041565848514437,-0.0381864607334136,0.9992551803588868,0.1739870718564686,0.0009756294747773,4.0644628326351546e-05,0.0013943844242021,-0.0147477220743894,-0.006151367444545,-0.0020066071301698,-0.0054584173485636,0.2931514978408813,0.9560483694076538,0.0015051608561474,0.0071502855803178,0.0044232586318271,-0.1671663522720337,0.1308976411819458,0.2020378112792968,65,127,15050,14240
15.4,1788428502401,5.521126747131348,4.8450703620910645,-0.0038702569436281,-0.0044685690663754,-0.0386703871190547,0.9992344975471495,0.1707543957279566,0.0013554548049813,-1.4476487766029537e-07,-0.0062826783396303,-0.0009112471016123,-0.0094214519485831,-0.0021260976791381,-0.0056998562067747,0.2917179465293884,0.9564850330352784,-0.0019909214502746,-0.0168724211388627,-0.0594282788186266,0.0893404483795166,0.0973426699638366,-0.0291671752929687,69,102,15215,13534
15.5,1788428502501,5.464788913726807,4.901408672332764,-0.0041391416452825,-0.0046945167705416,-0.0411305837333202,0.9991341829299928,0.1654558022491772,-0.002566529858199,1.6949392443756745e-05,-0.0082474397495388,-0.0047933291643857,-0.0627422705292701,-0.0024745855480432,-0.005502819083631,0.289347231388092,0.9572051763534546,0.0033189762985442,0.0273856053479788,-0.0388856990197565,-0.0504125356674194,-0.1641944050788879,-1.0354242324829102,92,113,14243,13640
15.6,1788428502601,4.985915660858154,4.957746505737305,-0.00410907715559,-0.0041131093166768,-0.0433389097452163,0.9990435242652892,0.1682137305682182,-0.0015253812281973,-4.356539161001214e-05,0.0017133454093709,0.0193094294518232,-0.051768347620964,-0.0026189368218183,-0.0048596262931823,0.2873989045619964,0.9577950835227966,-0.000285600205358,0.0188414739619378,-0.0509531553647917,0.0374513864517211,0.1621838212013244,-0.5135116577148438,76,127,14238,14052
15.7,1788428502701,5.014084339141846,4.873239517211914,-0.003664884250611,0.0011794527526944,-0.0453563928604126,0.9989634156227112,0.1685999370771867,-0.0020691538071376,-0.0005746117137843,0.0062457346357405,0.1975272744894027,-0.0338384881615638,-0.0038390103727579,-0.0009898794814944,0.2849215567111969,0.9585426449775696,-0.003044850594143,0.0434759119522807,-0.0844759203834252,0.155713677406311,0.0638414025306701,0.495793342590332,88,133,14251,14011
15.8,1788428502801,5.070422649383545,4.957746505737305,-0.00364965130575,0.0002218965964857,-0.047972522675991,0.9988419413566588,0.1735663701908985,0.0020074761378391,-0.0002034895856437,0.007932461798191,0.0157871376723051,-0.053896140307188,-0.0032775150611996,-0.0008979579433798,0.28248131275177,0.9592668414115906,0.0192291763438068,0.0015162023465533,-0.0645700584742913,-0.3829338550567627,-0.1003615260124206,0.7340545654296875,61,98,13882,13623
15.9,1788428502901,5.436619758605957,4.929577350616455,-0.003272044006735,-9.359631803818049e-06,-0.0509538874030113,0.99869567155838,0.1761649768505702,0.0039639181864414,3.995236897574645e-05,0.0098871476948261,-0.0110345212742686,-0.080991193652153,-0.0031488686800003,-0.000919871032238,0.2800749242305755,0.9599725008010864,-0.0067304647893111,0.0146473616304595,-0.0498187069661337,0.0796259641647338,0.001724898815155,-0.7220497131347656,90,107,14030,13756
16.0,1788428503001,5.211267471313477,4.873239517211914,-0.003193289740011,0.0003190991119481,-0.0531603246927261,0.998580813407898,0.1679964592545681,0.0016452954694602,-4.588142046402258e-05,-0.0013837766600772,0.0017822553636506,-0.0388080142438411,-0.0030001504346728,-0.0008067796006798,0.2775052785873413,0.960719108581543,0.0052001553402366,-0.0151103482353296,-0.034100409203006,0.0355393886566162,-0.0912405848503112,0.6104669570922852,86,120,15594,13521
16.1,1788428503101,5.380281925201416,4.901408672332764,-0.002974608214572,0.000578372797463,-0.0553875192999839,0.998460292816162,0.1707601927683015,-0.0008158441387036,-2.1052334936587543e-05,0.0073561910539865,0.0120711717754602,-0.0454212501645088,-0.0029598856344819,-4.897359758615494e-05,0.2753286063671112,0.9613456130027772,0.0069262149322643,0.0171044874267187,-0.0471974741779002,0.1123797297477722,-0.0376271605491638,0.2550458908081054,79,123,15690,14162
16.2,1788428503201,5.295774459838867,5.042253494262695,-0.0026977537199854,0.0010463225189596,-0.0579636134207248,0.9983144402503968,0.1777763056895036,0.0018789854006151,1.5643306717253093e-05,0.0049536665901541,0.0079786935821175,-0.0458400063216686,-0.0028809458017349,0.0001871883869171,0.2737032175064087,0.9618098735809326,-0.0013988250603106,-0.0031499199737104,-0.0328175721086927,-0.2698850631713867,0.0028982758522033,0.1994199752807617,73,100,14353,14288
16.3,1788428503301,5.183098793029785,5.098591327667236,-0.0037234153132885,0.0001587377919349,-0.059167243540287,0.9982411861419678,0.1693338441986684,-2.712987944094404e-05,6.184385932423073e-05,-0.0441912971436977,-0.0449880994856357,-0.0338479839265346,-0.004743711091578,-0.0027706455439329,0.2717662155628204,0.962347686290741,-0.0007167968004051,0.0570711705659138,-0.0482826053086999,-1.4404934644699097,-0.302062451839447,1.6411075592041016,48,152,12388,15011
16.4,1788428503401,5.492957592010498,5.126760482788086,-0.0047306595370173,-0.0019194453489035,-0.0584202855825424,0.9982790350914,0.1631213034254339,-0.0004058525309809,2.1465993345217133e-05,0.023972850292921,-0.0238370709121227,0.0802720710635185,-0.0006186999380588,-0.0051661720499396,0.2766373455524444,0.960960328578949,0.116498169047874,-0.1487914837235952,0.080934351356897,-0.1292080283164978,-0.1537798643112182,0.5446872711181641,155,79,14280,13298
16.5,1788428503501,5.211267471313477,4.873239517211914,-0.0022307122126221,-0.0044000088237226,-0.0546935424208641,0.9984909892082214,0.1804460772597986,-0.0028522807852848,6.499725173126199e-05,0.0178265292197465,-0.0080722896382212,0.052988976240158,-0.0006582075729966,-0.0050488803535699,0.2760941982269287,0.961117148399353,-0.0105221787124487,0.0302254563725705,-0.0899588662903198,-0.0383321642875671,0.0766916871070861,-0.377908706665039,177,156,15559,14887
16.6,1788428503601,4.901408672332764,5.070422649383545,-0.0021547062788158,-0.0050775376148521,-0.0572458244860172,0.998344898223877,0.1681888098783912,-0.0044096684492218,5.589738634678338e-05,0.0064293406903743,-0.0147625897079706,-0.0539687760174274,-0.0003301026299595,-0.0054764337837696,0.2745493352413177,0.9615573287010192,-0.0052722151532684,-0.0072657173225709,0.004269552447119,0.5016972422599792,0.0323808789253234,-1.5092811584472656,89,128,14414,15257
16.7,1788428503701,4.957746505737305,4.985915660858154,-0.0020732923876494,-0.005236221011728,-0.0570767149329185,0.998353898525238,0.1763091534193688,0.0009610423965412,2.735666538602401e-06,0.0050835805013775,-0.0105525674298405,0.0207187496125698,-0.000195694155991,-0.0053014513105154,0.275722861289978,0.961222529411316,0.0023451222664365,0.0256158651097297,-0.0023676839181383,-0.1175851821899414,-0.3053184151649475,-0.0447330474853515,73,101,14496,14047
16.8,1788428503801,5.380281925201416,5.154929637908936,-0.0020172768272459,-0.0047204229049384,-0.0568093433976173,0.9983718395233154,0.1799357969889114,-0.0069608648883852,-5.877504942421964e-05,0.0011466452851891,0.0212603453546762,0.0110365645959973,-0.0004240460693836,-0.0044767512008547,0.2763960063457489,0.961033284664154,0.0023541442585611,0.0274114006525125,0.0543639388712531,-0.2158658504486084,-0.0310815572738647,0.1155900955200195,94,77,15011,14131
16.9,1788428503901,5.098591327667236,4.957746505737305,-0.0019184208940714,-0.0040024858899414,-0.0552466548979282,0.9984629154205322,0.1824059396768857,0.0010211787010442,-3.173987324475793e-05,-0.0013918525073677,0.0126546407118439,0.0218816846609115,-0.0005003251135349,-0.0051723709329962,0.2767826616764068,0.9609185457229614,-0.007676855364565,-0.0214099187639035,-0.0131162764163655,0.2061089873313903,-0.0403032898902893,0.1104145050048828,103,116,13146,14210
17.0,1788428504001,4.788732528686523,5.070422649383545,-0.0020985945593565,-0.0045004622079432,-0.0553902797400951,0.9984524250030518,0.1809847681789046,-0.000475302508091,0.0001234779411864,-0.0064364573918282,-0.0213284771889448,-0.0060694683343172,-0.0004599168896675,-0.0048387190327048,0.277062177658081,0.9608396887779236,-0.0037037750487329,-0.0056284595256703,0.0132211577363008,-0.0642513632774353,0.170761227607727,-0.5717992782592773,132,105,13097,13940
17.1,1788428504101,4.732394218444824,5.098591327667236,-0.0019189341692253,-0.0043166275136172,-0.0550241991877555,0.9984737634658812,0.1779434170560616,0.000774068917201,-1.544675627341414e-05,0.007133605889976,0.0080493409186601,0.015289376489818,-0.0004861867055296,-0.0040223291143774,0.2772608399391174,0.9607861042022704,0.0088341903195911,0.0538084741300866,-0.0084007506287131,-0.1673560142517089,-0.0936095714569091,-0.5977535247802734,113,113,15317,14153
17.2,1788428504201,4.760563373565674,5.098591327667236,-0.0018395439255982,-0.0039140204899013,-0.0549849569797515,0.998477816581726,0.1810945710213215,-0.0062045622253534,1.4499421321854475e-06,0.0,-9.240956333478323e-10,0.0,-0.0009622601792216,-0.0034055719152092,0.2767283320426941,0.9609416723251344,-0.0099589464056969,0.0168201803328797,-0.0148414968877033,-0.5507204532623291,-0.1811820268630981,0.6770925521850586,49,123,14287,14236
17.3,1788428504301,4.901408672332764,5.042253494262695,-0.001921895192936,-0.0027346941642463,-0.0553379319608211,0.9984620213508606,0.1812783291749321,-0.0006819951699232,-5.469239066856123e-05,0.0013712641084566,0.0205913819372653,0.0019245955627411,-0.0014537619426846,-0.0018480261787772,0.2769753634929657,0.9608741402626038,-0.0133012659896186,0.0575486817463328,-0.0152251689112774,0.8967382907867432,0.0301887989044189,-0.2182331085205078,58,134,12966,14715
17.4,1788428504401,5.183098793029785,5.239436626434326,-0.0022798811551183,-0.0012293579056859,-0.0547713823616504,0.9984955787658693,0.173622978216852,0.002745532886712,-0.0001743926276579,-0.0156139405444264,0.0181415453553199,0.018933929502964,-0.0010048383846879,-0.0039710523560643,0.2790222764015198,0.960275948047638,-0.0027162980588549,-0.040831075618332,0.0537640182318194,0.6818410158157349,0.1412938237190246,0.4035930633544922,189,124,13656,15437
17.5,1788428504501,4.732394218444824,5.211267471313477,-0.0022601860109716,-0.0027160958852618,-0.0516085959970951,0.9986611008644104,0.1856323942809,0.0006227988896535,-8.02906161889551e-05,-0.0020490204915404,-0.0122623015195131,0.0536797605454921,-0.0009032413363456,-0.0040703872218728,0.2822268307209015,0.9593386054039,0.0121054191522537,-0.0906112692567567,0.0537208221525967,0.2845503091812134,0.1848815083503723,-0.2772026062011719,114,100,14744,14547
17.6,1788428504601,5.042253494262695,5.239436626434326,-0.0023301874753087,-0.0028727285098284,-0.0494116656482219,0.9987716674804688,0.1770407429373536,0.0036753446057156,5.9978973880472286e-05,-0.0057306247763335,-0.0028486761730164,0.037361305207014,-0.0014813179150223,-0.0029692435637116,0.2848650515079498,0.9585619568824768,-0.0145104643466934,0.0756739572551463,0.0713111741402887,-0.3866968750953674,-0.1348556876182556,0.2083101272583007,101,134,15167,14743
17.7,1788428504701,5.042253494262695,5.183098793029785,-0.0021833430510014,-0.0026005287654697,-0.0460252650082111,0.9989345073699952,0.1815870445701904,0.0025924740692182,1.7170586900673904e-05,0.0055100172758102,0.0043641235679388,0.0583151169121265,-0.0011413302272558,-0.0034590428695082,0.2870552539825439,0.9579070806503296,0.0074040530308911,-0.0574569641733945,0.0469619433263915,0.3207775354385376,-0.0479079484939575,-0.08221435546875,71,115,12770,14655
17.8,1788428504801,4.901408672332764,5.014084339141846,-0.0025767537299543,-0.0020127592142671,-0.0443784892559051,0.9990094304084778,0.1830129761288351,0.0028650557355216,-0.0001017195386332,-0.0154882334172725,0.0214446522295475,0.0217000246047973,-0.0019715316593647,-0.0034900279715657,0.2880297005176544,0.957613170146942,0.0014523838846897,-0.0659291434599348,-0.0144341677386933,0.1415240168571472,-0.1283996701240539,0.3179769515991211,162,122,14183,14242
17.9,1788428504901,4.8450703620910645,5.098591327667236,-0.0031611043959856,-0.0020576601382344,-0.0442775562405586,0.9990121722221376,0.1758728946182495,-0.002900104409235,-1.674220378475815e-05,-0.0094984928146004,-0.0025265386793762,-0.0189166087657213,-0.0023096436634659,-0.0030611278489232,0.2873880863189697,0.9578065872192384,-0.0028170426183587,0.0345974285423408,0.0054325817909356,-0.3064587712287903,0.2807284593582153,-0.1266717910766601,112,100,15071,13914
18.0,1788428505001,4.478873252868652,5.183098793029785,-0.0035362294875085,-0.0032685894984751,-0.0446590073406696,0.9989906549453736,0.1809145904419606,-0.0027680119002532,0.0001769365290097,-0.0133477859199047,-0.05078861489892,-0.0159633811563253,-0.0015356866642832,-0.0033301087096333,0.2876717150211334,0.957722008228302,0.0706060684893781,0.069436512236785,0.0428268280010335,0.1476849317550659,-0.2157304883003235,-0.7061910629272461,86,96,14558,14242
18.1,1788428505101,5.070422649383545,4.985915660858154,-0.0012296275235712,-0.0028117233887314,-0.0427940934896469,0.9990792274475098,0.1839900054091524,-0.0005101430199542,1.02619573823146e-05,0.0578436665236949,-0.0002420457021798,0.0556400455534458,-0.0006911922246217,-0.0021608211100101,0.2902371287345886,0.9569521546363832,-0.0147269590319916,0.0096422541435834,0.0233869646132258,0.3909730315208435,-0.3082426190376282,0.0406408309936523,137,154,12910,14762
18.2,1788428505201,5.323943614959717,5.014084339141846,-0.0015151870902627,-0.001497377990745,-0.040359579026699,0.999182939529419,0.1817324523826284,-0.0011927834196748,-9.683074457181092e-05,-0.009965899400413,0.0157908722758293,0.0453118532896041,-0.0014939066022634,-0.0018230732530355,0.291262686252594,0.9566402435302734,-0.0144204307739776,0.0194371740640772,-0.01911750562755,-0.172927439212799,0.0369400382041931,0.1292753219604492,111,154,14322,14908
18.3,1788428505301,4.619718074798584,5.408450603485107,-0.0017555962549522,-0.0009917598217725,-0.0392169617116451,0.9992287158966064,0.1821199090629723,0.0001028598412426,-3.784195227900906e-05,-0.0109411217272281,0.0208746027201414,0.0483842603862285,-0.0013853507116436,-0.0019861608743667,0.2938163578510284,0.9558588862419128,-0.007598288620118,-0.0250964173081642,0.0644339369116192,-0.0561231970787048,-0.3498096466064453,-0.0620918273925781,57,117,14800,14770
18.4,1788428505401,5.183098793029785,5.295774459838867,-0.0019022065680474,-0.0017585362074896,-0.0362336859107017,0.999339997768402,0.1817708531223264,-0.0007992701764876,4.082987539145803e-05,0.0002094580122502,-0.0185135528445243,0.058276031166315,-0.0011410703882575,-0.0023397179320454,0.2967815101146698,0.9549419283866882,0.0063972565732835,0.0036881259241026,0.0498605952803677,-0.0084410309791564,-0.0563327074050903,0.1074724197387695,50,125,14839,15185
18.5,1788428505501,4.816901206970215,5.267605781555176,-0.001604578574188,-0.0017382486257702,-0.0338164567947387,0.9994252324104308,0.1816866342925872,-0.000710219857847,-3.912986243692765e-05,0.0137204984202981,0.0124502284452319,0.0565048269927501,-0.000775471329689,-0.0023834463208913,0.2988696098327636,0.9542906284332277,0.0091809532877765,-0.0023574486849739,0.0395816918685,0.0265604853630065,-0.2321577668190002,-0.4138774871826172,93,132,12902,14656
18.6,1788428505601,4.8450703620910645,5.126760482788086,-0.0013524499954655,-0.0018425936577841,-0.0314048491418361,0.9995041489601136,0.183540314294501,-0.0013653006481302,2.381688240607231e-07,0.0104918535798788,0.0003731606702785,0.0821762457489967,-0.0006323149427771,-0.002091116271913,0.3008142113685608,0.9536803364753724,-0.0026281923356909,-0.0027868662016701,0.0103794088165951,-0.2328813076019287,-0.1527517437934875,-0.148015022277832,156,92,15482,13641
18.7,1788428505701,4.760563373565674,5.042253494262695,-0.0012659055646508,-0.0015494464896619,-0.0304896496236324,0.9995331168174744,0.1837061974658817,-0.0026782367467346,-1.456671984095008e-06,-7.672026347549377e-10,1.3809646759455063e-09,-4.713692760560662e-07,-0.0004385085776448,-0.0023105172440409,0.3000842034816742,0.9539098739624025,-0.0075204341034028,-0.0131767643105482,-0.0155019408284716,-0.0731161832809448,0.120035171508789,0.4346122741699219,52,107,15216,14126
18.8,1788428505801,4.788732528686523,5.042253494262695,-0.0011594200041145,-0.0022084603551775,-0.0310324989259243,0.9995152950286864,0.1818299916250377,-0.0015795058872807,5.951868035875116e-05,0.0010366656351834,-0.0105259986594319,-0.012646198272705,-0.0008760802447795,-0.0023687612265348,0.2999440133571625,0.953953504562378,-0.0050880048073247,-0.0040154649056244,0.013647305800635,-0.2692242860794067,-0.0724682807922363,0.3783273696899414,72,109,13700,14382
18.9,1788428505901,5.070422649383545,5.154929637908936,-0.0015122790355235,-0.0017904951237142,-0.0311409290879964,0.999512255191803,0.1814959789910321,-0.0031990789027207,-9.444700839045418e-05,-0.0154931424185633,0.0172304566949605,-0.0045396904461085,-0.000923566520214,-0.0016288701444864,0.3003416061401367,0.9538298845291138,0.0016382709147249,0.0286259046725232,0.0011626429809626,0.2140231132507324,0.0132076144218444,-0.7637052536010742,102,82,12572,14324
19.0,1788428506001,5.408450603485107,4.985915660858154,-0.0013015215517953,-0.001186694484204,-0.0308037139475345,0.9995238780975342,0.177251085680181,-0.0024898768614525,-4.275719182899872e-05,0.0054744100198149,0.007590445689857,0.0056416033767163,-0.0025589084252715,0.0032076248899102,0.3009783327579498,0.9536221623420716,-0.0284415269301867,0.2484179719440255,0.0097866988566189,-0.0229823589324951,0.0403943061828613,-2.8775830268859863,145,149,13835,15236
19.1,1788428506101,4.760563373565674,5.239436626434326,-0.0014346292009577,0.0018928948557004,-0.0293696075677871,0.9995657205581664,0.1773522627296839,0.0018309205623466,-0.0005403679146823,-0.010418795980513,0.0291719567030668,0.0323255844414234,-0.002126470208168,0.0012740958482027,0.3033868372440338,0.9528642892837524,-0.0013010835655686,0.0771917636093669,0.0579715802885324,0.2242226004600525,0.1601060628890991,-3.4809017181396484,123,126,15344,14459
19.2,1788428506201,5.183098793029785,5.098591327667236,-0.0016335967229679,0.0015691667795181,-0.0274371448904275,0.9996209740638732,0.184257980497759,-0.0042310613974593,2.470924175338512e-05,-0.0038403642829507,-0.0053803054615855,0.0403680577874183,-0.002142246812582,0.0007284190505743,0.3048131763935089,0.9524094462394714,-0.0091904920336797,0.0126514961754045,0.0474654497430755,-0.0633389949798584,-0.0022969841957092,-0.3921899795532226,70,149,14346,14713
19.3,1788428506301,5.154929637908936,5.154929637908936,-0.0017442692769691,0.0010014335857704,-0.0251622796058654,0.9996813535690308,0.1774463429010036,0.0044179767531663,3.514545547017343e-05,0.0015959914308041,-0.0111487787216901,0.046491265296936,-0.0018945643678307,0.0009999526664614,0.3061175644397735,0.9519913792610168,0.006464889738807,0.0212118401880449,-0.0339097472227549,-0.3168844580650329,-0.0902533531188964,0.652766227722168,74,116,12438,15174
19.4,1788428506401,4.816901206970215,4.929577350616455,-0.0015054458053782,0.0014948375755921,-0.0246253311634063,0.9996944665908812,0.1776908952445839,-0.0040871349405614,-5.349116162056765e-05,0.0056737177073955,0.0154348379001021,-0.0015072621172294,-0.0024526519700884,0.0022432310506701,0.3063940703868866,0.9518989324569702,-0.0175272954175833,0.047117141292536,-0.0247579829703522,0.0726497769355773,-0.0444090366363525,0.0280237197875976,138,97,13374,14412
19.5,1788428506501,4.647887229919434,5.211267471313477,-0.0016837958246469,0.003004313679412,-0.024595471099019,0.9996914863586426,0.178152548734489,-0.0013907405857649,-5.909341853775193e-05,-0.0062909740954637,0.0102668544277548,-0.0045172949321568,-0.0027574226260185,0.0023221159353852,0.3070465624332428,0.9516876935958862,0.0122002529522473,0.0037429349559944,0.0343187806993364,0.0186145305633544,0.0694423913955688,-0.3291664123535156,118,117,15140,13934
19.6,1788428506601,4.873239517211914,5.183098793029785,-0.0018527118954807,0.0026799615006893,-0.024028155952692,0.999705970287323,0.1834521938422704,-0.0032144557102459,-2.494810761097328e-06,-0.0006907057831995,-0.0174057353287935,0.004690967965871,-0.0026145903393626,0.0011291969567537,0.3068729937076568,0.9517462253570556,-0.0199079765864426,-0.0269729011619179,0.0008476170150839,0.2545011639595032,0.3210830688476562,-1.443986892700195,45,121,14455,14532
19.7,1788428506701,4.901408672332764,5.154929637908936,-0.0019507698016241,0.0023581823334097,-0.0240015275776386,0.9997072219848632,0.1804579689551068,-0.0019746798676595,-3.252660579162316e-06,0.0,3.7035752242786653e-09,0.0,-0.0018204683437943,-0.0009140726178884,0.3069573640823364,0.9517211318016052,0.0512708641447024,-0.0475090438770907,0.0020120026413121,-0.298875629901886,-0.1806297898292541,-0.075113296508789,49,95,13018,14092
19.8,1788428506801,5.211267471313477,4.957746505737305,-0.0014498077798634,0.0002018957602558,-0.02309026196599,0.9997323155403136,0.1718862779755766,0.0010200703362616,9.686410316064666e-05,0.0354010872542858,0.0069090281613171,0.0329432412981987,-0.0014325268566608,0.0001274291425943,0.3078596889972687,0.9514307379722596,0.0044828577376179,-0.0168047569723318,-0.0023414716913258,0.6344886422157288,0.1183879375457763,-0.7728338241577148,209,114,14658,14094
19.9,1788428506901,5.690140724182129,4.8450703620910645,-0.0013838654849678,0.0014508402673527,-0.0239168964326381,0.9997119307518004,0.1816655109961001,-0.0037057572577395,-0.0001889263236029,-0.0015552209224551,0.0331819504499435,-0.03737149015069,-0.0018767612054944,0.0009857714176177,0.3051223754882812,0.9523108601570128,-0.0018830841637745,-0.0543579106546476,-0.0428536114399056,0.5055374503135681,0.0335587859153747,-0.0421323776245117,141,109,13901,14062
20.0,1788428507001,5.464788913726807,4.985915660858154,-0.001468796050176,0.002272255718708,-0.0262714773416519,0.9996511936187744,0.1803359888829007,-0.0034314284765015,-4.090713802969422e-05,-0.0022878602612763,0.0153473522514104,-0.037590604275465,-0.0021079760044813,0.0013928534463047,0.3027566075325012,0.953064501285553,-0.016409688344217,0.0535749543072225,-0.0685621063214622,-0.225177526473999,-0.0817296504974365,-1.2335023880004885,83,106,14338,14252
20.1,1788428507101,5.549295902252197,4.929577350616455,-0.0015119712334126,0.0008629039512015,-0.0290969219058752,0.9995750784873962,0.1852515601541411,-0.0027421095205821,7.691480615387445e-05,-0.0018412201898172,-0.040694709867239,-0.0516814701259136,-0.0013623731210827,0.000211376696825,0.3008742034435272,0.9536628127098083,0.0269879925346232,-0.0322494493574807,-0.0394981825726686,0.1517629027366638,-0.0884256362915039,0.8302030563354492,72,107,14667,13873
20.2,1788428507201,5.436619758605957,4.788732528686523,-0.0006560873589478,0.000621544138994,-0.0313293300569057,0.9995086789131165,0.1805557497514645,-0.0014034026396534,-6.113152507147984e-07,0.0203791745007038,-0.0027409137692302,-0.0365956090390682,-0.0006138337776064,0.0002726670354604,0.2990702986717224,0.9542308449745178,0.0063715088101863,-0.0119673584802732,-0.0498853346136737,0.0770044326782226,0.0081244111061096,-0.3748006820678711,76,136,14089,13588
20.3,1788428507301,5.521126747131348,4.901408672332764,-0.0005098455585539,0.0011387804988771,-0.0340531282126903,0.9994191527366638,0.1730928196512447,-0.0040679918073662,-1.7662317827639703e-05,-0.0027713333256542,0.0107717085629701,-0.0615718178451061,-0.0007938258349895,0.0005989549681544,0.2961743772029876,0.955133318901062,0.0010869380631923,-0.0176216042145268,-0.0254791850644217,0.1055472493171691,-0.0310667157173156,0.1135625839233398,116,145,13920,13825
20.4,1788428507401,5.070422649383545,5.014084339141846,-0.0008228307124227,0.0004727376799564,-0.0359359569847583,0.9993535876274108,0.1806521435001432,-0.0034857729628901,-1.7955355873712548e-05,-0.0121895363554358,-0.0168418101966381,-0.0363203696906566,-0.0005734171718358,-0.0007134871557354,0.2943429946899414,0.9556994438171388,0.0064015151875092,-0.0289620185876354,-0.0344132256698726,-0.1232103109359741,0.163314938545227,-0.0764694213867187,99,106,13551,13952
20.5,1788428507501,5.408450603485107,4.957746505737305,-0.0009088705992326,-0.0006545538199134,-0.0373682528734207,0.9993009567260742,0.1870817425573339,-0.0081203555288323,2.761495737484026e-05,-0.0045856540091335,-0.0090835588052868,-0.0135213313624262,-0.000660503283143,-0.0012430027127265,0.2927672266960144,0.9561827778816224,0.0047822102231916,-0.0021019903914373,-0.0514439281196245,0.1098002195358276,0.0653485059738159,0.0364398956298828,166,93,14157,13617
20.6,1788428507601,5.295774459838867,4.985915660858154,-0.00091800885275,-0.0008544932352378,-0.0393738336861133,0.9992237091064452,0.1791764425324574,-0.0064255255319265,-3.688673291469408e-06,0.0045441016554832,0.0020076041109859,-0.0434049777686595,-0.0004197983071208,-0.0008579771965742,0.2911898195743561,0.9566648602485656,0.0037874095435297,0.0144030595677306,-0.0187965691761011,-0.1952546238899231,-0.1186010837554931,0.5225429534912109,175,114,13881,14203
20.7,1788428507701,5.014084339141846,5.267605781555176,-0.0008035489590838,-0.0008568125776946,-0.0399667918682098,0.9992003440856934,0.1800225786732093,-0.0035851626723854,-6.029191398088577e-07,4.573637302218714e-10,-5.793273860632553e-09,4.683404597471963e-07,-0.0017042551189661,0.0018292488530278,0.2909742593765259,0.9567276239395142,-0.0219038269554041,0.1802389269913705,-0.0248836276248254,-0.5797713398933411,0.2125157713890075,1.609903335571289,149,155,15266,14330
20.8,1788428507801,4.704225540161133,5.126760482788086,-0.0010235311929136,0.0017379833152517,-0.0401931256055831,0.9991899132728576,0.1763801012101396,0.0016051401890923,-3.95318546968946e-05,-0.0002873379271477,-0.0395727269351482,0.014953170903027,-0.0013812119141221,0.0005134521052241,0.2914160788059234,0.9565953016281128,0.0091710740233019,-0.0590069027869449,0.0101326172830556,0.642937183380127,-0.2677120566368103,-1.0799016952514648,159,120,14154,14331
20.9,1788428507901,4.816901206970215,5.014084339141846,-0.0012004432501271,0.0006209998391568,-0.0402645952999591,0.9991880655288696,0.1791057339749306,-0.0008542834343827,0.000135746895135,-0.0055820583365857,-0.0475841537117958,-0.0030905369203537,-0.0011046752333641,-0.0005743252113461,0.2917174994945526,0.9565037488937378,-0.0080310942800789,-0.0441074933552884,0.0109417030712679,0.5577459335327148,0.1145713329315185,0.1476907730102539,152,111,15308,13999
21.0,1788428508001,5.154929637908936,5.070422649383545,-0.0011118998518213,-0.0001933815219672,-0.0397714041173458,0.9992082118988036,0.1779815109458318,-0.0021099493111213,-1.5472179991542449e-06,0.0049617243930697,-0.0135683296248316,0.0111931692808866,-0.0007620714604854,-0.0001353221014142,0.2925014495849609,0.9562647342681884,0.0193964519616123,0.0785921603972893,0.0318417233095163,-0.5620530247688293,-0.2064939737319946,-0.002638816833496,65,163,15170,14339
21.1,1788428508101,5.323943614959717,5.042253494262695,-0.0003556284937076,0.0004451218119356,-0.0374797023832798,0.9992972016334534,0.176848504539933,0.0002327922709399,-4.243802470637129e-05,0.0153052704408764,0.024754075333476,0.0375159792602062,-0.0005657821893692,0.0009756945073604,0.2940402030944824,0.9557924270629884,0.0125778323719924,0.0384348797288083,-0.008054008682828,-0.1542479395866394,-0.0952628850936889,-0.3758907318115234,121,124,12994,14574
21.2,1788428508201,5.380281925201416,5.042253494262695,-0.0004178607778158,0.0014717996818944,-0.0375553630292415,0.999293327331543,0.1797411043759241,-0.0033536918113828,-7.431945538654808e-05,-0.0042572380043566,0.0433040186762809,-0.0031907767988741,-0.0009474046528339,0.0013117576017975,0.2939706444740295,0.9558130502700806,-0.012095370121273,0.0069913981749704,0.0057275003282338,0.008678913116455,0.2526988983154297,-0.2474918365478515,165,98,14283,14082
21.3,1788428508301,5.183098793029785,5.070422649383545,-0.0004569493175949,0.000975027331151,-0.0377930030226707,0.9992849826812744,0.1809410053554825,-0.0009592802174404,6.638265613601918e-05,-0.0008492022752761,-0.021074378862977,-0.0100784562528133,-0.0010921359062194,-4.0436163544654846e-05,0.2935587167739868,0.9559404253959656,-0.0182158891322589,-0.0267548249820129,0.0024780135246537,-0.2494059801101684,0.1526328325271606,0.1525917053222656,134,120,14970,14232
21.4,1788428508401,4.676056385040283,5.014084339141846,-0.0014957132516428,-0.0011094647925347,-0.0371389687061309,0.9993084073066713,0.181460197882989,0.0013129517429416,0.0001263964021231,-0.012842227704823,-0.0432254374027252,0.0208967719227075,0.0005120132118463,-0.0015099141746759,0.2949970662593841,0.9554967880249025,0.0506704841039726,-0.0608961421380109,0.0159362816556003,-0.025879681110382,0.0596714615821838,0.7020387649536133,97,77,15439,13995
21.5,1788428508501,4.8450703620910645,5.126760482788086,0.0004876457096543,-0.0023032631725072,-0.0360830649733543,0.9993460178375244,0.1845761025108882,-0.0015735613054726,0.0002883833748498,0.0397368371486663,-0.0430188998579978,0.018447358161211,0.0003951918333768,-0.0023172227665781,0.2942796945571899,0.9557164907455444,-0.0421387652408554,-0.0187381921548187,-0.0506129356930946,0.5077106952667236,-0.0340796113014221,-0.0056753158569335,35,213,13463,15816
21.6,1788428508601,5.464788913726807,5.014084339141846,-0.000797918823082,-0.0016674485523253,-0.0366540253162384,0.9993262887001038,0.1731599320737746,0.0002182978300415,-7.57765676912663e-05,-0.0266202818602323,0.0159221682697534,0.0101902149617671,-0.0008420282974839,-0.0018760152161121,0.2953245341777801,0.9553947448730468,-0.0266777135069323,0.0064934050662547,-0.0040550557023195,0.0540487170219421,-0.0482144355773925,0.9603395462036132,74,121,14433,14416
21.7,1788428508701,5.408450603485107,5.070422649383545,-0.0010750126093626,-0.0014117785030975,-0.0361386388540267,0.9993451833724976,0.1801098219723163,-0.0030290548615239,-1.229909301137122e-06,6.309132660753392e-10,1.5772831929439235e-09,4.845413741350058e-07,-0.0010924246162176,-0.0020418157801032,0.2954759001731872,0.95534747838974,-0.0082863101203487,-0.0181769827602101,0.0075218098187931,-0.0443747043609619,0.1118381023406982,0.2835674285888672,72,125,13826,14114
21.8,1788428508801,4.957746505737305,5.098591327667236,-0.0013712595682591,-0.0014879334485158,-0.0360118150711059,0.9993492960929872,0.1782710154057604,-0.0008863063625103,2.2056232082832665e-05,-0.0089839352294802,-0.0026647273916751,0.0038992024492472,-0.0003919852897524,-0.0021802708506584,0.2961412072181701,0.9551416635513306,0.0156617759384961,-0.0083554762328354,0.0010674994709043,-0.0221967101097106,-0.3578470945358276,0.050689697265625,130,101,13326,13911
21.9,1788428508901,4.732394218444824,4.985915660858154,-0.0010081585496664,-0.0021128598600625,-0.0353757366538047,0.999371349811554,0.1786686245229557,-0.0048979425576646,3.697531700121096e-05,0.0097179403528571,-0.0134322186931967,0.0048555801622569,6.89597800374031e-05,-0.0026293024420738,0.295932412147522,0.955205261707306,0.0075568872757354,-0.0136937364440032,0.0008749667400563,0.2650167942047119,0.2082387208938598,-0.321329116821289,119,128,15319,14605
22.0,1788428509001,4.816901206970215,5.042253494262695,-0.0010081585496664,-0.0021128598600625,-0.0353757590055465,0.999371349811554,0.1810281585263321,-0.0009660537995996,-1.1152944909080956e-06,3.9323770906207756e-09,-2.571169721576893e-09,-4.646254865292576e-07,-0.0006692390888929,-0.0019579203799366,0.2957912385463714,0.955250322818756,0.0004533295957825,0.0121717409073064,0.0075711036382375,-0.0771202445030212,0.2129256129264831,-1.086669921875,69,99,15023,14062
22.1,1788428509101,4.788732528686523,5.070422649383545,-0.0014085720758885,-0.002057691803202,-0.0356952585279941,0.9993596076965332,0.179657612756472,-0.000684751269912,-7.63103446673521e-06,-0.01712217181921,0.0017541240667924,-0.0135514624416828,-0.0007603345438838,-0.0026782108470797,0.2953765988349914,0.955376923084259,-0.0160367540961726,-0.0494895191748363,-9.325746480536682e-05,0.0766681432723999,0.0655945539474487,-0.17095947265625,63,112,14628,14145
22.2,1788428509201,4.985915660858154,5.098591327667236,-0.0014085720758885,-0.002057691803202,-0.0356952585279941,0.9993596076965332,0.1749173059659478,-0.0003124357307952,-3.0631377448723577e-07,0.0,-1.3594801950844724e-09,0.0,-0.0007675951346755,-0.0022712741047143,0.2959248125553131,0.9552082419395448,0.0165877916767033,0.0264024596092072,0.0263517306923767,-0.06448894739151,-0.0263199806213378,-0.911290168762207,104,116,13236,14017
22.3,1788428509301,5.352112770080566,5.014084339141846,-0.0014607771299779,-0.0023399151396006,-0.0354337394237518,0.9993681907653807,0.1790916106589168,-0.0012774656660448,-1.1679870148380787e-06,-0.0017239643493667,-0.0117949349805712,0.0108451200649142,-0.0005424534901976,-0.002356850542128,0.2964040338993072,0.9550596475601196,0.0044458473146127,0.0504749553273963,0.0111712832732664,-0.1343671679496765,-0.0953324437141418,0.7624530792236328,162,120,13439,14306
22.4,1788428509401,4.507042407989502,5.126760482788086,-0.0014607771299779,-0.0023399151396006,-0.0354337394237518,0.9993681907653807,0.1852535132548646,0.0033109801273972,-2.452352927398017e-06,0.0,7.70890462575835e-10,0.0,-0.0009397938847541,-0.0013435762375593,0.2981016039848327,0.95453280210495,-0.0141708964403777,-0.0519019265711485,0.076727315736166,0.6188918948173523,0.2926646471023559,-2.1658682823181152,146,95,13011,14387
22.5,1788428509501,4.704225540161133,5.295774459838867,-0.0015573287382721,-0.0038784893695265,-0.031989399343729,0.9994794726371764,0.1829440236408982,0.00454201532286,0.0004116396266509,-0.0058296131901443,-0.125696524977684,0.0647802278399467,-0.0010730912908911,-0.0019246581941843,0.300369381904602,0.9538204073905944,-0.0093557032296036,0.1084341166410302,0.0445420150010194,-0.6865445375442505,-0.0946777462959289,-0.7735261917114258,103,86,14594,14610
22.6,1788428509601,5.295774459838867,5.098591327667236,-0.0019442258635535,-0.0018970932578667,-0.0302703958004713,0.9995380640029908,0.1741243280170681,-1.01779151604639e-05,7.413727357757348e-05,-0.0088145677000284,-0.003354933578521,0.0200366638600826,-0.0009872848168015,-0.0026067374274134,0.3014780580997467,0.9534690976142884,0.0192749433900415,-0.0034349559879106,-0.0040694588386349,-0.2060505747795105,-0.1317192912101745,-0.0730085372924804,74,83,15127,13566
22.7,1788428509701,5.352112770080566,4.985915660858154,-0.0018536648713052,-0.0020384171511977,-0.0299216974526643,0.9995484352111816,0.1803371548351403,-0.0053924103297464,3.601168758076461e-05,0.0029897356871515,-0.0043580178171396,0.0109096067026257,-0.0010040150955319,-0.0026169456541538,0.3008190095424652,0.9536771774291992,-0.0121367248772543,0.0424328089801169,-0.0175066194655039,0.029362678527832,0.0394050478935241,-0.8358879089355469,103,147,13082,14103
22.8,1788428509801,5.323943614959717,5.042253494262695,-0.0018352123443037,-0.0023844460956752,-0.0302411969751119,0.9995381236076356,0.1838449750960794,-0.0018299861143643,-1.5198842839370471e-05,-0.0051722386851906,0.0061251819133758,-0.0081569040194153,-0.0013325531035661,-0.0030595613643527,0.3004105687141418,0.9538041949272156,-0.0049983145785041,-0.0249821014511183,-0.0105100519980199,0.3390175104141235,-0.096356451511383,-0.5200281143188477,172,103,13824,14493
22.9,1788428509901,5.323943614959717,5.126760482788086,-0.0023531201295554,-0.0019537811167538,-0.0308139417320489,0.999520480632782,0.1850115632447448,-0.0016742847833139,-4.671983938838236e-05,-0.0098577160388231,0.008674438111484,-0.0086446097120642,-0.0019908910617232,-0.0025299927219748,0.3001511394977569,0.9538862109184264,0.0005037218835078,0.0051406268053566,0.009028700558779,-0.0478968024253845,0.0230954885482788,-0.0924816131591796,108,120,14305,15032
23.0,1788428510001,4.478873252868652,5.154929637908936,-0.0030248642433434,-0.0014950633049011,-0.0300907269120216,0.9995415210723876,0.1770567720443815,-0.0011331624238685,-4.4528225258610726e-05,-0.0216112956404685,0.0137780793011188,0.0229322407394647,-0.0027865776792168,-0.0021204128861427,0.3022652864456177,0.9532174468040466,-0.0078678171504138,0.0196789534405047,0.0571772021660638,-0.0641835927963256,-0.0885562896728515,-0.0012159347534179,55,129,14422,14665
23.1,1788428510101,5.154929637908936,5.014084339141846,-0.0029092112090438,-0.0010481263743713,-0.026862708851695,0.999634325504303,0.1791319741294838,0.0012989423540962,3.6100648065595454e-05,0.0165346879512071,0.0041286530904471,0.0702402517199516,-0.0021857982501387,-0.0007469588890671,0.3058485984802246,0.9520774483680724,-0.0296517622690185,0.0415466490992306,0.0054977503213096,0.5975803732872009,0.3776825666427612,-0.2568340301513672,156,112,12983,14658
23.2,1788428510201,4.816901206970215,5.014084339141846,-0.0024329836014658,0.0002408253931207,-0.0242650136351585,0.9997025728225708,0.1830247827914605,0.0043442369384551,-0.0002368330945188,-0.0134917888790369,0.0435612872242927,0.0489374697208404,-0.0026361346244812,-0.0004947064444422,0.3080210983753204,0.9513757824897766,-0.0025474491281725,-0.0028258705286245,0.0446932661982607,0.3536586761474609,-0.1721541285514831,-0.292459487915039,183,70,14117,13724
23.3,1788428510301,4.760563373565674,5.154929637908936,-0.0025894369464367,0.0006310027674771,-0.0228611622005701,0.9997351169586182,0.1809747282011725,-0.0060293191902379,-6.235033553161247e-05,0.0002776166365947,0.0106014097109436,0.0159196220338344,-0.0025029825046658,6.38691708445549e-05,0.3082535564899444,0.9513009786605836,-0.0073304515502683,-0.0231082610746311,-0.0062599481381863,-0.0700417757034301,0.1253243088722229,1.2006940841674805,144,74,14836,14105
23.4,1788428510401,4.929577350616455,5.154929637908936,-0.0022566483821719,0.0015237575862556,-0.0227038711309433,0.9997385144233704,0.1757715648147491,-0.0039443721255773,-4.703313586730574e-05,0.0027965924236923,0.0196847878396511,-0.0044710016809403,-0.0029050298035144,0.0006976369768381,0.3080063760280609,0.9513795375823976,-0.006114458388135,-0.0088042827642079,0.0089341610260644,0.2083410620689392,0.0259748697280883,0.7461452484130859,142,120,15783,14285
23.5,1788428510501,5.267605781555176,5.014084339141846,-0.0022370209917426,0.0020336920861154,-0.0230017248541116,0.9997308254241944,0.1776026048713719,-0.0007546727845832,-5.137816212240755e-05,0.000356241245754,0.0214610509574413,-0.0124651538208127,-0.0029756408184766,0.00136608351022,0.3076766431331634,0.9514853358268738,-0.0023546024182738,0.0375364407006841,-0.0124977201170689,-0.556332528591156,-0.1226794719696044,0.2211027145385742,70,120,14276,14294
23.6,1788428510601,4.929577350616455,4.985915660858154,-0.0022370209917426,0.0020336918532848,-0.0230017360299825,0.9997308254241944,0.1814081429896341,0.0049132532895887,-8.657219634696768e-07,7.550972069836347e-10,-1.0269322281430961e-08,-2.3196587051188547e-07,-0.0026300754398107,0.0009815888479351,0.3087172210216522,0.9511497616767884,-0.001880083190109,-0.0481925966750203,0.0154700693584767,0.5210192799568176,-0.0358386039733886,0.4551038742065429,105,127,13523,14660
23.7,1788428510701,5.295774459838867,5.098591327667236,-0.0020705440547317,0.0025701662525534,-0.0221797358244657,0.9997485876083374,0.1818402005247384,-0.0019335949903798,-5.671802738929981e-05,0.0016424902714788,0.0224880129098892,0.0089100822806358,-0.0024278815835714,0.0015893699601292,0.308381974697113,0.9512582421302797,0.0189877852334997,-0.0490405702396752,0.0043429695809784,0.3441112637519836,0.0162026286125183,1.08563232421875,125,87,13229,14332
23.8,1788428510801,5.464788913726807,5.014084339141846,-0.0018548413645476,0.0024717370979487,-0.0224167127162218,0.9997438788414,0.1777635554111891,-0.0012077185895391,9.545626128921078e-05,0.0063903559930622,-0.0119280787184834,-0.0013213417259976,-0.0026602651923894,0.0017827758565545,0.308929443359375,0.9510796070098876,-0.0051711955101678,0.0153742054698661,0.0315322226777474,-0.3511138558387756,0.1808857917785644,0.4159078598022461,186,64,15650,13426
23.9,1788428510901,5.380281925201416,4.957746505737305,-0.0018548413645476,0.0024717370979487,-0.0224167462438344,0.9997438788414,0.1809327915100688,-0.005872888116675,-1.4411577541736637e-06,1.4965311212478127e-09,1.4366698053436266e-08,-6.896015065649408e-07,-0.001917821355164,0.001520974561572,0.3069721460342407,0.9517154097557068,0.0183617618094976,-0.0115997502643649,-0.078464088995722,-0.188297688961029,-0.120032250881195,0.957561492919922,149,100,14917,13048
24.0,1788428511001,5.408450603485107,4.8450703620910645,-0.0011969974730163,0.0020450074225664,-0.0257097091525793,0.9996666312217712,0.1827666311875301,-0.0049009314194728,2.4639899680577476e-05,0.005831173621118,-0.0003382025461178,-0.0738489255309104,-0.0021675461903214,0.0017915749922394,0.3035184741020202,0.9528213739395142,-0.0149153445231804,0.0264304121237233,-0.0526392685062666,-0.1795798540115356,-0.1578268408775329,-0.5745773315429688,97,140,13402,13685
24.1,1788428511101,5.154929637908936,4.957746505737305,-0.0013910912675783,0.0030136618297547,-0.0280711948871612,0.9996004104614258,0.1800739256687759,-0.0010040990557897,2.937571040603977e-05,-0.0011790716089308,0.0289533510804176,-0.0447265319526195,-0.0025784103199839,0.0037419972941279,0.3018424212932586,0.9533469676971436,0.0087086063831801,-0.0868524423645484,-0.0218591099742658,0.1294780969619751,-0.143671452999115,2.270956993103028,122,77,14387,13563
24.2,1788428511201,5.183098793029785,5.042253494262695,-0.001563711091876,0.0028542443178594,-0.030693307518959,0.9995235204696656,0.18271007462003,-0.0066049211566989,0.0004238441588652,-0.0095124496147036,-0.0907947421073913,-0.0763765648007392,-0.0025553945451974,0.0012759352102875,0.2986675202846527,0.9543529152870178,-0.02269117241418,-0.0938611219185412,-0.059088170483644,0.9659879207611084,0.0500826835632324,-1.1947832107543943,100,132,12845,14601
24.3,1788428511301,5.211267471313477,4.957746505737305,-0.0020645395852625,0.0020499248057603,-0.0327631272375583,0.999458909034729,0.179873989851096,-0.0016258954324688,1.21284526974065e-06,-0.002495635068044,-0.0180934220552444,-0.0021110407542437,-0.0027843965217471,0.0014957915991544,0.2981330752372741,0.9545190930366516,-0.0034055105596026,0.03174743854711,-0.0263052368228766,-0.4963207840919494,-0.1571017503738403,-0.4555253982543945,193,116,14591,13581
24.4,1788428511401,5.408450603485107,5.014084339141846,-0.0021534545812755,0.0012460829457268,-0.0349072143435478,0.9993875622749328,0.1804667071354017,-0.0081284139480912,7.191331139407859e-05,-0.0015182514907792,-0.0302331987768411,-0.0589167773723602,-0.0021512536332011,-0.0005826000124216,0.2961927950382232,0.955125629901886,-0.0068122660058608,-0.0364536494138836,0.0182111916743328,0.6017140746116638,0.0484064817428588,-1.329146385192871,152,97,15349,13825
24.5,1788428511501,5.464788913726807,4.957746505737305,-0.0024964173790067,6.446904444601387e-05,-0.0357766300439834,0.9993566870689392,0.1805504110782144,-0.0004496718101196,2.494334466243293e-05,-0.0126641681417822,-0.0188749898225069,-0.0236766394227743,-0.001973295584321,-0.0008238265290856,0.2947750985622406,0.955564260482788,0.0214565073101965,0.0042243380708165,-0.028488394627166,-0.4694287180900574,0.1313872337341308,-0.1041345596313476,134,82,15634,13849
24.6,1788428511601,5.239436626434326,4.957746505737305,-0.0022789363283663,-0.0007213720818981,-0.0373815298080444,0.9992982745170592,0.1798483568839137,-0.0022550954040683,0.0001190196539279,-0.0006189491832628,-0.0241769179701805,-0.03494368866086,-0.0017821602523326,-0.0017876802012324,0.2931053042411804,0.9560769200325012,-0.0104276005701134,0.0383182172291609,0.0040257070764005,-0.4384370446205139,-0.0319857001304626,-0.0665245056152343,135,106,14942,14243
24.7,1788428511701,4.929577350616455,5.098591327667236,-0.0023681647144258,-0.0016450700350105,-0.0383916422724723,0.9992585778236388,0.180210383177464,-0.0010831430345108,4.038482040966596e-05,-0.0066135334782302,-0.0135144833475351,-0.000704385631252,-0.0018511787056922,-0.00367490388453,0.2933381497859955,0.9559999704360962,-0.0298851452812631,-0.062084908824747,0.0075309224507749,0.5809004902839661,0.3124935626983642,-0.0864992141723632,106,118,14969,13910
24.8,1788428511801,4.985915660858154,5.098591327667236,-0.0030034431256353,-0.0027820481918752,-0.0384334027767181,0.9992528557777404,0.1802811792565051,0.0038075238003852,0.000149382422658,-0.0191972255706787,-0.0288645308464765,-0.0082057071849703,0.0008912198245525,-0.0046448409557342,0.2947614789009094,0.9555591940879822,0.1001966990357194,-0.0896705624036368,0.0554633530020123,0.3099244832992553,0.1863352060317993,-0.2086305618286132,132,60,15279,13176
24.9,1788428511901,5.492957592010498,5.042253494262695,-0.0007774042896926,-0.0046342830173671,-0.0363773480057716,0.9993270635604858,0.1758792024327357,-0.0046614223223789,4.607609816024271e-05,0.0114927729591727,-0.0086641060188412,0.0177336689084768,0.0009221751242876,-0.0048576146364212,0.2941440939903259,0.9557483196258544,0.0008246158217783,-0.0218929711246981,-0.0161941625649531,0.1119158864021301,0.0445446968078613,-0.7224760055541992,73,132,14857,14369
25.0,1788428512001,5.154929637908936,4.957746505737305,-0.0007406008080579,-0.0047587831504642,-0.0370972044765949,0.9993000030517578,0.1802438026749136,0.0011843573303463,4.115142371135799e-05,0.0006960435421206,-0.0067143612541258,-0.0133774550631642,0.0008312175050377,-0.0048946077004075,0.2938202321529388,0.9558477997779846,-0.00922912033456,0.0111379400017013,-0.0026520569997384,-0.062691330909729,0.3897165656089782,-0.1072597503662109,96,144,13544,14271
25.1,1788428512101,4.957746505737305,5.070422649383545,-0.000721767428331,-0.0050122621469199,-0.0375502035021781,0.999281883239746,0.1773278458507594,-0.0010094080434149,1.486813161674467e-06,0.0,-3.962764782983186e-09,0.0,0.0006714276969432,-0.0049734907224774,0.2938054203987121,0.9558520913124084,0.0009938027912665,0.0125497401801706,0.0049557293582474,-0.0344053506851196,0.0042164325714111,-0.4278211593627929,178,121,14766,14015
25.2,1788428512201,5.211267471313477,5.042253494262695,-0.000721767428331,-0.0050122621469199,-0.0375502035021781,0.999281883239746,0.1795040426460476,0.0005605383947449,-2.2353649958968194e-06,0.0,-4.088994032258597e-09,0.0,0.0007081655785441,-0.0055084722116589,0.2939881384372711,0.9557929635047911,-0.0107411310118789,0.0283519443750951,-0.016337624017596,-0.1272370815277099,0.0696606636047363,-0.4974803924560547,151,132,14967,14372
25.3,1788428512301,4.929577350616455,5.042253494262695,-0.0008863982511684,-0.0054430500604212,-0.0374184064567089,0.9992845058441162,0.1882244061263208,-0.0025865012274133,-4.968827069068138e-06,9.878921680694931e-09,1.0805070171926443e-09,9.483765097684228e-07,0.0003562355414032,-0.0057186316698789,0.2936519384384155,0.9558953046798706,-0.0039438362757298,-0.0058876998027324,0.0016953552317709,0.161838412284851,-0.0211656093597412,-0.5765295028686523,113,128,15239,14102
25.4,1788428512401,4.760563373565674,5.126760482788086,-0.0016786068445071,-0.0053832684643566,-0.0380826443433761,0.9992586374282836,0.1743673355138124,-0.0027275619706735,-3.5628078379410565e-06,-0.0145591553300619,0.0043315393850207,-0.0122678345069289,-0.000120386481285,-0.0055097574368119,0.2935698330402374,0.9559218287467957,0.0001139451604434,0.0039428304590575,0.0173744637485487,0.089325726032257,0.2781243324279785,-0.1105775833129882,58,133,14327,14108
25.5,1788428512501,5.436619758605957,5.042253494262695,-0.0024070441722869,-0.0053744725883007,-0.0380158126354217,0.9992597699165344,0.1790326255049411,-0.0004838919672881,-9.518264568284128e-06,-0.0303093940019607,-0.0007935726316645,0.0029458319768309,-0.0008864421397447,-0.0056513715535402,0.2940769791603088,0.9557647109031676,-0.0066321579315874,0.0228282789322642,0.039031998823802,-0.113552451133728,-0.2339999079704284,-0.3956270217895508,153,113,13248,13713
25.6,1788428512601,4.901408672332764,5.014084339141846,-0.0026773440185934,-0.0051719872280955,-0.0367073193192482,0.9993090629577636,0.1809009774480486,-0.0008803731883013,6.30664532908765e-06,-0.0008588067721575,-0.0006016358383931,0.0155528308823704,-0.0010134372860193,-0.0058585926890373,0.2949628233909607,0.9554902911186218,-0.0082747491296611,0.00649841067608,-0.0030920905976622,0.1384598016738891,-0.0251310467720031,-0.572667121887207,123,113,12941,14496
25.7,1788428512701,4.676056385040283,5.126760482788086,-0.0027155557181686,-0.0050167581066489,-0.0363818407058715,0.9993216395378112,0.1830932588799141,-0.0049358811425755,-1.9958224650688047e-05,-0.0017853440949693,0.0064744972623884,0.0138175450265407,-0.0016299858689308,-0.0052528288215398,0.2952995002269745,0.9553889632225036,-0.0155029386759461,0.0231129824373175,-0.0111261874690327,-0.1432020664215088,-0.0441019535064697,0.1725330352783203,159,117,13828,14498
25.8,1788428512801,5.070422649383545,5.239436626434326,-0.0027864968869835,-0.0045868819579482,-0.0356638096272945,0.9993494153022766,0.1762783089658541,-0.0037964983577943,-0.0002150750436099,0.0066937748342752,0.0034347234759479,0.0176720321178436,-0.0006992956623435,-0.0072197811678051,0.2963236272335052,0.9550601243972778,-0.0127411454951616,-0.1472888619372319,0.0350223746303198,1.325491428375244,0.1030157208442688,4.983848571777344,177,166,16518,14975
25.9,1788428512901,5.183098793029785,5.154929637908936,-0.002900491002947,-0.0064896461553871,-0.0340378619730472,0.9993952512741088,0.1818659037406342,0.0044923038647245,2.3363827533289588e-05,-0.0009959941962733,-0.0081997355446219,0.0324801839888095,-0.000826290808618,-0.0071760946884751,0.2971487939357757,0.9548038840293884,-0.0195973555266374,-0.0630642474865008,-0.0176569465409927,0.5067740678787231,0.0160847902297973,-2.333866596221924,75,106,13826,13645
26.0,1788428513001,4.929577350616455,5.183098793029785,-0.0028532738797366,-0.0059936763718724,-0.0339848659932613,0.99940025806427,0.1772345525947064,-0.002900835765385,-2.0501875321206285e-06,0.0,-9.223177777073488e-09,0.0,-0.0013855956494808,-0.0062295030802488,0.2966596484184265,0.9549620151519777,-0.0044784491645454,0.0421834496712248,-0.0201901032641181,-0.020595371723175,-0.069177508354187,-0.7790107727050781,82,141,12721,15022
26.1,1788428513101,5.323943614959717,5.211267471313477,-0.0032499723602086,-0.0048189372755587,-0.0337283238768577,0.999414086341858,0.1843959973328832,0.0020952485256437,-4.365618966283876e-05,-0.0043639824725687,0.0385932028293609,0.029191929847002,-0.0019055055454373,-0.0044952500611543,0.2984941303730011,0.954399049282074,0.0094425164611142,0.0442344685296332,-0.00768624816849,0.2213132977485656,-0.2292128205299377,-0.0827178955078125,170,113,14331,14016
26.2,1788428513201,5.323943614959717,5.042253494262695,-0.0032975494395941,-0.003505622735247,-0.0328689962625503,0.9994481205940248,0.1814140521056155,-0.0056767763783799,-0.0001672069700728,-0.0014512466732412,0.0383310355246067,0.0140481479465961,-0.0021971939131617,-0.0036193169653415,0.2979548275470733,0.9545705318450928,-0.007183225637462,0.007533757277629,-0.0104799957229966,-0.1127887368202209,0.2119895219802856,0.2900257110595703,181,99,15260,14079
26.3,1788428513301,4.676056385040283,5.126760482788086,-0.0033003666903823,-0.0022722103167325,-0.0334401652216911,0.9994326829910278,0.1775807929286492,-0.0054886277543645,-2.3069359003763832e-05,-0.0036842038389295,0.0250796731561422,-0.0111170532181859,-0.0025921761989593,-0.0031431829556822,0.2979858815670013,0.9545615911483764,0.0015935359116154,-0.0209429021078535,0.0117263629414822,0.4536589384078979,-0.2807445526123047,-0.4869527816772461,82,116,15034,14853
26.4,1788428513401,5.126760482788086,5.211267471313477,-0.0033804888371378,-0.0015088303480297,-0.0329452417790889,0.9994502663612366,0.183341940562805,-0.0038821450114089,-0.0001474254387471,-0.0044137309305369,0.0320679396390914,0.0210462212562561,-0.0029502594843506,-0.002336679957807,0.2989709675312042,0.9542548060417176,-0.0149884322308113,0.0090079528404887,0.0327948346784386,0.2197940349578857,0.0760729312896728,-1.576359748840332,66,99,14297,14493
26.5,1788428513501,5.098591327667236,5.070422649383545,-0.0024663545191287,-0.0003708330332301,-0.0298884958028793,0.9995500445365906,0.173268648443696,0.0045508402806705,-3.992848615316793e-05,0.0419074967503547,0.0422771051526069,0.1135995462536811,-0.0045455629006028,0.0001537399366497,0.3019392788410187,0.953316330909729,-0.0667470345315054,0.0729497330732676,-0.0167526270144465,-0.1445378065109253,-0.4243563413619995,-0.8412370681762695,80,174,12654,15783
26.6,1788428513601,4.563380241394043,5.183098793029785,-0.0040245843119919,0.0019603702239692,-0.0271448921412229,0.9996214509010316,0.1789809526482451,0.0032760697625782,-6.211837447478013e-05,-0.0100310835987329,0.0255081821233034,0.0624836906790733,-0.0044921115040779,0.000573756173253,0.305010437965393,0.9523382186889648,0.005671282012526,-0.0009721651570479,0.0376175685485443,-0.2379559278488159,-0.0451173782348632,1.169569969177246,166,107,13897,14571
26.7,1788428513701,5.239436626434326,5.154929637908936,-0.0040005072951316,0.0021020083222538,-0.0253068227320909,0.9996694326400756,0.178406803682551,0.0029335588860788,-2.81273039615753e-05,0.0014062646077945,0.0069865230470895,0.0405243970453739,-0.0047308802604675,0.0009362725540995,0.3070508241653442,0.9516809582710266,-0.0109924871626556,0.0040397950512367,0.0513362993646829,0.2036736011505127,-0.1871547698974609,-0.0339508056640625,79,95,13674,13919
26.8,1788428513801,5.042253494262695,4.985915660858154,-0.0040365955792367,0.002713352907449,-0.0233649089932441,0.9997151494026184,0.1745381011657688,-0.0016174521711686,-3.915090478136623e-05,0.0028121247887611,0.0115200793370604,0.0308999810367822,-0.0045152967795729,0.0014851307496428,0.3074850440025329,0.9515411257743835,0.0104044633549362,0.0064674980861081,-0.0152622671593979,-0.0100484490394592,0.0983234643936157,-0.0548019409179687,85,102,13112,14182
