time_s,timestamp_ms,wheel_vels__velocity_left,wheel_vels__velocity_right,odom__orient_x,odom__orient_y,odom__orient_z,odom__orient_w,odom__lin_x,odom__lin_y,odom__lin_z,odom__ang_x,odom__ang_y,odom__ang_z,imu__orient_x,imu__orient_y,imu__orient_z,imu__orient_w,imu__angvel_x,imu__angvel_y,imu__angvel_z,imu__acc_x,imu__acc_y,imu__acc_z,wheel_status__current_ma_left,wheel_status__current_ma_right,wheel_status__pwm_left,wheel_status__pwm_right
0.0,1788269094167,0.0,0.0,-0.0061368979513645,-0.0024636110756546,0.6346920132637024,0.7727368474006653,7.01360725361329e-07,-4.6943111221074926e-07,-3.127282904068985e-09,0.0001094663821277,-7.4671559559647e-05,8.354859346582089e-06,-0.0024783667176961,-0.0061289323493838,0.9968997240066528,0.0784042477607727,0.0001063462433303,-7.711083695352576e-05,-3.6950335592951714e-07,-0.0163108706474304,0.0236302614212036,-0.0198898315429687,0,0,0,0
0.1,1788269094267,0.0,0.0,-0.0061368979513645,-0.0024636110756546,0.6346920132637024,0.7727368474006653,7.01360725361329e-07,-4.6943111221074926e-07,-3.127282904068985e-09,0.0001094663821277,-7.4671559559647e-05,8.354859346582089e-06,-0.0024783667176961,-0.0061289323493838,0.9968997240066528,0.0784042477607727,0.0001063462433303,-7.711083695352576e-05,-3.6950335592951714e-07,-0.0163108706474304,0.0236302614212036,-0.0198898315429687,0,0,0,0
0.2,1788269094367,0.0,0.0,-0.0061368979513645,-0.0024636110756546,0.6346920132637024,0.7727368474006653,7.01360725361329e-07,-4.6943111221074926e-07,-3.127282904068985e-09,0.0001094663821277,-7.4671559559647e-05,8.354859346582089e-06,-0.0024783667176961,-0.0061289323493838,0.9968997240066528,0.0784042477607727,0.0001063462433303,-7.711083695352576e-05,-3.6950335592951714e-07,-0.0163108706474304,0.0236302614212036,-0.0198898315429687,0,0,0,0
0.3,1788269094467,0.0,0.0,-0.0061368979513645,-0.0024636110756546,0.6346920132637024,0.7727368474006653,7.01360725361329e-07,-4.6943111221074926e-07,-3.127282904068985e-09,0.0001094663821277,-7.4671559559647e-05,8.354859346582089e-06,-0.0024783667176961,-0.0061289323493838,0.9968997240066528,0.0784042477607727,0.0001063462433303,-7.711083695352576e-05,-3.6950335592951714e-07,-0.0163108706474304,0.0236302614212036,-0.0198898315429687,0,0,0,0
0.4,1788269094567,0.0,0.0,-0.0061368979513645,-0.0024636110756546,0.6346920132637024,0.7727368474006653,7.01360725361329e-07,-4.6943111221074926e-07,-3.127282904068985e-09,0.0001094663821277,-7.4671559559647e-05,8.354859346582089e-06,-0.0024783667176961,-0.0061289323493838,0.9968997240066528,0.0784042477607727,0.0001063462433303,-7.711083695352576e-05,-3.6950335592951714e-07,-0.0163108706474304,0.0236302614212036,-0.0198898315429687,0,0,0,0
0.5,1788269094667,0.0,0.0,-0.0061368979513645,-0.0024636110756546,0.6346920132637024,0.7727368474006653,7.01360725361329e-07,-4.6943111221074926e-07,-3.127282904068985e-09,0.0001094663821277,-7.4671559559647e-05,8.354859346582089e-06,-0.0024783667176961,-0.0061289323493838,0.9968997240066528,0.0784042477607727,0.0001063462433303,-7.711083695352576e-05,-3.6950335592951714e-07,-0.0163108706474304,0.0236302614212036,-0.0198898315429687,0,0,0,0
0.6,1788269094767,0.0,0.0,-0.0061368979513645,-0.0024636110756546,0.6346920132637024,0.7727368474006653,7.01360725361329e-07,-4.6943111221074926e-07,-3.127282904068985e-09,0.0001094663821277,-7.4671559559647e-05,8.354859346582089e-06,-0.0024783667176961,-0.0061289323493838,0.9968997240066528,0.0784042477607727,0.0001063462433303,-7.711083695352576e-05,-3.6950335592951714e-07,-0.0163108706474304,0.0236302614212036,-0.0198898315429687,0,0,0,0
0.7,1788269094867,0.0,0.0,-0.0061368979513645,-0.0024636110756546,0.6346920132637024,0.7727368474006653,7.01360725361329e-07,-4.6943111221074926e-07,-3.127282904068985e-09,0.0001094663821277,-7.4671559559647e-05,8.354859346582089e-06,-0.0024783667176961,-0.0061289323493838,0.9968997240066528,0.0784042477607727,0.0001063462433303,-7.711083695352576e-05,-3.6950335592951714e-07,-0.0163108706474304,0.0236302614212036,-0.0198898315429687,0,0,0,0
0.8,1788269094967,0.0,0.0,-0.0061368979513645,-0.0024636110756546,0.6346920132637024,0.7727368474006653,7.01360725361329e-07,-4.6943111221074926e-07,-3.127282904068985e-09,0.0001094663821277,-7.4671559559647e-05,8.354859346582089e-06,-0.0024783667176961,-0.0061289323493838,0.9968997240066528,0.0784042477607727,0.0001063462433303,-7.711083695352576e-05,-3.6950335592951714e-07,-0.0163108706474304,0.0236302614212036,-0.0198898315429687,0,0,0,0
0.9,1788269095067,0.0,0.0,-0.0061368979513645,-0.0024636110756546,0.6346920132637024,0.7727368474006653,7.01360725361329e-07,-4.6943111221074926e-07,-3.127282904068985e-09,0.0001094663821277,-7.4671559559647e-05,8.354859346582089e-06,-0.0024783667176961,-0.0061289323493838,0.9968997240066528,0.0784042477607727,0.0001063462433303,-7.711083695352576e-05,-3.6950335592951714e-07,-0.0163108706474304,0.0236302614212036,-0.0198898315429687,0,0,0,0
1.0,1788269095167,0.0,0.0,-0.0061368979513645,-0.0024636110756546,0.6346920132637024,0.7727368474006653,7.01360725361329e-07,-4.6943111221074926e-07,-3.127282904068985e-09,0.0001094663821277,-7.4671559559647e-05,8.354859346582089e-06,-0.0024783667176961,-0.0061289323493838,0.9968997240066528,0.0784042477607727,0.0001063462433303,-7.711083695352576e-05,-3.6950335592951714e-07,-0.0163108706474304,0.0236302614212036,-0.0198898315429687,0,0,0,0
1.1,1788269095267,0.0,0.0,-0.0061368979513645,-0.0024636110756546,0.6346920132637024,0.7727368474006653,7.01360725361329e-07,-4.6943111221074926e-07,-3.127282904068985e-09,0.0001094663821277,-7.4671559559647e-05,8.354859346582089e-06,-0.0024783667176961,-0.0061289323493838,0.9968997240066528,0.0784042477607727,0.0001063462433303,-7.711083695352576e-05,-3.6950335592951714e-07,-0.0163108706474304,0.0236302614212036,-0.0198898315429687,0,0,0,0
1.2,1788269095367,0.0,0.0,-0.0061368979513645,-0.0024636110756546,0.6346920132637024,0.7727368474006653,7.01360725361329e-07,-4.6943111221074926e-07,-3.127282904068985e-09,0.0001094663821277,-7.4671559559647e-05,8.354859346582089e-06,-0.0024783667176961,-0.0061289323493838,0.9968997240066528,0.0784042477607727,0.0001063462433303,-7.711083695352576e-05,-3.6950335592951714e-07,-0.0163108706474304,0.0236302614212036,-0.0198898315429687,0,0,0,0
1.3,1788269095467,0.0,0.0,-0.0061368979513645,-0.0024636110756546,0.6346920132637024,0.7727368474006653,7.01360725361329e-07,-4.6943111221074926e-07,-3.127282904068985e-09,0.0001094663821277,-7.4671559559647e-05,8.354859346582089e-06,-0.0024783667176961,-0.0061289323493838,0.9968997240066528,0.0784042477607727,0.0001063462433303,-7.711083695352576e-05,-3.6950335592951714e-07,-0.0163108706474304,0.0236302614212036,-0.0198898315429687,0,0,0,0
1.4,1788269095567,0.0,0.0,-0.0061368979513645,-0.0024636110756546,0.6346920132637024,0.7727368474006653,7.01360725361329e-07,-4.6943111221074926e-07,-3.127282904068985e-09,0.0001094663821277,-7.4671559559647e-05,8.354859346582089e-06,-0.0024783667176961,-0.0061289323493838,0.9968997240066528,0.0784042477607727,0.0001063462433303,-7.711083695352576e-05,-3.6950335592951714e-07,-0.0163108706474304,0.0236302614212036,-0.0198898315429687,0,0,0,0
1.5,1788269095667,0.0,0.0,-0.0061368979513645,-0.0024636110756546,0.6346920132637024,0.7727368474006653,7.01360725361329e-07,-4.6943111221074926e-07,-3.127282904068985e-09,0.0001094663821277,-7.4671559559647e-05,8.354859346582089e-06,-0.0024783667176961,-0.0061289323493838,0.9968997240066528,0.0784042477607727,0.0001063462433303,-7.711083695352576e-05,-3.6950335592951714e-07,-0.0163108706474304,0.0236302614212036,-0.0198898315429687,0,0,0,0
1.6,1788269095767,0.0,0.0,-0.0061368979513645,-0.0024636110756546,0.6346920132637024,0.7727368474006653,7.01360725361329e-07,-4.6943111221074926e-07,-3.127282904068985e-09,0.0001094663821277,-7.4671559559647e-05,8.354859346582089e-06,-0.0024783667176961,-0.0061289323493838,0.9968997240066528,0.0784042477607727,0.0001063462433303,-7.711083695352576e-05,-3.6950335592951714e-07,-0.0163108706474304,0.0236302614212036,-0.0198898315429687,0,0,0,0
1.7,1788269095867,0.0,0.0,-0.0061368979513645,-0.0024636110756546,0.6346920132637024,0.7727368474006653,7.01360725361329e-07,-4.6943111221074926e-07,-3.127282904068985e-09,0.0001094663821277,-7.4671559559647e-05,8.354859346582089e-06,-0.0024783667176961,-0.0061289323493838,0.9968997240066528,0.0784042477607727,0.0001063462433303,-7.711083695352576e-05,-3.6950335592951714e-07,-0.0163108706474304,0.0236302614212036,-0.0198898315429687,0,0,0,0
1.8,1788269095967,0.0,0.0,-0.0061368979513645,-0.0024636110756546,0.6346920132637024,0.7727368474006653,7.01360725361329e-07,-4.6943111221074926e-07,-3.127282904068985e-09,0.0001094663821277,-7.4671559559647e-05,8.354859346582089e-06,-0.0024783667176961,-0.0061289323493838,0.9968997240066528,0.0784042477607727,0.0001063462433303,-7.711083695352576e-05,-3.6950335592951714e-07,-0.0163108706474304,0.0236302614212036,-0.0198898315429687,0,0,0,0
1.9,1788269096067,0.0,0.0,-0.0061368979513645,-0.0024636110756546,0.6346920132637024,0.7727368474006653,7.01360725361329e-07,-4.6943111221074926e-07,-3.127282904068985e-09,0.0001094663821277,-7.4671559559647e-05,8.354859346582089e-06,-0.0024783667176961,-0.0061289323493838,0.9968997240066528,0.0784042477607727,0.0001063462433303,-7.711083695352576e-05,-3.6950335592951714e-07,-0.0163108706474304,0.0236302614212036,-0.0198898315429687,0,0,0,0
2.0,1788269096167,0.0,0.0,-0.0061368979513645,-0.0024636110756546,0.6346920132637024,0.7727368474006653,7.01360725361329e-07,-4.6943111221074926e-07,-3.127282904068985e-09,0.0001094663821277,-7.4671559559647e-05,8.354859346582089e-06,-0.0024783667176961,-0.0061289323493838,0.9968997240066528,0.0784042477607727,0.0001063462433303,-7.711083695352576e-05,-3.6950335592951714e-07,-0.0163108706474304,0.0236302614212036,-0.0198898315429687,0,0,0,0
2.1,1788269096267,0.0,0.0,-0.0061368979513645,-0.0024636110756546,0.6346920132637024,0.7727368474006653,7.01360725361329e-07,-4.6943111221074926e-07,-3.127282904068985e-09,0.0001094663821277,-7.4671559559647e-05,8.354859346582089e-06,-0.0024783667176961,-0.0061289323493838,0.9968997240066528,0.0784042477607727,0.0001063462433303,-7.711083695352576e-05,-3.6950335592951714e-07,-0.0163108706474304,0.0236302614212036,-0.0198898315429687,0,0,0,0
2.2,1788269096367,0.0,0.0,-0.0061368979513645,-0.0024636110756546,0.6346920132637024,0.7727368474006653,7.01360725361329e-07,-4.6943111221074926e-07,-3.127282904068985e-09,0.0001094663821277,-7.4671559559647e-05,8.354859346582089e-06,-0.0024783667176961,-0.0061289323493838,0.9968997240066528,0.0784042477607727,0.0001063462433303,-7.711083695352576e-05,-3.6950335592951714e-07,-0.0163108706474304,0.0236302614212036,-0.0198898315429687,0,0,0,0
2.3,1788269096467,0.0,0.0,-0.0061368979513645,-0.0024636110756546,0.6346920132637024,0.7727368474006653,7.01360725361329e-07,-4.6943111221074926e-07,-3.127282904068985e-09,0.0001094663821277,-7.4671559559647e-05,8.354859346582089e-06,-0.0024783667176961,-0.0061289323493838,0.9968997240066528,0.0784042477607727,0.0001063462433303,-7.711083695352576e-05,-3.6950335592951714e-07,-0.0163108706474304,0.0236302614212036,-0.0198898315429687,0,0,0,0
2.4,1788269096567,0.0,0.0,-0.0061368979513645,-0.0024636110756546,0.6346920132637024,0.7727368474006653,7.01360725361329e-07,-4.6943111221074926e-07,-3.127282904068985e-09,0.0001094663821277,-7.4671559559647e-05,8.354859346582089e-06,-0.0024783667176961,-0.0061289323493838,0.9968997240066528,0.0784042477607727,0.0001063462433303,-7.711083695352576e-05,-3.6950335592951714e-07,-0.0163108706474304,0.0236302614212036,-0.0198898315429687,0,0,0,0
2.5,1788269096667,0.0,0.0,-0.0061368979513645,-0.0024636110756546,0.6346920132637024,0.7727368474006653,7.01360725361329e-07,-4.6943111221074926e-07,-3.127282904068985e-09,0.0001094663821277,-7.4671559559647e-05,8.354859346582089e-06,-0.0024783667176961,-0.0061289323493838,0.9968997240066528,0.0784042477607727,0.0001063462433303,-7.711083695352576e-05,-3.6950335592951714e-07,-0.0163108706474304,0.0236302614212036,-0.0198898315429687,0,0,0,0
2.6,1788269096767,0.0,0.0,-0.0061368979513645,-0.0024636110756546,0.6346920132637024,0.7727368474006653,7.01360725361329e-07,-4.6943111221074926e-07,-3.127282904068985e-09,0.0001094663821277,-7.4671559559647e-05,8.354859346582089e-06,-0.0024783667176961,-0.0061289323493838,0.9968997240066528,0.0784042477607727,0.0001063462433303,-7.711083695352576e-05,-3.6950335592951714e-07,-0.0163108706474304,0.0236302614212036,-0.0198898315429687,0,0,0,0
2.7,1788269096867,0.0,0.0,-0.0061368979513645,-0.0024636110756546,0.6346920132637024,0.7727368474006653,7.01360725361329e-07,-4.6943111221074926e-07,-3.127282904068985e-09,0.0001094663821277,-7.4671559559647e-05,8.354859346582089e-06,-0.0024783667176961,-0.0061289323493838,0.9968997240066528,0.0784042477607727,0.0001063462433303,-7.711083695352576e-05,-3.6950335592951714e-07,-0.0163108706474304,0.0236302614212036,-0.0198898315429687,0,0,0,0
2.8,1788269096967,0.0,0.0,-0.0061368979513645,-0.0024636110756546,0.6346920132637024,0.7727368474006653,7.01360725361329e-07,-4.6943111221074926e-07,-3.127282904068985e-09,0.0001094663821277,-7.4671559559647e-05,8.354859346582089e-06,-0.0024783667176961,-0.0061289323493838,0.9968997240066528,0.0784042477607727,0.0001063462433303,-7.711083695352576e-05,-3.6950335592951714e-07,-0.0163108706474304,0.0236302614212036,-0.0198898315429687,0,0,0,0
2.9,1788269097067,0.0,0.0,-0.0061368979513645,-0.0024636110756546,0.6346920132637024,0.7727368474006653,7.01360725361329e-07,-4.6943111221074926e-07,-3.127282904068985e-09,0.0001094663821277,-7.4671559559647e-05,8.354859346582089e-06,-0.0024783667176961,-0.0061289323493838,0.9968997240066528,0.0784042477607727,0.0001063462433303,-7.711083695352576e-05,-3.6950335592951714e-07,-0.0163108706474304,0.0236302614212036,-0.0198898315429687,0,0,0,0
3.0,1788269097167,0.0,0.0,-0.0061368979513645,-0.0024636110756546,0.6346920132637024,0.7727368474006653,7.01360725361329e-07,-4.6943111221074926e-07,-3.127282904068985e-09,0.0001094663821277,-7.4671559559647e-05,8.354859346582089e-06,-0.0024783667176961,-0.0061289323493838,0.9968997240066528,0.0784042477607727,0.0001063462433303,-7.711083695352576e-05,-3.6950335592951714e-07,-0.0163108706474304,0.0236302614212036,-0.0198898315429687,0,0,0,0
3.1,1788269097267,0.0,0.0,-0.0061368979513645,-0.0024636110756546,0.6346920132637024,0.7727368474006653,7.01360725361329e-07,-4.6943111221074926e-07,-3.127282904068985e-09,0.0001094663821277,-7.4671559559647e-05,8.354859346582089e-06,-0.0024783667176961,-0.0061289323493838,0.9968997240066528,0.0784042477607727,0.0001063462433303,-7.711083695352576e-05,-3.6950335592951714e-07,-0.0163108706474304,0.0236302614212036,-0.0198898315429687,0,0,0,0
3.2,1788269097367,0.0,0.0,-0.0061368979513645,-0.0024636110756546,0.6346920132637024,0.7727368474006653,7.01360725361329e-07,-4.6943111221074926e-07,-3.127282904068985e-09,0.0001094663821277,-7.4671559559647e-05,8.354859346582089e-06,-0.0024783667176961,-0.0061289323493838,0.9968997240066528,0.0784042477607727,0.0001063462433303,-7.711083695352576e-05,-3.6950335592951714e-07,-0.0163108706474304,0.0236302614212036,-0.0198898315429687,0,0,0,0
3.3,1788269097467,0.0,0.0,-0.0061368979513645,-0.0024636110756546,0.6346920132637024,0.7727368474006653,7.01360725361329e-07,-4.6943111221074926e-07,-3.127282904068985e-09,0.0001094663821277,-7.4671559559647e-05,8.354859346582089e-06,-0.0024783667176961,-0.0061289323493838,0.9968997240066528,0.0784042477607727,0.0001063462433303,-7.711083695352576e-05,-3.6950335592951714e-07,-0.0163108706474304,0.0236302614212036,-0.0198898315429687,0,0,0,0
3.4,1788269097567,0.0,0.0,-0.0061368979513645,-0.0024636110756546,0.6346920132637024,0.7727368474006653,7.01360725361329e-07,-4.6943111221074926e-07,-3.127282904068985e-09,0.0001094663821277,-7.4671559559647e-05,8.354859346582089e-06,-0.0024783667176961,-0.0061289323493838,0.9968997240066528,0.0784042477607727,0.0001063462433303,-7.711083695352576e-05,-3.6950335592951714e-07,-0.0163108706474304,0.0236302614212036,-0.0198898315429687,0,0,0,0
3.5,1788269097667,0.0,0.0,-0.0061368979513645,-0.0024636110756546,0.6346920132637024,0.7727368474006653,7.01360725361329e-07,-4.6943111221074926e-07,-3.127282904068985e-09,0.0001094663821277,-7.4671559559647e-05,8.354859346582089e-06,-0.0024783667176961,-0.0061289323493838,0.9968997240066528,0.0784042477607727,0.0001063462433303,-7.711083695352576e-05,-3.6950335592951714e-07,-0.0163108706474304,0.0236302614212036,-0.0198898315429687,0,0,0,0
3.6,1788269097767,0.0,0.0,-0.0061368979513645,-0.0024636110756546,0.6346920132637024,0.7727368474006653,7.01360725361329e-07,-4.6943111221074926e-07,-3.127282904068985e-09,0.0001094663821277,-7.4671559559647e-05,8.354859346582089e-06,-0.0024783667176961,-0.0061289323493838,0.9968997240066528,0.0784042477607727,0.0001063462433303,-7.711083695352576e-05,-3.6950335592951714e-07,-0.0163108706474304,0.0236302614212036,-0.0198898315429687,0,0,0,0
3.7,1788269097867,0.0,0.0,-0.0061368979513645,-0.0024636110756546,0.6346920132637024,0.7727368474006653,7.01360725361329e-07,-4.6943111221074926e-07,-3.127282904068985e-09,0.0001094663821277,-7.4671559559647e-05,8.354859346582089e-06,-0.0024783667176961,-0.0061289323493838,0.9968997240066528,0.0784042477607727,0.0001063462433303,-7.711083695352576e-05,-3.6950335592951714e-07,-0.0163108706474304,0.0236302614212036,-0.0198898315429687,0,0,0,0
3.8,1788269097967,0.0,0.0,-0.0061368979513645,-0.0024636110756546,0.6346920132637024,0.7727368474006653,7.01360725361329e-07,-4.6943111221074926e-07,-3.127282904068985e-09,0.0001094663821277,-7.4671559559647e-05,8.354859346582089e-06,-0.0024783667176961,-0.0061289323493838,0.9968997240066528,0.0784042477607727,0.0001063462433303,-7.711083695352576e-05,-3.6950335592951714e-07,-0.0163108706474304,0.0236302614212036,-0.0198898315429687,0,0,0,0
3.9,1788269098067,0.0,0.0,-0.0061368979513645,-0.0024636110756546,0.6346920132637024,0.7727368474006653,7.01360725361329e-07,-4.6943111221074926e-07,-3.127282904068985e-09,0.0001094663821277,-7.4671559559647e-05,8.354859346582089e-06,-0.0024783667176961,-0.0061289323493838,0.9968997240066528,0.0784042477607727,0.0001063462433303,-7.711083695352576e-05,-3.6950335592951714e-07,-0.0163108706474304,0.0236302614212036,-0.0198898315429687,0,0,0,0
4.0,1788269098167,0.0,0.0,-0.0061368979513645,-0.0024636110756546,0.6346920132637024,0.7727368474006653,7.01360725361329e-07,-4.6943111221074926e-07,-3.127282904068985e-09,0.0001094663821277,-7.4671559559647e-05,8.354859346582089e-06,-0.0024783667176961,-0.0061289323493838,0.9968997240066528,0.0784042477607727,0.0001063462433303,-7.711083695352576e-05,-3.6950335592951714e-07,-0.0163108706474304,0.0236302614212036,-0.0198898315429687,0,0,0,0
4.1,1788269098267,0.0,0.0,-0.0061368979513645,-0.0024636110756546,0.6346920132637024,0.7727368474006653,7.01360725361329e-07,-4.6943111221074926e-07,-3.127282904068985e-09,0.0001094663821277,-7.4671559559647e-05,8.354859346582089e-06,-0.0024783667176961,-0.0061289323493838,0.9968997240066528,0.0784042477607727,0.0001063462433303,-7.711083695352576e-05,-3.6950335592951714e-07,-0.0163108706474304,0.0236302614212036,-0.0198898315429687,0,0,0,0
4.2,1788269098367,0.0,0.0,-0.0061368979513645,-0.0024636110756546,0.6346920132637024,0.7727368474006653,7.01360725361329e-07,-4.6943111221074926e-07,-3.127282904068985e-09,0.0001094663821277,-7.4671559559647e-05,8.354859346582089e-06,-0.0024783667176961,-0.0061289323493838,0.9968997240066528,0.0784042477607727,0.0001063462433303,-7.711083695352576e-05,-3.6950335592951714e-07,-0.0163108706474304,0.0236302614212036,-0.0198898315429687,0,0,0,0
4.3,1788269098467,0.0,0.0,-0.0061368979513645,-0.0024636110756546,0.6346920132637024,0.7727368474006653,7.01360725361329e-07,-4.6943111221074926e-07,-3.127282904068985e-09,0.0001094663821277,-7.4671559559647e-05,8.354859346582089e-06,-0.0024783667176961,-0.0061289323493838,0.9968997240066528,0.0784042477607727,0.0001063462433303,-7.711083695352576e-05,-3.6950335592951714e-07,-0.0163108706474304,0.0236302614212036,-0.0198898315429687,0,0,0,0
4.4,1788269098567,0.0,0.0,-0.0061368979513645,-0.0024636110756546,0.6346920132637024,0.7727368474006653,7.01360725361329e-07,-4.6943111221074926e-07,-3.127282904068985e-09,0.0001094663821277,-7.4671559559647e-05,8.354859346582089e-06,-0.0024783667176961,-0.0061289323493838,0.9968997240066528,0.0784042477607727,0.0001063462433303,-7.711083695352576e-05,-3.6950335592951714e-07,-0.0163108706474304,0.0236302614212036,-0.0198898315429687,0,0,0,0
4.5,1788269098667,0.0,0.0,-0.0061291162855923,-0.0024635880254209,0.6346921920776367,0.7727368474006653,0.0,0.0,0.0,0.0001323432079516,-0.0001204856016556,-3.5768434827332385e-06,-0.0024749496951699,-0.0061252852901816,0.9968997240066528,0.0784042477607727,0.000112137277049,-0.0001047132155098,-4.971833732055884e-07,0.0209614038467407,0.0072945356369018,-0.0071067810058593,0,0,0,0
4.6,1788269098767,0.0,0.0,-0.0061227972619235,-0.0024670590646564,0.6346922516822815,0.7727367877960205,0.0,0.0,0.0,3.062613541260362e-05,-0.0001291108201257,-1.1909905879292635e-06,-0.0024667279794812,-0.0061226496472954,0.9968997240066528,0.0784042999148368,2.036341699679198e-05,-0.000130434629288,-9.948935302259526e-07,-0.0099371075630187,-0.0118569135665893,0.0054740905761718,0,0,0,0
4.7,1788269098867,0.0,0.0,-0.0061213113367557,-0.0024691408034414,0.6346921920776367,0.7727367877960205,0.0,0.0,0.0,-8.662431355332956e-06,-0.0001273278612643,-2.9746242944384e-06,-0.0024620750918984,-0.0061255982145667,0.9968997240066528,0.0784042999148368,-0.0001062373862095,-9.19405837334219e-05,-5.227147885907471e-07,0.0083416700363159,-0.007215678691864,0.0037145614624023,0,0,0,0
4.8,1788269098967,0.0,0.0,-0.006122195161879,-0.0024760472588241,0.6346921920776367,0.7727368474006653,0.0,0.0,0.0,-0.0001543267571832,-0.0001068350611603,-1.2097387980247731e-06,-0.0024584410712122,-0.0061336187645792,0.9968997240066528,0.0784043446183204,-0.0002176157007053,-9.53236424319142e-05,-2.4909969261038645e-06,0.0082293152809143,0.010089099407196,-0.0019207000732421,0,0,0,0
4.9,1788269099067,0.0,0.0,-0.0061278534121811,-0.0024867304600775,0.6346921920776367,0.7727368474006653,0.0,0.0,0.0,-0.0002042709820671,-7.300512515939772e-05,-9.865557331067976e-07,-0.0024528130888938,-0.0061483094468712,0.9968997240066528,0.0784044340252876,-0.0002414433718861,-0.0001546736683893,-3.210697243626496e-06,-0.0155351758003234,-0.0074827671051025,-0.0204725265502929,0,0,0,0
5.0,1788269099167,0.0,0.0,-0.0061360038816928,-0.0025048675015568,0.6346919536590576,0.7727369070053101,0.0,0.0,0.0,-0.0002054663200397,-7.827864465070888e-05,-3.5729226510738954e-06,-0.002449307590723,-0.006158391945064,0.9968996047973632,0.0784044489264488,-0.0002017524944112,-7.464251373314052e-05,-9.950080390685123e-07,0.0045160055160522,-0.0112971663475036,0.0012273788452148,0,0,0,0
5.1,1788269099267,0.0,0.0,-0.0061374553479254,-0.0025075343437492,0.6346918940544128,0.7727368474006653,-0.0004739662815649,-8.457776342924599e-06,-5.437027477773469e-07,-0.0001341367751592,-5.430495002656244e-05,0.0,-0.0024469457566738,-0.0061666434630751,0.9968996047973632,0.0784044489264488,-0.0001598383361115,-5.076589988282519e-05,-9.787907554702967e-07,0.0137436985969543,-0.00605970621109,-0.0127973556518554,0,0,0,0
5.2,1788269099367,0.0,0.0,-0.0061409776099026,-0.0025133132003247,0.6346918940544128,0.7727368474006653,0.0,0.0,0.0,-7.501340587623417e-05,-2.3165166567196135e-05,0.0,-0.0024454798549413,-0.0061699515208601,0.9968996047973632,0.0784044489264488,-3.859845292039114e-06,-1.973501977315776e-05,1.139539168176045e-12,-0.003952145576477,0.0287772417068481,-0.0158109664916992,0,0,0,0
5.3,1788269099467,0.0,0.0,-0.0061399419791996,-0.0025138980709016,0.6346918940544128,0.7727368474006653,0.0,0.0,0.0,7.061377982608974e-05,8.32725072541507e-06,0.0,-0.0024457070976495,-0.0061649912968277,0.9968996047973632,0.0784044489264488,0.0001711956565096,2.571471287433868e-05,5.143579179349029e-07,-0.0144506096839904,-0.0104011297225952,-0.0087146759033203,0,0,0,0
5.4,1788269099567,0.0,0.0,-0.0061342394910752,-0.0025037294253706,0.6346918940544128,0.7727369070053101,0.0,0.0,0.0,0.0001642013667151,0.0001016471287584,0.0,-0.0024483716115355,-0.006157130934298,0.9968996047973632,0.0784044340252876,0.0001879592460285,0.0001121874186521,2.1886430046585345e-06,0.0042555332183837,-0.030177891254425,-0.0180788040161132,0,0,0,0
5.5,1788269099667,0.0,0.0,-0.0061337579973042,-0.0025011394172906,0.6346918344497681,0.7727369666099548,-0.0004736036016557,-8.451326864839958e-06,-5.430241791930593e-07,9.599211625754832e-05,8.077418897300959e-05,-2.83846156889922e-06,-0.0024550389498472,-0.0061523932963609,0.9968996047973632,0.0784043446183204,-4.095978510357521e-06,0.0001225355247331,2.001083207563484e-06,0.0008043050765991,0.0159268379211425,-0.00146484375,0,0,0,0
5.6,1788269099767,0.0,0.0,-0.0061356551013886,-0.0024965773336589,0.6346918344497681,0.7727369666099548,0.0,0.0,0.0,-2.4719231532799317e-06,7.28845625417307e-05,-2.378993713136879e-06,-0.0024596080183982,-0.006152244284749,0.9968996047973632,0.0784043073654174,-2.5837853190835127e-06,8.315632374625377e-05,4.751756921685096e-07,-0.0010793805122375,-0.0163255929946899,-0.0209302902221679,0,0,0,0
5.7,1788269099867,0.0,0.0,-0.0061412639915943,-0.0024912673979997,0.6346918940544128,0.7727368474006653,0.0,0.0,0.0,-1.4081413610256275e-05,5.411918027675711e-05,1.1916832818315015e-06,-0.002463518641889,-0.0061528803780674,0.9968996047973632,0.0784042999148368,-2.1727452583979053e-05,7.935648232095088e-05,4.973121804705698e-07,0.0077583193778991,0.005176305770874,-0.0023355484008789,0,0,0,0
5.8,1788269099967,0.0,0.0,-0.0061418954282999,-0.0024903332814574,0.6346918940544128,0.7727368474006653,0.0,0.0,0.0,1.9256009181845e-05,-2.345587927266024e-05,0.0,-0.0024635298177599,-0.0061523048207163,0.9968996047973632,0.0784042999148368,4.170607500037946e-05,-4.448842895681376e-05,-4.68637135471465e-07,0.0156275629997253,-0.020618200302124,0.0100669860839843,0,0,0,0
5.9,1788269100067,0.0,0.0,-0.0061403908766806,-0.0024906571488827,0.6346918940544128,0.7727368474006653,-0.0004742683245517,-8.463059320420594e-06,-5.581709045645063e-07,4.562347385217436e-05,-5.74706973566208e-05,0.0,-0.0024569863453507,-0.0061495844274759,0.9968996047973632,0.0784043297171592,7.295782033789648e-05,-0.0001748433803673,-2.4912814737098003e-06,-0.0050538778305053,0.0044352412223815,-0.0064611434936523,0,0,0,0
6.0,1788269100167,0.0,0.0,-0.0061341351829469,-0.0024936855770647,0.6346918940544128,0.7727369666099548,0.0,0.0,0.0,4.333140896051191e-05,-0.000105911924038,0.0,-0.0024477997794747,-0.0061455722898244,0.9968997240066528,0.0784044042229652,0.0001286170964652,-0.0002106879027121,-2.4911741826246048e-06,-0.021691083908081,-0.0141401886940002,0.0040597915649414,0,0,0,0
6.1,1788269100267,0.0,0.0,-0.0061172787100076,-0.002500569447875,0.6346918940544128,0.7727370858192444,0.0,0.0,0.0,5.9470909036463127e-05,-0.0001177176018245,0.0,-0.0024355249479413,-0.0061401985585689,0.9968997240066528,0.0784044936299324,0.0001107957725406,-0.0002051404200618,-2.747878034654918e-06,0.008819580078125,0.0003837347030639,-0.000563621520996,0,0,0,0
6.2,1788269100367,0.0,0.0,-0.0061071193777024,-0.0025051864795386,0.6346918344497681,0.7727371454238892,0.0,0.0,0.0,5.038053132011555e-05,-0.0001180586623377,-3.584606929507572e-06,-0.0024290485307574,-0.0061377994716167,0.9968997240066528,0.0784045308828353,4.336969095020629e-05,-0.0001033006041246,-4.822895180037021e-07,0.0093728899955749,0.0043479204177856,0.0014238357543945,0,0,0,0
6.3,1788269100467,0.0,0.0,-0.0061058085411787,-0.002505715470761,0.6346918940544128,0.7727370858192444,-0.000464073985913,-8.281507653084784e-06,-5.147457750615333e-07,3.159980406053364e-05,-5.793025411549024e-05,4.172021363046952e-06,-0.0024253940209746,-0.0061362832784652,0.9968997240066528,0.0784045308828353,2.687569328176984e-05,-6.445782912651007e-05,-2.761428429008929e-11,0.0006768703460693,0.0099758505821228,-0.0075941085815429,0,0,0,0
6.4,1788269100567,0.0,0.0,-0.0061032832600176,-0.002506956923753,0.6346918344497681,0.7727371454238892,0.0,0.0,0.0,6.236183253349736e-06,-2.318700899195392e-05,0.0,-0.0024247132241725,-0.0061361622065305,0.9968997240066528,0.0784045308828353,-2.0146308023441795e-05,7.104058015334992e-06,-2.143640058815621e-12,-0.0203504562377929,-0.014725923538208,-0.0063018798828125,0,0,0,0
6.5,1788269100667,0.0,0.0,-0.0061040385626256,-0.002507705707103,0.6346918344497681,0.7727371454238892,0.0,0.0,0.0,-4.9676233174977824e-05,1.4419818398891948e-05,0.0,-0.0024262005463242,-0.0061403447762131,0.9968997240066528,0.0784045308828353,-0.0001023412742782,2.8921197559603184e-05,-4.50352766017792e-11,-0.013041079044342,0.0306899547576904,0.0009212493896484,0,0,0,0
6.6,1788269100767,0.0,0.0,-0.0061079892329871,-0.0025094663724303,0.6346918940544128,0.7727371454238892,0.0,0.0,0.0,-0.0001635965600144,4.49842591478955e-05,1.1691340660036076e-06,-0.002427234314382,-0.0061469050124287,0.9968997240066528,0.0784045308828353,-9.174832180525976e-05,-8.46764525110632e-06,-4.962605391024453e-07,0.0080882906913757,-0.0089744925498962,0.0131502151489257,0,0,0,0
6.7,1788269100867,0.0,0.0,-0.0061118183657526,-0.0025121695362031,0.6346918344497681,0.7727370262145996,-0.0004637489632823,-8.275749959311838e-06,-5.122799910327044e-07,0.0,1.0857029941746532e-08,0.0,-0.0024260282516479,-0.0061498740687966,0.9968997240066528,0.0784045308828353,-7.376490935613075e-05,-2.854313755717228e-05,-4.969109722317557e-07,0.0044951438903808,0.0109212398529052,-0.0026311874389648,0,0,0,0
6.8,1788269100967,0.0,0.0,-0.0061131427064538,-0.0025147038977593,0.6346918940544128,0.7727370858192444,0.0,0.0,0.0,0.0,0.0,0.0,-0.002426030114293,-0.0061539029702544,0.9968997240066528,0.0784045308828353,-9.021480195570124e-05,-2.929053515852803e-06,-3.905352219153347e-07,-0.004425048828125,-0.0195435285568237,0.0188751220703125,0,0,0,0
6.9,1788269101067,0.0,0.0,-0.006117989309132,-0.0025194049812853,0.6346918344497681,0.7727370262145996,0.0,0.0,0.0,0.0,9.287512980904468e-09,0.0,-0.0024282662197947,-0.0061579523608088,0.9968997240066528,0.0784045234322547,-6.890160023410315e-05,7.548938657610351e-05,9.8731566155523e-07,0.0160641074180603,0.035925805568695,0.0119695663452148,0,0,0,0
7.0,1788269101167,0.0,0.0,-0.006123318336904,-0.0025146540720015,0.6346917152404785,0.7727370262145996,0.000440433136794,7.859731925736284e-06,4.875449745098017e-07,7.696774991927668e-05,0.000196572204004,1.3198301758166051e-06,-0.0024345647543668,-0.0061549739912152,0.9968997240066528,0.0784044712781906,9.254898476279982e-05,0.0001206337065884,1.9884638439460044e-06,-0.00159353017807,-0.0030937194824218,0.0231485366821289,0,0,0,0
7.1,1788269101267,0.0,0.0,-0.006123318336904,-0.0025146540720015,0.6346917152404785,0.7727370262145996,-0.0004548025228248,-8.116118637274466e-06,-5.074609887283651e-07,0.0,0.0,0.0,-0.0024380832910537,-0.006148231215775,0.9968997240066528,0.0784044414758682,0.0001537081613855,7.959331078633369e-05,1.49430848765011e-06,-0.0214337706565856,0.0036516785621643,0.0082864761352539,0,0,0,0
7.2,1788269101367,0.0,0.0,-0.0061219208873808,-0.002508289180696,0.6346918940544128,0.7727369666099548,0.0,0.0,0.0,0.0,-9.390197064362836e-09,0.0,-0.0024419305846095,-0.0061409575864672,0.9968997240066528,0.0784044116735458,0.0001747085061368,0.0001151200414575,2.2482248991311653e-06,0.0077015161514282,0.0145299434661865,-0.0221195220947265,0,0,0,0
7.3,1788269101467,0.0,0.0,-0.0061174612492322,-0.0024948311038315,0.6346919536590576,0.7727370262145996,0.0,0.0,0.0,0.0001922422234201,0.0001335333799943,1.9758711005124496e-06,-0.0024465536698698,-0.0061349011957645,0.9968997240066528,0.0784043446183204,0.0001153051828881,0.0001328961835141,2.4865943328688845e-06,-0.0099755525588989,0.0127614140510559,-0.0007276535034179,0,0,0,0
7.4,1788269101567,0.0,0.0,-0.0061187869869172,-0.0024815499782562,0.6346921324729919,0.7727369666099548,0.00043221775748,7.712689203592497e-06,4.965828835890042e-07,0.000118668678624,0.0002496823435649,2.5904225822159788e-06,-0.002454848960042,-0.0061297304928302,0.9968997240066528,0.0784042999148368,1.6053557638368597e-05,0.0001284140340585,9.206674015728994e-07,0.0027421116828918,-0.0008307695388793,-0.0030536651611328,0,0,0,0
7.5,1788269101667,0.0,0.0,-0.0061187869869172,-0.0024815499782562,0.6346921324729919,0.7727369666099548,-0.0004416938992577,-7.88174465045638e-06,-5.125025881348035e-07,0.0,-1.0340687417453864e-08,0.0,-0.0024596648290753,-0.0061296131461858,0.9968997240066528,0.0784042924642562,2.3269210777594466e-06,5.767659193795227e-05,4.964117496123821e-07,0.0002887248992919,-0.0367829203605651,0.0118036270141601,0,0,0,0
7.6,1788269101767,0.0,0.0,-0.0061219241470098,-0.0024781404063105,0.6346920132637024,0.7727369666099548,0.0,0.0,0.0,0.0,0.0,0.0,-0.0024626143276691,-0.0061297956854105,0.9968997240066528,0.0784042924642562,4.086750765786924e-06,9.031378341995376e-05,5.404017483856081e-07,0.0275719761848449,0.0188012719154357,0.007512092590332,0,0,0,0
7.7,1788269101867,0.0,0.0,-0.0061253407038748,-0.0024741049855947,0.6346920132637024,0.7727369070053101,0.0,0.0,0.0,9.85635142569663e-06,0.0001033641310641,2.968501121358713e-06,-0.0024669244885444,-0.006129483692348,0.9968997240066528,0.0784042924642562,-1.78312278315068e-05,9.256409238741962e-05,5.168234317160052e-07,0.0168481469154357,0.0171383023262023,0.020024299621582,0,0,0,0
7.8,1788269101967,0.0,0.0,-0.0061296727508306,-0.0024693883024156,0.6346922516822815,0.7727367877960205,0.0004440632069225,7.923801522139401e-06,5.269628830745583e-07,6.757503001608711e-07,0.000139869924169,0.0,-0.0024704849347472,-0.0061292303726077,0.9968997240066528,0.0784042924642562,-1.5852495978183216e-06,7.77549542816696e-05,4.973315477107629e-07,-0.0098470449447631,0.0029756426811218,-0.0166225433349609,0,0,0,0
7.9,1788269102067,0.0,0.0,-0.0061296727508306,-0.0024693883024156,0.6346922516822815,0.7727367877960205,-0.0004419223854099,-7.885580796513097e-06,-5.27190303544834e-07,0.0,0.0,0.0,-0.0024779513478279,-0.0061310427263379,0.9968997240066528,0.0784042403101921,-5.0731880986630624e-05,0.0001196688337786,9.94042598294306e-07,-0.0167030096054077,-0.0074252486228942,-0.0029935836791992,1,0,0,0
8.0,1788269102167,0.0,0.0,-0.0061296727508306,-0.0024693883024156,0.6346922516822815,0.7727367877960205,0.0,0.0,0.0,0.0,0.0,0.0,-0.0024844454601407,-0.0061352383345365,0.9968997240066528,0.0784042254090309,-0.000127550959389,0.0001559981727328,5.001489268555146e-07,-0.001876950263977,0.0093617439270019,-0.0065841674804687,0,0,0,0
8.1,1788269102267,0.0,0.0,-0.0061296727508306,-0.0024693883024156,0.6346922516822815,0.7727367877960205,0.0,0.0,0.0,0.0,0.0,0.0,-0.0024923551827669,-0.0061417324468493,0.9968996047973632,0.0784041956067085,-0.0001868545213078,0.0001743965391399,1.9465362711715524e-06,0.0108938813209533,-0.0008478164672851,0.0130844116210937,0,0,0,0
8.2,1788269102367,0.0,0.0,-0.0061296727508306,-0.0024693883024156,0.6346922516822815,0.7727367877960205,0.0,0.0,0.0,0.0,0.0,0.0,-0.0025022597983479,-0.0061514908447861,0.9968996047973632,0.0784041732549667,-0.0001670597651497,0.0001261491095272,4.967008951017613e-07,-0.0215675234794616,-0.0006953477859497,-0.0033998489379882,0,0,0,0
8.3,1788269102467,0.0,0.0,-0.0061296727508306,-0.0024693883024156,0.6346922516822815,0.7727367877960205,0.0,0.0,0.0,0.0,0.0,0.0,-0.0025086840614676,-0.0061590019613504,0.9968994855880736,0.0784041583538055,-0.000153653803969,0.000117022932957,9.789977710441496e-07,0.0125033259391784,-0.0133282542228698,0.0040645599365234,0,0,0,0
8.4,1788269102567,0.0,0.0,-0.0061296727508306,-0.0024693883024156,0.6346922516822815,0.7727367877960205,0.0,0.0,0.0,0.0,0.0,0.0,-0.0025125341489911,-0.0061670010909438,0.9968994855880736,0.0784041583538055,-0.000192301396024,4.932679641489482e-05,-1.4206679125716549e-10,0.0101964473724365,0.0337119102478027,0.0044422149658203,0,0,0,0
8.5,1788269102667,0.0,0.0,-0.0061296727508306,-0.0024693883024156,0.6346922516822815,0.7727367877960205,0.0,0.0,0.0,0.0,0.0,0.0,-0.0025122743099927,-0.0061728786677122,0.9968993663787842,0.0784041509032249,-5.981991965019336e-05,-3.892633564878985e-05,-5.142697233109463e-07,-0.0120490789413452,0.0183081626892089,0.0201778411865234,0,0,0,0
8.6,1788269102767,0.0,0.0,-0.0061296727508306,-0.0024693883024156,0.6346922516822815,0.7727367877960205,0.0,0.0,0.0,0.0,0.0,0.0,-0.002510005608201,-0.0061715766787528,0.9968993663787842,0.0784041509032249,8.333616270252886e-05,-7.403111279114793e-05,-5.69414071335822e-07,-0.0087071657180786,0.0048088431358337,0.0108327865600585,0,0,0,0
8.7,1788269102867,0.0,0.0,-0.0061296727508306,-0.0024693883024156,0.6346922516822815,0.7727367877960205,0.0,0.0,0.0,0.0,0.0,0.0,-0.0025056637823581,-0.0061660790815949,0.9968993663787842,0.0784041509032249,0.0001613683289811,-9.713731168850036e-05,-4.964669340794975e-07,0.0018590688705444,0.0023226737976074,-0.0073318481445312,0,0,0,0
8.8,1788269102967,0.0,0.0,-0.0061296727508306,-0.0024693883024156,0.6346922516822815,0.7727367877960205,0.0,0.0,0.0,0.0,0.0,0.0,-0.0025000358000397,-0.0061591882258653,0.9968994855880736,0.0784041583538055,0.0001346829838495,-0.0001039668645929,-4.801567164463672e-07,-0.0216073393821716,-0.0155100226402282,0.0011348724365234,0,0,0,0
8.9,1788269103067,0.0,0.0,-0.0061296727508306,-0.0024693883024156,0.6346922516822815,0.7727367877960205,0.0,0.0,0.0,0.0,0.0,0.0,-0.0024944152683019,-0.0061532724648714,0.9968994855880736,0.0784041583538055,9.843363123118733e-05,-9.68469729188082e-05,-1.4268976291613792e-10,-0.003711998462677,0.0097814798355102,-0.0021381378173828,0,0,0,0
9.0,1788269103167,0.0,0.0,-0.0061296727508306,-0.0024693883024156,0.6346922516822815,0.7727367877960205,0.0,0.0,0.0,0.0,0.0,0.0,-0.002489760518074,-0.0061476370319724,0.9968996047973632,0.0784041658043861,0.0001653172969794,-0.0001008463421078,-4.964193381318402e-07,-0.0128200650215148,-0.0088900327682495,-0.0112485885620117,0,0,0,0
9.1,1788269103267,0.0,0.0,-0.0061296727508306,-0.0024693883024156,0.6346922516822815,0.7727367877960205,0.0,0.0,0.0,0.0,0.0,0.0,-0.0024814987555146,-0.0061368187889456,0.9968996047973632,0.0784041658043861,0.0001992739878205,-0.0001152538100833,-4.975967460210117e-07,0.0067589879035949,-0.011056363582611,-0.0123138427734375,0,0,0,0
9.2,1788269103367,0.0,0.0,-0.0061296727508306,-0.0024693883024156,0.6346922516822815,0.7727367877960205,0.0,0.0,0.0,0.0,0.0,0.0,-0.0024759974330663,-0.0061296857893466,0.9968997240066528,0.0784041732549667,0.000143943534946,-0.0001007853674211,-2.1710671004387326e-10,-0.0149271488189697,0.0015864968299865,0.0209150314331054,0,0,0,0
9.3,1788269103467,0.0,0.0,-0.0061296727508306,-0.0024693883024156,0.6346922516822815,0.7727367877960205,0.0,0.0,0.0,0.0,0.0,0.0,-0.0024714842438697,-0.0061240028589963,0.9968997240066528,0.0784041732549667,0.0001367574884967,-0.0001119423240343,-5.320860457216605e-07,0.0010256767272949,-0.0342702865600585,0.0180826187133789,0,0,0,0
9.4,1788269103567,0.0,0.0,-0.0061237826012074,-0.0024656797759234,0.6346924304962158,0.7727366089820862,6.859429592759314e-07,-3.296145160541401e-07,-1.4364091271050096e-09,0.0002821040106937,-3.57112949131988e-05,1.0958820894302336e-05,-0.002466264180839,-0.0061214417219161,0.9968998432159424,0.0784041807055473,4.968614050794512e-05,-0.0001161735469662,-3.960141473112753e-07,-0.0008524060249328,-0.0194466114044189,0.0172414779663085,0,0,0,0
9.5,1788269103667,0.0,0.0,-0.006119483616203,-0.0024678772315382,0.634692370891571,0.772736668586731,0.0,0.0,0.0,7.580791861983016e-05,-0.0001741442974889,-4.690755304181948e-06,-0.0024613747373223,-0.0061210263520479,0.9968998432159424,0.0784041881561279,-1.8765442046618003e-05,-3.7752174683408384e-05,-4.720754213619529e-07,0.0284358859062194,0.0045432448387146,0.0103874206542968,0,0,0,0
9.6,1788269103767,0.0,0.0,-0.006119483616203,-0.0024678772315382,0.634692370891571,0.772736668586731,0.0,0.0,0.0,0.0,7.065723117705147e-09,0.0,-0.002459917217493,-0.0061234729364514,0.9968998432159424,0.0784041881561279,-6.85948730985249e-05,-3.533011483952309e-05,-5.006564533013665e-07,0.0034394860267639,0.0194982886314392,-0.0186386108398437,0,0,0,0
9.7,1788269103867,0.0,0.0,-0.006118596997112,-0.0024742856621742,0.634692370891571,0.772736668586731,-0.0004650804568397,-8.298638984862312e-06,-5.446664672426851e-07,0.0,1.0888202339742747e-08,0.0,-0.002458126284182,-0.0061244685202836,0.9968998432159424,0.0784041881561279,1.0204222512735294e-05,-3.731394799433055e-05,-5.82084645428729e-12,-0.0128453373908996,-0.008125364780426,-0.0102157592773437,0,0,0,0
9.8,1788269103967,0.0,0.0,-0.006118596997112,-0.0024742856621742,0.634692370891571,0.772736668586731,0.0,0.0,0.0,0.0,9.303596115728396e-09,0.0,-0.0024565672501921,-0.0061240140348672,0.9968998432159424,0.0784041881561279,1.1741214863927614e-05,-4.4635253331915296e-05,-4.969905193209724e-07,0.0139347314834594,-0.0224434733390808,-0.0121917724609375,0,0,0,0
9.9,1788269104067,0.0,0.0,-0.006118596997112,-0.0024742856621742,0.634692370891571,0.772736668586731,0.0,0.0,0.0,0.0,1.1347209394330092e-08,0.0,-0.0024537155404686,-0.0061266012489795,0.9968998432159424,0.0784042030572891,-8.273752230063143e-05,-6.766457880690298e-05,-1.496299619651262e-06,0.0083125829696655,-0.0038011074066162,-0.0017108917236328,0,0,0,0
10.0,1788269104167,0.0,0.0,-0.006118596997112,-0.0024742856621742,0.634692370891571,0.772736668586731,0.0,0.0,0.0,0.0,9.392061350865788e-09,0.0,-0.0024497834965586,-0.0061312234029173,0.9968998432159424,0.0784042328596115,-7.714611402759128e-05,-6.952505013999344e-05,-1.1084486261892134e-06,-0.0078764557838439,0.0409697890281677,0.0071535110473632,0,0,0,0
10.1,1788269104267,0.0,0.0,-0.006118596997112,-0.0024742856621742,0.634692370891571,0.772736668586731,0.0,0.0,0.0,0.0,9.163169778503288e-09,0.0,-0.0024459017440676,-0.006139138713479,0.996900200843811,0.0783986300230026,-0.0003696384653829,-0.0001801990266669,0.0003003489155249,0.0589571595191955,-0.0134747624397277,0.010542869567871,37,175,2887,6320
10.2,1788269104367,1.0140844583511353,3.126760482788086,-0.0060023479163646,-0.0028465348295867,0.6410936713218689,0.7674339413642883,0.0679059237654937,0.0037839745621813,1.861912623653491e-05,-0.0060236519202589,-0.0051151541993021,0.2300001829862594,-0.0019235610961914,-0.006282846443355,0.9974561333656312,0.0709800794720649,-0.0062997892627618,-0.0177505837496087,0.2155059452098793,1.0817824602127075,-0.1217783093452453,0.0859279632568359,197,233,10113,13319
10.3,1788269104467,2.563380241394043,5.690140724182129,-0.0063425861299037,-0.0027148546651005,0.6455974578857422,0.7636467814445496,0.1020388067841175,0.0001981103809192,-4.1430144233843125e-05,-0.0090947560966014,0.0137134073302149,0.2868759930133819,-0.0029778741300106,-0.0064747566357254,0.9987644553184508,0.0491812042891979,0.0041893395314075,0.0110373119227212,0.5054174469556038,0.768110454082489,0.1131948828697204,-0.0489988327026367,98,207,11101,19802
10.4,1788269104567,3.2676055431365967,7.239436626434326,-0.0067268321290612,-0.0021634369622915,0.6625722050666809,0.7489646673202515,0.1569782953513219,-0.0012130754939589,-6.762269947572437e-05,0.0054624965414404,0.0157726369798183,0.5236891508102417,-0.0034482656046748,-0.006501892581582,0.9996912479400636,0.0237321946769952,0.006656361900481,-0.0284359857648706,0.6122133443575984,-0.4276915788650512,-0.0645691752433776,1.3795795440673828,42,57,10743,19246
10.5,1788269104667,2.8450703620910645,6.056337833404541,-0.0071488013491034,-0.0021526585333049,0.6972872018814087,0.7167530059814453,0.1777216585601245,0.0022730646699709,4.5691561103681205e-05,-0.0049501713365316,-0.0217620860785245,0.5760584473609924,0.0035592829808592,0.0066959792748093,-0.999966323375702,0.0031616846099495,-0.0033658060434498,-0.0194331513748663,0.6467110964844561,-0.3674141764640808,-0.1188413500785827,-0.565678596496582,23,17,7704,13875
10.6,1788269104767,1.4647886753082275,3.2676055431365967,-0.0072673452086746,-0.0017964355647563,0.7132440805435181,0.7008758187294006,0.111572949592796,-0.001761540594517,-1.669016427278149e-06,-0.0039115971885621,0.0043143900111317,0.3418166041374206,0.003647081553936,0.0064159063622355,-0.999531388282776,0.0297088362276554,0.0080931743308432,-0.0047596007941829,0.3107816059000741,-0.9426820874214172,-0.1220952868461608,0.3648557662963867,0,58,4231,5934
10.7,1788269104867,0.4788732528686523,0.9014084339141846,-0.0069188047200441,-0.0019362554885447,0.7168936729431152,0.6971454620361328,0.0706444506564118,-0.0026193998050798,1.5004111689901155e-05,0.0063615553081035,-0.0194849073886871,0.2676354646682739,0.0034798420965671,0.0063508125022053,-0.999244213104248,0.0381917580962181,-0.0018331699830784,-0.0054717261727484,0.1123842398083853,-0.8518800735473633,-0.1293092966079712,0.1156635284423828,53,43,1513,0
10.8,1788269104967,0.0,0.0,-0.0069831637665629,-0.0018907671328634,0.7204455733299255,0.6934738159179688,0.0091330330429266,-0.0026494568136239,7.049861475445758e-07,-0.0003627685073297,-0.0065507334657013,0.0532312020659446,0.0033740755170583,0.0063466858118772,-0.9992557168006896,0.0378990322351455,0.0017529434072064,-0.000813848031687,-0.0375035145175821,-0.0520961284637451,0.0189684033393859,-0.0222387313842773,1,0,0,0
10.9,1788269105067,0.0,0.0,-0.0068552726879715,-0.0020197441335767,0.7197931408882141,0.694151759147644,-0.0092233138500685,0.0021912511076226,-1.2426933861790726e-06,0.0001859689655248,-0.0033357597421854,-0.0211993381381034,0.0033378489315509,0.0063757644966244,-0.9992520809173584,0.0379949286580085,-0.001804826446986,-0.0001368421714773,-0.0115887797020363,-0.1125110387802124,-0.0672086477279663,0.0558252334594726,0,0,0,0
11.0,1788269105167,0.0,0.0,-0.0068832952529191,-0.002026331378147,0.7201440930366516,0.6937873959541321,0.0001954117748046,0.0002024975949535,3.373673862975036e-07,0.0,0.0,0.0,0.0033271210268139,0.0063866497948765,-0.999251902103424,0.037996657192707,-0.0022400916698349,-0.0017594203647732,-0.0013056335088664,-0.0767490267753601,-0.0364055037498474,0.0490732192993164,0,0,0,0
11.1,1788269105267,0.0,0.0,-0.0068832952529191,-0.002026331378147,0.7201440930366516,0.6937873959541321,-0.000244083556698,-0.0002529342627817,-4.213964672485199e-07,0.0,0.0,0.0,0.0033343946561217,0.0064140548929572,-0.9992535710334778,0.0379478372633457,-0.0007215111173195,0.0006629112808519,-0.0006126498432256,-0.0460379123687744,-0.014294147491455,0.0458221435546875,0,0,0,0
11.2,1788269105367,0.0,0.0,-0.0068832952529191,-0.002026331378147,0.7201440930366516,0.6937873959541321,0.0,0.0,0.0,0.0,0.0,0.0,0.0033100210130214,0.0064139831811189,-0.9992539882659912,0.0379403978586196,0.0006943946993588,0.0010122832782833,0.000644218915159,-0.0409043431282043,0.0057462453842163,0.0082731246948242,0,0,0,0
11.3,1788269105467,0.0,0.0,-0.0068832952529191,-0.002026331378147,0.7201440930366516,0.6937873959541321,0.0,0.0,0.0,0.0,0.0,0.0,0.0032958080992102,0.0063768438994884,-0.9992547035217284,0.0379262715578079,0.0003506549515915,-0.0012835474301367,-0.0016857843374809,0.02327561378479,-0.014932096004486,0.0372447967529296,0,0,0,0
11.4,1788269105567,0.0,0.0,-0.0068832952529191,-0.002026331378147,0.7201440930366516,0.6937873959541321,0.0,0.0,0.0,0.0,0.0,0.0,0.0033252872526645,0.0063787056133151,-0.9992534518241882,0.0379598736763,0.0003032212545638,0.0002675451856173,0.0013929289545132,0.0292146801948547,0.0155745148658752,0.0428829193115234,0,0,0,0
11.5,1788269105667,0.0,0.0,-0.0069029931910336,-0.0020516484510153,0.7201544046401978,0.6937764883041382,6.280129359245037e-05,-7.276625986998718e-05,-4.613827479628652e-07,-0.0015597987221553,-0.0001694894745014,0.0007259677513502,0.0033423593267798,0.0064069470390677,-0.9992507696151732,0.03802140802145,-0.000588928118782,-0.0002799248205975,0.0071844519663979,0.200181782245636,0.0537949204444885,0.047764778137207,129,202,5224,7291
11.6,1788269105767,2.563380241394043,3.0422534942626958,-0.0068249320611357,-0.0021869109477847,0.7209279537200928,0.6929728984832764,0.0069870142441149,-0.0022839760602883,1.0264026726296989e-07,-0.0019429200328886,-0.006462778430432,0.0458547882735729,0.0037186788395047,0.0072082607075572,-0.9990806579589844,0.0420969985425472,-0.0439569834929415,0.0420259419398459,0.054850842484232,0.8278138041496277,0.0164794921875,-0.1606168746948242,124,270,10650,14839
11.7,1788269105867,4.056337833404541,5.97183084487915,-0.0060644736513495,-0.0023257473949342,0.7303062081336975,0.683089017868042,0.1696203216368229,-0.0012328507746392,0.0001463436315398,0.0885645821690559,-0.0921365544199943,0.3093871474266052,0.0032234126701951,0.0064196335151791,-0.9986725449562072,0.0510054752230644,0.1144472810652252,-0.1027351790317933,0.3201572450256118,0.7388436198234558,0.0261945128440856,-0.9532966613769532,110,111,15342,18594
11.8,1788269105967,4.14084529876709,6.704225540161133,-0.0057174670509994,-0.0024107091594487,0.7414650917053223,0.6709628105163574,0.1936796069011828,-0.001593672277663,3.468033083222149e-05,0.008619119413197,-0.0168583206832408,0.3845182955265045,0.0022023944184184,0.0057867197319865,-0.9974313974380492,0.0713611021637916,-0.0014440415635902,-0.0188639522993201,0.4592214214205652,-0.4534497857093811,0.5104551911354065,0.440408706665039,62,39,11731,17054
11.9,1788269106067,4.084506988525391,6.2816901206970215,-0.0055731213651597,-0.0023938152007758,0.7474076151847839,0.6643381118774414,0.1841768328205862,0.0015472878009851,3.0091944494510384e-05,0.0042885649017989,-0.0072772647254168,0.4446613490581512,0.0020889695733785,0.0054195262491703,-0.9959363341331482,0.0898730978369712,0.0015538924510333,-0.0119897301548706,0.4171882235533385,-0.1737087368965149,-0.1052048206329345,-0.2322854995727539,53,52,11247,17264
12.0,1788269106167,4.253520965576172,5.943662166595459,-0.0050078085623681,-0.002388387452811,0.7595718502998352,0.6503998637199402,0.1700796887682172,-0.0031704125161293,2.4677113502740024e-05,0.0036808289587497,-0.0158403124660253,0.3340157568454742,0.0021216133609414,0.0053160758689045,-0.9946721196174622,0.1029308438301086,-0.0028459250440428,0.0021553639830166,0.2390717499596346,0.3924975991249084,-0.1134865283966064,0.2954845428466797,82,102,12492,17535
12.1,1788269106267,4.478873252868652,5.88732385635376,-0.0046239555813372,-0.0021353238262236,0.7688586711883545,0.6393985152244568,0.1777028237016719,0.0002038827315364,4.9934880946825735e-05,0.0157153308391571,-0.0243460126221179,0.2626854479312897,0.0018615322187542,0.005217988975346,-0.992826521396637,0.1194352507591247,-0.0087632753857488,0.0164822685116075,0.278320350336261,-0.0907391905784607,0.0153509974479675,-1.213456153869629,53,95,12206,16886
12.2,1788269106367,4.591549396514893,5.690140724182129,-0.0053259734995663,-0.0018248335691168,0.782302737236023,0.6228728890419006,0.1751936541443716,5.4710874237956506e-05,9.728226441067e-05,0.0016490722773596,0.0131620597094297,0.2592833936214447,0.0023776590824127,0.0051032090559601,-0.991249144077301,0.1318839490413665,-0.0009307292989837,0.0614202857822708,0.2514833116879139,0.2499166131019592,0.1011508703231811,-0.4762115478515625,103,62,14556,15089
12.3,1788269106467,4.197183132171631,5.77464771270752,-0.0053843948990106,-0.0018572608241811,0.7844069004058838,0.620220422744751,0.1772420951038246,0.0013140736463704,6.285120969200849e-05,-0.0036020744591951,0.0004728604690171,0.1692735254764557,0.0024171518161892,0.0051538748666644,-0.990347146987915,0.1384927034378051,-0.0021075343648764,-0.0086876289240004,0.132392121852839,0.3069043755531311,-0.0638636350631713,-0.4411172866821289,70,133,13038,17451
12.4,1788269106567,4.450704097747803,6.056337833404541,-0.0051263412460684,-0.0018773894989863,0.7892873287200928,0.6139997839927673,0.184571544985494,0.0015707563030201,-3.0332955397770368e-05,0.0057720709592103,-0.0136243980377912,0.1876076906919479,0.0022767223417758,0.0046042241156101,-0.9883782267570496,0.1519281864166259,0.0113706857381511,0.0223680999475037,0.2649685272950395,-0.084924042224884,0.2898502349853515,0.2972631454467773,62,82,12004,16426
12.5,1788269106667,4.169013977050781,5.915493011474609,-0.0048692901618778,-0.0018005919409915,0.8014905452728271,0.5979849100112915,0.1726762939028409,0.0011655446521346,3.3361961847373045e-05,-0.0053964727558195,-0.01199362706393,0.2515757977962494,0.0020784884691238,0.0047573102638125,-0.9866176843643188,0.1629679203033447,0.0011917065026744,-0.0166006868570872,0.2563977951305534,-0.0369030237197876,-0.0134528875350952,-0.3368425369262695,45,78,12952,16893
12.6,1788269106767,4.478873252868652,6.0,-0.0044911429286003,-0.0019181285751983,0.809411346912384,0.5872218608856201,0.1810916334011334,-0.0005458629475674,8.700018349463309e-05,0.0011852425523102,-0.008862922899425,0.2524044215679168,0.0015522297471761,0.0045350845903158,-0.9845781922340392,0.1748798042535781,0.0008308730215149,-0.0261135191601692,0.2504194909311459,-0.027961254119873,-0.2824278473854065,0.4228839874267578,84,78,11913,16412
12.7,1788269106867,4.309859275817871,5.690140724182129,-0.0045356480404734,-0.0017242622561752,0.8124443292617798,0.5830186009407043,0.1740398985895846,0.0023187913381109,2.9893938237904425e-05,0.0058762221597135,0.0063982349820435,0.2587704360485077,0.0037657599896192,0.006803591735661,-0.9816816449165344,0.1903702467679977,-0.0683263565521237,0.0624420797654484,0.2371545548492681,0.37259042263031,0.0299219489097595,-0.7452468872070312,55,149,12569,18041
12.8,1788269106967,4.2253522872924805,5.830986022949219,-0.0049311341717839,-0.001195887569338,0.821015477180481,0.5708833932876587,0.182956537450599,0.0057088783233699,-1.0312847536484117e-05,0.0619447417557239,-0.0501708053052425,0.3034252524375915,0.0015923408791422,0.0039190612733364,-0.9787272810935974,0.2051218450069427,-0.0228745563258928,-0.0038877341903908,0.2688668850237155,-0.3582340478897095,-0.365145206451416,0.8244695663452148,65,23,12913,15390
12.9,1788269107067,4.197183132171631,5.85915470123291,-0.003666745731607,-0.001570260268636,0.8297500610351562,0.5581209659576416,0.1694566111652066,0.0026853403915323,9.02761575204289e-05,0.001295092748478,-0.0115974396467208,0.230460450053215,0.0018659681081771,0.0036516394466161,-0.9765322804450988,0.215331882238388,0.0117405383701084,0.0267167313834975,0.2442229447255011,0.0574029684066772,0.0121328830718994,-0.9054946899414062,84,84,13173,16576
13.0,1788269107167,4.760563373565674,5.633802890777588,-0.0035002587828785,-0.0019163188990205,0.8378884792327881,0.5458269119262695,0.179785120356402,-0.0007830609764219,-1.0009956096987584e-05,-0.0131180863827466,-0.0041158949024975,0.1362051516771316,0.0008452218025922,0.0038256989791989,-0.9741615056991576,0.2258186191320419,-0.0195380986177408,-0.0275778863080814,0.0990156790535161,-0.1249577403068542,-0.0120696425437927,0.7529363632202148,64,77,13714,15088
13.1,1788269107267,4.422535419464111,5.464788913726807,-0.0034812523517757,-0.0019646333530545,0.839233934879303,0.5437559485435486,0.1739918991998016,0.001049410385752,4.77640372362241e-05,-0.001656912616454,-0.0024285337422043,0.1176478117704391,0.0013667410239577,0.0039144018664956,-0.97266685962677,0.2321681082248687,0.0087366036397294,0.0330190178160222,0.1571131124187408,0.174088716506958,-0.1775139570236206,0.9079885482788086,68,110,14502,16111
13.2,1788269107367,4.056337833404541,5.97183084487915,-0.0031977770850062,-0.0019319499842822,0.8434671759605408,0.5371676683425903,0.1727852510243877,0.0007371395410007,-7.344909102485911e-06,0.0074441428296267,-0.0168635081499815,0.1559502184391021,0.0013857586309313,0.0040799882262945,-0.9709189534187316,0.2393699139356613,-0.0098373146859012,0.0379139262102219,0.1874056643895376,0.1594178080558776,-0.0090301036834716,0.328927993774414,60,118,13389,17143
13.3,1788269107467,4.197183132171631,5.85915470123291,-0.003807307453826,-0.0029158410616219,0.8524569272994995,0.5227754712104797,0.1671352980936003,0.0047707969428993,1.4901590081048907e-06,-0.0198148917406797,-0.0028185490518808,0.2422734498977661,0.0004858821630477,0.0048277331516146,-0.9675063490867616,0.2528002858161926,-0.0169717358327135,-0.0174378716422883,0.2729543953560699,-0.2115007638931274,-0.0458912253379821,0.213353157043457,43,102,12671,17441
13.4,1788269107567,4.169013977050781,5.915493011474609,-0.0044651515781879,-0.00283819809556,0.8595238327980042,0.5110682249069214,0.1701372557065265,0.0076527209798642,2.0690857569204065e-05,-0.0055085024796426,0.006536363158375,0.2860551476478576,0.0010505495592951,0.0051854895427823,-0.964219331741333,0.2650532126426697,-0.0001598780935902,0.0439679199693675,0.2855866670635402,0.0176107883453369,-0.3012842535972595,-1.2887077331542969,53,117,12856,17262
13.5,1788269107667,4.2253522872924805,5.943662166595459,-0.0045642610639333,-0.0029672500677406,0.8626797199249268,0.5057213306427002,0.1707386098115657,0.0011048812596714,7.42097189488292e-05,-0.0083967428654432,-0.0004773769469466,0.295366495847702,0.0009635491296648,0.0053705424070358,-0.9607117176055908,0.277494728565216,-0.0035476465158039,-6.306628603505999e-05,0.26604502672714,-0.0775428414344787,0.2133794426918029,0.3165569305419922,73,87,12875,16870
13.6,1788269107767,4.478873252868652,5.577464580535889,-0.0052760364487767,-0.0030971099622547,0.8695815205574036,0.493751585483551,0.1681814313202466,0.0029310655420237,-3.836368139030516e-05,-0.0167926363646984,0.0247083213180303,0.2670627236366272,0.0014935182407498,0.0062156440690159,-0.9568474292755128,0.2905205190181732,-0.0008353788836043,-0.0044726315404096,0.1724456501941084,0.0377631187438964,-0.0806591510772705,-0.0673856735229492,93,44,14016,15437
13.7,1788269107867,4.394366264343262,5.943662166595459,-0.0058926679193973,-0.0031308520119637,0.8742643594741821,0.4854042530059814,0.1791617376442788,0.0025494422021462,-1.1745676918452442e-05,-0.0034223881084471,0.0048659415915608,0.1547021567821502,0.0016025369986891,0.0065092919394373,-0.9549869894981384,0.2965721786022186,-0.0059303476305382,0.0027421551153205,0.1342088009215818,-0.2973467707633972,0.0727840065956115,-0.0538978576660156,61,108,12415,16765
13.8,1788269107967,4.2816901206970215,6.169013977050781,-0.0065578408539295,-0.0033928060438483,0.8786199688911438,0.4774646162986755,0.1700856467660143,0.0003914457487694,-1.6328040405652254e-05,-0.0186924301087856,0.0320727191865444,0.2305935472249984,0.00240277685225,0.0082042012363672,-0.9507367610931396,0.3098813593387604,0.0656430959465159,-0.0978990470932602,0.2566779058251676,0.125558316707611,-0.6007325649261475,-0.2247819900512695,61,111,12828,16911
13.9,1788269108067,4.2253522872924805,5.915493011474609,-0.0058739716187119,-0.0034554766025394,0.8843827247619629,0.4667126834392547,0.1963678552386946,-0.0036899797948218,0.0003335150761648,0.1074902564287185,-0.1230423972010612,0.3222379386425018,0.0011055553331971,0.006212793290615,-0.9459751844406128,0.3241778910160064,0.0010059539339825,-0.0495061152519107,0.2693373796231336,-0.0527096986770629,-0.4364709854125976,-0.535649299621582,66,53,12819,16395
14.0,1788269108167,4.563380241394043,5.97183084487915,-0.0052579906769096,-0.0033679334446787,0.8913819789886475,0.4532099068164825,0.1666307499720602,0.0028584496052743,6.490313183418583e-05,0.005515209864825,-0.0128721473738551,0.2639070451259613,0.0017501069232821,0.0062697222456336,-0.9424251317977904,0.334354043006897,-0.0024243842641922,0.0021423178788643,0.2089662418951732,-0.0048949122428894,-0.2994979619979858,0.6349058151245117,88,88,11929,16315
14.1,1788269108267,4.169013977050781,5.943662166595459,-0.0051061743870377,-0.0033433544449508,0.9002397060394287,0.4353517293930053,0.1592730969314045,0.0108542721050551,-6.808807750773305e-06,0.0007979840156622,-0.0100943595170974,0.2598481774330139,0.0010750601068139,0.0058533614501357,-0.9370718002319336,0.3490860760211944,0.0162942307701664,-0.0241821898294674,0.2725203952973604,-0.2099645733833313,-0.0312633514404296,0.2098703384399414,87,62,13171,16738
14.2,1788269108367,4.2816901206970215,5.915493011474609,-0.0045223012566566,-0.0030543021857738,0.9056669473648072,0.4239547252655029,0.1628965163469327,0.0160601600561377,6.051881360427957e-05,0.0069376165047287,-0.0119536146521568,0.2443155199289322,0.0008980585262179,0.0051361788064241,-0.9329896569252014,0.3598653674125671,0.0227160680256471,-0.0018149707028603,0.2180310455894133,-0.1257295608520507,-0.3849929571151733,-0.0579938888549804,87,71,13091,16658
14.3,1788269108467,4.2253522872924805,5.830986022949219,-0.0046042818576097,-0.0030212204437702,0.9078264236450196,0.4193099737167358,0.1666174037950017,0.0019210986062134,1.564394591972026e-05,-0.0008945749141275,0.0029961676336824,0.238617867231369,0.0005624331533908,0.0053004175424575,-0.9291940331459044,0.3695540130138397,0.006462078989665,0.0139116610157833,0.2557733904440221,-0.1315533518791198,-0.054297387599945,0.8549785614013672,52,112,13081,17180
14.4,1788269108567,4.3380279541015625,5.549295902252197,-0.0036988602951169,-0.0032473222818225,0.9129212498664856,0.4081062078475952,0.1750811549663104,0.0009500942884454,8.45138687490282e-05,0.0102870669215917,-0.0142566058784723,0.2693208158016205,0.0001074774190783,0.0046586729586124,-0.9247984290122986,0.380429059267044,0.002288721158824,-0.0373403551759157,0.2462783167232183,0.1183294057846069,0.262530505657196,0.0163030624389648,118,26,14941,15016
14.5,1788269108667,4.563380241394043,5.521126747131348,-0.0031597935594618,-0.0028555539902299,0.918748378753662,0.3948206305503845,0.1765326343615233,0.0022640127910063,0.0001032773920966,0.0074848602525889,-0.0157639775425195,0.1448661088943481,0.0002119243144989,0.0042404616251587,-0.9212826490402222,0.3888706266880035,0.0142229359617954,0.0067271546603116,0.1680083143397392,0.20231693983078,0.1645166277885437,-0.3054141998291015,97,115,14163,15854
14.6,1788269108767,4.14084529876709,5.85915470123291,-0.0022673408966511,-0.0029718275181949,0.922718584537506,0.3854559659957886,0.1802619604522181,-0.002361646498983,9.522951689546444e-06,0.0034924731589853,-0.0226252619177103,0.2482275664806366,-0.0005695670843124,0.0036943452432751,-0.917513370513916,0.3976872861385345,-0.0051744181946316,-0.0363248914102078,0.2576122998039309,0.1972808241844177,0.3127363920211792,0.0010089874267578,54,101,13078,17116
14.7,1788269108867,4.619718074798584,5.633802890777588,-0.0027274033054709,-0.0028542827349156,0.924842119216919,0.3803309202194214,0.1721531552159883,0.0072104762834274,-3.220464015093705e-05,-0.0034385153558105,0.020847788080573,0.2572135329246521,-0.0005260063335299,0.0037537347525358,-0.9130021333694458,0.407937079668045,-0.0031118609630592,-0.0268359199766167,0.205902434073024,0.0164831280708313,0.1962326765060424,0.5451383590698242,62,48,14034,15399
14.8,1788269108967,4.563380241394043,5.492957592010498,-0.0018348842859268,-0.0030632773414254,0.9286472201347352,0.3709468841552734,0.1770256129629253,0.0024445139988457,1.2236230968187926e-05,0.0038099503144621,-0.0173633433878421,0.167260393500328,-0.0012724408879876,0.0031703514978289,-0.9091809988021852,0.4163872003555298,0.0127441289648216,-0.0256245868783033,0.1451510086684216,0.0654825568199157,-0.0418175458908081,0.5528068542480469,84,77,13970,15695
14.9,1788269109067,4.704225540161133,5.746479034423828,-0.0035461168736219,-0.00375223509036,0.9323089122772216,0.3616260886192322,0.1730197980792937,0.0075222230236252,-0.0003142711357653,-0.0205717403441667,0.0387289300560951,0.1095665842294693,-5.309097468852997e-05,0.0056040911003947,-0.9071465730667114,0.4207775890827179,-0.0077549676085255,0.0174221813348472,0.1157140754979397,0.0111247301101684,-0.4282283186912536,0.4562511444091797,71,113,13846,16158
15.0,1788269109167,4.873239517211914,5.352112770080566,-0.0008449857123196,-0.003199559636414,0.9358401894569396,0.3524089753627777,0.1678019053863164,0.0150005606807647,-2.028034379249081e-05,-0.0147923566401004,-0.0241615734994411,0.159810334444046,-0.0017187828198075,0.0027167322114109,-0.9023929238319396,0.430902361869812,0.002442963924892,-0.0268360446889962,0.1011074672852385,-0.3940494060516357,-0.1081182956695556,-0.0789794921875,118,20,16454,12367
15.1,1788269109267,5.77464771270752,4.478873252868652,-0.0003461610758677,-0.0031676837243139,0.936295747756958,0.3511980473995209,0.1616194048623204,-0.0004153858281016,3.9226137349226366e-05,0.0096554635092616,-0.0215477179735898,0.0605505518615245,-0.0017842110246419,0.0024564014747738,-0.9047718644142152,0.4258857369422912,0.0034847640609088,0.0001562401263624,-0.228253795852439,0.0496010780334472,-0.3082303404808044,0.2060604095458984,77,67,17042,12549
15.2,1788269109367,5.464788913726807,4.450704097747803,-0.0001592800254002,-0.0029193121008574,0.9329141974449158,0.3600869476795196,0.1679349081707726,-0.0088787679567237,-1.879481103330587e-05,0.0094868335872888,-0.010118331760168,-0.2158841639757156,-0.0024029882624745,0.0021658344194293,-0.9087830781936646,0.4172563552856445,-0.0122307400816418,-0.0242445781266028,-0.245695021835694,-0.0381374955177307,-0.1908445358276367,-0.6772336959838867,73,70,17109,13160
15.3,1788269109467,5.323943614959717,4.873239517211914,-3.243866376578808e-05,-0.0034271171316504,0.9271325469017028,0.3747180104255676,0.1762948083733128,-0.0027059321946624,2.420278678799622e-05,-0.0066818580962717,0.0002641462488099,-0.1716468632221222,-0.0024400623515248,0.0024476377293467,-0.913033962249756,0.4078691005706787,-0.0137661180595312,0.0033881070615235,-0.163764755957823,0.1780594587326049,0.1497678756713867,0.8944969177246094,60,110,15118,14690
15.4,1788269109567,5.267605781555176,4.873239517211914,0.0008910734904929,-0.0037083479110151,0.9255462288856506,0.3786153197288513,0.1788871378202967,-0.0010055361358092,8.5081293879926e-05,0.0078765926882624,-0.040777750313282,-0.0634856969118118,-0.0032901298254728,0.0019289636984467,-0.9145444631576538,0.4044674932956695,0.01093542451663,-0.0508232596452593,-0.0545636688415876,-0.3500245213508606,-0.301434576511383,0.318974494934082,54,75,14889,14200
15.5,1788269109667,4.985915660858154,5.126760482788086,0.0003651498118415,-0.0037810448557138,0.9250339865684508,0.3798654079437256,0.1651569546265942,-0.0011126221632499,-3.2052031119598364e-05,-0.0122435837984085,0.0210597943514585,-0.0613014996051788,-0.0033050263300538,0.0022634686902165,-0.914948582649231,0.4035505354404449,-0.0067589420246755,-0.0221676874157079,0.0407633038291532,-0.0394087433815002,0.2771650552749634,0.1273059844970703,74,115,15133,14840
15.6,1788269109767,4.647887229919434,5.211267471313477,0.0007554641924798,-0.0039795208722352,0.9255709648132324,0.3785522878170013,0.1682576237181486,0.0041369483230659,1.626375454853593e-05,0.000233596554608,0.0018962032627314,0.0418027341365814,-0.0037675322964787,0.0025233402848243,-0.9137117266654968,0.406337708234787,-0.0144505226863884,0.0015705037703957,0.0511246162723628,0.0368843078613281,0.1778968572616577,1.3916215896606443,53,115,15383,15565
15.7,1788269109867,5.352112770080566,4.957746505737305,0.0012369290925562,-0.0044391681440174,0.9270249009132384,0.374971479177475,0.1653501408072989,0.0010498542995883,-4.7346187976710136e-05,-0.0023643837776035,-0.0104604866355657,0.0322438180446624,-0.0041900677606463,0.002117758616805,-0.9129137992858888,0.40812548995018,0.0041738451926124,-0.0480814657182846,0.0093319814313539,0.039972186088562,-0.1801720261573791,-0.3225221633911133,100,68,15686,13881
15.8,1788269109967,4.957746505737305,5.267605781555176,0.0011761647183448,-0.0045746769756078,0.926584243774414,0.3760577142238617,0.1654945763921147,0.0004872796656213,1.2780550649139464e-06,0.0,0.0,0.0,-0.0037984997034072,0.0024048164486885,-0.91335791349411,0.4071329534053802,0.0053211929571865,0.0144533536421879,0.0323247026475649,-0.3626821041107178,0.3541841506958008,0.0793104171752929,64,75,14364,15109
15.9,1788269110067,4.929577350616455,5.070422649383545,0.0006743704434484,-0.004353349097073,0.9272249937057496,0.3744787275791168,0.1821995200501549,0.0010306031452445,-7.379657639780878e-05,0.0011135139502584,0.0285025164484977,0.0897647887468338,-0.0036696763709187,0.0023750262334942,-0.911940097808838,0.4103000462055206,0.0094352263749107,-0.0083499075117731,0.0201225345636392,-0.062512457370758,-0.1267762184143066,-0.1755952835083007,135,68,15869,14411
16.0,1788269110167,4.873239517211914,5.239436626434326,0.0008523226715624,-0.0043730400502681,0.9279184341430664,0.372756689786911,0.1747294733770241,-0.0004264599415319,2.4651500338461727e-05,0.0029262031894177,-0.0071052787825465,0.0140546942129731,-0.0040912423282861,0.0023729540407657,-0.9112902283668518,0.4117375910282135,-0.0051542994695522,-0.0028182830738363,0.0649854720954725,-0.0024240016937255,0.1053374409675598,0.2521772384643554,50,75,14784,14920
16.1,1788269110267,4.450704097747803,5.521126747131348,-0.0002017702208831,-0.0051803197711706,0.9303507804870604,0.3666339218616485,0.1728901414530022,-0.0003189497762216,-6.990723215398074e-05,-0.0364408195018768,0.038411758840084,0.126219555735588,-0.0037496201694011,0.0032666381448507,-0.909336805343628,0.416031152009964,-0.0432994561291431,0.0422276763412794,0.1401394831998247,-0.1952293515205383,0.5091865062713623,-0.3533430099487304,99,164,14156,16955
16.2,1788269110367,4.507042407989502,5.802816867828369,0.0007082971278578,-0.0038562710396945,0.933893382549286,0.3575302064418793,0.1812251624116569,-0.0037150682976348,0.0002994197791751,0.0767892897129058,-0.0460290275514125,0.2517360150814056,-0.0027427542954683,0.0025682374835014,-0.9044430255889891,0.4265780448913574,-0.0016216200806508,0.0909751719295744,0.2536803716098624,-0.3674284219741821,0.2331751585006714,-0.0115966796875,51,43,13876,14965
16.3,1788269110467,4.619718074798584,5.492957592010498,0.0003836441319435,-0.0041404529474675,0.935146987438202,0.3542354106903076,0.1846578814688606,0.0045152584281641,-0.000116200148848,-0.0187326967716217,0.0094974413514137,0.1764961183071136,-0.0027472581714391,0.0025872681289911,-0.9017881155014038,0.4321620464324951,0.0067464155388521,0.010915982446542,0.1327009636314746,-0.0428671836853027,0.3125374913215637,-0.7437448501586914,51,68,13551,15677
16.4,1788269110567,4.563380241394043,5.6619720458984375,-0.0003322630072943,-0.00367461447604,0.9374446272850036,0.3481148183345794,0.1589338393551563,0.0024932023487742,-8.901807358555225e-05,-0.0003413614758756,0.0221043042838573,0.1295423507690429,-0.0025014793500304,0.0025054868310689,-0.8988815546035767,0.4381774365901947,0.0058746901990527,-0.0201652671521562,0.161845034834977,0.0230631232261657,-0.0555511713027954,0.0317487716674804,88,92,14361,15564
16.5,1788269110667,4.535211086273193,5.549295902252197,-0.0014883324038237,-0.0030996897257864,0.9417784214019777,0.3362166285514831,0.1747078930262823,0.0018542262578109,-8.872708789807442e-05,-0.0010645202128216,0.0221239775419235,0.1658283025026321,-0.0010865507647395,0.0032868925482034,-0.8946906924247742,0.4466728270053863,-0.0034811960029308,0.0090375927755304,0.1681764900102704,-0.0177162289619445,-0.242949366569519,0.8400392532348633,61,90,14148,15858
16.6,1788269110767,4.647887229919434,5.521126747131348,-0.0023307004012167,-0.0025021899491548,0.9443506598472596,0.3289225995540619,0.17411586258574,-0.0011583965934437,-4.96931592085326e-05,-0.0004935814067721,0.0242123156785964,0.1469783186912536,-0.0001504691317677,0.003464775159955,-0.8916854858398438,0.4526421129703522,-0.0219177511008492,0.0375671007724653,0.1548251836005185,0.0808334946632385,0.1765951514244079,-0.5592842102050781,79,71,13886,15845
16.7,1788269110867,4.591549396514893,5.6619720458984375,-0.0030323388054966,-0.0025076926685869,0.945077657699585,0.3268222510814667,0.1823611337231649,0.0030681681083654,-9.269669982906314e-05,-0.0122611364349722,0.0335347466170787,0.1140845641493797,0.0012380387634038,0.0046539846807718,-0.8883504271507263,0.4591408371925354,-0.0113450868220941,0.0133347351715703,0.1433715640116217,-0.264244794845581,0.1201021075248718,1.1948719024658203,64,88,13926,15743
16.8,1788269110967,4.450704097747803,5.577464580535889,-0.0043231849558651,-0.002465970814228,0.9473603963851928,0.3201304972171783,0.1725804271256431,0.0048613264144549,-6.64020865340929e-05,-0.0129382172599434,0.013569189235568,0.1419642120599746,0.0021352628245949,0.0054217809811234,-0.8852216005325317,0.4651332199573517,0.0068435859137893,-2.5458593948336195e-05,0.1641284203965062,0.1800790429115295,-0.1599844098091125,-0.1856870651245117,106,93,15089,15301
16.9,1788269111067,5.211267471313477,5.070422649383545,-0.0065779252909123,-0.0020858068019151,0.950320839881897,0.3111957013607025,0.1830433813722246,-0.0022007110433,-0.0001260634675173,-0.0058201937936246,0.0372547395527362,0.0576809793710708,0.0031725000590085,0.0062215663492679,-0.883086621761322,0.4691581130027771,-0.0113442641863045,0.0515882894176823,0.0510662962089321,0.1735040545463562,0.2815987467765808,0.404855728149414,72,60,15397,14164
17.0,1788269111167,4.957746505737305,5.239436626434326,-0.0077214436605572,-0.0018180995248258,0.9505307078361512,0.310529351234436,0.1645757515285035,-0.0024975008268039,-8.13058324240224e-08,-0.004104159772396,0.0256046075373888,0.0275891348719596,0.0040308190509676,0.006966570392251,-0.8826346397399902,0.4699907302856445,-0.0073672567015178,0.0080939619085023,0.0487754737787713,0.0871071815490722,0.337026298046112,1.3837976455688477,69,87,14654,14829
17.1,1788269111267,5.070422649383545,5.014084339141846,-0.0078289583325386,-0.0020257101859897,0.9507381916046144,0.3098893463611603,0.1698913237682991,0.0005121933560073,-4.674070852115038e-06,-0.0117707448080182,0.0017489631427451,0.0335869528353214,0.0038656862452626,0.0072998721152544,-0.8822259306907654,0.4707539975643158,-0.0121221472191825,-0.0018531177917639,-0.0036564645030918,-0.0956425666809082,-0.0727028846740722,0.1422700881958007,53,54,15190,14404
17.2,1788269111367,5.042253494262695,5.126760482788086,-0.0081142829731106,-0.0021597070153802,0.9508786201477052,0.3094500005245209,0.1705686730857426,-0.0028264203972819,-4.532881743735697e-05,-0.0087355645373463,0.0090860612690448,0.018382042646408,0.0042162192985415,0.0072215721011161,-0.8818322420120239,0.4714890718460083,0.0032726257444518,0.0019703256243969,0.0148636873869723,-0.0883705019950866,0.2201219201087951,0.73895263671875,52,59,15261,14049
17.3,1788269111467,5.183098793029785,4.450704097747803,-0.0093460837379097,-0.003845616010949,0.9496006965637208,0.3132990598678589,0.1566984267305,-0.0001736595790765,-9.876284858961289e-05,-0.0830616429448127,0.0256163906306028,-0.188454270362854,0.0036358889192342,0.0093651479110121,-0.8845584392547607,0.4663211703300476,-0.0168038029654799,-0.0114202148124755,-0.1590514308368663,0.4141269326210022,-0.4821586012840271,0.509099006652832,78,178,16019,15648
17.4,1788269111567,5.211267471313477,5.070422649383545,-0.0064811375923454,-0.0024388006422668,0.9496936798095704,0.3131037354469299,0.1836216315928044,0.001740286834219,0.0001862908309465,0.0292664058506488,-0.0280269253998994,0.0470341742038726,0.0027080522850155,0.0064374981448054,-0.8838867545127869,0.4676489233970642,-0.0052412760304284,0.0273783796530926,0.0482890529276275,-0.6497347950935364,-0.1080062389373779,-0.236851692199707,60,20,15501,13256
17.5,1788269111667,5.267605781555176,4.8450703620910645,-0.0060653928667306,-0.0025496017187833,0.949386477470398,0.3140414953231811,0.1713700735958858,0.0013030315613284,2.6972965310371664e-05,0.0014759332407265,-0.0207326505333185,-0.048194658011198,0.0021586446091532,0.0059704128652811,-0.8851699233055115,0.4652245342731476,-0.0066299401429569,0.0100434162284094,-0.0500436280596517,-0.14288991689682,-0.0878087878227233,0.0661964416503906,52,66,15246,13658
17.6,1788269111767,4.957746505737305,4.929577350616455,-0.0056955101899802,-0.0026737854350358,0.948702335357666,0.3161080181598663,0.1634766545385539,0.0003052220765567,2.918332887671024e-06,-0.0033185710199177,-0.0008873276528902,-0.0510588660836219,0.0020170882344245,0.0057782121002674,-0.8867573738098145,0.4621947407722473,-0.0005407328659765,-0.0133684195364986,-0.0394380850133778,0.0306839346885681,-0.0974811315536499,0.932891845703125,61,106,14495,15621
17.7,1788269111867,4.901408672332764,5.183098793029785,-0.0056488653644919,-0.0025190128944814,0.948015034198761,0.3181654810905456,0.1663862944447604,-0.0012888026293846,1.430696554994587e-06,0.0,0.0,0.0,0.0014925273135304,0.0052323080599308,-0.8862812519073486,0.4631155729293823,0.0097252358840484,-0.0098169312928816,0.0418696634170198,-0.1131365299224853,0.2659494280815124,0.6775846481323242,56,97,14461,15145
17.8,1788269111967,4.816901206970215,5.295774459838867,-0.0032859309576451,-0.0024530398659408,0.9488787651062012,0.3156141638755798,0.1706837251844034,0.0012916237874243,2.3524200541809786e-06,0.0226423200219869,-0.0174297634512186,0.0539194010198116,0.0006192820146679,0.0042184656485915,-0.8854320645332336,0.4647491872310638,0.0251916099763643,-0.0157115375228572,0.0551471292034115,0.0604514479637146,-0.2039234042167663,-0.0743074417114257,46,71,14817,14652
17.9,1788269112067,5.126760482788086,5.183098793029785,-0.0035388590767979,-0.0025015692226588,0.9490759372711182,0.3150176405906677,0.1681843286310526,0.0001887719278386,-3.617020181085154e-05,-0.0063697420991957,0.0111322328448295,0.0314459316432476,0.000501113012433,0.0041431682184338,-0.8842772841453552,0.4669437110424042,0.0044633168909189,-0.0045024977159948,0.0526098958568535,-0.0998148918151855,-0.1973716020584106,1.396439552307129,49,81,14869,14262
18.0,1788269112167,4.676056385040283,5.154929637908936,-0.002722802106291,-0.0028308685868978,0.9500373005867004,0.3121118247509002,0.1750582691854544,0.0008012944223063,4.17632150577275e-05,-0.0047270553186535,-0.0204308312386274,0.0530634634196758,6.514415144920349e-05,0.0041083013638854,-0.883450984954834,0.4685055017471313,-0.0069220907122504,0.0080581658446748,0.0447531053059849,0.1323018670082092,0.2226937413215637,0.1363916397094726,70,115,15347,15389
18.1,1788269112267,5.211267471313477,4.985915660858154,-0.0032102190889418,-0.0025149760767817,0.9499101042747498,0.3124964237213135,0.1824835270857683,0.0021731069853686,-1.3782950114690087e-05,-0.0001917418849188,0.0016346883494406,-0.0507133603096008,0.0005330927670001,0.004178219474852,-0.8836876749992371,0.4680581986904144,-0.009145594820174,-0.0115059560300579,-0.0892003443806144,-0.2566272616386413,0.0679134726524353,0.8676481246948242,73,77,15017,14749
18.2,1788269112367,5.042253494262695,5.126760482788086,-0.0028198920190334,-0.0029975483193993,0.9499946236610411,0.3122391104698181,0.1588654052700787,0.0010200163103737,-3.313237286250154e-07,-0.013207939453423,-0.0204757302999496,0.0105146206915378,-0.0004467098042368,0.0040339352563023,-0.8836289644241333,0.4681703150272369,-0.0117024688387315,-0.0467079521009716,0.0234932964312395,0.035580575466156,0.1286909580230713,0.3022623062133789,71,83,15184,14362
18.3,1788269112467,4.957746505737305,5.267605781555176,-0.0028198920190334,-0.0029975483193993,0.9499946236610411,0.3122391104698181,0.1691989879551572,0.0025559504708201,8.087913143160662e-07,0.0,0.0,0.0,2.0615756511688232e-05,0.004437637515366,-0.8830628991127014,0.4692336022853851,0.0031637676788842,-3.372481962618572e-05,0.043886815476918,0.0521233081817626,-0.2191353440284729,-1.6956663131713867,58,70,14515,14932
18.4,1788269112567,4.957746505737305,5.183098793029785,-0.0027808926533907,-0.0034707277081906,0.9507006406784058,0.3100782036781311,0.1753783043111745,-0.0014697136946966,4.4632316472328455e-05,-0.0075437943451106,-0.021819069981575,0.0621545650064945,-0.0008634971454739,0.0042325565591454,-0.8821572661399841,0.470935195684433,0.003992835787899,-0.0235049142574276,0.0394136115273722,0.0113419294357299,0.2768247723579407,1.7059946060180664,85,87,15129,14336
18.5,1788269112667,4.985915660858154,4.929577350616455,-0.0024057934060692,-0.0034426948986947,0.9514625668525696,0.3077357113361358,0.1702674923623924,-0.0025349135955932,-9.58970498367073e-07,0.0,0.0,0.0,-0.0009009204804897,0.005203858949244,-0.881530225276947,0.4720980525016784,-0.0463703752921573,0.0362976739384713,-0.0253658289670451,-0.1466333866119384,0.2040952444076538,0.6933116912841797,85,158,16117,15478
18.6,1788269112767,4.985915660858154,5.408450603485107,-0.0015145406359806,-0.0038284880574792,0.9517512917518616,0.3068427145481109,0.1749728010271803,0.0013916294874535,0.000162424418518,0.0834797918796539,-0.0990154817700386,0.1041902005672454,-0.0017480757087469,0.0036613224074244,-0.880955159664154,0.4731825292110443,0.1109368693823189,-0.1431923222514659,0.1480757333530425,-0.127634584903717,0.3425147533416748,0.8094367980957031,70,55,14408,14744
18.7,1788269112867,4.901408672332764,4.957746505737305,-0.0017504506977275,-0.0035956313367933,0.9527066349983216,0.3038651943206787,0.1774541930532036,-0.0001390079736955,2.028591514491857e-05,0.0074413693509995,0.0141990361735224,0.1568819731473922,-0.0010361317545175,0.0037117879837751,-0.8791763782501221,0.4764810502529144,0.0171303442265617,0.0240135847282539,0.0092373516004065,-0.6724587082862854,-0.3161000609397888,2.195302963256836,112,82,16504,14528
18.8,1788269112967,5.183098793029785,5.042253494262695,-0.0017015968915075,-0.0033765588887035,0.9521930813789368,0.3054735064506531,0.1660668581495131,-0.0019936809238221,9.444077513183242e-05,0.001180897001177,-0.0064086718484759,-0.0480026304721832,-0.0018219407647848,0.0031902827322483,-0.8804488778114319,0.4741269052028656,0.0053014066405942,-0.0439885770309751,-0.032278589505566,0.1111649274826049,0.00400310754776,-0.6807975769042969,71,112,15323,14815
18.9,1788269113067,5.267605781555176,4.929577350616455,-0.0009502780158072,-0.0035149541217833,0.9521028399467468,0.3057563602924347,0.178406605431338,0.0002287213480885,-4.910165027889451e-07,0.0,4.662644048636366e-09,0.0,-0.0013933228328824,0.0031776586547493,-0.8806465268135071,0.4737613201141357,0.005546825836798,0.015926257951931,-0.0176025632863378,-0.1897959113121032,-0.0681750178337097,0.1071252822875976,88,91,16270,14164
19.0,1788269113167,4.901408672332764,5.239436626434326,-0.0010500549105927,-0.0030788204167038,0.9519945979118348,0.3060973882675171,0.1678008814398522,0.0007207092627084,3.848948351908127e-07,0.0068145771510899,0.0046218140050768,0.0309377405792474,-0.0014669857919216,0.0029583796858787,-0.8807868361473083,0.4735014140605926,0.006625352405095,-0.0037774294647479,0.0562830868036759,-0.211641788482666,0.0306247472763061,0.1583232879638672,52,104,14763,15500
19.1,1788269113267,5.098591327667236,5.183098793029785,-0.0003504930646158,-0.0029723688494414,0.9524561166763306,0.3046610653400421,0.1687465712001823,0.0018459656341322,0.0001638757398494,0.0157611090689897,-0.031898271292448,0.0752886980772018,-0.0006009535863995,0.0032723834738135,-0.8803043961524963,0.4743976891040802,0.0061350852079656,-0.0003323162233474,-0.0460411571014564,0.2359561324119568,0.2543510794639587,-1.1181907653808594,56,130,14378,15487
19.2,1788269113367,4.873239517211914,5.323943614959717,-0.0019415011629462,-0.0027018904220312,0.9522003531455994,0.3054560422897339,0.1899187839420444,0.0016965047094459,2.037368193371487e-06,0.0037103819195181,-0.0002034852659562,-0.0278385002166032,8.766353130340576e-05,0.0033591138198971,-0.8798485398292542,0.4752423167228699,0.0006678823760906,-0.0009788013490575,0.0326030339567821,-0.0867602229118347,0.0290611386299133,0.3241786956787109,41,60,13695,14391
19.3,1788269113467,2.7042253017425537,4.11267614364624,-0.0030515813268721,-0.0019968980923295,0.9535733461380004,0.3011386692523956,0.1551466595696262,0.0007247555397366,-5.044384412774588e-05,0.007781651802361,0.0257845595479011,0.1013703867793083,0.0004580244421958,0.0035073244944214,-0.8785497546195984,0.4776376783847809,0.0142666399017714,0.02210926682804,0.1144812627009227,-0.957231104373932,0.1489785313606262,-0.2657022476196289,26,24,3374,10534
19.4,1788269113567,0.0,2.760563373565674,-0.003455810714513,-0.001654932857491,0.9583052396774292,0.2857206165790558,0.0736360485173752,-0.0022361812729597,1.1190810206210432e-05,-0.006063322070986,0.0020876443013548,0.3796782791614532,0.001207428984344,0.0037204381078481,-0.8693535923957825,0.4941751062870025,-0.0132904034579452,0.0142838299453429,0.3974139899775312,-0.8916786909103394,-0.1754612326622009,1.0489721298217771,105,30,-4018,7337
19.5,1788269113667,-2.197183132171631,1.7183098793029783,-0.0034387381747365,-0.0017108342144638,0.9607702493667604,0.2773188650608063,0.0413424969422373,0.0008414728859677,5.631138264216925e-07,-0.0035938138607889,-0.0026719330344349,0.4272449910640716,0.0009903125464916,0.0035885730758309,-0.8576393723487854,0.5142381191253662,-0.0055920196279989,-0.0098469544026422,0.6370646442153951,-0.690292239189148,0.2414050102233886,0.0724134445190429,106,44,-8854,5763
19.6,1788269113767,-1.7183098793029783,1.4647886753082275,-0.0030075672548264,-0.0021722195670008,0.968218207359314,0.2500794529914856,-0.0166233485007307,0.0066422355185934,-8.215152069365233e-06,-0.0160799082368612,-0.0186122022569179,0.5973773002624512,0.0002477644011378,0.0036645401269197,-0.8442099094390869,0.5360001921653748,-0.00086243579726,-0.0158565411383139,0.5066257432806878,0.5984697937965393,-0.0302819013595581,-0.2972640991210937,25,72,-5623,5297
19.7,1788269113867,-1.2394366264343262,1.4929577112197876,-0.0030379630625247,-0.0025226431898772,0.9762534499168396,0.216595247387886,0.008908401026063,-0.0005061462594113,-2.0765489548299685e-07,-0.0058644954115152,0.003459921805188,0.3946621417999267,0.0003126980736851,0.0039669806137681,-0.8315718770027161,0.5554030537605286,-0.0047123506814628,0.005284941971247,0.404975809858413,-0.3389419913291931,0.1412644982337951,0.0288705825805664,114,77,-7310,5932
19.8,1788269113967,-1.6056338548660278,1.5211267471313477,-0.0030006130691617,-0.0026754890568554,0.981051743030548,0.1937043666839599,-0.0037099962247071,-0.0055558080351718,-1.342923825072458e-06,-0.0036492256913334,-0.0051364703103899,0.4649827182292938,0.0001368941739201,0.003991425037384,-0.8209547996520996,0.5709791779518127,-0.0021635398629634,-0.0060256817482325,0.3953184174356361,0.0482365489006042,-0.0074173808097839,-0.0776510238647461,42,61,-6502,5727
19.9,1788269114067,-1.436619758605957,1.3521126508712769,-0.0029342188499867,-0.0027223720680922,0.982835054397583,0.1844428926706314,0.0032139117609385,-0.0051694857654753,1.3257694077208265e-06,-0.0027367018628865,-0.0050855390727519,0.4596399962902069,0.000162836164236,0.004160463809967,-0.8072613477706909,0.5901795029640198,-0.0045621405176477,-0.0067223650006835,0.4918783368162282,-0.0318338871002197,-0.0295908451080322,0.4408044815063476,25,8,-4547,3766
20.0,1788269114167,-0.98591548204422,1.183098554611206,-0.0031478379387408,-0.0028427245561033,0.986838400363922,0.1616537570953369,0.0026755139451031,-0.0054280221538198,5.108241207262285e-07,-0.0047636139206588,-0.0012349144089967,0.4521788656711578,9.428057819604874e-05,0.0043024057522416,-0.7951546907424927,0.606391429901123,-0.003607499105422,-0.0028717328019414,0.3819908187806469,0.0480913519859313,-0.1053404211997985,0.0042715072631835,61,73,-5805,4440
20.1,1788269114267,-1.154929518699646,1.1267606019973757,-0.0030617497395724,-0.003014831803739,0.9896326065063475,0.1435576230287552,-0.001431171022095,-0.0037874399813763,-1.2008242284681965e-07,-0.0035919563379138,-0.0056440131738781,0.302960067987442,-0.0002624532207846,0.0042748060077428,-0.7834591269493103,0.6214285492897034,-0.0037295659644465,-0.0052952306169063,0.3347074588456704,0.1316157579421997,0.079065203666687,-0.0082941055297851,92,65,-5624,4956
20.2,1788269114367,-1.3521126508712769,1.154929518699646,-0.0026778045576065,-0.0033791619352996,0.9931330680847168,0.1169104427099227,0.0017435869862,-0.0041479691871199,1.1729993587672761e-07,-0.0052245073020458,-0.0084409089758992,0.3756749629974365,-0.0005785161629319,0.0042725503444671,-0.7728132009506226,0.6346189975738525,-0.0047949826003206,-0.0068957743028246,0.3648017343688852,0.1104364395141601,-0.0179185271263122,-0.0827445983886718,29,89,-4869,4762
20.3,1788269114467,-0.7605633735656738,0.7887324094772339,-0.002645825734362,-0.0034302165731787,0.9939948916435242,0.1093403697013855,0.0013541561086438,-0.0052216800179028,1.251232480518508e-06,-0.0031376569531857,-0.003200689330697,0.3716251850128174,-0.0006558019667863,0.004347956739366,-0.7620676159858704,0.6474825739860535,-0.0037885158611782,0.0012035168199446,0.3725988769808786,-0.0130119919776916,-0.0998008251190185,0.0039548873901367,5,47,-4194,3376
20.4,1788269114567,-0.7605633735656738,0.9014084339141846,-0.0025541624054312,-0.0035873556043952,0.99577796459198,0.0916891768574714,0.0021156124088293,-0.0050916870078868,9.046321989347904e-07,-0.004261449445039,-0.0061644059605896,0.3447783589363098,-0.0009171143174171,0.0043598785996437,-0.7507407665252686,0.6605819463729858,-0.002134011848686,-0.0013629153857983,0.2112361940267368,0.0255169868469238,-0.0399866104125976,0.0638847351074218,72,62,-4431,3283
20.5,1788269114667,-0.5633803009986877,0.0,-0.0024744095280766,-0.0037325259763747,0.9968121647834778,0.0796582624316215,0.0021350928861904,-0.0041329782592818,-2.752458499570748e-07,-0.0023327677045017,-0.0015730238519608,0.1788541972637176,-0.0010992297902703,0.0043051159009337,-0.745665431022644,0.6663057208061218,-0.000673089397138,-0.0091383365949214,0.1967598821505815,0.1762591004371643,-0.0377039313316345,-0.0824832916259765,4,64,0,0
20.6,1788269114767,0.9577465057373048,1.6056338548660278,-0.0019181165844202,-0.0038494060281664,0.9973657131195068,0.072409801185131,0.0172613917372673,0.0004965402080576,-4.2125063399517183e-08,-0.0004639467515517,-0.0157076492905616,0.0039438689127564,-0.0015259683132171,0.0039750142022967,-0.7431824803352356,0.6690753698348999,0.0004983394057887,-0.0220849091231077,0.0568669333506937,1.4408721923828125,0.3037351369857788,-0.0168619155883789,245,195,7651,9090
20.7,1788269114867,2.760563373565674,4.394366264343262,-0.0021473900415003,-0.0038678057026118,0.9975495934486388,0.069823257625103,0.0772159470716543,-0.0005516173725872,-3.0734326453024126e-06,-0.0018661216599866,0.0103299627080559,0.1234621405601501,-0.0014856103807687,0.0045630922541022,-0.7363342642784119,0.6766008734703064,-0.0241662615761817,0.0112310106905664,0.2806658510492394,0.7376336455345154,0.2435572147369384,0.1761083602905273,143,240,12037,16749
20.8,1788269114967,4.3380279541015625,6.366197109222412,-0.0042960057035088,-0.0054713478311896,0.9983217120170592,0.0574937462806701,0.1326312768927988,0.0058190126031948,-9.334051417842968e-05,-0.0646298453211784,0.0791921764612197,0.2507838606834411,-0.0012363996356725,0.0034535694867372,-0.7257384061813354,0.6879609823226929,0.1219742196702093,-0.1438767741244695,0.4396338068556767,0.3076561093330383,0.0741721987724304,1.0147733688354492,118,22,14377,16935
20.9,1788269115067,4.169013977050781,5.77464771270752,-0.001214838004671,-0.0030981784220784,0.9994947910308838,0.0316104441881179,0.1720100046732912,0.0014518369556753,0.0001300635500441,0.0070304037071764,-0.0196645371615886,0.2031835913658142,-0.0014518937095999,0.0031043179333209,-0.7167938351631165,0.6972768306732178,0.0043386930316304,-0.0188118510819968,0.1970584285819072,-0.3127179741859436,-0.4605775475502014,0.8672313690185547,66,71,13468,16684
21.0,1788269115167,4.253520965576172,5.77464771270752,-0.0008941763662733,-0.0023143249563872,0.999785304069519,0.0205724667757749,0.1705214372372366,0.0025404011439338,4.6571076040764605e-05,0.0154096372425556,-0.0182283893227577,0.2184043824672699,-0.0009680623188614,0.0023165773600339,-0.7073363065719604,0.7068727016448975,-0.0018018356422293,-0.0025000030387456,0.182128126727166,-0.2734513878822326,0.1139554977416992,0.6506423950195312,59,76,13234,16883
21.1,1788269115267,4.2253522872924805,5.97183084487915,-0.0005868383450433,-0.0020050550810992,0.9998681545257568,0.0161017328500747,0.1727510959470508,0.0009157652834714,1.84691242094445e-05,0.0148476250469684,-0.014829060062766,0.2129614204168319,-0.0013474822044372,0.0015793479979038,-0.7001076936721802,0.714034378528595,-0.0087370463301344,-0.0232768699321646,0.2248712603968401,-0.2576755881309509,-0.314893901348114,0.8992481231689453,61,73,13079,16540
21.2,1788269115367,3.9718310832977295,5.85915470123291,0.0008154468960128,-0.0017676833085715,0.999988615512848,0.0043596778996288,0.1703752739132877,0.0015864960366399,8.417353229914359e-05,0.0107185468077659,-0.0434892103075981,0.2411095798015594,-0.0015369625762104,0.0006572334095835,-0.6920686364173889,0.7218298316001892,0.0010238065267863,0.0329240940675447,0.2601071930227822,-0.0031602978706359,0.1956405639648437,-0.0492630004882812,63,127,13786,17053
21.3,1788269115467,4.197183132171631,5.915493011474609,-0.0012708049034699,0.0021797381341457,-0.9998769164085388,0.0154831651598215,0.1728480296181355,0.0048414347491957,6.899743819037039e-05,-0.0064614852890372,-0.0179951786994934,0.2505652010440826,-0.0025347173213958,0.0006404174491763,-0.6813737750053406,0.7319309711456299,-0.0274897833864491,-0.0048129419724838,0.2696795562862761,-0.1188271641731262,0.1669952273368835,1.191056251525879,40,88,12956,17103
21.4,1788269115567,4.760563373565674,5.605633735656738,-0.0012452761875465,0.0026487298309803,-0.9996038675308228,0.0279927980154752,0.167257227388317,0.0042196724652993,4.046471678655541e-05,-0.0056441933847963,-0.0037258462980389,0.2613584399223327,-0.0027721226215362,0.0009390544146299,-0.672878086566925,0.7397477030754089,-0.0036425816043881,-0.0065268588505187,0.2572930592647481,-0.0778494477272033,-0.0556071996688842,-0.2813673019409179,67,56,13284,15634
21.5,1788269115667,4.676056385040283,5.605633735656738,-0.001012846478261,0.0027627989184111,-0.9994786381721495,0.0321537666022777,0.1597695699265613,0.0073584728940318,-9.217120725359276e-05,-0.004883695859462,0.0106720495969057,0.1980534791946411,-0.0027643973007798,0.0015555880963802,-0.6673433780670166,0.7447434663772583,-0.0076401050809787,-0.0007840849878738,0.1331029087194803,-0.0691064596176147,-0.1888185143470764,0.146942138671875,79,84,13829,15850
21.6,1788269115767,4.535211086273193,5.521126747131348,-0.0006779740215279,0.0037037099245935,-0.9992213249206544,0.0392750352621078,0.1603127348564232,0.0072699998019989,-2.5200475444308e-05,-0.0210453178733587,0.0034713400527834,0.1440530270338058,-0.003884351812303,0.0022891256958246,-0.6605134010314941,0.7508007287979126,-0.017508432653909,-0.0165499311106095,0.1558797162892164,-0.0231962203979492,-0.2848708629608154,0.656682014465332,55,74,14212,15926
21.7,1788269115867,4.507042407989502,5.605633735656738,-0.0010111273732036,0.0043378034606575,-0.99862140417099,0.0523022674024105,0.1735600152199418,0.0042236327856671,-1.1622597687671675e-05,0.0004983718390576,-0.0097999759018421,0.1606446206569671,-0.0038941521197557,0.0021405406296253,-0.6548182964324951,0.7557733654975891,0.0040538883805436,-0.0386280303150605,0.1576947618095704,0.1213886141777038,-0.1028075814247131,-0.6829004287719727,89,62,14312,15397
21.8,1788269115967,4.676056385040283,5.323943614959717,-0.000724435376469,0.0052110254764556,-0.9982407689094543,0.0590566471219062,0.1607974038424558,0.0009175565300236,-5.5424210530892446e-05,-0.0298525597900152,0.0212966594845056,0.1428682655096054,-0.0043491777032613,0.0048160776495933,-0.6489472985267639,0.7608057856559753,-0.1030954550951873,0.0925823493042368,0.0958420620514446,0.2672056555747986,0.3340092301368713,-0.0216054916381835,81,137,13755,16966
21.9,1788269116067,4.535211086273193,5.690140724182129,0.0008217990398406,0.0069826049730181,-0.9981147050857544,0.0609720759093761,0.172279917001181,0.0057179058474751,-0.0003069414597498,-0.0776981264352798,0.0759206041693687,0.0893976986408233,-0.003964283503592,0.0027637779712677,-0.6423285603523254,0.766414225101471,0.0348686635726723,-0.0567834402674062,0.2687535053711707,-0.0581557750701904,1.0587966442108154,-0.8374538421630859,60,54,13900,15412
22.0,1788269116167,4.704225540161133,5.549295902252197,-0.0004643517313525,0.0051538003608584,-0.9974173307418824,0.0716373100876808,0.1777268076008383,0.0067902798858449,-4.680172526762466e-06,-0.0059315408580005,0.004682520404458,0.216808944940567,-0.0038430159911513,0.0034228423610329,-0.6365804076194763,0.771193265914917,-0.0008754871457587,0.0065167228685512,0.1489597505523897,-0.1580394506454467,0.3259515166282654,1.0929784774780271,68,68,13343,15453
22.1,1788269116267,4.929577350616455,5.239436626434326,-0.0002262633643113,0.005566747393459,-0.996800184249878,0.079739399254322,0.1759381411416984,0.0003257864758053,-4.857851670495152e-05,-0.0024116255808621,0.0049064625054597,0.0517436936497688,-0.0041592735797166,0.0038725193589925,-0.633371889591217,0.7738267183303833,-0.0138478868180211,0.0092648594499302,0.034410189043337,-0.1375261545181274,-0.1409570574760437,0.0067310333251953,92,60,15243,14730
22.2,1788269116367,4.985915660858154,5.239436626434326,-0.0005946452729403,0.0057645319029688,-0.9966261982917786,0.0818696767091751,0.174285541355976,0.0004612825447831,7.506631741863082e-06,-0.0020612105727195,-0.0095986761152744,0.0579095147550106,-0.0045251511037349,0.0036263819783926,-0.6317157745361328,0.7751784324645996,0.0010998873171491,-0.0131216823223916,0.0666549080458016,0.0580583810806274,0.2729223370552063,0.5048208236694336,74,73,14709,14762
22.3,1788269116467,4.873239517211914,5.267605781555176,-0.0004103626706637,0.0058435397222638,-0.9965484738349916,0.0828055217862129,0.1791926728889254,0.002425195050185,-1.5155617735136531e-05,-0.0029532096814364,0.008583185262978,0.0436932109296321,-0.0046881334856152,0.0033594146370887,-0.6302879452705383,0.7763400077819824,0.0101009268570817,-0.0207148514721345,0.0345840838228663,-0.1033815145492553,-0.2360451817512512,0.9906501770019532,73,76,14942,14613
22.4,1788269116567,5.014084339141846,5.042253494262695,-0.0003742129483725,0.0057383668608963,-0.9964091777801514,0.084473468363285,0.1666073977541505,-0.0002984758283098,-6.510165848272161e-05,0.0036840594839304,0.0127269569784402,0.0247141011059284,-0.0041001420468091,0.0041102059185504,-0.6300258040428162,0.7765525579452515,-0.0049252054844174,-0.0150538270033565,-0.0085461529777769,0.0287823677062988,0.1191279888153076,0.340036392211914,81,85,15812,14690
22.5,1788269116667,4.873239517211914,4.985915660858154,0.0007022228674031,0.0056524076499044,-0.9964395761489868,0.0841169655323028,0.1685967905306021,0.0002524121982075,-6.91750570468429e-07,0.0,0.0,0.0,-0.004164814017713,0.0041535403579473,-0.6304815411567688,0.7761819958686829,-0.0083332720897826,-0.0224078012638383,-0.0056186925327593,0.0453858971595764,0.0869524478912353,0.5339021682739258,72,83,15957,14796
22.6,1788269116767,5.098591327667236,5.070422649383545,0.0006970717804506,0.005934674758464,-0.99654620885849,0.0828245431184768,0.1878909181912746,0.0011788570263377,-1.3789605778212856e-06,-0.003779764752835,-0.0033059956040233,-0.0226431526243686,-0.0037933811545372,0.0046169813722372,-0.6312443614006042,0.7755610942840576,-0.0004133648297747,-0.0110213787554465,-0.0216989725926414,0.0722585320472717,-0.3181020617485046,-0.8447160720825195,70,99,15153,14724
22.7,1788269116867,5.042253494262695,5.070422649383545,0.0006970717804506,0.005934674758464,-0.99654620885849,0.0828245431184768,0.1715664931778325,-0.0048327707820006,4.6409430920671525e-07,0.0,0.0,0.0,-0.0039401864632964,0.0046920254826545,-0.6310410499572754,0.7757253646850586,0.0037519226878352,0.0074161803638711,0.0235620273758043,-0.1265334486961364,0.0522764325141906,1.0714540481567385,59,81,15121,14588
22.8,1788269116967,4.985915660858154,5.098591327667236,0.0008812505984678,0.0060498914681375,-0.996453583240509,0.083921879529953,0.1698660832959801,-0.0005782632687929,-1.6090036065945132e-05,0.0020076020155102,0.0058053601533174,0.0389679782092571,-0.003617588430643,0.0051647927612066,-0.6302819848060608,0.7763407230377197,-0.0035294929211783,0.0163139780868896,-0.0058439099089661,-0.0633088946342468,-0.2717397212982178,0.7929000854492188,60,88,15673,14604
22.9,1788269117067,5.211267471313477,4.901408672332764,0.0008364071254618,0.0061838682740926,-0.9964218139648438,0.084289327263832,0.1858320796944629,-0.003438732053018,-1.1296485595673076e-07,0.0,0.0,0.0,-0.0040588937699794,0.0049507385119795,-0.6303316354751587,0.7762995958328247,-0.0066326741507573,-0.0331280800376535,-0.0200756472022392,-0.1496537923812866,-0.1346792578697204,0.0890302658081054,43,54,15678,13863
23.0,1788269117167,5.183098793029785,4.788732528686523,0.0009348317398689,0.0064122495241463,-0.9966006875038148,0.0821285918354988,0.1695184225027227,0.0002766186150942,-1.7849787142223978e-05,-0.0026109656319022,0.0135126383975148,-0.047614499926567,-0.0039726914837956,0.0051194317638874,-0.6317834258079529,0.775117814540863,-0.0062909536614654,0.0188973043817791,-0.0492520906977771,0.2335808277130127,0.0038425326347351,-0.0702791213989257,110,104,15879,14295
23.1,1788269117267,5.267605781555176,5.154929637908936,0.0023734380956739,0.0080538541078567,-0.9967613220214844,0.0799775719642639,0.1772951458700048,-0.0020258561800309,-0.0001627557770325,-0.0687093064188957,0.0717640817165374,-0.0974834859371185,-0.0043274480849504,0.0073396805673837,-0.6346461176872253,0.7727559208869934,0.0216536519256167,-0.0257414276634691,-0.0426248118465453,-0.0417923927307128,-0.308210015296936,0.5528154373168945,71,75,15557,13747
23.2,1788269117367,5.098591327667236,4.873239517211914,0.0011088361497968,0.0062556988559663,-0.996786892414093,0.0798467397689819,0.1946796541534136,-0.0026450047892026,0.0003407769043345,0.0623946189880371,-0.04248958081007,0.0546356923878192,-0.0036247493699193,0.0055040903389453,-0.6352916359901428,0.7722442150115967,0.008626520358731,0.0444108217256943,-0.0889874704436918,-0.1091113686561584,0.0521252751350402,1.695734977722168,51,63,15715,13773
23.3,1788269117467,4.929577350616455,4.760563373565674,0.0013001535553485,0.006422028876841,-0.9972753524780272,0.0734777450561523,0.172014186044067,0.0014349820167405,8.969871472635187e-05,-0.0045417165383696,-0.012482832185924,-0.0843910947442054,-0.0038494588807225,0.0052988808602094,-0.638425886631012,0.7696554064750671,-0.0059654536942049,-0.0219535413747317,-0.0832197604221999,0.1024051904678344,-0.0710270404815673,-0.6414155960083008,59,102,16592,14481
23.4,1788269117567,5.211267471313477,5.014084339141846,0.0008388643618673,0.0060240235179662,-0.9974063634872437,0.0717180743813514,0.1802541427537426,0.0024286662997443,2.158657253235389e-05,0.002526888391003,-0.0181672908365726,-0.0479418784379959,-0.0037986664101481,0.004657806828618,-0.6400229930877686,0.7683323621749878,0.0028480647733347,-0.019870400258224,-0.032321685106618,0.0247012376785278,-0.032179057598114,0.317997932434082,74,91,14526,14624
23.5,1788269117667,4.873239517211914,5.295774459838867,0.0008388643618673,0.0060240235179662,-0.9974063634872437,0.0717180743813514,0.1799908943582443,-0.0016284565609828,-5.913476310587131e-07,0.0,0.0,0.0,-0.0040785958990454,0.0042661624029278,-0.6392602920532227,0.768967866897583,-0.003019758967896,-0.0320197786414504,0.0342581568044998,-0.1301266551017761,-0.0149552822113037,-0.1805810928344726,56,89,14495,14884
23.6,1788269117767,4.788732528686523,5.070422649383545,-9.526248322799802e-05,0.0056310719810426,-0.9973024725914,0.0731856152415275,0.1808449941607496,0.000855810063645,0.0001014498535258,0.0077273128554224,-0.0336246863007545,0.0486414954066276,-0.0036872839555144,0.0039294036105275,-0.637257993221283,0.7706316709518433,-0.0046454220911982,0.0269430060105188,0.0542323317233163,0.109929621219635,0.0964128375053405,-1.0754022598266602,56,100,14831,15420
23.7,1788269117867,5.295774459838867,4.901408672332764,0.0003801088314503,0.0054499008692801,-0.9971888661384584,0.0747303962707519,0.1827973496120624,-0.0022373326497767,-2.5750897294860175e-05,-0.0005180000443942,0.0096106603741645,-0.040284726768732,-0.0036731204017996,0.0040186503902077,-0.6373506784439087,0.770554780960083,-0.0074533877811097,-0.0072570189576958,-0.0672800159055015,-0.0455374121665954,-0.1594537496566772,1.8463592529296875,49,75,15792,13986
23.8,1788269117967,5.070422649383545,4.8450703620910645,0.0011059399694204,0.0054837455973029,-0.9973623752593994,0.0723670497536659,0.1734349266644042,-0.0033431242818552,-0.0001499939868926,0.0036239121109247,0.0337404310703277,-0.0257155839353799,-0.0034807873889803,0.0042516998946666,-0.6398857235908508,0.7684504985809326,-0.0015240408024861,-0.0417752970789542,-0.0408017711762646,-0.0071005821228027,-0.069007933139801,0.2432289123535156,123,109,16250,14390
23.9,1788269118067,5.295774459838867,4.816901206970215,0.0008249973179772,0.0054151690565049,-0.9974406957626344,0.0712893232703208,0.1873871073002859,-0.0004604080958061,8.178832167559073e-05,0.0025565249379724,-0.0143730910494923,-0.0556740686297416,-0.0035189036279916,0.0041683390736579,-0.6420103311538696,0.7666766047477722,0.0071009016412175,0.0250150548167298,-0.0510261801823344,-0.0986426472663879,0.0250031352043151,-0.4104461669921875,80,79,15390,14156
24.0,1788269118167,5.239436626434326,4.901408672332764,0.0005099869449622,0.0053889262489974,-0.9976598024368286,0.068160280585289,0.1783495867181592,0.0003386176895751,-3.420154448258884e-05,0.0059628286398947,0.00705984281376,-0.0540412180125713,-0.0036528119817376,0.0037926966324448,-0.6433882117271423,0.7655220627784729,-0.0070176989755457,-0.0112784370041675,-0.0447699972068113,0.0356819033622741,0.2166275382041931,0.8113250732421875,72,73,15498,13957
24.1,1788269118267,5.239436626434326,4.985915660858154,0.0005224051419645,0.0053513427264988,-0.9978299736976624,0.0656240731477737,0.1813687879944003,-0.001376033375884,-3.711177835887474e-05,0.0003348342725075,0.0066850590519607,-0.028206093236804,-0.0034591415897011,0.0041456138715147,-0.6451637744903564,0.7640252709388733,-0.0045785840650184,-0.0013924959543926,-0.0357387591546911,0.1689059138298034,0.3460801839828491,0.5094537734985352,61,59,15396,13689
24.2,1788269118367,5.267605781555176,4.901408672332764,0.0010532041778787,0.005226582288742,-0.997990071773529,0.0631456524133682,0.1786190952123574,0.0001410842910467,-6.180379835651393e-07,0.004280649125576,0.0025389939546585,-0.0367619469761848,-0.0030124317854642,0.0043779714033007,-0.6465676426887512,0.7628381848335266,0.0002437726791576,0.0097967847670694,-0.0445992663196474,0.0453913807868957,-0.1050512194633483,-0.4788150787353515,82,88,15391,13960
24.3,1788269118467,5.183098793029785,4.704225540161133,0.0012026433832943,0.0051986621692776,-0.998029351234436,0.0625211298465728,0.1780057633455946,-0.0009256660320583,-1.472874084117992e-05,0.001905063400045,0.0075176898390054,-0.0311958510428667,-0.0035082437098026,0.0047874199226498,-0.6480734348297119,0.7615547776222229,-0.0400296776507934,-0.0029448554413433,-0.0527435768289006,-0.0880132317543029,0.3633263707160949,-0.1547298431396484,94,140,15751,15140
24.4,1788269118567,5.352112770080566,5.126760482788086,0.0024637291207909,0.0074345078319311,-0.9982575178146362,0.0584863610565662,0.1722175979622376,0.0033862412109957,-0.0002277732964188,-0.0747992694377899,0.061310064047575,-0.1171480193734169,-0.0030700489878654,0.004540548659861,-0.6498985886573792,0.7600011229515076,0.115000234931199,-0.0854106332596683,0.027310774849185,0.0433531999588012,0.0338228940963745,0.3789339065551758,78,29,15076,13332
24.5,1788269118667,5.239436626434326,4.929577350616455,-0.0001728083298075,0.0046777864918112,-0.9984070658683776,0.0562260262668132,0.1702815566120529,-0.0034836877620656,-6.247495511658864e-05,0.006825097836554,-0.0055544418282806,-0.0940167009830474,-0.0035344529896974,0.0030390052124857,-0.6518930196762085,0.7582966089248657,0.0065787167460745,-0.0392469556327316,-0.0860672012219075,0.2222860455513,-0.0079898238182067,0.5578231811523438,89,58,15563,13529
24.6,1788269118767,5.211267471313477,4.8450703620910645,0.0003224474785383,0.0046997708268463,-0.9985963702201844,0.052755419164896,0.1814334750203003,-0.0062282071505995,-7.87454565274869e-05,0.0003269763838034,0.0210790112614631,-0.0377389453351497,-0.0029933555051684,0.0035453848540782,-0.6546167731285095,0.7559466361999512,0.0076723941971017,0.041196796358815,-0.0475642965529162,0.0078445672988891,0.0031059980392456,0.2579183578491211,98,91,15843,14298
24.7,1788269118867,5.267605781555176,4.873239517211914,0.0004219922120682,0.0045270128175616,-0.9986578226089478,0.0515919476747512,0.1817502672377653,-0.0015354976123504,-1.431651185210393e-05,0.0089215701445937,0.0047869724221527,-0.0582280419766902,-0.0030687721446156,0.0035575460642576,-0.6569621562957764,0.7539089322090149,0.0020242811881126,-0.0283295218756409,-0.0433575147093267,0.0279307961463928,0.060897409915924,-0.013249397277832,66,87,15429,13962
24.8,1788269118967,5.154929637908936,4.901408672332764,0.0003944092895835,0.004766215570271,-0.9987991452217102,0.0487583391368389,0.176946936513505,0.0002816903953871,6.687154358591763e-05,-0.0028740891721099,-0.016664607450366,-0.0521837845444679,-0.0023799892514944,0.0039211707189679,-0.6582586169242859,0.7527779936790466,0.0278506879605123,0.0448353714756324,-0.0311350709154901,-0.0639635920524597,0.0241644978523254,-0.5413074493408203,70,91,15923,14279
24.9,1788269119067,5.464788913726807,4.8450703620910645,0.0013231895864009,0.0048042898997664,-0.9989999532699584,0.0444317199289798,0.1732956531524872,0.0005512898722757,-0.0001087244886175,-0.0208208337426185,0.0213497299700975,-0.1000677198171615,-0.002356200478971,0.0044132834300398,-0.6603226065635681,0.7509654760360718,-0.0278049827320499,0.0315970747739613,-0.0909232437922914,0.1835650205612182,-0.0515913963317871,1.1613636016845703,78,107,14949,14463
25.0,1788269119167,5.211267471313477,4.929577350616455,0.001574165886268,0.004563205409795,-0.9990795254707336,0.0426233671605587,0.1804269045218717,-0.005357523961313,-1.4182181795034078e-05,0.0140423467382788,0.002577745122835,-0.0241325851529836,-0.0021150205284357,0.0045687779784202,-0.6626489162445068,0.7489133477210999,-0.0112671571580824,0.0167445275370413,-0.0542042420342854,0.168247103691101,0.2787626981735229,0.5088815689086914,90,76,15816,14068
25.1,1788269119267,5.267605781555176,4.929577350616455,0.0022820213343948,0.0046330178156495,-0.9991660714149476,0.0405017212033271,0.169485336334132,0.0037220235553252,-8.318826040028551e-05,-0.001707738963887,0.0342918261885643,-0.1010215729475021,-0.0022271927446126,0.0047585032880306,-0.665438711643219,0.7464340925216675,0.0016708622568101,-0.0327086873263737,-0.0781427325221999,-0.1262577176094055,-0.4137046337127685,0.6300258636474609,70,81,15367,14091
25.2,1788269119367,5.239436626434326,5.154929637908936,0.0020872470922768,0.0050198263488709,-0.9992916584014891,0.0372372791171073,0.1735307523886482,-0.0031815209577123,3.838568281592453e-05,-0.0020380835048854,-0.0039711128920316,-0.0660862177610397,-0.0024544643238186,0.004465646110475,-0.666756272315979,0.7452585101127625,-0.0048874910782155,-0.0314886405014035,-0.0354805714332224,-0.0403516292572021,0.2973544597625732,0.4794998168945312,80,124,14346,14546
25.3,1788269119467,5.295774459838867,4.816901206970215,0.001064729061909,0.0051721516065299,-0.999399185180664,0.0342545323073864,0.1761418800774408,0.0025508164436506,5.503887393506389e-05,-0.0124377608299255,-0.0213424712419509,-0.0821823105216026,-0.0031732376664876,0.0042762635275721,-0.6685762405395508,0.7436246275901794,-0.0101036631495043,-0.0357603073098066,-0.0756712133826773,0.2087604999542236,-0.0819177031517028,-0.5556039810180664,66,61,15272,14204
25.4,1788269119567,5.211267471313477,4.873239517211914,0.0009609215194359,0.0052470886148512,-0.9994341731071472,0.0332084968686103,0.1812250594898046,0.002582237204842,1.160289316717166e-06,0.0010365373454988,-0.0001812128175515,-0.0139377769082784,-0.0029604630544781,0.0041838958859443,-0.6693031787872314,0.7429717779159546,0.0123813488226429,0.0001058440736132,-0.0016092071325248,-0.0017630457878112,0.1107010245323181,1.1115055084228516,83,89,15516,14237
25.5,1788269119667,5.211267471313477,4.929577350616455,0.001210089190863,0.00501424446702,-0.9994560480117798,0.0325730927288532,0.1776692344654804,-0.0017581594021091,-2.3358674623147204e-05,0.0117820845916867,0.0119231771677732,-0.0309154149144887,-0.0021582031622529,0.0048498902469873,-0.670563817024231,0.7418329119682312,0.0001216845662728,0.0489499897679431,-0.0459380167462394,-0.0950391888618469,-0.0434012413024902,-0.5709981918334961,58,76,15607,13892
25.6,1788269119767,5.154929637908936,4.647887229919434,0.0016206444706767,0.0049603199586272,-0.9995400905609132,0.0298738181591033,0.1828911674207364,-0.0026567420922636,1.3120927970528755e-06,-0.0019012911943718,-0.0079883839935064,-0.0567544400691986,-0.0022948822006583,0.0073218820616602,-0.673511266708374,0.7391371130943298,-0.0960103874001175,0.0984634186016208,-0.1143545189385547,0.2189544439315796,0.2070561051368713,0.2176952362060547,90,166,15870,15624
25.7,1788269119867,5.239436626434326,5.211267471313477,0.0019368925131857,0.0043228711001574,-0.9995951056480408,0.028055278584361,0.1929487345785308,-0.0055826502774941,0.0002808326781502,0.0789497569203376,-0.0498818419873714,0.0601015239953994,-0.0017377967014908,0.0043772775679826,-0.6727731227874756,0.7398339509963989,0.0377453113689554,-0.0025532749117458,0.0819496410895254,-0.176002562046051,0.7531901001930237,-0.551173210144043,75,18,15483,12703
25.8,1788269119967,4.2816901206970215,4.619718074798584,0.0014800288481637,0.0042451759800314,-0.999672830104828,0.0251808371394872,0.1729598694842966,-0.0096316452662282,9.04423749467405e-05,0.0134042352437973,-0.0209097024053335,-0.0437736250460147,-0.0019000545144081,0.0039584962651133,-0.67513507604599,0.7376810908317566,0.0239990416066453,-0.0312477375116195,-0.050863672821956,-0.254418134689331,0.5170872807502747,0.3122673034667969,11,49,10026,12593
25.9,1788269120067,1.8591549396514893,4.02816915512085,0.0019145417027175,0.004113380331546,-0.999683916568756,0.0247277114540338,0.1652656269833091,0.0026757737602544,-0.0001072861567168,0.0071705859154462,0.0216479767113924,-0.0225608479231596,-0.0015129912644624,0.0041530337184667,-0.6710469722747803,0.7414016723632812,0.0047598192166951,-0.0058743238728509,0.2664422264262055,-1.0224528312683103,0.3573735952377319,0.0874271392822265,53,47,635,11028
26.0,1788269120167,-0.1971831023693084,3.2957746982574463,0.0022186473943293,0.004145486280322,-0.9988656044006348,0.0473846197128295,0.0607481155649589,-0.00085027303425,-2.095814989988959e-05,-0.0058160554617643,0.012323903851211,0.4732421934604645,-0.0013618730008602,0.0046712709590792,-0.6559929847717285,0.7547513842582703,-0.006589063841035,0.0116332504237471,0.5089703150863941,-0.7482637166976929,0.2965915203094482,0.5556154251098633,251,53,-8659,10161
26.1,1788269120267,-3.1549296379089355,2.8450703620910645,0.0022565990220755,0.004320534877479,-0.9960423111915588,0.0887469798326492,0.0058654722392508,0.001397340705183,-3.2885858897737735e-07,-0.0055051292292773,-0.0068947174586355,0.8601974844932556,-0.0014988239854574,0.0045976424589753,-0.6294735670089722,0.7770068645477295,-0.0071904242967775,-0.0138456977260675,0.998793473058414,-0.5927405953407288,0.1363212466239929,-0.2402963638305664,156,54,-12083,8920
26.2,1788269120367,-2.929577350616455,2.563380241394043,0.0018569303210824,0.0044588986784219,-0.990720510482788,0.1358290463685989,-0.0072070337595962,-0.0009902107954156,-1.2250963443400518e-06,-0.0049101612530648,-0.013035855256021,0.9598906636238098,-0.002035585232079,0.0042475080117583,-0.5844612121582031,0.8114080429077148,-0.0029311992741598,-0.0295822580151963,0.9476689036155798,0.1750198602676391,0.0146337151527404,-0.0946979522705078,24,34,-8119,7851
26.3,1788269120467,-2.5352113246917725,2.563380241394043,0.0015081536257639,0.0043344241566956,-0.9881249070167542,0.1535839587450027,-0.0003761341974358,0.0025965842242151,1.9074351450857096e-06,0.0015703387325629,-0.02184315957129,0.8972094655036926,-0.0022984929382801,0.0037292763590812,-0.5543177127838135,0.8322935700416565,-0.0050371540772836,-0.0080497628702796,0.739343319071446,-0.1277320981025695,0.1734755635261535,-0.124094009399414,48,58,-8882,7923
26.4,1788269120567,-2.1408450603485107,2.197183132171631,0.0012484033359214,0.0045887506566941,-0.9817830324172974,0.1899454742670059,-0.0024820610946171,0.0004941822417347,-3.502522767756662e-07,-0.0159827787429094,0.0054603680036962,0.6828981637954712,-0.0024690181016921,0.0043161958456039,-0.5312477350234985,0.847201943397522,-0.0044638735195906,0.0059961818064453,0.6035334427739292,0.1790151000022888,0.2517929077148437,-0.1720218658447265,73,124,-8532,7840
26.5,1788269120667,-2.1408450603485107,2.197183132171631,0.0010902504436671,0.0049679954536259,-0.9704614877700806,0.2412023097276687,-0.0002166748991319,-0.0008279620001046,-2.503688300071484e-07,-0.0066311126574873,-0.01882029697299,0.6716251373291016,-0.0028358316048979,0.0042736772447824,-0.4959487915039062,0.8683366179466248,-0.0040923674302366,-0.0108742383092951,0.6021266985333217,0.1014788150787353,0.0666207075119018,0.6524534225463867,56,99,-8351,7667
26.6,1788269120767,-2.0,1.8591549396514893,0.0008680484024807,0.0050086602568626,-0.9620869159698486,0.2726956903934479,-0.0001336769213507,-0.0013924122890181,-2.0073648436536468e-07,-0.0036432538181543,-0.0073766936548054,0.6374927163124084,-0.0030115265399217,0.0040931114926934,-0.4702527821063995,0.8825172185897827,-0.0034373809646799,-0.0127465228628165,0.6196614498301631,-0.049877643585205,0.0136070251464843,-0.2307357788085937,70,74,-6524,6230
26.7,1788269120867,-1.7183098793029783,1.8591549396514893,0.0009331641485914,0.0051460289396345,-0.9591222405433656,0.2829437255859375,-0.0058467512937382,0.0008392645952463,-1.663037684482799e-07,-0.006906792987138,0.0025673280470073,0.533359944820404,-0.0030897930264472,0.0043177446350455,-0.4499227702617645,0.8930516839027405,-0.0034362364249399,0.0051300735605473,0.4930753999234983,-0.0901998877525329,0.1135430932044982,0.1918306350708007,83,70,-7625,6757
26.8,1788269120967,-1.6338027715682983,1.4647886753082275,0.0006868520285934,0.0054622590541839,-0.9466685652732848,0.3221619129180908,-0.0034159402051524,-0.0004917234563515,-1.0863135889236677e-06,-0.0103041864931583,-0.0073768021538853,0.5854846835136414,-0.0034871865063905,0.004360182210803,-0.4192252159118652,0.9078651666641236,-0.0082727713330854,0.0039477690015885,0.5682605928810645,0.0772274136543273,-0.2039355039596557,-0.0770378112792968,54,85,-5551,5624
26.9,1788269121067,-1.2957746982574463,1.4929577112197876,0.0009497866267338,0.0055622109211981,-0.9386860132217408,0.3447268307209015,0.0030752063686114,0.0004960275061988,-6.119678498507834e-07,0.0010359908919781,0.0089837489649653,0.4114448726177215,-0.0033477302640676,0.0045409062877297,-0.4021929502487182,0.9155375361442566,0.0016171335385468,0.0014027978823441,0.4192133551037661,-0.4027073383331299,0.1321433186531067,0.1182670593261718,89,70,-7043,5858
27.0,1788269121167,-1.4929577112197876,1.4647886753082275,0.0011924150167033,0.0056840665638446,-0.9302619099617004,0.3668502569198608,-0.0001376927065996,-0.0011763319172536,-3.559720498239809e-07,-0.0021588411182165,0.0027732155285775,0.466016411781311,-0.0032550226897001,0.0048053320497274,-0.3824721872806549,0.9239488244056702,-0.000904457324548,0.0031818907562665,0.4362222653993156,-0.0224276781082153,-0.0544045567512512,-0.04425048828125,66,81,-6495,5909
27.1,1788269121267,-1.6619718074798584,1.5211267471313477,0.0012495355913415,0.0058031873777508,-0.9270159602165222,0.3749750852584839,-0.0012663837574695,0.001521208239277,7.056511187769065e-07,-0.005899375770241,0.0027260365895926,0.437425285577774,-0.0032986085861921,0.0047790361568331,-0.3569723069667816,0.9340968728065492,0.0030272465363149,-0.0115108930669141,0.4901238533733409,-0.0516544580459594,0.0552267432212829,0.0389747619628906,64,69,-6073,5959
27.2,1788269121367,-1.0704225301742554,1.1267606019973757,0.0010795482667163,0.0056423735804855,-0.917780101299286,0.3970474600791931,-0.0006142365305829,0.0012611922076213,8.527310413770142e-07,0.0007925163954496,-0.0100279878824949,0.4935024976730346,-0.0033636223524808,0.0046617500483989,-0.3366857469081878,0.9415994882583618,-0.0020314271133452,-0.0009610987045384,0.4555864582091805,-0.0218605399131774,-0.0752696394920349,0.0651683807373046,52,46,-5261,4658
