time_s,timestamp_ms,wheel_vels__velocity_left,wheel_vels__velocity_right,odom__orient_x,odom__orient_y,odom__orient_z,odom__orient_w,odom__lin_x,odom__lin_y,odom__lin_z,odom__ang_x,odom__ang_y,odom__ang_z,imu__orient_x,imu__orient_y,imu__orient_z,imu__orient_w,imu__angvel_x,imu__angvel_y,imu__angvel_z,imu__acc_x,imu__acc_y,imu__acc_z,wheel_status__current_ma_left,wheel_status__current_ma_right,wheel_status__pwm_left,wheel_status__pwm_right
0.0,1788267963369,0.0,0.0,-0.0062535675242543,-0.0031356662511825,0.7131918668746948,0.7009339332580566,0.0002347616175822,0.0002436683718561,-6.592071298538165e-09,9.45325882639736e-05,7.813590491423383e-05,1.431634132131876e-06,-0.0032126000151038,-0.0062150098383426,0.9890581965446472,0.147360011935234,0.0001123678112713,0.0001149001597117,9.765125473558845e-07,0.0209187269210815,0.0116312503814697,-0.006317138671875,3,0,0,0
0.1,1788267963469,0.0,0.0,-0.0062535675242543,-0.0031356662511825,0.7131918668746948,0.7009339332580566,0.0002347616175822,0.0002436683718561,-6.592071298538165e-09,9.45325882639736e-05,7.813590491423383e-05,1.431634132131876e-06,-0.0032126000151038,-0.0062150098383426,0.9890581965446472,0.147360011935234,0.0001123678112713,0.0001149001597117,9.765125473558845e-07,0.0209187269210815,0.0116312503814697,-0.006317138671875,3,0,0,0
0.2,1788267963569,0.0,0.0,-0.0062535675242543,-0.0031356662511825,0.7131918668746948,0.7009339332580566,0.0002347616175822,0.0002436683718561,-6.592071298538165e-09,9.45325882639736e-05,7.813590491423383e-05,1.431634132131876e-06,-0.0032126000151038,-0.0062150098383426,0.9890581965446472,0.147360011935234,0.0001123678112713,0.0001149001597117,9.765125473558845e-07,0.0209187269210815,0.0116312503814697,-0.006317138671875,3,0,0,0
0.3,1788267963669,0.0,0.0,-0.0062524029053747,-0.0031313407234847,0.7131919264793396,0.7009339928627014,0.0,0.0,0.0,0.0001579225208843,8.909174357540905e-05,1.2062347423125177e-06,-0.003216010518372,-0.0062059061601758,0.9890581965446472,0.147360011935234,0.000116102986227,6.103118027619487e-05,9.584015877198602e-07,0.0027031898498535,0.0313462018966674,-0.0122814178466796,0,0,0,0
0.4,1788267963769,0.0,0.0,-0.0062491502612829,-0.0031241499818861,0.7131919264793396,0.7009339928627014,-0.0002061607808981,-0.0002139823536034,7.158944616320693e-09,0.0002260833280161,6.967742956476286e-05,1.2572189689308289e-06,-0.0032146833837032,-0.006197658367455,0.9890583157539368,0.1473600268363952,0.0001302914286437,-3.576202473468751e-05,-7.007578391747784e-11,0.0019344687461853,-0.0012120604515075,-0.0167617797851562,0,0,0,0
0.5,1788267963869,0.0,0.0,-0.0062388153746724,-0.0031191986054182,0.7131919860839844,0.7009340524673462,-0.0001437408072709,-0.0001491942039695,8.068573907978298e-09,0.00015463870659,-8.338341285707429e-05,-8.765667871557525e-07,-0.0032107345759868,-0.0061922054737806,0.9890583157539368,0.1473600268363952,0.0001096774268282,-7.882287860632001e-05,-1.294944042913136e-10,0.0033208727836608,0.0060765743255615,-0.0062065124511718,0,0,0,0
0.6,1788267963969,0.0,0.0,-0.0062341666780412,-0.0031190137378871,0.7131919264793396,0.700934112071991,0.0002332442517399,0.0002420933935787,-1.8848061914183768e-08,6.515171116916463e-05,-5.931772466283292e-05,-2.844761638698401e-06,-0.0032047182321548,-0.0061876373365521,0.9890583157539368,0.1473600268363952,0.0001142322143039,-0.0001231428031698,-1.1294505705396972e-06,0.0012358427047729,0.0096858143806457,-0.0202722549438476,0,0,0,0
0.7,1788267964069,0.0,0.0,-0.006230560131371,-0.0031191702000796,0.7131919264793396,0.700934112071991,0.0,0.0,0.0,9.654691530158745e-05,-0.0001071730293915,0.0,-0.003200938925147,-0.006186231970787,0.9890584349632264,0.1473600417375564,5.889152395020498e-05,-0.0001162422812854,-9.961536164032734e-07,-0.0150409340858459,0.0332087874412536,-0.0110416412353515,0,0,0,0
0.8,1788267964169,0.0,0.0,-0.006230560131371,-0.0031191702000796,0.7131919264793396,0.700934112071991,0.0,0.0,0.0,9.654691530158745e-05,-0.0001071730293915,0.0,-0.003200938925147,-0.006186231970787,0.9890584349632264,0.1473600417375564,5.889152395020498e-05,-0.0001162422812854,-9.961536164032734e-07,-0.0150409340858459,0.0332087874412536,-0.0110416412353515,0,0,0,0
0.9,1788267964269,0.0,0.0,-0.006230560131371,-0.0031191702000796,0.7131919264793396,0.700934112071991,0.0,0.0,0.0,9.654691530158745e-05,-0.0001071730293915,0.0,-0.003200938925147,-0.006186231970787,0.9890584349632264,0.1473600417375564,5.889152395020498e-05,-0.0001162422812854,-9.961536164032734e-07,-0.0150409340858459,0.0332087874412536,-0.0110416412353515,0,0,0,0
1.0,1788267964369,0.0,0.0,-0.006230560131371,-0.0031191702000796,0.7131919264793396,0.700934112071991,0.0,0.0,0.0,9.654691530158745e-05,-0.0001071730293915,0.0,-0.003200938925147,-0.006186231970787,0.9890584349632264,0.1473600417375564,5.889152395020498e-05,-0.0001162422812854,-9.961536164032734e-07,-0.0150409340858459,0.0332087874412536,-0.0110416412353515,0,0,0,0
1.1,1788267964469,0.0,0.0,-0.0062146848067641,-0.0031531145796179,0.7131916880607605,0.7009344696998596,-5.857985939374809e-07,6.064207905481229e-07,5.392879317648879e-09,-0.0002552807854954,-0.0002426951396046,-4.769688075612066e-06,-0.0031627146527171,-0.0062162606045603,0.9890583157539368,0.1473604142665863,-0.0002972233072047,-0.0003239029858459,-6.511675944715559e-06,-0.0138412117958068,0.0019577145576477,0.0109100341796875,0,0,0,0
1.2,1788267964569,0.0,0.0,-0.0062135215848684,-0.0031747538596391,0.7131913304328918,0.7009345889091492,-0.000210027209139,-0.0002166958824036,3.5036620298150055e-08,-0.0004555906052701,-0.0005073180655017,-7.661847121198662e-06,-0.0031510181725025,-0.0062286015599966,0.9890581965446472,0.1473605334758758,-0.0002082346614829,-0.0002959378519006,-6.9495404105843705e-06,0.0075558423995971,0.0089589357376098,-0.0034093856811523,0,0,0,0
1.3,1788267964669,0.0,0.0,-0.0062092347070574,-0.0031972923316061,0.7131912708282471,0.7009347081184387,0.0,0.0,0.0,-0.0001832900452427,-0.0002771307481452,0.0,-0.003135341219604,-0.0062423162162303,0.9890581965446472,0.1473607122898101,-0.0001898812242554,-0.0003407825038222,-5.443739000215043e-06,-0.0162433981895446,0.0018723011016845,-0.0179853439331054,2,0,0,0
1.4,1788267964769,0.0,0.0,-0.0062053888104856,-0.0032114828936755,0.7131910920143127,0.7009348273277283,0.0002272828344873,0.0002359074855938,-3.676650353491653e-08,0.0,0.0,0.0,-0.0031218212097883,-0.0062537370249629,0.9890580773353576,0.1473608314990997,-0.0002141584340629,-0.0003411421407544,-5.970213845843544e-06,0.0065058469772338,0.0003893375396728,0.0033369064331054,0,0,0,0
1.5,1788267964869,0.0,0.0,-0.0062014842405915,-0.0032270804513245,0.713191032409668,0.700934886932373,0.0,0.0,0.0,-0.0003352091880515,-0.000548216223251,-8.337889084941708e-06,-0.0031076921150088,-0.0062644695863127,0.9890580773353576,0.1473609656095504,-0.0001831755824611,-0.0003311263272962,-4.91489716954102e-06,0.0331155061721801,0.0091716051101684,0.017674446105957,1,0,0,0
1.6,1788267964969,0.0,0.0,-0.0061968718655407,-0.0032418011687695,0.7131907939910889,0.7009350061416626,-5.687163207891746e-07,5.8873405720592e-07,5.3709146682167636e-09,-0.0002822310489136,-0.0005285207298584,-1.3891780326957814e-05,-0.0030910773202776,-0.0062752952799201,0.9890580773353576,0.1473611444234848,-0.0001299584843639,-0.0002695551314798,-4.973963436495747e-06,-0.0060747265815734,0.0090504884719848,0.0020732879638671,5,0,0,0
1.7,1788267965069,0.0,0.0,-0.0061887893825769,-0.0032634355593472,0.7131907343864441,0.7009350657463074,0.0,0.0,0.0,-0.0001809778768802,-0.0003477257560007,-2.350242766624433e-06,-0.0030829831957817,-0.0062806867063045,0.9890580773353576,0.1473612487316131,-5.877979091416166e-05,-0.0001736296574492,-2.9729027134493827e-06,0.0159204006195068,0.013865053653717,0.0091018676757812,4,0,0,0
1.8,1788267965169,0.0,0.0,-0.0061851013451814,-0.0032698214054107,0.7131905555725098,0.7009352445602417,0.0002272078040341,0.0002358306859478,-4.899250603673615e-08,-2.164964918449641e-08,2.164964918449641e-08,0.0,-0.0030734231695532,-0.0062835719436407,0.989057958126068,0.1473613083362579,1.0178082044821085e-05,-0.0001470990087048,-1.0307134012023106e-06,0.0233125686645507,-0.0331576466560363,-0.0150976181030273,2,0,0,0
1.9,1788267965269,0.0,0.0,-0.0061809374019503,-0.0032742614857852,0.7131906151771545,0.7009353041648865,0.0,0.0,0.0,-9.897899872157724e-06,-0.0002434585185255,-2.385934521953459e-06,-0.0030689155682921,-0.0062839463353157,0.989057958126068,0.1473613083362579,1.0023483031505497e-12,-6.726644077185787e-05,-9.951579307716314e-07,0.0147937536239624,0.0314592123031616,0.0017356872558593,5,0,0,0
2.0,1788267965369,0.0,0.0,-0.0061762202531099,-0.0032767644152045,0.713190495967865,0.7009354829788208,0.0,0.0,0.0,4.544358671410009e-05,-4.424957660376094e-05,-1.012141865430749e-06,-0.00306729786098,-0.0062828129157423,0.989057958126068,0.1473613083362579,2.2749860017222027e-05,-2.485076290717272e-05,-8.771608030583888e-12,0.0041069388389587,-0.0351547002792358,0.0228824615478515,6,0,0,0
2.1,1788267965469,0.0,0.0,-0.0061779040843248,-0.0032786321826279,0.713190495967865,0.7009354829788208,0.0,0.0,0.0,-0.0001005435187835,-4.341884960012976e-06,0.0,-0.0030680783092975,-0.0062863687053322,0.989057958126068,0.1473613083362579,-0.0001079722548165,2.199147276812302e-05,-3.5647457023308567e-11,-0.0007153749465942,0.0091259479522705,-0.0074920654296875,0,0,0,0
2.2,1788267965569,0.0,0.0,-0.0061820186674594,-0.0032813851721584,0.713190495967865,0.700935423374176,0.0002222506430619,0.0002306856444844,-4.969539533465584e-08,0.0,-2.117731057182937e-08,0.0,-0.0030725635588169,-0.0062939412891864,0.989057958126068,0.1473613083362579,-0.0001397876933542,0.0001009906226146,-2.2239267805814992e-10,-0.0196472406387329,-0.012011706829071,-0.0074052810668945,2,0,0,0
2.3,1788267965669,0.0,0.0,-0.0061888610944151,-0.0032827192917466,0.7131903767585754,0.700935423374176,-5.855822292118074e-07,6.061910234171058e-07,5.621430081937722e-09,-0.0002299027255503,0.000157806687639,-3.5759335332841147e-06,-0.0030808290466666,-0.0062974980100989,0.989057958126068,0.1473613083362579,-8.771774297118832e-05,0.0001975284645541,9.961796097584597e-07,-0.0117363929748535,0.0018404722213745,0.0107736587524414,4,0,0,0
2.4,1788267965769,0.0,0.0,-0.0061967535875737,-0.0032802568748593,0.7131903171539307,0.7009353041648865,0.0,0.0,0.0,-0.0001512480521341,0.0002945337328128,4.773702585225692e-06,-0.0030925488099455,-0.0062977047637104,0.9890578389167786,0.1473612338304519,-2.1847620303874658e-05,0.0002762143412552,3.972207255060641e-06,0.0179188847541809,-0.0055799484252929,-0.0147075653076171,3,0,0,0
2.5,1788267965869,0.0,0.0,-0.0062154112383723,-0.0032673766836524,0.7131900787353516,0.7009355425834656,5.95640783458702e-07,-1.0340279967346452e-08,2.4002266794921514e-09,-9.389347542310134e-05,0.0004748383071273,4.765882749779848e-06,-0.0031110569834709,-0.0062982700765132,0.9890578389167786,0.1473610550165176,-4.8238329115192586e-05,0.0003469711050937,5.412207812317146e-06,0.0290638208389282,-0.0093333721160888,0.0282955169677734,1,0,0,0
2.6,1788267965969,0.0,0.0,-0.0062249489128589,-0.0032598893158137,0.7131901383399963,0.7009354829788208,0.0002219258288308,0.0002303485026916,-2.2543996313097237e-08,0.0,0.0,0.0,-0.0031231865286827,-0.0062977150082588,0.9890578389167786,0.1473609656095504,-4.158292289254366e-05,0.0002532143320027,2.985603176531755e-06,0.0002011060714721,-0.0018903613090515,0.0082130432128906,3,0,0,0
2.7,1788267966069,0.0,0.0,-0.0062249489128589,-0.0032598893158137,0.7131901383399963,0.7009354829788208,0.0002219258288308,0.0002303485026916,-2.2543996313097237e-08,0.0,0.0,0.0,-0.0031269919127225,-0.0062979198992252,0.9890578389167786,0.1473609358072281,-5.095039817537065e-05,0.0002492187392416,2.9840924583273625e-06,0.0200997591018676,0.0126521587371826,-0.0095281600952148,2,0,0,0
2.8,1788267966169,0.0,0.0,-0.0062249489128589,-0.0032598893158137,0.7131901383399963,0.7009354829788208,0.0002219258288308,0.0002303485026916,-2.2543996313097237e-08,0.0,0.0,0.0,-0.0031269919127225,-0.0062979198992252,0.9890578389167786,0.1473609358072281,-5.095039817537065e-05,0.0002492187392416,2.9840924583273625e-06,0.0200997591018676,0.0126521587371826,-0.0095281600952148,2,0,0,0
2.9,1788267966269,0.0,0.0,-0.0062249489128589,-0.0032598893158137,0.7131901383399963,0.7009354829788208,0.0002219258288308,0.0002303485026916,-2.2543996313097237e-08,0.0,0.0,0.0,-0.0031269919127225,-0.0062979198992252,0.9890578389167786,0.1473609358072281,-5.095039817537065e-05,0.0002492187392416,2.9840924583273625e-06,0.0200997591018676,0.0126521587371826,-0.0095281600952148,2,0,0,0
3.0,1788267966369,0.0,0.0,-0.0062415045686066,-0.0032501083333045,0.713189959526062,0.700935423374176,0.0,0.0,0.0,0.0,0.0,0.0,-0.0031501548364758,-0.0063003227114677,0.989057719707489,0.1473609209060669,9.588736721872964e-05,2.638302641190225e-05,3.7864077557568776e-11,0.0115450620651245,0.0115318894386291,0.0014238357543945,5,0,0,0
3.1,1788267966469,0.0,0.0,-0.0062415045686066,-0.0032501083333045,0.713189959526062,0.700935423374176,0.0,0.0,0.0,0.0,0.0,0.0,-0.0031506353989243,-0.0062957974150776,0.989057719707489,0.1473609209060669,5.581613137728301e-05,2.3934503499379978e-05,2.0039378335645978e-11,-0.0278697609901428,-0.0258454084396362,0.0012445449829101,4,0,0,0
3.2,1788267966569,0.0,0.0,-0.0062415045686066,-0.0032501083333045,0.713189959526062,0.700935423374176,0.0,0.0,0.0,0.0,0.0,0.0,-0.0031533380970358,-0.0062939850613474,0.989057719707489,0.1473609209060669,5.648122012467675e-05,8.456899465450699e-05,1.0868958813357909e-06,-0.0041733980178833,0.0169605612754821,0.0142011642456054,4,0,0,0
3.3,1788267966669,0.0,0.0,-0.0062415045686066,-0.0032501083333045,0.713189959526062,0.700935423374176,0.0,0.0,0.0,0.0,0.0,0.0,-0.0031562792137265,-0.0062891310080885,0.989057719707489,0.1473609209060669,0.0001014451807497,7.87583924750693e-05,1.1963300971297368e-10,-0.0023509860038757,-0.0121864676475524,0.0204486846923828,2,0,0,0
3.4,1788267966769,0.0,0.0,-0.0062415045686066,-0.0032501083333045,0.713189959526062,0.700935423374176,0.0,0.0,0.0,0.0,0.0,0.0,-0.003160310909152,-0.006282515823841,0.989057719707489,0.1473609209060669,5.494099713079232e-05,7.957485027868396e-05,9.55563817856697e-07,-0.0057178139686584,0.0241215825080871,0.0109491348266601,3,0,0,0
3.5,1788267966869,0.0,0.0,-0.0062518771737813,-0.003219848498702,0.7131900191307068,0.700935423374176,0.0,0.0,0.0,4.779439404956065e-05,9.478755964664742e-05,1.1925307035198784e-06,-0.0031635574996471,-0.0062791816890239,0.9890578389167786,0.1473609358072281,8.008971048433743e-05,5.964625050673494e-05,9.980740055679717e-07,-0.0149175524711608,-0.0049180388450622,0.0120964050292968,1,0,0,0
3.6,1788267966969,0.0,0.0,-0.0062513388693332,-0.0032160826958715,0.7131900191307068,0.700935423374176,0.0,0.0,0.0,7.967790588736534e-05,4.1317925933981314e-05,0.0,-0.0031638676300644,-0.0062765767797827,0.9890578389167786,0.1473609358072281,3.581381962940476e-05,2.5004449771335142e-06,1.3425071059702882e-12,-0.0097327828407287,0.0009626746177673,-0.0150136947631835,0,0,0,0
3.7,1788267967069,0.0,0.0,-0.0062499637715518,-0.003214493393898,0.7131900191307068,0.700935423374176,0.0,0.0,0.0,4.282093505025841e-05,-9.360605872643646e-07,0.0,-0.003164242953062,-0.006278071552515,0.9890578389167786,0.1473609358072281,-0.0001030598298803,1.5271653786548293e-05,-2.308365422985004e-11,-0.0078352093696594,0.0433546304702758,-0.0075740814208984,1,0,0,0
3.8,1788267967169,0.0,0.0,-0.0062521565705537,-0.0032162715215235,0.7131900191307068,0.7009354829788208,0.0,0.0,0.0,-6.148457759991288e-05,1.0384144843555989e-05,-1.1931513199670007e-06,-0.0031651612371206,-0.0062816841527819,0.9890578389167786,0.1473609358072281,-8.68023536371855e-05,-6.85527398757119e-06,8.912719058846815e-12,-0.0063724517822265,0.0036519169807434,0.0046367645263671,0,0,0,0
3.9,1788267967269,0.0,0.0,-0.0062557095661759,-0.0032219309359788,0.713189959526062,0.700935423374176,0.0002325817091584,0.0002414085614128,-3.7994058853351144e-09,-3.972485865233466e-05,-3.155826925649308e-05,0.0,-0.0031631458550691,-0.0062857717275619,0.9890578389167786,0.1473609358072281,-2.787406958605541e-05,-5.913531645557284e-05,-9.94367922099925e-07,-0.0138818025588989,0.0266589522361755,-0.0165672302246093,1,0,0,0
4.0,1788267967369,0.0,0.0,-0.0062547912821173,-0.0032233381643891,0.713189959526062,0.700935423374176,0.0,0.0,0.0,-1.428623181709554e-05,-6.510532693937421e-05,-1.1820541203633184e-06,-0.0031586345285177,-0.006283420138061,0.9890578389167786,0.1473609358072281,0.0001176931794747,-9.297044946998438e-05,-7.929191908435095e-07,-0.0052725672721862,0.0270082354545593,0.0094404220581054,1,0,0,0
4.1,1788267967469,0.0,0.0,-0.0062413546256721,-0.00322069786489,0.7131900191307068,0.7009356021881104,0.0001576676236995,0.0001631456524845,-4.239017884901681e-09,0.0001812388945836,-9.711606980999932e-05,-3.8343173400789965e-06,-0.0031522419303655,-0.0062747066840529,0.9890578389167786,0.1473609358072281,0.000219969582415,-0.0001230096885009,-4.3338691033340055e-10,-0.0039144158363342,-0.0133669376373291,0.0040321350097656,0,0,0,0
4.2,1788267967569,0.0,0.0,-0.0062374752014875,-0.0032196133397519,0.7131898999214172,0.7009357213973999,0.0,0.0,0.0,0.0001428733230568,-8.20200439193286e-05,-7.312676643778104e-06,-0.0031447038054466,-0.0062661301344633,0.989057958126068,0.1473609507083892,0.0001936466672505,-0.0001372362551089,9.936172145226904e-07,-0.0022047758102416,-0.007699429988861,-0.0118484497070312,6,0,0,0
4.3,1788267967669,0.0,0.0,-0.0062312101945281,-0.0032181916758418,0.7131898999214172,0.7009358406066895,0.0,0.0,0.0,0.0,2.1618097534314984e-08,0.0,-0.0031371302902698,-0.0062600122764706,0.989057958126068,0.1473609507083892,9.935501223741368e-05,-7.787664448017794e-05,-1.1499360913207096e-10,-0.0126106739044189,0.0143166780471801,-0.0037403106689453,0,0,0,0
4.4,1788267967769,0.0,0.0,-0.0062312101945281,-0.0032181916758418,0.7131898999214172,0.7009358406066895,0.0,0.0,0.0,0.0,1.8532629653122967e-08,0.0,-0.0031353821977972,-0.0062575181946158,0.989057958126068,0.1473609507083892,3.178922055466613e-05,1.932285486256962e-06,9.17786697615751e-13,-0.0264555215835571,-0.0140265226364135,0.016127586364746,2,0,0,0
4.5,1788267967869,0.0,0.0,-0.0062176357023417,-0.0032133210916072,0.7131900191307068,0.7009358406066895,5.993178387352907e-07,-1.0404153444555165e-08,2.4845634585308764e-09,0.0005224822671152,-0.0002521469141356,2.397652906438452e-06,-0.0031399270519614,-0.0062556928023695,0.989057958126068,0.1473609507083892,-4.934319864596229e-06,0.0001134738576728,9.930626636498478e-07,0.0013701319694519,0.0203407406806945,0.0185441970825195,1,0,0,0
4.6,1788267967969,0.0,0.0,-0.0062176357023417,-0.0032133210916072,0.7131900191307068,0.7009358406066895,0.0,0.0,0.0,0.0,0.0,0.0,-0.0031462088227272,-0.0062554469332098,0.989057958126068,0.1473609507083892,-9.763386649111004e-06,0.0001504990486206,1.0885807838291209e-06,0.001589298248291,-0.0084123611450195,0.022383689880371,0,0,0,0
4.7,1788267968069,0.0,0.0,-0.0062176357023417,-0.0032133210916072,0.7131900191307068,0.7009358406066895,0.0,0.0,0.0,0.0,0.0,0.0,-0.0031529394909739,-0.0062562813982367,0.989057958126068,0.1473609507083892,-3.862838762598524e-05,0.0001531383948593,9.887976991178038e-07,-0.0014861822128295,0.0207674503326416,-0.0135469436645507,1,0,0,0
4.8,1788267968169,0.0,0.0,-0.0062176357023417,-0.0032133210916072,0.7131900191307068,0.7009358406066895,0.0,0.0,0.0,0.0,0.0,0.0,-0.0031606629490852,-0.0062544513493776,0.989057958126068,0.1473609507083892,1.996532923060332e-05,0.0001906278163753,1.9449301371711216e-06,-0.0081843137741088,0.0472436547279357,-0.0101423263549804,1,0,0,0
4.9,1788267968269,0.0,0.0,-0.0062176357023417,-0.0032133210916072,0.7131900191307068,0.7009358406066895,0.0,0.0,0.0,0.0,0.0,0.0,-0.0031717754900455,-0.0062470864504575,0.989057958126068,0.1473609358072281,0.0001267016791509,0.0001622266773318,9.957542361304586e-07,-0.0047873258590698,-0.0039307475090026,-0.0069446563720703,6,0,0,0
5.0,1788267968369,0.0,0.0,-0.0062176357023417,-0.0032133210916072,0.7131900191307068,0.7009358406066895,0.0,0.0,0.0,0.0,0.0,0.0,-0.0031756153330206,-0.0062483549118041,0.9890568852424622,0.1473681330680847,-0.000311512091171,-2.9113244421592687e-05,-0.0004866756502281,0.0064470767974853,7.063150405883789e-05,0.0426883697509765,97,251,3926,8587
5.1,1788267968469,0.591549277305603,3.4084506034851074,-0.0061797206290066,-0.0033300444483757,0.7139963507652283,0.7001143097877502,0.00485274409264,-0.00387812573301,3.311723630374072e-08,-0.0024176344741135,-0.0047590900212526,0.0469845868647098,-0.0027785617858171,-0.0063942046836018,0.9904098510742188,0.1379847675561905,-0.0040076924307434,-0.0154801492627162,0.3886549519906466,0.592980682849884,0.2249329686164856,-0.0707683563232421,299,202,12023,13604
5.2,1788267968569,1.6338027715682983,4.450704097747803,-0.0060112467035651,-0.0035242442972958,0.71955406665802,0.6944013833999634,0.0540007530452458,-0.0022893564597932,1.1698432617562844e-05,-0.0014997759135439,-0.0123817985877394,0.318654716014862,-0.002910878509283,-0.006429667584598,0.9919381737709044,0.1265264451503753,0.0067588810661283,-0.0242318223403888,0.3846864174000449,0.8797663450241089,-0.2124657034873962,0.3984298706054687,233,190,11989,15321
5.3,1788267968669,3.492957830429077,7.352112770080566,-0.0072406837716698,-0.0024709808640182,0.7536084055900574,0.6572790741920471,0.1837648944728371,0.0009269081492256,-0.000114565295797,-0.0043876161798834,0.0226411428302526,0.5909199714660645,-0.0044096522033214,-0.0062469849362969,0.9963822960853576,0.0846396014094352,0.0010001728352484,0.0009777845233538,0.6011030619645292,-0.3216022253036499,0.0667553544044494,-0.3826818466186523,132,66,12062,19095
5.4,1788267968769,3.4647886753082275,6.732394218444824,-0.0069144871085882,-0.0024149296805262,0.7718759775161743,0.635731041431427,0.1828213870658353,0.0006389298744018,-1.490711343482394e-05,0.0028216806240379,-0.008210047148168,0.6215772032737732,-0.0040430072695016,-0.0060353651642799,0.9983722567558287,0.0565705709159374,-0.003499442645881,-0.0361847959879119,0.6765634178426663,0.0293880701065063,0.1152437925338745,0.4441375732421875,111,41,13339,17364
5.5,1788267968869,2.7042253017425537,5.126760482788086,-0.0065444037318229,-0.0027189613319933,0.7801480889320374,0.6255548000335693,0.1755837513544153,0.0063277844743336,5.908178827669303e-05,-0.0019930284470319,-0.0224454905837774,0.5248211026191711,-0.0041410475969314,-0.0058544315397739,0.9993231892585754,0.0360788777470588,0.0012486219625423,-0.0048356368303123,0.3969624725334186,-0.6770492196083069,0.0681776404380798,-0.2088184356689453,45,46,9522,10649
5.6,1788267968969,0.9577465057373048,1.5492957830429075,-0.0063195941038429,-0.0023298144806176,0.7915366888046265,0.611084520816803,0.1148768897746046,0.0006390902600935,6.322760913916825e-06,0.0095438528805971,-0.0174485873430967,0.3130116760730743,-0.0036122808232903,-0.0055176801979541,0.9996910691261292,0.0239637661725282,0.0043545733761171,-0.0063114864400466,0.2013760215388185,-0.6852821707725525,-0.167398452758789,-0.0004301071166992,34,36,4889,4454
5.7,1788267969069,0.0,0.0,-0.0059915371239185,-0.0022850113455206,0.7968248128890991,0.60417640209198,0.0013405141040332,-0.0026120418898833,1.518233294303315e-08,-0.0001440151972929,-0.0024914839304983,0.0081834131851792,-0.0034131472930312,-0.0053692553192377,0.999775230884552,0.0202221628278493,0.0003717859702868,-0.0055690470185792,-0.0203240464193345,-0.0291247963905334,0.0848900079727172,-0.0684118270874023,3,0,0,0
5.8,1788267969169,0.0,0.0,-0.0059214262291789,-0.0023428024724125,0.7964633107185364,0.6046532988548279,0.0002508519661485,0.0002602778369876,-9.730009074238417e-08,-1.194755050448748e-08,0.0,0.0,-0.0034580184146761,-0.0053589716553688,0.9997721910476683,0.0203719045966863,0.0008957053078081,0.0032038230120357,0.0114221099171993,0.0467082858085632,0.0212923288345336,0.0106182098388671,3,0,0,0
5.9,1788267969269,0.0,0.0,-0.0059214262291789,-0.0023428024724125,0.7964633107185364,0.6046532988548279,0.0007747670538181,0.0012085249202424,3.946049528514883e-07,0.0,0.0,0.0,-0.0034376280382275,-0.0053580747917294,0.9997789859771729,0.0200340691953897,0.0007744282318189,-0.0002605157909207,0.0025800708232745,-0.0114058852195739,0.0047521591186523,0.0568580627441406,5,0,0,0
6.0,1788267969369,0.0,0.0,-0.0059214262291789,-0.0023428024724125,0.7964633107185364,0.6046532988548279,0.0,0.0,0.0,0.0,0.0,0.0,-0.0034668678417801,-0.0053697321563959,0.9997783899307252,0.0200563259422779,0.0006019110790881,0.0020470824101274,0.0017078439154684,-0.0306497812271118,-0.0543386340141296,0.0653076171875,0,0,0,0
6.1,1788267969469,0.0,0.0,-0.0059214262291789,-0.0023428024724125,0.7964633107185364,0.6046532988548279,0.0,0.0,0.0,0.0,0.0,0.0,-0.0034239552915096,-0.0053643183782696,0.9997788667678832,0.0200467593967914,-0.0006845647611954,-0.0012309998668929,-0.0002952810387765,0.0351690649986267,-0.0075263977050781,0.0318994522094726,3,0,0,0
6.2,1788267969569,0.0,0.0,-0.0059214262291789,-0.0023428024724125,0.7964633107185364,0.6046532988548279,0.0,0.0,0.0,0.0,0.0,0.0,-0.0034172479063272,-0.0053569618612527,0.9997789859771729,0.0200383607298135,-0.0009815822176652,-0.0036160123565239,-0.0006466506650035,-0.0060654878616333,0.0123259425163269,-0.0023298263549804,2,0,0,0
6.3,1788267969669,0.0,0.0,-0.0059214262291789,-0.0023428024724125,0.7964633107185364,0.6046532988548279,0.0,0.0,0.0,0.0,0.0,0.0,-0.0034409277141094,-0.0053581753745675,0.9997791051864624,0.0200313590466976,0.00057039080598,0.0021100062401217,0.0017890990885299,-0.0076209902763366,0.0084996819496154,0.0353517532348632,2,0,0,0
6.4,1788267969769,0.0,0.0,-0.0059214262291789,-0.0023428024724125,0.7964633107185364,0.6046532988548279,0.0,0.0,0.0,0.0,0.0,0.0,-0.0034143142402172,-0.0053682941943407,0.9997786283493042,0.0200536902993917,-0.0002652559401009,0.0001214077079117,-0.0013210878495823,-0.0066108107566833,-0.0210726261138916,-0.004469871520996,1,0,548,887
6.5,1788267969869,1.4647886753082275,1.6056338548660278,-0.0057016797363758,-0.002544732298702,0.7973056435585022,0.6035435199737549,0.0055545908594166,-0.0026695664226059,-1.023781509148242e-07,-0.0009321627439931,-0.0087241306900978,0.0398396886885166,-0.002937558107078,-0.0053722094744443,0.9998123049736024,0.0183832962065935,0.0003141025903916,-0.0276951382889657,0.0973345696086844,2.2883059978485107,0.2290312051773071,-0.1650104522705078,256,301,9141,13038
6.6,1788267969969,2.9577465057373047,4.901408672332764,-0.0056481692008674,-0.0025262548588216,0.8025678396224976,0.5965287685394287,0.1187011748173001,-0.0019860561260392,2.2739046852775085e-05,0.0069325668737292,-0.0182643756270408,0.2558854818344116,-0.0029778350144624,-0.0052834833040833,0.9999423623085022,0.0088572120293974,0.014279383382239,-0.0253260555898837,0.27761228259168,0.611137330532074,0.2541695237159729,-0.2304716110229492,170,161,13378,16582
6.7,1788267970069,4.366197109222412,6.647887229919434,-0.0053340261802077,-0.0026138871908187,0.8073709607124329,0.5900142192840576,0.1385841178867048,0.0023712467814903,4.49543698631153e-05,0.0036344507243484,-0.0136870583519339,0.318290501832962,0.0029872385784983,0.0052564274519681,-0.9999603629112244,0.0065331384539604,0.0006226408145896,0.0191297665452948,0.3701310346714897,0.1264840960502624,0.0020229816436767,-0.5889787673950195,67,73,12782,17738
6.8,1788267970169,4.0,6.450704097747803,-0.0053366906940937,-0.0018369387835264,0.8244993686676025,0.5658347606658936,0.1820483816042751,0.0001664226987873,-3.5488609834061216e-05,0.0168358013033866,0.0162118356674909,0.4121588468551636,0.0029854988679289,0.0047399448230862,-0.99949711561203,0.0312111973762512,-0.0038093630493682,-0.0193401288587401,0.4464835800552362,-0.0063666701316833,0.1416729092597961,0.3721370697021484,99,53,12692,16712
6.9,1788267970269,4.11267614364624,5.943662166595459,-0.0049070608802139,-0.0019220090471208,0.8352845907211304,0.5497925877571106,0.1687211469068269,0.0010598896037948,1.6581658760504238e-05,0.0028289274778217,0.0146671049296855,0.3437572717666626,0.0028378451243042,0.0044407211244106,-0.9988951683044434,0.046698722988367,-0.0200071137813069,0.0398594592537118,0.3317886125548906,0.221979022026062,0.4717825055122375,-0.2654180526733398,145,55,14422,15827
7.0,1788267970369,3.88732385635376,6.2816901206970215,-0.0046401647850871,-0.0024196761660277,0.8406306505203247,0.5415835380554199,0.1732833297844386,-0.0027488036702293,7.923770412903721e-05,-0.0034736122470349,-0.0264601316303014,0.2169702500104904,0.0021348977461457,0.0046845218166708,-0.99839049577713,0.0564790368080139,-0.0038455629394968,-0.0415541532314042,0.207077238497175,-0.1393851041793823,0.2573230266571045,-0.2241582870483398,46,83,12346,17130
7.1,1788267970469,3.8309860229492183,6.309859275817871,-0.0046995943412184,-0.0022431351244449,0.8441784977912903,0.5360369086265564,0.1637021022217711,0.0030747663810333,-7.473510907046186e-05,0.0038825408555567,0.0045338557101786,0.2580764293670654,0.0027069924399256,0.0048271939158439,-0.9971680641174316,0.0750011801719665,-0.0003716250895501,0.0180135602138922,0.3657600029535627,0.1029469966888427,-0.0939595103263855,1.087787628173828,90,102,12317,17458
7.2,1788267970569,3.94366192817688,6.309859275817871,-0.004919858649373,-0.0024224375374615,0.8533034324645996,0.521385908126831,0.1786244678996574,0.0003835196700705,-0.0001341427754425,-0.0023105593863874,0.0127239897847175,0.3597671389579773,0.0024320660158991,0.0048376647755503,-0.9959143996238708,0.0901403725147247,0.0131548805321726,-0.0154424295353649,0.3517217213475357,-0.1018376350402832,-0.0341426730155944,0.7241678237915039,52,73,12794,16212
7.3,1788267970669,3.9718310832977295,6.2253522872924805,-0.0044755870476365,-0.0026830974966287,0.8671892285346985,0.4979515075683594,0.1657751523634466,0.0128103064857809,7.602771588179096e-05,0.0014935585204511,-0.0272790100425481,0.3407236039638519,0.00224553886801,0.0048082377761602,-0.9943608045578004,0.1059171557426452,-0.0001737898604931,-0.0149938586720876,0.3576158907524517,0.1875870823860168,0.2091436982154846,-0.3051891326904297,98,94,11897,17480
7.4,1788267970769,4.169013977050781,5.88732385635376,-0.0042688688263297,-0.0025874371640384,0.8746592402458191,0.4847125113010406,0.1838259447038304,-4.247373575440689e-05,8.948413819173046e-05,-0.005937720183283,-0.028031550347805,0.3288738429546356,0.0019184555858373,0.0045840768143534,-0.9920833706855774,0.1254825890064239,-0.0022515065591842,-0.0025166846168051,0.2998729944229363,-0.2397866249084472,-0.3060492277145386,0.0137319564819335,64,53,13690,16275
7.5,1788267970869,4.2253522872924805,5.85915470123291,-0.0040713744238018,-0.0025458792224526,0.8783512711524963,0.4779915809631347,0.1718362097210468,0.0003508287392653,1.920339568220335e-05,0.0044310446828603,-0.0072875968180596,0.3008346557617187,0.0016577700152993,0.0045131165534257,-0.9904282689094543,0.1379447281360626,-0.0021881634151224,0.0106177233872131,0.286316998050547,0.1096865534782409,-0.4472847580909729,-0.2618007659912109,114,66,13648,16252
7.6,1788267970969,4.394366264343262,5.85915470123291,-0.0035813353024423,-0.0024860517587512,0.8844910860061646,0.4665365517139435,0.1819578195684356,-0.0023569726305238,3.2442157669906826e-05,0.0145177049562335,-0.0115201342850923,0.2514018416404724,0.0015955474227666,0.0038968818262219,-0.988760769367218,0.1494472324848175,0.0095320080509003,-0.0283552923038741,0.2647465122328915,0.1870871782302856,-0.0858353376388549,-0.0270862579345703,134,73,13566,16340
7.7,1788267971069,4.2816901206970215,5.88732385635376,-0.0030434713698923,-0.0021823504939675,0.8940652012825012,0.4479210674762726,0.176326065558075,-0.0011435707775234,4.3711543504382535e-06,0.002728683874011,-0.0155040957033634,0.2678191661834717,0.0012722043320536,0.0036174058914184,-0.9862868785858154,0.1649954169988632,-0.0081814577005686,-0.0229359640116689,0.2543581510047262,-0.0596287846565246,-0.2219686508178711,-0.0295000076293945,75,64,13850,16269
7.8,1788267971169,4.394366264343262,5.7183098793029785,-0.003292731475085,-0.0020408313721418,0.8993271589279175,0.4372592568397522,0.1709167303845235,0.0085508143402677,-0.0001574693863065,-0.00310626369901,0.0395758636295795,0.2562816441059112,0.0014476208016276,0.0036021126434206,-0.9845169186592102,0.1752465665340423,0.001178222090703,0.003497878841586,0.2296859117626034,0.2048208713531494,-0.0906897187232971,0.2747459411621094,143,101,13802,17177
7.9,1788267971269,4.2816901206970215,5.88732385635376,-0.0030230111442506,-0.0021059124264866,0.9023816585540771,0.4309220016002655,0.1709149184455476,0.0016554205778621,6.407629174959912e-06,0.0017216934356838,-0.011305421590805,0.2704738676548004,0.0010141124948859,0.0034236889332532,-0.9820979237556458,0.1883371174335479,0.0042306220023691,-0.0144992868333217,0.2553157349066356,-0.0114290118217468,0.0397907495498657,0.536646842956543,133,65,14560,16466
8.0,1788267971369,4.084506988525391,5.943662166595459,-0.0025666155852377,-0.0021678772754967,0.9079046249389648,0.4191632568836212,0.1775238786923661,0.0023243286765514,2.6984666137769292e-05,0.0023533685598522,-0.0124022345989942,0.2734878659248352,0.0011657774448394,0.0038483822718262,-0.9796186089515686,0.2008264362812042,-0.0184865260409966,0.011083980967858,0.2563148144826748,0.0974392294883728,0.1212111115455627,0.9545621871948242,171,74,16573,15570
8.1,1788267971469,4.507042407989502,5.605633735656738,-0.0037053991109132,-0.0023026731796562,0.9155631065368652,0.4021507501602173,0.1798008407230208,0.000734110749695,-1.3863580593072054e-05,-0.0041294023394584,0.0042295488528907,0.2063045054674148,0.001999975182116,0.0041828360408544,-0.976811945438385,0.2140491306781768,-0.0100627325657767,0.0320676136203366,0.1545568965035803,-0.1253759264945984,0.1675624847412109,-0.1816301345825195,172,46,16543,15053
8.2,1788267971569,4.732394218444824,5.492957592010498,-0.0037635746411979,-0.0028573404997587,0.9175156354904176,0.3976716995239258,0.1695923935777202,0.003192260961283,-6.054584745610902e-05,-0.0095730694010853,0.0012829418992623,0.0801052525639534,0.0011505773290991,0.0044843442738056,-0.9758516550064088,0.2183855324983596,-0.0086527302169578,-0.0386393462761542,0.0720823239382893,-0.0508606433868408,-0.070120632648468,-0.0732831954956054,78,65,15059,15470
8.3,1788267971669,3.859154939651489,6.0,-0.0041886419057846,-0.0029128682799637,0.9184659719467164,0.3954671323299408,0.1745735037010468,-4.880054161953653e-05,-4.7423508897266425e-05,-0.0090354541316628,0.014342239126563,0.0962033867835998,0.0015628635883331,0.0046513797715306,-0.974146604537964,0.225863516330719,0.0115674724889215,-0.002195140489427,0.2692133656452842,0.0619975328445434,0.3236063718795776,0.0217676162719726,125,86,15124,16546
8.4,1788267971769,4.02816915512085,6.0,-0.0044477400369942,-0.0030257692560553,0.9230344891548156,0.3846796452999115,0.178300678537132,0.0039356398250816,-5.0514018275618775e-05,-0.0154062937945127,0.0111829228699207,0.2447214275598526,0.0019565653055906,0.0049384851008653,-0.971164047718048,0.2383533865213394,0.0109017425579955,0.0046884227376445,0.3013945639298367,0.0667246580123901,0.3095870018005371,-0.6231279373168945,93,83,14341,16447
8.5,1788267971869,4.309859275817871,6.0,-0.0051530245691537,-0.0034528295509517,0.930934727191925,0.3651327192783355,0.1755199817887822,0.0033026757391823,-3.0253062981656545e-05,-0.0168046038597822,-0.0060124518349766,0.2518374621868133,0.0022316267713904,0.0058682542294263,-0.9673187136650084,0.2534860670566559,-0.0092218284353117,-0.0109984860922617,0.2312442126143495,-0.2382130026817321,-0.070546805858612,-0.3276205062866211,50,70,12835,16277
8.6,1788267971969,4.507042407989502,5.549295902252197,-0.0055194138549268,-0.0036679850891232,0.9352010488510132,0.354055255651474,0.1799784507506783,0.0041350447692576,4.748039840859203e-05,-0.0119506511837244,-0.0172220952808856,0.2521479427814483,0.0022593950852751,0.0061343619599938,-0.9642940759658812,0.2647530436515808,0.0049592424321184,-0.0116239822656949,0.2536129717154832,0.1623408198356628,-0.3395468592643738,0.1847791671752929,135,66,14534,15429
8.7,1788267972069,4.450704097747803,5.521126747131348,-0.0053865769878029,-0.0038550470490008,0.9369865655899048,0.3493026196956634,0.1825488189236408,-0.0014431297512704,7.084108643338125e-05,-0.005901935044676,-0.0087073417380452,0.2029543071985244,0.0023714387789368,0.0065026450902223,-0.9620599150657654,0.2727505564689636,-0.0075040645926414,0.0163680348337797,0.1805198155016744,-0.0361444950103759,-0.0628333091735839,-0.0371341705322265,87,63,14535,15418
8.8,1788267972169,4.704225540161133,5.577464580535889,-0.0050207432359457,-0.0037938845343887,0.9399210810661316,0.3413339257240295,0.1780561585135601,0.0025099444651642,0.0001018782835963,0.0112322950735688,-0.0217734258621931,0.1705137491226196,0.0014440240338444,0.006082366220653,-0.9599645733833312,0.2800517678260803,-0.010437258048266,-0.0241051572826188,0.1370068266954077,-0.05856853723526,-0.052125334739685,0.2501583099365234,86,58,13928,15166
8.9,1788267972269,4.704225540161133,5.492957592010498,-0.0051746619865298,-0.0037314319051802,0.943323850631714,0.3318122625350952,0.1718248866273064,0.0038054023725326,-6.849895339492949e-05,-0.0007215883815661,0.0207199081778526,0.1160894781351089,0.0019253753125667,0.0060496311634778,-0.9578742384910583,0.2871178090572357,-0.0011533687434435,0.0013856226662782,0.1204112141103146,0.0122372508049011,0.1497302651405334,1.1428985595703125,79,61,13585,15453
9.0,1788267972369,4.563380241394043,5.605633735656738,-0.0046745538711547,-0.0037854546681046,0.9456080794334412,0.3252524733543396,0.1623584057992614,0.0062541916260448,3.2941050327767875e-05,0.00859619025141,-0.0058607216924428,0.1636842787265777,0.0016335984691977,0.0057698972523212,-0.95584636926651,0.2938058078289032,0.0133162632357961,0.0058559096894578,0.162466182309291,-0.1147549152374267,0.0942823886871337,0.2831668853759765,103,80,14305,15284
9.1,1788267972469,4.478873252868652,5.436619758605957,-0.0039923787117004,-0.0035853567533195,0.9470290541648864,0.3211029469966888,0.1725830006018369,0.0037435363600865,8.173154402648317e-05,0.0158804468810558,-0.024089653044939,0.1753464639186859,0.0008561508730053,0.0055112382397055,-0.9538451433181764,0.3002470731735229,-0.008652694586611,-0.0190669682515442,0.1088974174533678,0.2444661259651184,-0.2697909474372864,0.1084957122802734,91,116,14676,15980
9.2,1788267972569,4.957746505737305,4.985915660858154,-0.0040925396606326,-0.0037851422093808,0.949325144290924,0.3142461478710174,0.1594721328487724,0.0077927874756464,-5.524684504580229e-05,0.0035855632741004,0.0010752953821793,0.153006911277771,0.0005329716950654,0.0049081407487392,-0.9509729146957396,0.3092349767684936,0.0191663425420838,-0.023284032747757,0.147724314455612,0.3280544281005859,-0.1708861589431762,-0.01605224609375,145,57,16597,13976
9.3,1788267972669,4.760563373565674,5.211267471313477,-0.0033594716805964,-0.0031877278815954,0.9516055583953856,0.3072871565818786,0.16809527967352,-0.0004800686073382,6.244100268612569e-05,0.0168367363512516,-0.007615101058036,0.055949579924345,0.0009529525414109,0.0046975463628768,-0.9503068923950196,0.3112777769565582,0.0073803732159371,0.0154391523778515,0.0450907954722158,0.1650298237800598,0.0570784211158752,-0.1627120971679687,130,59,16344,14371
9.4,1788267972769,4.788732528686523,5.098591327667236,-0.0031381333246827,-0.0026834919117391,0.9523009657859802,0.3051324486732483,0.1711758414228898,0.0027156961889091,1.2015873785636968e-05,0.0072341947816312,-0.0079991901293396,0.0414549633860588,0.0007992684841156,0.0037040030583739,-0.949266791343689,0.314449280500412,0.0139120852454678,-0.0143577059990166,0.060808429415942,0.2573782801628113,-0.0552376508712768,-0.2437801361083984,124,56,16606,14839
9.5,1788267972869,4.957746505737305,5.211267471313477,-0.0028870501555502,-0.0024957377463579,0.952702522277832,0.3038804829120636,0.1698489348848284,-0.0001995325295978,3.838454690994685e-05,0.0101003739982843,-0.0074559561908245,0.052577294409275,0.0007423358038067,0.0034727742895483,-0.9489195942878724,0.3154981434345245,0.0055597270036664,-0.018836934306616,0.0286350483824433,0.0058621764183044,0.0689625144004821,-0.3377847671508789,132,65,16438,14508
9.6,1788267972969,4.760563373565674,5.380281925201416,-0.0026430594734847,-0.0023718054872006,0.9529774785041808,0.3030203878879547,0.1741319224103407,0.0013679719953962,5.170586949271282e-05,0.0025006392970681,-0.0085212597623467,0.0146449981257319,0.0005697691813111,0.0034239320084452,-0.9488592147827148,0.3156806230545044,-0.0033485932401581,-0.0117826429972578,-0.0173120747412329,-0.3395583033561706,0.062250792980194,0.3785924911499023,45,128,13837,16241
9.7,1788267973069,4.591549396514893,5.633802890777588,-0.001962311565876,-0.0022718559484928,0.955396831035614,0.295309841632843,0.1696056198227428,0.005349041676945,1.7554054563298182e-06,0.0062460503540933,-0.0041712084785103,0.1691897511482238,0.0003966018557548,0.0030144192278385,-0.946699559688568,0.3221037685871124,0.0059014459258574,-0.0010332780020391,0.1822687609264321,0.3697320222854614,-0.3200524449348449,0.4052677154541015,92,68,14506,15500
9.8,1788267973169,4.676056385040283,5.577464580535889,-0.0015701646916568,-0.0022312065120786,0.95743727684021,0.2886287271976471,0.1729832074081672,0.0012687444300886,5.392418556853528e-05,-0.0021374733187258,-0.0114088738337159,0.1577374786138534,8.633360266685486e-07,0.0027590095996856,-0.9436810612678528,0.3308450281620025,-0.0069187548723259,0.0092813699373029,0.132124374307965,-0.211702287197113,-0.3105630874633789,1.0090265274047852,86,81,13750,15432
9.9,1788267973269,4.704225540161133,5.6619720458984375,-0.0013142356183379,-0.0024391855113208,0.9585104584693908,0.285043716430664,0.1764568774259027,-0.0013456901165126,2.9902647902146334e-05,-0.0052447407506406,-0.0128472074866294,0.1527072638273239,-0.0003256229683756,0.0023540332913398,-0.941308319568634,0.3375397026538849,0.0248926445439822,0.0077672020765422,0.1691343804374228,-0.000729501247406,0.1504333019256591,0.072397232055664,79,69,13582,15304
10.0,1788267973369,4.816901206970215,5.239436626434326,-0.0006289447192102,-0.0024608452804386,0.9607364535331726,0.2774508595466614,0.1670338819679122,0.003641365150389,7.48796757121825e-05,-0.0060928435996174,-0.0218886584043502,0.1533581465482711,-0.001599789597094,0.0021382784470915,-0.9390293955802916,0.3438265025615692,-0.00426508371269,-0.0350058545796226,0.1492835783692447,0.119888961315155,0.3184516429901123,-0.1842041015625,90,78,15316,14331
10.1,1788267973469,4.478873252868652,5.380281925201416,0.0003378493129275,-0.0029150515329092,0.963309645652771,0.2683764398097992,0.1667685447081681,0.0010962113191501,4.5178785004289545e-05,0.0016507803229615,-0.0107832746580243,0.1256080269813537,-0.0020087137818336,0.0021682502701878,-0.9367281198501588,0.3500453233718872,-0.0034827576652065,-0.006006772873192,0.1773570046405692,0.2297928929328918,0.3411200642585754,0.4004106521606445,114,124,14264,16213
10.2,1788267973569,5.267605781555176,4.873239517211914,0.0009672690648585,-0.0032443318050354,0.964682638645172,0.2633929848670959,0.176715373806466,0.0046927180425551,3.462632477453308e-05,0.0036829714663326,-0.0193256549537181,0.0755419135093689,-0.0030291648581624,0.0018659429624676,-0.9348448514938354,0.3550388216972351,0.0028996209189254,-0.0538732207620139,0.082956201500675,0.2708659172058105,-0.0481191873550415,0.3100738525390625,99,37,16463,13274
10.3,1788267973669,5.098591327667236,4.8450703620910645,0.0003634966560639,-0.0035143857821822,0.964688003063202,0.2633714079856872,0.1790543181174366,-0.0024673160226404,-2.86659117303044e-05,-0.0167760998010635,0.0204450152814388,0.0009772710036486,-0.0024761324748396,0.0028149671852588,-0.9357143640518188,0.3527388274669647,-0.0023382874186178,0.0019294601000292,-0.0701413938013267,-0.1044368743896484,-0.1014734506607055,0.362985610961914,108,59,16875,13503
10.4,1788267973769,4.985915660858154,4.760563373565674,0.0006427368498407,-0.0036727299448102,0.9636127948760986,0.2672760188579559,0.166147647019513,-0.0007095916807341,5.182770245056026e-05,0.0064849355258047,-0.0052691926248371,-0.0825407058000564,-0.0032271416857838,0.0024759164080023,-0.9372676014900208,0.3485871255397796,-0.0008572411714801,-0.024731233345746,-0.0490436264233856,-0.0062748789787292,-0.3183101415634155,0.1215019226074218,133,90,17778,14123
10.5,1788267973869,4.957746505737305,5.042253494262695,0.0010127630084753,-0.004068000242114,0.962641417980194,0.2707469463348388,0.1746400441522831,-0.002459715194936,9.692826986530045e-07,-0.0026161605492234,-0.0004442180797923,-0.0179808791726827,-0.00313585344702,0.0027985656633973,-0.9379193186759948,0.3468281924724579,-0.0044123827394195,0.0148194741385427,-0.0360582850937749,-0.0809812545776367,0.2982656955718994,0.028390884399414,121,135,17000,14560
10.6,1788267973969,5.070422649383545,5.154929637908936,0.0013707638718187,-0.0039159413427114,0.96282958984375,0.2700776159763336,0.1849437069144917,0.002624662252889,2.846327532928667e-05,0.0128708537667989,-0.0160913337022066,0.0364791303873062,-0.0033883200958371,0.0021188845857977,-0.9372683763504028,0.348585844039917,0.0108744047701318,0.0018286915882906,0.0324347069582521,-0.1873098611831665,0.0786596536636352,0.362187385559082,169,49,16905,14002
10.7,1788267974069,4.647887229919434,5.211267471313477,0.0014654116239398,-0.0037549142725765,0.9629744291305542,0.2695627808570862,0.1685114527827092,-0.0027729589011106,9.70258627340742e-06,0.007276018615812,-0.0019785538315773,0.021371042355895,-0.0029418440535664,0.002477197907865,-0.936911940574646,0.34954434633255,0.0029316175997506,0.0359797439623738,0.0643529223864562,0.0285806059837341,-0.0793307423591613,-0.9202241897583008,111,92,17101,15164
10.8,1788267974169,4.901408672332764,5.267605781555176,0.0010323617607355,-0.0035864498931914,0.963654398918152,0.2671258747577667,0.1785889311233087,-0.0007952387594754,-3.91846659554214e-05,0.0067483843304216,0.0059284255839884,0.0760086253285408,-0.0029911063611507,0.0021301321685314,-0.9359115958213806,0.352215826511383,0.0063489744624464,0.0030429962460866,0.0511912810578217,0.0712726712226867,-0.0762348175048828,-0.1637287139892578,125,88,16467,14662
10.9,1788267974269,5.014084339141846,4.929577350616455,0.0014782956568524,-0.0036330358125269,0.9645773768424988,0.2637709677219391,0.1756771648840251,-0.0012141116380562,7.500699912624066e-05,-0.0050820466130971,-0.0019232436316087,0.0308345705270767,-0.0032752631232142,0.0020646080374717,-0.9351734519004822,0.3541690111160278,0.0002021290856371,0.0243819371908206,0.013187704805141,-0.0342377424240112,-0.0908155441284179,-0.2667837142944336,145,85,17042,14484
11.0,1788267974369,4.901408672332764,5.323943614959717,0.0013150407467037,-0.0031253858469426,0.964999496936798,0.2622294425964355,0.1859553149002314,-0.0008250753071172,1.124136341599859e-05,0.0154727371409535,-0.0100809000432491,0.0583065524697303,-0.0029753521084785,0.0017265016213059,-0.9343990087509156,0.35621178150177,-0.0032366878222725,-0.0111527166709097,0.0559614031508568,-0.1523067355155944,0.0565221309661865,0.4013347625732422,124,54,16028,14454
11.1,1788267974469,5.070422649383545,5.211267471313477,0.0013311923248693,-0.0029498091898858,0.9652550220489502,0.2612897753715515,0.1832460176679771,0.0002898790653656,-2.1767348079219623e-06,0.0070278197526931,0.0011141389841213,0.0389373041689395,-0.0025141881778836,0.0018650516867637,-0.9343842267990112,0.3562532663345337,0.0032402638529951,0.0101177220163035,-0.0371284581964625,-0.1641842126846313,-0.2020000219345092,-0.1345605850219726,62,81,15075,14630
11.2,1788267974569,4.957746505737305,5.070422649383545,0.0007426176453009,-0.0029516539070755,0.9653385281562804,0.260983258485794,0.1671758976894108,-0.0016405523228406,-7.186902037422005e-07,-0.0062056095339357,0.0227069780230522,0.0127954445779323,-0.0018319245427846,0.0021842420101165,-0.9337379932403564,0.3579458594322204,-0.0061396333866133,0.0074980659153705,0.0616083157259339,0.0342955589294433,-0.0875496864318847,0.7903404235839844,93,66,15744,14008
11.3,1788267974669,4.591549396514893,5.77464771270752,-0.0002172278473153,-0.002703707665205,0.9663116931915284,0.2573601603507995,0.1826214623465361,0.0012065278317398,-2.3264025607983625e-05,-0.006015561055392,0.0122228451073169,0.0725233405828476,-0.0013803783804178,0.002326519228518,-0.9327347874641418,0.3605530858039856,0.0070905993727232,0.0097973771806933,0.1068819325732277,-0.2369031310081482,0.047001302242279,0.1529817581176757,55,76,13385,15083
11.4,1788267974769,4.563380241394043,5.577464580535889,-0.0011271570110693,-0.002364361193031,0.9682362675666808,0.2500235140323639,0.1755164936686264,-0.0032233995890483,-3.620436277008087e-05,0.0033961813896894,0.0135679263621568,0.1865729689598083,-0.0004335306584835,0.0025697471573948,-0.9299523234367372,0.3676708340644836,0.0057268203958926,0.0089126939150091,0.1857163380177675,-0.0520311594009399,0.2317255735397339,0.1175575256347656,62,67,13556,15629
11.5,1788267974869,4.309859275817871,5.549295902252197,-0.0011198900174349,-0.0021782941184937,0.969399094581604,0.2454776912927627,0.1746039024980083,0.001118549232585,6.068266075499019e-06,0.0073996903374791,0.0011299935868009,0.1933304965496063,0.0003418941050767,0.0032663075253367,-0.9263458847999572,0.3766598105430603,-0.0013163994396426,0.0433911704285375,0.1915227965566399,0.0879561305046081,0.2708029747009277,0.1275577545166015,54,91,14596,15920
11.6,1788267974969,4.507042407989502,5.549295902252197,-0.0020615775138139,-0.0025253342464566,0.9711682796478271,0.2383726835250854,0.180409023486542,-0.0014019794878023,-7.561537243897819e-05,-0.0028938404284417,0.0095750885084271,0.1594615578651428,0.0012249089777469,0.0039486140012741,-0.923854649066925,0.3827210366725921,0.0001492204177279,0.038979768558502,0.1511691525355046,-0.0257657170295715,0.1952717900276184,-0.0928249359130859,69,80,13766,15732
11.7,1788267975069,4.563380241394043,5.492957592010498,-0.0047908755950629,-0.0025483013596385,0.9739261269569396,0.2268003821372985,0.1808686882947377,0.0018928829765062,-8.396976793475452e-05,-0.0083650993183255,0.0207890197634696,0.1521105170249939,0.0024562394246459,0.004892224445939,-0.9212199449539183,0.389003574848175,-0.0092896119416835,0.0376679300631465,0.1431546209645884,-0.0420554876327514,-0.1860965490341186,1.0216197967529297,45,81,13749,15896
11.8,1788267975169,4.535211086273193,5.605633735656738,-0.0055562993511557,-0.0026987423188984,0.9755190014839172,0.219828575849533,0.17406788396713,0.0033710297839949,3.0201583831313892e-05,-0.0049615642055869,0.0153776099905371,0.1532540470361709,0.0029843868687748,0.0054896837100386,-0.9181225895881652,0.3962470889091491,-0.0035908440787274,0.0427768063975239,0.1521332292879179,-0.064393937587738,0.2082645297050476,-0.3030414581298828,62,94,13720,15431
11.9,1788267975269,4.563380241394043,5.549295902252197,-0.006804313044995,-0.0026857210323214,0.9763379096984864,0.2161268144845962,0.1722322273897808,0.003288747933624,-0.000128873225633,-0.0112308990210294,0.0483635663986206,0.1521998941898346,0.0042590536177158,0.0064375568181276,-0.9153645634651184,0.4025520384311676,-0.002533909333685,0.0210614535007139,0.1517860804158878,0.015748381614685,-0.0291275382041931,-0.1334362030029297,66,70,13765,15539
12.0,1788267975369,4.507042407989502,5.521126747131348,-0.0075619686394929,-0.0025527700781822,0.9779593348503112,0.2086431086063385,0.1742985922899281,0.0003205290757806,1.1754778887495206e-05,0.0014976817183196,0.0127770453691482,0.1519347578287124,0.0045453216880559,0.0065721804276108,-0.9115779995918274,0.4110496938228607,-0.0076291990543782,0.0038813445239181,0.1588873250596336,-0.2346634268760681,-0.0423065423965454,0.560150146484375,44,78,13713,15509
12.1,1788267975469,4.535211086273193,5.577464580535889,-0.0081837801262736,-0.0023932219482958,0.9805611968040466,0.1960281431674957,0.1748017593520045,0.0028212096524181,1.0124765585285444e-05,0.0035426658578217,0.0012049410725012,0.1677497029304504,0.0052329581230878,0.0067587839439511,-0.9084903597831726,0.4178184270858764,0.0032675987025049,0.0035994888384833,0.1584276354694305,-0.0289273858070373,0.1426852941513061,0.0939998626708984,51,80,13778,15321
12.2,1788267975569,4.957746505737305,4.957746505737305,-0.007220962550491,-0.002333944896236,0.9819968938827516,0.188744843006134,0.1728119950280997,0.000324696393685,5.74693026287994e-05,0.0007291377405636,-0.0345628820359706,0.1593223661184311,0.0041573056951165,0.0061011081561446,-0.9045463800430298,0.4263114929199219,-0.0105459333320907,-0.0267484219515316,0.1366963418740003,0.327297568321228,0.019928753376007,-0.3935079574584961,90,58,15837,13950
12.3,1788267975669,5.239436626434326,5.014084339141846,-0.0063190544024109,-0.0024764293339103,0.9827836155891418,0.1846355944871902,0.1836106689218193,-0.0021705347929766,9.690497715732384e-05,0.0069422908127307,-0.0202222447842359,0.0898723900318145,0.003659444861114,0.0055943671613931,-0.9032221436500548,0.4291212856769562,0.0129227133540187,0.0026421908866173,0.0508835952005106,-0.2324875593185424,0.0560777187347412,0.3667201995849609,126,33,16106,12626
12.4,1788267975769,5.295774459838867,4.816901206970215,-0.0059285638853907,-0.0024094865657389,0.982718288898468,0.1849968284368515,0.1778880771384169,-0.0005452679810985,1.7775309732194138e-05,0.0057002753019332,-0.0150680486112833,-0.0149673400446772,0.0031621726229786,0.005157514475286,-0.904708981513977,0.4259872436523437,0.0051842447928321,0.0090779864026296,-0.0869662733868526,0.0447560548782348,0.1482222080230713,-0.6710243225097656,77,63,15617,13426
12.5,1788267975869,5.042253494262695,5.098591327667236,-0.0055468641221523,-0.0025415318086743,0.9814674258232116,0.1915322691202163,0.1752669671323617,-0.0008040852049105,4.79510256947881e-05,0.0029248355422168,0.0074513885192573,-0.0639873445034027,0.002925687469542,0.0054039284586906,-0.9065174460411072,0.4221236705780029,-0.0011480200046871,0.0212711656375678,-0.0360647743669273,0.1891987919807434,0.1574050188064575,0.001652717590332,81,63,15014,13837
12.6,1788267975969,5.042253494262695,5.042253494262695,-0.0042042774148285,-0.0028589074499905,0.9811794757843018,0.1930311322212219,0.176948325896311,-0.0001009844032204,5.070223382745623e-05,0.0052223140373826,-0.0305409673601388,-0.024611247703433,0.001553320325911,0.0046976367011666,-0.9070760011672974,0.4209376573562622,0.0039353663542125,-0.0362990058194041,-0.0256996336510971,-0.2879877090454101,-0.114466905593872,-0.0624446868896484,63,53,14934,14117
12.7,1788267976069,4.957746505737305,4.929577350616455,-0.0038491003215312,-0.0030549790244549,0.9807923436164856,0.1949929594993591,0.1651389185485884,0.0008744026493793,5.5235559006326114e-05,0.006425152067095,-0.0077869622036814,-0.0442310385406017,0.0014511449262499,0.0047747259959578,-0.9079281687736512,0.4190960526466369,0.0087207427818186,0.0281236997592078,-0.020770722267982,0.1546828746795654,0.342704176902771,-0.1194524765014648,41,129,15183,14645
12.8,1788267976169,5.267605781555176,4.957746505737305,-0.0036440801341086,-0.0030609215609729,0.9808148741722108,0.194883331656456,0.171269362284593,0.003046859711428,1.690882072279316e-05,0.0013497348409146,-0.008093861863017,0.0044431439600884,0.0004312042146921,0.0042897295206785,-0.9076353907585144,0.4197374582290649,-0.0035137562354413,-0.0492302775654413,-0.0002605498416408,-0.0779541730880737,0.0599557757377624,-0.052774429321289,61,55,15032,14100
12.9,1788267976269,5.070422649383545,5.211267471313477,-0.0028906061779707,-0.0032690474763512,0.980874478816986,0.1945921927690506,0.1673092323952293,0.000462123949638,1.0893815457007569e-06,0.0,0.0,0.0,8.707400411367416e-05,0.0043418854475021,-0.9076535701751708,0.4196977019309997,0.011646915047393,-0.0048318068603671,0.0222843357212934,-0.1177098155021667,0.0595118999481201,0.5415306091308594,71,73,14904,13897
13.0,1788267976369,4.901408672332764,5.211267471313477,-0.0028847157955169,-0.0032289675436913,0.9811540842056274,0.1931788027286529,0.1828984453375712,-0.0019468807530294,-6.901087544947704e-06,-0.0008364828536286,0.0045128650963306,0.0357549078762531,0.0004393635317683,0.004308309406042,-0.9070164561271667,0.4210729897022247,0.0045842187586444,-0.0076219046833248,0.016536848448648,-0.0628011226654052,-0.0546860098838806,0.185394287109375,63,79,14616,14934
13.1,1788267976469,4.929577350616455,5.042253494262695,-0.0029088677838444,-0.0033040679991245,0.9813167452812196,0.1923488229513168,0.17278624532892,0.0025210411856195,-1.2284194485550922e-08,0.0,0.0,0.0,9.347964078187944e-05,0.0044340128079056,-0.906520128250122,0.4221392869949341,0.0050064036572795,0.0019156305129485,0.010281382125384,0.1979258060455322,-0.0793198943138122,-0.517603874206543,66,69,15656,14206
13.2,1788267976569,5.042253494262695,5.070422649383545,-0.0026939613744616,-0.0035205299500375,0.9814122915267944,0.1918597966432571,0.1775092942473974,-0.0036582728311529,5.558202018954518e-05,-0.0068861283361911,-0.0101748052984476,0.0198729634284973,0.0001034447923302,0.0042612645775079,-0.9065107107162476,0.422161191701889,0.0082329781933294,-0.0160799370095117,0.0028748324743965,-0.078753650188446,-0.0340745449066162,0.2087230682373047,76,64,15369,14049
13.3,1788267976669,5.070422649383545,4.985915660858154,-0.0021908502094447,-0.0034804679453372,0.9814715385437012,0.1915641725063324,0.1744147162680427,0.0012128514438663,9.207800699040048e-05,-0.0015574458520859,-0.0107926987111568,0.0021196452435106,-0.0004782956093549,0.0040267445147037,-0.9064269065856934,0.4223430752754211,0.002348382010647,-0.0065001256635543,0.0066314855925523,0.0385102033615112,-0.0298690199851989,0.4110670089721679,66,86,15250,14308
13.4,1788267976769,4.873239517211914,5.098591327667236,-0.0021908502094447,-0.0034804679453372,0.9814715385437012,0.1915641725063324,0.1817944962615682,0.004275522943043,-6.746241527520675e-07,0.0,0.0,0.0,-6.836839020252228e-05,0.0039791222661733,-0.9062055349349976,0.4228189587593078,0.0053720182354096,0.0273966238231246,0.0130362231130564,0.1185824275016784,0.0494249463081359,-0.6233959197998047,57,56,16035,13941
13.5,1788267976869,4.873239517211914,5.211267471313477,-0.0022696612868458,-0.0033921650610864,0.9817180037498474,0.1902975887060165,0.1691903285257655,0.0011150798837181,1.568625053887472e-05,-0.0076047386974096,0.0013450847472995,0.0360294468700885,-0.0001538973301649,0.0040919734165072,-0.9058343768119812,0.423612117767334,-0.0067008055114992,0.0085279682374169,0.0393093073027464,-0.194854199886322,-0.1852825880050659,0.7208328247070312,54,65,14599,14532
13.6,1788267976969,4.957746505737305,5.267605781555176,-0.0018904206808656,-0.0032154789660125,0.9820801615715028,0.188426673412323,0.1735930519988928,0.0012352758555287,8.08757693254042e-05,0.0097015257924795,-0.01383020542562,0.0761680901050567,-0.0005093356594443,0.0034427819773554,-0.9043670296669006,0.4267413318157196,0.0055337986665725,-0.0156255874384556,0.0684827153580251,0.3874412178993225,-0.0659592747688293,0.1197805404663086,103,89,15274,14581
13.7,1788267977069,4.901408672332764,5.267605781555176,-0.001437984406948,-0.0031412004027515,0.9827631115913392,0.1848371475934982,0.1803385612646713,0.0022450610932133,6.640928221973618e-05,-0.0078186271712183,-0.0133848926052451,0.0212695617228746,-0.0009607756510376,0.0032854527235031,-0.9031953811645508,0.4292159378528595,0.0040831372474268,-0.0139765007591239,0.0373565664240759,-0.0226907730102539,-0.1670202016830444,0.0455150604248046,53,72,14680,14411
13.8,1788267977169,4.957746505737305,5.239436626434326,-0.0008439152734354,-0.0030968186911195,0.983350396156311,0.1816910207271576,0.1792988370684952,0.0018109647429868,2.129903501478178e-05,0.004409771412611,-0.0215004459023475,0.0651558712124824,-0.0012592477723956,0.0028796466067433,-0.9019966721534728,0.4317314922809601,0.001752420046597,-0.0407178265422561,0.0537114339546071,0.0949312448501586,0.1568633317947387,-0.2007265090942382,96,73,14686,14505
13.9,1788267977269,3.549295663833618,4.253520965576172,-0.0008609410724602,-0.0030205557122826,0.9835482239723206,0.1806182563304901,0.1737210572199004,0.0046133294648034,-2.842100523662609e-05,-0.0082513177767395,0.0091976532712578,0.0040171481668949,-0.0009532263502478,0.0032492401078343,-0.9006130695343018,0.4346087872982025,7.58021816846768e-05,-0.0004265517896468,0.1515989027688083,-1.4299432039260864,0.1050735116004943,-0.098093032836914,105,19,2984,10472
14.0,1788267977369,0.0,2.816901445388794,-0.0013263664441183,-0.0032120861578732,0.9845831990242004,0.174882024526596,0.1179047829659107,-0.0040146278884631,-3.0387022443314733e-05,-0.0109728630632162,0.0162021368741989,0.2332570552825927,-0.0008397884666919,0.003231399692595,-0.8943831324577332,0.4472891986370086,0.0054566839860019,-0.0012240274237863,0.4168753834784283,-0.4455425143241882,-0.010538637638092,0.0416316986083984,0,11,0,7490
14.1,1788267977469,-2.05633807182312,1.774647831916809,-0.0010251083876937,-0.0033044763840734,0.9900530576705932,0.1406515091657638,0.0102996576644088,0.0019528210838524,5.849396701292088e-07,-0.0021734475158154,-0.0081817088648676,0.516026496887207,-0.000991528853774,0.0033639771863818,-0.8847119212150574,0.4661251306533813,0.0003317056621018,0.0015650506301847,0.6137193819320869,-0.4780565500259399,0.0914881825447082,0.0619153976440429,140,20,-9179,5516
14.2,1788267977569,-1.9154930114746092,1.6901408433914185,-0.0006340014515444,-0.0035477387718856,0.9932175874710084,0.1162148565053939,-0.0204729641144165,-0.0045598119339253,-5.408375102560732e-07,-0.0064602368511259,-0.0108918063342571,0.5018367171287537,-0.0016759531572461,0.0032393680885434,-0.8689647316932678,0.4948606193065643,-0.0041134104723652,-0.0147195021026886,0.5005166067052426,0.4314782619476318,0.2147618532180786,-0.0359392166137695,74,100,-7581,6491
14.3,1788267977669,-1.408450722694397,1.5774648189544678,-0.0008264713687822,-0.0033681744243949,0.9959245920181274,0.0901226922869682,0.0128814258626992,-0.0005774333627077,-2.0794852602012686e-06,0.0087742339819669,0.004569053184241,0.5094467997550964,-0.0013161627575755,0.0031783692538738,-0.8570077419281006,0.5152920484542847,0.0069664126078236,0.0005709618605642,0.4646725216533341,-0.2184738516807556,0.2481029629707336,-0.0880928039550781,63,59,-6609,5145
14.4,1788267977769,-1.5211267471313477,1.4929577112197876,-0.0008964358130469,-0.0033623995259404,0.996975302696228,0.0776411741971969,0.0073969371846867,-0.0011727341374633,-3.562385162640469e-07,-0.0002931085473392,0.0010912183206528,0.5008209943771362,-0.0014292439445853,0.0032557938247919,-0.8455926775932312,0.5338168144226074,-0.0037671394285138,-0.0059544472920287,0.4619437029320421,-0.0760988593101501,0.0453567504882812,0.1969060897827148,53,50,-6440,5195
14.5,1788267977869,-1.5774648189544678,1.5211267471313477,-0.0004698338452726,-0.0032006260007619,0.9991171956062316,0.0418846532702446,0.0002258325312976,-0.002512147606051,1.646117130778157e-07,0.007025396451354,-0.0065319975838065,0.4377161562442779,-0.001494700089097,0.0028133830055594,-0.8312583565711975,0.5558770895004272,0.0082562918056799,-0.0057278999171666,0.4299912476852037,-0.0585337281227111,0.0857143998146057,-0.1206026077270507,128,66,-6501,5177
14.6,1788267977969,-1.0704225301742554,1.0140844583511353,0.0001075685649993,-0.0033241782803088,0.9997764229774476,0.0208824705332517,0.0010034118504395,-0.0007478317066877,-5.362722029509073e-09,-0.008139700628817,-0.0181127358227968,0.4722367823123932,-0.0021448694169521,0.0026191072538495,-0.819360077381134,0.5732691884040833,-0.010420072327973,-0.0174578631518494,0.463733593751526,0.0410470962524414,-0.0185605287551879,-0.0434503555297851,53,54,-5411,4555
14.7,1788267978069,-1.3239436149597168,1.154929518699646,0.0002913176722358,-0.0034783764276653,0.9999436140060424,0.0100337527692317,0.001652693557648,0.0018817564241512,-9.424378755553802e-07,-0.0058280136436223,-0.0087446719408035,0.4254889488220215,-0.0022356016561388,0.0026239892467856,-0.8095558285713196,0.5870327353477478,0.0027933542341155,-4.596816325600967e-05,0.3199230293378786,0.1747834682464599,-0.0110238790512084,0.0759439468383789,70,85,-4501,4382
14.8,1788267978169,-1.183098554611206,1.183098554611206,-0.0002490086480975,0.0032722200267016,-0.999865710735321,0.0160563867539167,-0.0020246246376881,-0.0018257462613055,-5.196313805590861e-07,0.0017910769674926,-0.0013580681988969,0.3328613936901092,-0.0021390924230217,0.0024677002802491,-0.7980834245681763,0.6025381088256836,0.0026630200183782,-0.0088268285804679,0.3944327423061399,0.0254219770431518,-0.0264369845390319,-0.0166597366333007,80,38,-5438,4306
14.9,1788267978269,-1.0704225301742554,1.183098554611206,-0.0004511596926022,0.0031897448934614,-0.999419093132019,0.0339286737143993,0.0005595450221548,0.0021472539177085,-1.092136829479265e-07,0.0010502383811399,-0.0034537997562438,0.3504720330238342,-0.0022411076352,0.0023141857236623,-0.7882782816886902,0.6153104901313782,0.0011920406100877,-0.0045020800204027,0.3489123151922729,0.125260055065155,-0.1138968467712402,0.0066795349121093,58,37,-5613,4371
15.0,1788267978369,-0.7323943376541138,0.8450704216957092,-0.0003227765264455,0.0031652490142732,-0.9989283084869384,0.0461735986173152,0.0032220589384458,-0.0015840897487766,3.310485117879416e-07,8.73069220688194e-05,0.0020619621500372,0.2277999818325042,-0.0021088430657982,0.0023863120004534,-0.7806721329689026,0.6249327063560486,4.51527542333682e-05,0.0042324969461655,0.2078787314859468,-0.2846455574035644,0.0126163959503173,0.0877437591552734,91,24,-4428,3650
15.1,1788267978469,-0.6197183132171631,0.8732394576072693,-0.0004173626657575,0.0031920955516397,-0.9983641505241394,0.0570856779813766,0.0008603665870613,0.0024807952417426,9.336249980275872e-07,-0.0001683352747932,-0.0024696015752851,0.2495597153902053,-0.0021269200369715,0.0024465778842568,-0.7722044587135315,0.635365903377533,-0.0024335963165773,0.0145813866088884,0.256019582471954,-0.1442458033561706,-0.1038156747817993,-0.0451717376708984,59,44,-2626,670
15.2,1788267978569,1.5774648189544678,2.05633807182312,-0.0002404816623311,0.0032687259372323,-0.9980221390724182,0.0627779215574264,0.0029141199774902,-0.0008299205575314,-7.353641789668187e-07,-0.0026048966683447,0.0065060276538133,0.2281183302402496,-0.002366722561419,0.0024125697091221,-0.769305944442749,0.6388717293739319,-0.005259799246532,-0.0110534943489438,-0.0242986872373649,2.0110654830932617,-0.0383061170578002,-0.0660295486450195,233,325,10581,12485
15.3,1788267978669,3.3521127700805664,5.098591327667236,-5.427823634818196e-05,0.0036426647566258,-0.9975317120552064,0.0701231658458709,0.1188881999255689,0.0038797293043994,-2.2176980900108123e-05,-0.0067779407836496,0.0103450799360871,0.1673253625631332,-0.0022701630368828,0.0028550019487738,-0.7662206292152405,0.6425672769546509,-0.0078541754253536,0.0153532522971702,0.2121094143684236,0.4902054071426391,-0.0324959158897399,-0.1163663864135742,142,195,14512,16844
15.4,1788267978769,4.873239517211914,5.85915470123291,0.0004495074099395,0.0036250737030059,-0.9967703819274902,0.0802205130457878,0.1883869746168734,0.0020116064267272,1.2744942455376365e-05,0.0089544476941227,0.0236048940569162,0.1958838999271392,-0.0015853652730584,0.0035422360524535,-0.7578871250152588,0.652374267578125,-0.0076390641915562,0.0534590353177988,0.1679929821156725,-0.0785383582115173,0.01836758852005,-0.5038537979125977,99,80,14762,15510
15.5,1788267978869,4.816901206970215,5.605633735656738,0.0005354628083296,0.0038925888948142,-0.99644136428833,0.0841968953609466,0.1943441664767035,-0.0006732986652422,1.8598617950517444e-06,-0.0103039927780628,0.0036422319244593,0.1564852744340896,-0.0019146325066685,0.0039308546110987,-0.7536134719848633,0.6573033928871155,-0.0205624267160661,0.0119269590672756,0.1516965324126404,-0.0924805402755737,-0.0330873727798461,-0.471963882446289,78,58,13174,15330
15.6,1788267978969,4.619718074798584,5.6619720458984375,0.0007730073994025,0.0041308202780783,-0.9957714676856996,0.0917689949274063,0.1846138808062244,0.0011117370458933,-8.651933428180356e-05,0.0048079779371619,0.0018468614434823,0.1733434200286865,-0.0015987921506166,0.0036801900714635,-0.7484673857688904,0.6631595492362976,0.015703856924145,-0.0063688656675726,0.1634931878012381,-0.1400030851364135,-0.1252591609954834,0.0066642761230468,74,75,13930,14903
15.7,1788267979069,4.619718074798584,5.549295902252197,0.0006520609604194,0.003788843518123,-0.9945843815803528,0.1038612723350524,0.1729783465566432,0.0020478454280266,4.0122144311991264e-05,0.0054590725339949,-0.0099507924169301,0.1468788385391235,-0.0016763750463724,0.0034677935764193,-0.742802619934082,0.6694993376731873,-0.0003722182400378,-0.0097369664608263,0.1276077817932413,0.0190191268920898,-0.1242762207984924,-0.7090425491333008,112,52,13973,15333
15.8,1788267979169,4.760563373565674,5.492957592010498,0.0009356564842164,0.0035697987768799,-0.9938709139823914,0.1104852557182312,0.1708277430596023,0.002388475006898,8.424859532528314e-05,0.0043776370584964,-0.0119887515902519,0.1567531377077102,-0.0012927530333399,0.0034880647435784,-0.7384130358695984,0.6743385195732117,-0.0018184242465482,0.0174384607735442,0.1524222239959763,-0.1023170948028564,-0.1806449294090271,0.2166366577148437,52,63,13272,15541
15.9,1788267979269,4.591549396514893,5.605633735656738,0.000366498454241,0.0028789981734007,-0.9929192066192628,0.118756353855133,0.1744491486254266,0.0002218901851511,3.074929685874004e-05,0.0128270173445343,-0.0200585331767797,0.1766116619110107,-0.0013566212728619,0.0025821980088949,-0.7332251071929932,0.6799797415733337,0.0127175794075893,-0.0296911685215123,0.1803109564815198,-0.0584205389022827,0.1562323570251464,0.1025876998901367,98,95,13913,15397
16.0,1788267979369,4.619718074798584,5.464788913726807,-0.0001378298184135,0.002306000329554,-0.9924423694610596,0.1226893663406372,0.1800970994935647,0.0004484038168971,8.92504112179359e-05,0.021075926721096,-0.0241450369358062,0.1648889631032943,-0.0016390141099691,0.0015925969928503,-0.7269353270530701,0.6867021322250366,-0.0243443296336563,-0.0057870624920371,0.1115960670820253,0.0135089755058288,-0.2167987823486328,0.5782642364501953,72,86,13784,15630
16.1,1788267979469,4.563380241394043,5.549295902252197,-0.0008485215366818,0.0019378983415663,-0.99094957113266,0.1342179775238037,0.1775572245617785,0.002264588257056,3.528045700966105e-05,0.0079694772139191,-0.0080354586243629,0.1538057476282119,-0.0018261028453707,0.0010680761188268,-0.7224372625350952,0.6914332509040833,0.0049119547331985,-0.0084255279107787,0.1588303051589712,-0.0745567083358764,0.3068698048591614,0.5096759796142578,98,62,13954,15527
16.2,1788267979569,4.957746505737305,5.183098793029785,-0.0005649562226608,0.0020155070815235,-0.9901334047317504,0.1401119530200958,0.1717507356676703,0.0025905576491087,-8.726763287060423e-05,-3.9523882151115686e-05,0.0217189434915781,0.123563028872013,-0.0016306862235069,0.0012635039165616,-0.7183894515037537,0.695638120174408,0.003729977461982,0.0149870631025281,0.1174693749290974,0.076665461063385,0.0067757368087768,-0.7183704376220703,85,52,15080,14521
16.3,1788267979669,4.760563373565674,5.267605781555176,-0.0007293710950762,0.0021448549814522,-0.9897406697273254,0.142857164144516,0.171901698050623,-0.0006771370796705,8.047861904251668e-05,0.0009059603326022,-0.0041583622805774,0.0452585108578205,-0.0018466711044311,0.0012750495225191,-0.7161900401115417,0.6979017853736877,-0.0005423056773657,-0.0031056521589613,0.0180798216820674,-0.0562213659286499,0.0348364114761352,0.3282127380371094,79,77,15792,14275
16.4,1788267979769,4.957746505737305,4.8450703620910645,-0.0010641564149409,0.0021212582942098,-0.9896326065063475,0.1436017602682113,0.1757226827602513,-0.0001889877414199,4.038559379256788e-06,-0.0010280089918524,-0.0143133690580725,0.0319823324680328,-0.0022415434941649,0.0017784675583243,-0.7154685854911804,0.6986389756202698,-0.020900714849222,0.0297536213870492,0.0072692649019129,0.1026144027709961,-0.0468262434005737,0.4327230453491211,107,80,17240,13637
16.5,1788267979869,5.042253494262695,5.042253494262695,-0.0010508894920349,0.0034603250678628,-0.9898813366889954,0.1418516784906387,0.1752605557605334,0.0010435094103891,3.633388721308503e-05,-0.0095785968005657,-0.0028160645160824,-0.0408813841640949,-0.0026336535811424,0.0022558188065886,-0.7170718312263489,0.6969906091690063,0.0082801256894456,0.0194907786122916,-0.0066354599273839,-0.1085250973701477,0.0250896215438842,-0.158975601196289,56,82,15444,14387
16.6,1788267979969,5.126760482788086,5.042253494262695,-0.0006886052433401,0.0035851609427481,-0.9898373484611512,0.1421569436788559,0.172963493908485,0.0006531147456718,-2.3553510531193936e-05,-0.003879970870912,0.0111132133752107,-0.0030988801736384,-0.0027496004477143,0.0024414379149675,-0.7168153524398804,0.6972533464431763,-0.0013734018245169,-0.006488174670145,0.0050065087039744,0.1310150623321533,0.1086726188659668,-0.7173738479614258,79,76,15165,14388
16.7,1788267980069,5.042253494262695,4.929577350616455,-0.0007787039503455,0.0038081828970462,-0.98983895778656,0.1421399265527725,0.1704135707128347,-0.0028310143765955,5.3879538763651e-06,-0.0093430262058973,-0.0022967376280575,-0.0006896441336721,-0.0031773801892995,0.0026966771110892,-0.7166967391967773,0.6973726153373718,-0.0071917579670415,-0.0128620545244067,0.0094321999620148,-0.0829042792320251,-0.1639317274093628,-0.2032537460327148,68,87,15135,14830
16.8,1788267980169,5.154929637908936,5.098591327667236,-0.0007797850994393,0.0040018488653004,-0.9897720217704772,0.1425997167825698,0.1806329675229189,-0.0036134017221577,2.930910961855817e-05,-0.0071663013659417,-0.0006949591916054,0.0165233612060546,-0.0032392730936408,0.0026355050504207,-0.7169941663742065,0.6970667243003845,-0.0020612300105751,-0.0064860509155916,-0.0260882234870059,-0.1178746819496154,0.0777896642684936,-0.3526153564453125,71,71,14896,14156
16.9,1788267980269,4.704225540161133,5.211267471313477,-0.0013509412528946,0.0045078969560563,-0.9897928833961488,0.1424356251955032,0.1741891638281683,0.0007531790283015,-1.6781451965891962e-05,-0.0028491802513599,0.0065636741928756,0.0286471527069807,-0.0036056833341717,0.0029330179095268,-0.7170122265815735,0.6970451474189758,-0.010726414106268,0.0157166830360118,0.0375044141181508,-0.165184199810028,0.1500601768493652,-0.1296377182006836,52,86,15192,15011
17.0,1788267980369,5.154929637908936,5.098591327667236,-0.0013990376610308,0.0050288694910705,-0.9895128011703492,0.1443505585193634,0.1733611216004766,-0.0001322084726512,2.0046132990924654e-06,-0.0071028405800461,-0.0010204340796917,0.0402513928711414,-0.0044757984578609,0.003224448300898,-0.7150839567184448,0.6990169286727905,-0.024405962737129,-0.0193046869712445,0.0205162593252441,0.0377812385559082,0.0639485716819763,0.3452510833740234,97,88,15019,14107
17.1,1788267980469,4.8450703620910645,5.295774459838867,-0.001151175238192,0.0056031388230621,-0.9893922209739684,0.1451563537120819,0.1726352171002332,0.0009525933824258,3.366651033348805e-07,-0.0096147181466221,0.0209242887794971,0.0198924802243709,-0.0041502797976136,0.0040530217811465,-0.7146158814430237,0.6994930505752563,-0.0108852337907936,0.0445633241609574,0.0292074183814375,0.038057267665863,0.0277779698371887,-0.6393833160400391,68,99,14724,14756
17.2,1788267980569,4.732394218444824,5.267605781555176,-0.0009078679140657,0.0055422475561499,-0.9891660809516908,0.1466932743787765,0.1650146277368435,0.001705579359684,-3.653543731796998e-05,0.0036857717204838,0.0085565540939569,0.0596515536308288,-0.0036506094038486,0.0037953546270728,-0.712376058101654,0.7017782926559448,0.0099854676786042,0.016782523183998,0.0768997946302788,-0.1604189276695251,0.2097613215446472,0.4379167556762695,68,76,15413,14437
17.3,1788267980669,4.563380241394043,5.633802890777588,-0.0006935223937034,0.0056558810174465,-0.9882082939147948,0.153009220957756,0.1755511916043314,0.0015984162894654,2.3607567636632247e-05,-0.0122934151440858,0.0019173230975866,0.1301241070032119,-0.0038592182099819,0.0041843764483928,-0.7088386416435242,0.7053477764129639,0.0030896880643703,0.0163345283421428,0.1743291417442057,-0.1381843090057373,0.1364593505859375,-0.0613441467285156,81,80,13700,15773
17.4,1788267980769,4.450704097747803,5.492957592010498,-0.0002004097914323,0.0057394267059862,-0.9870809316635132,0.1601197570562362,0.1709703709858183,0.0009161181224958,1.532629505767694e-05,-0.0048689814284443,0.0049023502506315,0.1606494337320327,-0.003524275496602,0.0045441947877407,-0.7037243247032166,0.7104498744010925,-0.0040010093340681,0.0222096604871152,0.1621540896829509,-0.1091001629829406,-0.0424059629440307,0.1243133544921875,59,91,14013,15970
17.5,1788267980869,4.816901206970215,5.211267471313477,-0.0001854164293035,0.0055028055794537,-0.9858838319778442,0.1673400700092315,0.1756288000855375,0.0011644771261035,4.866328120454377e-05,0.0063240882009267,-0.0066308449022471,0.1218405589461326,-0.0033120671287178,0.0043286066502332,-0.6988428831100464,0.715254545211792,0.0029986766477597,-0.0015156834582396,0.1078617319337435,0.0781156420707702,-0.0002182126045227,0.1634140014648437,120,49,15597,14512
17.6,1788267980969,4.985915660858154,5.126760482788086,0.0002404395490884,0.0055255200713872,-0.9857211709022522,0.1682952642440796,0.1693920567455554,0.0009292246709779,2.18734770936064e-05,0.001887361286208,0.0163983851671218,0.0380714610219001,-0.0028534075245261,0.0048883650451898,-0.6975586414337158,0.7165053486824036,-0.0072834552588945,0.0157500301697018,0.0184179333069676,-0.0906100869178772,0.0812834501266479,0.7431049346923828,79,69,15668,14288
17.7,1788267981069,4.788732528686523,5.183098793029785,0.0004260662244632,0.0056284386664628,-0.9852514266967772,0.1710196733474731,0.1838780422858502,-0.0012609758306025,-2.078640653346687e-05,-0.0025633801706135,-0.0044465051032602,0.0601543299853801,-0.0029308721423149,0.0047770123928785,-0.6961893439292908,0.7178363800048828,0.0031179792622284,-0.0116382652482598,0.0538523603830448,-0.0889279246330261,0.0551562905311584,0.0514116287231445,70,52,15611,14559
17.8,1788267981169,4.507042407989502,5.436619758605957,0.0003261760575696,0.0056885913945734,-0.9849363565444946,0.1728232949972152,0.1776001842154488,0.0025042643012167,-8.725367305811931e-06,-0.0023051220923662,0.0041723647154867,0.0279538426548242,-0.0029495814815163,0.0046227760612964,-0.6935302019119263,0.7204067707061768,0.0149793382209535,-0.0044307582220744,0.1117885597563402,0.005939781665802,-0.032741904258728,-0.2378311157226562,50,118,13969,16216
17.9,1788267981269,4.394366264343262,5.7183098793029785,0.0004598016384989,0.0055489507503807,-0.9834541082382202,0.1810715645551681,0.1794374449354062,0.0042255548114221,-6.119327383627726e-06,-0.0005526848253794,0.0044562141411006,0.1799361556768417,-0.0030795726925134,0.0045446585863828,-0.6877294778823853,0.7259464263916016,0.0068901263553368,-0.0194132638644495,0.1824104404356353,0.0576218366622924,0.0528125166893005,0.7006874084472656,71,80,14484,15194
18.0,1788267981369,4.478873252868652,5.352112770080566,3.111164551228285e-05,0.0056766364723443,-0.9827300310134888,0.1849578022956848,0.1815674911628446,-0.0021580694795417,0.0001260440548122,-0.0081962756812572,-0.0164594016969203,0.1549282819032669,-0.0030896319076418,0.0052739167585968,-0.6832106709480286,0.7301957607269287,-0.0212543519439539,0.0426849832065085,0.1313429820465127,-0.1654571890830993,0.0734040737152099,0.1858148574829101,64,90,13972,16453
18.1,1788267981469,4.929577350616455,5.239436626434326,0.0010426470544189,0.0061204927042126,-0.9804243445396424,0.1967979818582534,0.1752215160510873,0.0051714525344068,-3.0393685422263548e-05,-0.0065394365228712,0.0179130807518959,0.1477674096822738,-0.0028884755447506,0.0055623985826969,-0.6764562726020813,0.7364562153816223,-0.0098700890441974,0.0047424361904703,0.1255396676268209,0.1582974791526794,0.0302569270133972,0.5304841995239258,95,88,15027,14450
18.2,1788267981569,5.098591327667236,5.014084339141846,6.394553929567337e-05,0.0060835164040327,-0.9797173142433168,0.2002917677164077,0.1627012036283656,0.0035672146828154,9.10869784717014e-06,-0.0026704019401222,-0.0055614006705582,0.0582077056169509,-0.0034396573901176,0.0049266312271356,-0.6740376949310303,0.7386726140975952,0.0067742288971905,-0.0020284883986295,0.0433977108422827,0.0898572206497192,-0.038150131702423,-0.0343647003173828,116,59,15516,13943
18.3,1788267981669,5.352112770080566,4.901408672332764,0.0002234490821138,0.0059796413406729,-0.9796022176742554,0.2008575350046157,0.1675759577234159,-0.003612976693279,1.780403896029274e-07,0.0,1.141648997560196e-09,0.0,-0.0035908482968807,0.0047088684514164,-0.6743627190589905,0.7383765578269958,-8.361731596916787e-05,-0.002849704841247,-0.0327612532257995,-0.1471686363220214,-0.2074612379074096,-0.3171548843383789,114,30,16021,13283
18.4,1788267981769,5.098591327667236,4.985915660858154,-0.0006709205918014,0.0056071304716169,-0.9799210429191588,0.1993054896593094,0.1661370220392499,-0.0041439364145093,0.0001608556021566,0.007482171524316,-0.0375750698149204,-0.0634279549121856,-0.004090093076229,0.0041266866028308,-0.6763855218887329,0.7365249395370483,-0.0182658207553104,0.0059322439916364,-0.0735821280485072,-0.040745735168457,0.3735527396202087,-0.2494783401489257,52,70,15172,13989
18.5,1788267981869,5.239436626434326,5.098591327667236,-0.000613507523667,0.005841176956892,-0.980722963809967,0.1953155100345611,0.182133426929675,0.0026884264287508,8.374637742655811e-07,0.0,2.3336568233389703e-09,0.0,-0.003927182406187,0.0040391273796558,-0.6780396699905396,0.7350037693977356,0.0072352599610492,-0.0185657289143536,0.0231447547769274,-0.1095563173294067,0.061146080493927,0.2544031143188476,64,79,14695,14193
18.6,1788267981969,5.070422649383545,5.014084339141846,-0.000613507523667,0.005841176956892,-0.980722963809967,0.1953155100345611,0.1882884993309214,6.758326969061555e-05,-1.7656374502364682e-07,0.0,2.995977910202896e-09,0.0,-0.0042771305888891,0.004062408581376,-0.6783590912818909,0.7347068786621094,-0.0157219467594802,-0.016910119068764,-0.0319242951928923,0.014759361743927,-0.0398856401443481,0.0586919784545898,56,101,15139,14534
18.7,1788267982069,5.267605781555176,4.873239517211914,-0.000613507523667,0.005841176956892,-0.980722963809967,0.1953155100345611,0.1757626181383766,0.0017775325416163,-6.725896010302562e-07,0.0,2.3283381889172006e-09,0.0,-0.0034964978694915,0.0043442687019705,-0.678571343421936,0.7345133423805237,0.0111892973308516,0.0141575801870295,-0.024590478255628,-0.094101071357727,-0.0555618405342102,-0.0535316467285156,76,55,15684,13744
18.8,1788267982169,5.267605781555176,4.901408672332764,-0.0004770086961798,0.0054451758041977,-0.9810940623283386,0.1934542655944824,0.1726573907725409,0.0003960904690705,5.495033667119239e-05,0.0051877512596547,-0.0087752770632505,-0.0537060312926769,-0.0035999920219182,0.0040369722992181,-0.6810935735702515,0.7321764826774597,-3.025970687002372e-05,0.0121106326357281,-0.0710721011572176,-0.0676734447479248,-0.1389813423156738,0.2047004699707031,72,75,15711,13576
18.9,1788267982269,5.323943614959717,4.901408672332764,-8.291355334222317e-05,0.0053036315366625,-0.982028603553772,0.1886575073003769,0.1814668289094629,0.0019081259999645,-5.1846305074751165e-05,0.0047984384000301,0.0123249795287847,-0.0686693787574768,-0.0031639570370316,0.0043051447719335,-0.6831611394882202,0.7302481532096863,0.0019085597827783,0.0236930538170053,-0.0543277744813244,-0.0141442418098449,-0.0582764744758605,0.1032705307006836,56,99,15607,13834
19.0,1788267982369,4.985915660858154,5.098591327667236,0.0001626235316507,0.0051545784808695,-0.982249915599823,0.1875059753656387,0.1771008571308679,0.0017848347048161,-1.3453130578423606e-05,0.0067655788734555,0.0084161581471562,-0.0387454889714717,-0.0028707589954137,0.0043289000168442,-0.6845526099205017,0.7289450168609619,-0.0032025661687839,0.0024414454001299,-0.0345518852639839,-0.1384377479553222,-0.13210529088974,0.2419261932373047,50,70,15352,14004
19.1,1788267982469,4.929577350616455,4.985915660858154,2.1000858396291733e-05,0.0049086422659456,-0.9824572801589966,0.1864233464002609,0.173628930828177,-0.0002319262911478,-1.1521657360884436e-05,0.0109610734507441,0.005912022665143,-0.0062121679075062,-0.0028752870857715,0.0040539102628827,-0.6847226619720459,0.728786826133728,-0.0036629665886807,0.0033262142691627,0.0129542501530254,0.0008305311203002,0.244670569896698,0.6279573440551758,78,103,15837,14551
19.2,1788267982569,5.183098793029785,4.873239517211914,0.0002805616240948,0.0050261905416846,-0.9824227690696716,0.1866016089916229,0.1738899332515701,-0.0007563727161512,-2.0547665588294025e-05,-0.0026918593794107,0.011046010069549,0.0073162289336323,-0.0030896281823515,0.0037834635004401,-0.6844725608825684,0.7290223240852356,-0.007270186823629,-0.0048955870604538,-0.0069870932194421,-0.2901037931442261,-0.2872328162193298,0.5042200088500977,81,28,16142,13414
19.3,1788267982669,4.957746505737305,4.985915660858154,-0.0004869664553552,0.0045411442406475,-0.9826078414916992,0.1856366842985153,0.1770010091114398,-0.0021082103978047,-7.336996666083266e-05,0.0120927905663847,0.0094691142439842,-0.0524134896695613,-0.0030371360480785,0.0034739561378955,-0.6859205365180969,0.7276618480682373,-0.0026572208848265,0.0057432775926056,-0.043678317907596,-0.09150230884552,-0.0830068588256836,-0.2396783828735351,59,77,15530,14374
19.4,1788267982769,4.704225540161133,5.549295902252197,-0.0004414706781972,0.0046263486146926,-0.982657551765442,0.185370996594429,0.1758517020244241,0.0019782214653686,4.049994149646609e-05,-0.0014753049472346,-0.0010163193801417,0.0160173084586858,-0.0032881768420338,0.0032543893903493,-0.6854073405265808,0.7281453013420105,0.0143874536335742,-0.0222533673299433,0.0439221015549793,0.1355883479118347,0.2665518522262573,0.6919393539428711,48,103,12805,15992
19.5,1788267982869,4.591549396514893,5.633802890777588,-0.00091273477301,0.0046047209762036,-0.9817818999290466,0.1899531185626983,0.1740542808695551,0.0018760196126149,6.381609877037025e-05,-0.0034586533438414,-0.0274854805320501,0.1073770895600318,-0.003496877849102,0.0031535141170024,-0.6820240616798401,0.7313146591186523,-0.0063642440039135,-0.0300175997941541,0.0891606434284812,-0.2126184105873108,-0.08473801612854,0.3084239959716797,40,63,13276,15408
19.6,1788267982969,4.563380241394043,5.605633735656738,-0.0008868184522725,0.0047452985309064,-0.9812724590301514,0.1925646960735321,0.1658276274829485,0.0015100058411632,2.386177509541276e-05,-0.0053543141111731,0.0015958389267325,0.1070828288793563,-0.0034877713769674,0.0033040298148989,-0.6776002645492554,0.7354147434234619,0.0064122415059916,-0.0099522724379462,0.1585588422476425,-0.0753927826881408,-0.1008712649345398,0.0612421035766601,86,57,13739,15559
19.7,1788267983069,4.873239517211914,5.126760482788086,-0.0003481006715446,0.0052688810974359,-0.9788858890533448,0.2043392658233642,0.1634673782796353,0.0046649967433749,-4.73753541540269e-05,-0.0112552009522914,0.0210450198501348,0.1418395936489105,-0.0032724700868129,0.0042044315487146,-0.6710028648376465,0.7414355874061584,-0.0035919412275094,0.0502698904471252,0.1499959142949674,0.2418921589851379,0.1851032376289367,-0.0336971282958984,138,46,16183,13877
19.8,1788267983169,5.267605781555176,4.788732528686523,0.0005904450081288,0.0054935947991907,-0.9786142706871032,0.2056295275688171,0.1696702601485612,-0.0006610196714321,-2.722156815451233e-05,-0.0005701980553567,0.0257202945649623,-0.0034037707373499,-0.0028020739555358,0.0047259731218218,-0.6704304218292236,0.7419520616531372,0.0008327291628194,0.0296864143544974,-0.0062335879509965,0.0412569046020507,-0.2328769564628601,-1.122776985168457,87,49,16187,13726
19.9,1788267983269,5.154929637908936,4.901408672332764,0.0004441369092091,0.0056087356060743,-0.9788106679916382,0.2046901285648346,0.1767946665927528,0.002751931685453,-7.51990729770194e-06,-0.0061244429089128,-0.0049669975414872,-0.0416842214763164,-0.0028052339330315,0.0049584135413169,-0.671837568283081,0.7406767010688782,0.0024569425932028,0.022809141890224,-0.0506441198351817,0.0918667912483215,0.1922446489334106,-0.3417263031005859,104,58,16338,13461
20.0,1788267983369,5.239436626434326,4.929577350616455,0.0005459729582071,0.00538583798334,-0.979348361492157,0.202107772231102,0.1737533742988093,-0.0003341801879053,2.5589566046829653e-05,0.0092021832242608,-0.003430051729083,-0.0723816603422164,-0.0024696430191397,0.0045132301747798,-0.6746143698692322,0.7381524443626404,0.0170112441973366,0.0144638629980787,-0.0574116568806484,-0.0479771494865417,0.2484199404716491,0.1194286346435546,90,66,16060,13529
20.1,1788267983469,5.183098793029785,4.901408672332764,0.0005667024524882,0.0051290327683091,-0.9798329472541808,0.1997516006231308,0.1674583128529694,0.0009493992417154,-4.957634946819167e-06,0.0034353681840002,0.0020695936400443,-0.0427347794175148,-0.0028515607118606,0.0044259941205382,-0.6763502955436707,0.7365614175796509,-0.0017677986119341,-0.0156205873831311,-0.0468879075386406,0.0660887360572815,-0.1904440522193908,0.0703306198120117,93,68,16008,13644
20.2,1788267983569,5.070422649383545,5.070422649383545,0.0001187031739391,0.0050192028284072,-0.980756402015686,0.195170909166336,0.1872694305332846,0.0017871522353974,5.6461052552081415e-06,0.0029600639827549,-0.0057361754588782,-0.0596325732767581,-0.0029334276914596,0.0040214899927377,-0.6787395477294922,0.7343622446060181,0.0015898929520857,-0.0114203124773972,-0.0447370966420467,-0.0710232853889465,0.0547709465026855,-0.1370878219604492,65,63,15144,14121
20.3,1788267983669,5.492957592010498,4.450704097747803,-1.0221265256404877e-07,0.0052387584000825,-0.9811306595802308,0.1932744979858398,0.1870305494335336,0.0046625301108757,4.933373123608321e-06,-0.0074598286300897,-0.005525603890419,-0.0502561554312706,-0.0030528595671057,0.0042268466204404,-0.6800563335418701,0.7331413626670837,-0.0011604510526556,-0.0012420371875142,-0.0570630892669829,0.1251226067543029,-0.1493670344352722,-0.6061592102050781,96,58,16971,12844
20.4,1788267983769,5.521126747131348,4.535211086273193,0.0006031214143149,0.0050226426683366,-0.9815685749053956,0.1910434067249298,0.1867897565011524,0.003192080213821,-2.179964054491928e-05,0.0131673561409115,0.0223525129258632,-0.0903419852256774,-0.0023067817091941,0.0041733095422387,-0.6843082308769226,0.7291772365570068,0.0227638597030442,0.0031457020240127,-0.1456028172799144,-0.0475032925605773,0.0837765932083129,-0.6253490447998047,72,57,17115,12647
20.5,1788267983869,5.267605781555176,4.957746505737305,0.0007382617914117,0.0047455178573727,-0.9836572408676147,0.1799869388341903,0.1902490834644098,0.0027485599810191,-4.780637022959255e-05,0.0031710986513644,0.0193580593913793,-0.1378565430641174,-0.0020777415484189,0.0043736081570386,-0.6901947259902954,0.72360759973526,0.0066987976526198,0.0541120034685732,-0.1353220407864996,-0.2171427011489868,0.1725146174430847,-0.517974853515625,90,81,15345,13469
20.6,1788267983969,4.901408672332764,4.873239517211914,0.0001627955352887,0.004712235648185,-0.9842628836631776,0.1766476035118103,0.1804733119485201,-0.0018981426141312,1.343316620431223e-06,-0.0037438122089952,-0.0087314276024699,-0.0356066562235355,-0.0028223991394042,0.0038284985348582,-0.692596435546875,0.7213097214698792,-0.0155583313715116,-0.0482356056563978,-0.0606385669736483,-0.1970846056938171,0.201847493648529,0.6175975799560547,16,49,11731,12811
20.7,1788267984069,2.1408450603485107,4.14084529876709,0.0002051216433756,0.0046138549223542,-0.9837225675582886,0.179634690284729,0.1263028979848921,0.0018000341486631,6.06424724402537e-06,0.0090806931257247,0.0008558739209547,0.1604990363121032,-0.0025344574823975,0.0038501620292663,-0.6896822452545166,0.7240975499153137,0.0073984213869392,0.0120583653026254,0.2361275347810169,-0.9485987424850464,0.0428701043128967,-0.305851936340332,45,60,3170,11382
20.8,1788267984169,-0.9014084339141846,3.2676055431365967,0.0004478247719816,0.0046449899673461,-0.9820024967193604,0.1888100653886795,0.0908687674355336,-0.0023139100058717,-1.6684495415936575e-05,0.0001257648254977,0.0080753806978464,0.3725588321685791,-0.0025026267394423,0.0039321351796388,-0.6753135919570923,0.7375160455703735,-0.0029742260669511,-0.0119385494864246,0.4954129478060723,-0.580947756767273,0.0028672218322753,0.0462865829467773,96,38,-4698,9695
20.9,1788267984269,-3.0985915660858154,2.816901445388794,0.0003033434040844,0.0050416905432939,-0.9702936410903932,0.2418774217367172,0.0093787665754059,-0.0032755446857967,1.3800377587406988e-06,-0.0095358286052942,-0.0003683984978124,0.8164029717445374,-0.0027193147689104,0.0042657824233174,-0.641694962978363,0.7669432163238525,-0.0076038948703083,0.0030374398259458,0.911404610163042,-0.4021105766296386,-0.1867000460624694,0.3136310577392578,99,50,-11670,8744
21.0,1788267984369,-2.760563373565674,2.5352113246917725,-0.0001471918076276,0.0045810188166797,-0.9592074155807496,0.2826662361621856,0.0061304361003831,0.0065259587113499,1.710734807703297e-06,0.006796556059271,-0.0208664555102586,0.926404356956482,-0.002812759950757,0.0036158896982669,-0.6086528301239014,0.7934234142303467,0.009662382510692,-0.0199122734077828,0.9341908253849506,0.361983060836792,-0.4933317899703979,0.1758995056152343,39,33,-8375,7446
21.1,1788267984469,-2.5915493965148926,2.450704336166382,3.43037536367774e-05,0.0049421796575188,-0.9481202960014344,0.3178734481334686,-0.0078759565866452,0.001480395222122,1.585741911611131e-06,-0.0163066480308771,0.0055143861100077,0.6686934232711792,-0.0028773918747901,0.0040614688768982,-0.5738565325737,0.8189407587051392,-0.005040486148021,0.0003228025773332,0.6851584978097727,0.4145842790603637,0.0769739151000976,-0.0119657516479492,109,99,-9017,8063
21.2,1788267984569,-2.366197109222412,2.309859037399292,0.0001931536244228,0.0049834609962999,-0.9422260522842408,0.3349405825138092,-0.0041464272179516,-0.0036216731495401,5.30110015492506e-07,-0.000734548899345,0.0031837611459195,0.7223315834999084,-0.0029332395642995,0.0043367054313421,-0.5476559996604919,0.8366872668266296,-0.0173760899774236,-0.0090531961888762,0.6695716422410862,-0.3622251749038696,-0.2028221487998962,0.0712451934814453,57,54,-7250,6734
21.3,1788267984669,-2.169013977050781,2.281690120697021,-3.875268157571554e-05,0.0051383161917328,-0.9228635430336,0.3850926756858825,0.0044266440102231,0.000750566300666,7.170728099918842e-07,0.0024632909335196,-0.003357068169862,0.6744587421417236,-0.0031000832095742,0.0040944973006844,-0.5223820209503174,0.8526961207389832,0.0060270080521789,-0.0005546625088775,0.6703815274071475,0.0487034320831298,-0.0735160708427429,-0.0565185546875,53,65,-8153,7018
21.4,1788267984769,-1.94366192817688,1.9154930114746092,-5.842291284352541e-05,0.0052743931300938,-0.9109354615211488,0.4125150740146637,0.0014352195258303,0.0012972516137219,-6.616608635494702e-07,0.0003332801861688,-0.0061143240891397,0.6748562455177307,-0.0031353551894426,0.004150154069066,-0.4879867434501648,0.8728355169296265,0.00396633876625,-0.0055142001774955,0.6645442244282963,0.1693952083587646,-0.0582021474838256,0.0071649551391601,28,8,-6525,5822
21.5,1788267984869,-1.94366192817688,1.8591549396514893,7.641082629561424e-05,0.005556714721024,-0.8991764187812805,0.4375509917736053,-0.0032212872189267,-0.0018364566658929,2.44461848769196e-07,-0.0113272946327924,0.0040310751646757,0.4929702877998352,-0.0032951310276985,0.004540292546153,-0.4674017429351806,0.8840273022651672,-0.0134394401801613,0.0079989073911544,0.4612041247351198,-0.0709785223007202,-0.0025339722633361,0.0043392181396484,94,57,-6808,6039
21.6,1788267984969,-1.4929577112197876,1.4929577112197876,-7.27921724319458e-05,0.0056628817692399,-0.8931534886360168,0.4497164189815521,-0.007979253259742,-0.0058829308370609,-7.955004581023264e-07,-0.0077853589318692,-0.006177645176649,0.5415131449699402,-0.0032944399863481,0.0047951908782124,-0.4441114664077759,0.8959527015686035,-0.0023103373014856,0.0065343930637734,0.5993042806078633,0.0830155611038208,-0.1852263212203979,0.0596399307250976,16,12,-4990,3985
21.7,1788267985069,-1.4647886753082275,1.4929577112197876,0.0002339095808565,0.0061507942155003,-0.8741986155509949,0.4855296611785888,-0.0030983512050179,-0.0053109244922528,2.1092035555627907e-06,-0.0081230895593762,-0.0015792285557836,0.4210239350795746,-0.0034764958545565,0.0050943810492753,-0.41940638422966,0.9077776670455932,-0.0073946139317911,-0.0087747704234674,0.3901588579284903,-0.1565749645233154,0.1062151789665222,0.0710725784301757,59,62,-6120,5295
21.8,1788267985169,-1.4929577112197876,1.5774648189544678,-0.0001928268466144,0.0061411675997078,-0.8639498949050903,0.5035401582717896,0.003343766134967,-0.0037812911727105,2.041794208278877e-06,-0.0038257632404565,-0.0117191541939973,0.4930763840675354,-0.0037710610777139,0.0048410817980766,-0.4000364542007446,0.91647869348526,-0.0014885476980162,-0.0084808339210569,0.489143064042214,0.0656327605247497,-0.061768352985382,-0.0257844924926757,38,33,-6018,5204
21.9,1788267985269,-1.4647886753082275,1.5211267471313477,-0.0002427985891699,0.0061689442954957,-0.8523759841918945,0.522892951965332,0.0002986304621398,0.0035862506205102,1.361993638716337e-07,-0.0028643335681408,0.0006416782271116,0.448694109916687,-0.0038250163197517,0.0048495065420866,-0.3815205991268158,0.924339771270752,-0.0033359469564317,0.0029068941718531,0.4569870313953839,0.000296413898468,-0.0053169727325439,0.0999565124511718,99,80,-6578,5629
22.0,1788267985369,-1.3521126508712769,1.2957746982574463,-0.0001338205765932,0.0062868925742805,-0.8459988236427307,0.5331476330757141,0.0017205495282865,-0.0008792234462462,-2.734921061951472e-07,-0.0032148857135325,0.003588872263208,0.4828621447086334,-0.0038350010290741,0.0046848859637975,-0.3572502136230469,0.9339890480041504,0.0007345557215839,-0.0132483487013151,0.4038999702045563,0.04811292886734,-0.0657396912574768,0.155487060546875,62,70,-4372,4004
22.1,1788267985469,-1.2957746982574463,1.0704225301742554,-0.0005360126961022,0.0058539127930998,-0.8308625817298889,0.5564464926719666,-0.0012398065056152,-0.0016677474216889,-2.245806368703719e-07,0.0010386853246018,-0.0089484732598066,0.2981431782245636,-0.0038769096136093,0.0044187307357788,-0.3445965945720672,0.9387325048446656,0.0024654752592693,-0.0104223737010251,0.3078889360157236,-0.1635970473289489,0.2167204618453979,0.0843753814697265,65,105,-4952,4750
22.2,1788267985569,-1.211267590522766,1.211267590522766,-0.0008770595304667,0.0056171952746808,-0.8216524124145508,0.5699604749679565,0.0010608713592054,0.0033825330218247,-2.0782430038778214e-07,-0.0018437826074659,-0.0088116666302084,0.3713745176792145,-0.0040227016434073,0.0039961272850632,-0.3292029201984405,0.9442421793937684,-0.0017871234470848,-0.0115646671747538,0.3603413356653261,-0.0054852962493896,0.0110085606575012,0.0856571197509765,89,60,-5235,4621
22.3,1788267985669,-0.98591548204422,1.1267606019973757,-0.0009037686977535,0.0057486854493618,-0.8111577033996582,0.5847985744476318,-0.0013543473658322,-0.0029308136356801,-1.4207816758702844e-08,-0.0046862862072885,-0.0010461662895977,0.363072782754898,-0.004160332493484,0.0041706543415784,-0.3089098036289215,0.9510731101036072,-0.0065256017575546,-9.374164822541496e-05,0.3341126320381336,0.0693504214286804,-0.084925889968872,0.0459108352661132,13,3,-3573,2519
22.4,1788267985769,0.0,0.0,-0.0008665916975587,0.0059028416872024,-0.8069028854370117,0.5906540155410767,-0.0009763914775756,-0.0043750055246911,-5.080076152756769e-07,-0.0048973145894706,0.0033109723590314,0.2894377112388611,-0.0041747102513909,0.0042825024574995,-0.2997366786003113,0.9540032148361206,-7.066844728214774e-05,-5.714691590338806e-05,0.17411313592972,0.0175513625144958,0.0153285264968872,-0.1027688980102539,3,0,0,0
22.5,1788267985869,0.0845070406794548,0.0845070406794548,-0.0008995041716843,0.0059205433353781,-0.80256187915802,0.5965387225151062,0.0001627228550733,0.0006028098442663,-7.549810094546541e-08,-0.0018131466349586,-0.0018570889951661,0.1242760419845581,-0.0042055174708366,0.0042862240225076,-0.298240065574646,0.954472005367279,0.0010967069640856,0.0025320172325687,-0.0397404553025937,-0.0458879470825195,0.0653815865516662,0.0031843185424804,30,211,1729,9561
22.6,1788267985969,0.98591548204422,3.6619718074798575,-0.0011496837250888,0.0058598844334483,-0.7973746657371521,0.6034549474716187,0.0486945970135321,0.0031607452562505,-5.375428931088587e-06,-0.0052608442492783,-0.0012592291459441,0.3862825334072113,-0.0045015523210167,0.0039624879136681,-0.2855378687381744,0.9583487510681152,-0.0093045572642951,-0.0177417225573012,0.4522344663436082,1.2894599437713623,-0.2132375240325927,-0.303384780883789,161,200,5142,13959
22.7,1788267986069,1.6338027715682983,6.02816915512085,-0.0014847696293145,0.0059113991446793,-0.781898558139801,0.6233760118484497,0.1171204536176086,0.00173157767522,4.748617502160982e-05,-0.0041418243199586,-0.0122190918773412,0.5399270057678223,-0.0047163758426904,0.0037000924348831,-0.2625742852687835,0.9648932218551636,-0.0043963524463002,-0.011299790803767,0.5833765708208176,0.3496263027191162,0.218697965145111,-0.212493896484375,66,203,8672,19796
22.8,1788267986169,2.253521203994751,8.14084529876709,-0.0018639963818714,0.0056705083698034,-0.7562845945358276,0.6542155146598816,0.172959641015102,0.0035740762996542,6.17821067463122e-05,-0.0044463481754064,-0.0057066488079726,0.7631348371505737,-0.004841755144298,0.0034728962928056,-0.2307963222265243,0.9729838371276855,-0.0086915471705458,0.0049590249258028,0.755990365956093,0.6745473146438599,0.1728909015655517,-0.1120996475219726,53,144,8324,23517
22.9,1788267986269,2.5352113246917725,7.718309879302978,-0.0016998948995023,0.0057654343545436,-0.7259875535964966,0.6876814365386963,0.1945038493319724,-0.0007105546683625,5.986489258044612e-05,-0.0019903655629605,-0.0088328728452324,0.9291527271270752,-0.0046724788844585,0.0036962190642952,-0.1781408935785293,0.9839869737625122,-0.0018534750027841,-0.0017685782144746,0.8725899711256008,-0.0194174647331237,0.2498528361320495,-0.0222978591918945,68,43,8364,20482
23.0,1788267986369,2.7042253017425537,7.239436626434326,-0.0019941495265811,0.0050892424769699,-0.7001103758811951,0.7140136361122131,0.1661325305016955,-0.000962694216476,6.345762007098921e-05,0.0083206444978713,-0.0174154620617628,0.7805050611495972,-0.0044887112453579,0.0030144741758704,-0.1422428488731384,0.9898170232772828,0.0173469837646684,0.0049653485585067,0.7883128307303502,-0.1687908768653869,0.1917065382003784,0.0230894088745117,79,50,10098,19450
23.1,1788267986469,3.3521127700805664,6.873239517211914,-0.0018155626021325,0.0052573783323168,-0.6768277287483215,0.7361204028129578,0.1814571033000117,0.0015474312974105,5.285886972486374e-05,-0.0046141725033521,-0.0097310859709978,0.5523666739463806,-0.0045982599258422,0.0031693615019321,-0.1148000061511993,0.9933728575706482,-0.0056547961881183,-0.0056841319409407,0.5253188796871133,-0.2645473480224609,0.0973584651947021,-0.1847057342529297,47,54,10586,18701
23.2,1788267986569,3.1549296379089355,6.8450703620910645,-0.0016162752872332,0.0048391409218311,-0.6672219038009644,0.744841456413269,0.1759094099821593,0.0041908170704064,4.0124933502161866e-05,0.0161195117980241,-0.0096397195011377,0.5293117165565491,-0.0046164691448211,0.00333215855062,-0.0889528021216392,0.9960195422172546,-0.0323529024565736,0.0179485750855554,0.5389725630290582,-0.4119795560836792,0.0717642307281494,0.7913475036621094,53,59,10195,18503
23.3,1788267986669,3.239436626434326,6.985915660858154,-0.0015982904005795,0.0059480681084096,-0.635869026184082,0.7717724442481995,0.1727427456272222,0.0051326785624222,2.755656671538174e-05,-0.0064133047126233,0.0056458781473338,0.5419319272041321,-0.0048335697501897,0.0038661565631628,-0.0573271811008453,0.9983363151550292,-0.0020410827555285,0.0144435056335366,0.5335206163806571,-0.1078721284866333,-0.1829336881637573,-0.1049232482910156,78,91,10059,18943
23.4,1788267986769,3.8309860229492183,6.2253522872924805,-0.0017700814642012,0.0066097294911742,-0.6172354221343994,0.7867487072944641,0.1734812896436407,0.011462144808438,2.970389477433928e-05,-0.0173087678849697,-0.0103867324069142,0.4660523235797882,-0.0053286179900169,0.0042405864223837,-0.0345570370554924,0.9993795156478882,-0.0064363379553848,-0.0031835482760175,0.4514026360628199,0.059910774230957,-0.410758376121521,-0.4916696548461914,110,51,12990,16882
23.5,1788267986869,3.91549301147461,6.197183132171631,-0.0020752048585563,0.0073414756916463,-0.6035942435264587,0.7972550988197327,0.1681751019279087,0.0074221626961722,4.06323061831678e-05,-0.0146418698132038,-0.0030174879357218,0.3131077885627746,-0.0059465896338224,0.0048362715169787,-0.0197398588061332,0.9997758269309998,-0.0112414913732043,0.0229837233706386,0.3117538426116569,-0.3533844947814941,-0.0145548582077026,-0.0799102783203125,53,88,12055,17247
23.6,1788267986969,4.873239517211914,5.690140724182129,-0.0022521985229104,0.0074009895324707,-0.5969395637512207,0.8022488951683044,0.1766265405257334,-0.0013194527495822,3.3466262332379494e-05,-0.0095590585842728,-0.00487243803218,0.3689482510089874,-0.0061467019841074,0.0045428117737174,-0.0019346792250871,0.999968945980072,-0.0092007266920261,-0.0158414855943605,0.1960205457375076,-0.2854893207550049,0.1486501097679138,0.2718982696533203,96,58,13603,14650
23.7,1788267987069,4.507042407989502,5.521126747131348,-0.0023379072081297,0.0075261453166604,-0.5845484733581543,0.8113205432891846,0.1715183433421843,0.0049131790333564,-5.809490060209647e-06,-0.0078736776486039,-0.0014984395820647,0.1316098719835281,-0.0063178064301609,0.0047110514715313,0.0045330803841352,0.9999587535858154,-0.0055303855456772,-0.0047111767364934,0.108162471613739,-0.2557893395423889,-0.2955968976020813,0.4934806823730469,67,55,14174,15130
23.8,1788267987169,4.873239517211914,5.154929637908936,-0.0025211684405803,0.0070877848193049,-0.5798183679580688,0.8147110342979431,0.1663895573649012,0.0046306001940039,-4.099889511831328e-05,0.0083943149074912,-0.00809530261904,0.1233167871832847,-0.0062090409919619,0.0042637307196855,0.0102272136136889,0.9999194145202636,0.0138689546072303,-0.0242987387802776,0.119524607932709,0.2283118367195129,0.1404723525047302,0.185068130493164,108,44,15239,14246
23.9,1788267987269,4.901408672332764,5.211267471313477,-0.0024965538177639,0.0068539790809154,-0.5768781900405884,0.81679767370224,0.1718859488516087,0.0009665309667707,-5.223180101667857e-05,-0.0013139692600816,0.0044136466458439,0.0546721331775188,-0.0059747919440269,0.0038011381402611,0.0144687425345182,0.9998703002929688,0.0068119721847026,-0.0390825799267721,0.0539083531896421,-0.0576939582824707,-0.0236795544624328,0.6186361312866211,52,52,15083,14305
24.0,1788267987369,4.816901206970215,5.605633735656738,-0.0026601045392453,0.0064068185165524,-0.5756141543388367,0.8176920413970947,0.1765319871153326,-0.0002417501863204,7.379934817570058e-05,0.0049427500925958,-0.0196503046900033,0.0647994726896286,-0.006049133837223,0.0034295544028282,0.017398614436388,0.9998244643211364,-0.000943849252669,-0.0046186573559238,0.0588065251408426,-0.0630977749824523,0.0405501127243042,0.3639993667602539,66,76,12760,15171
24.1,1788267987469,4.507042407989502,5.690140724182129,-0.0026972577907145,0.0060713994316756,-0.5678319931030273,0.8231176733970642,0.1745645281212188,0.0028955817773639,8.746025039902483e-06,0.0011480851098895,0.0001008799226838,0.1632952988147735,-0.0057625109329819,0.0032818485051393,0.0242023803293705,0.9996851682662964,-0.0017597723811045,0.0042860154892279,0.1642864054022084,0.1332523822784423,0.1653956770896911,-0.1081714630126953,90,78,13936,15256
24.2,1788267987569,4.563380241394043,5.605633735656738,-0.0027594480197876,0.0054677100852131,-0.5620986819267273,0.8270474076271057,0.1797290713960008,0.0024205165924412,7.341978969091532e-05,0.0054862741380929,-0.0279169846326112,0.1412282586097717,-0.0052273487672209,0.0027645779773592,0.0331922024488449,0.9994314908981324,0.0222636124001039,-0.0111613933611749,0.1368003424765586,-0.1079556941986084,0.1966773271560669,0.8048238754272461,53,64,13706,15293
24.3,1788267987669,4.8450703620910645,5.154929637908936,-0.0031680765096098,0.004693946801126,-0.5573959350585938,0.8302275538444519,0.1651184540118246,0.0022727841978158,-7.5442803981797905e-06,-0.0115906950086355,-0.0129850413650274,0.0850493982434272,-0.0053284587338566,0.0018149996176362,0.0378645807504653,0.9992671012878418,0.0004134557659299,-0.0434930745374424,0.0702330508162277,0.2005522847175598,-0.2424394488334655,0.2521486282348633,106,78,14993,14570
24.4,1788267987769,4.985915660858154,5.380281925201416,-0.0031351428478956,0.0047092987224459,-0.5562264323234558,0.8310115337371826,0.1715924969151989,-0.0010366044015529,-3.2431269982922576e-05,0.0006700118537992,0.0010070790303871,0.0597921200096607,-0.0053925616666674,0.0016106627881526,0.0404256172478199,0.9991667866706848,-0.0089207326158463,-0.0082363210307281,0.0533543514254344,0.0403295755386352,-0.0683372616767883,-0.3061647415161133,79,62,14809,14014
24.5,1788267987869,4.985915660858154,5.070422649383545,-0.0035061473026871,0.0043227453716099,-0.5544162392616272,0.8322209119796753,0.1741262336858379,-0.0023490978235737,2.065707886918623e-05,0.0019293376244604,0.010217560455203,0.0034025949425995,-0.0053427098318934,0.0016048233956098,0.0410848669707775,0.9991401433944702,0.0140358224421602,0.0475599587650985,-0.0138931515608357,0.029715359210968,0.1205863952636718,-1.2550649642944336,98,52,15934,13911
24.6,1788267987969,5.295774459838867,5.098591327667236,-0.0033783151302486,0.0043432461097836,-0.5553260445594788,0.8316145539283752,0.175231536340475,-0.0007934333622328,-0.0001500828029501,0.0011646666098386,0.0108503066003322,-0.0119462888687849,-0.0053194323554635,0.0016349134966731,0.0400994531810283,0.9991801977157592,-0.0157947048678972,-0.0394551279312096,-0.0016465492064346,0.0419611930847168,0.2040185928344726,0.0909242630004882,68,69,14582,14035
24.7,1788267988069,4.676056385040283,5.154929637908936,-0.0037609213031828,0.0040580313652753,-0.5553892254829407,0.8315720558166504,0.1698443326610434,0.001512232439581,5.310512571292832e-05,-0.0075855944305658,-0.0101570039987564,-0.0022773679811507,-0.005313754081726,0.0012778788805007,0.0403257422149181,0.9991716146469116,0.0103532249413871,0.0219531078047976,0.0221452536916533,0.0267809629440307,-0.1185300350189209,0.2610025405883789,46,103,15429,15130
24.8,1788267988169,4.8450703620910645,5.295774459838867,-0.0039435317739844,0.0036220944020897,-0.5539401173591614,0.8325392007827759,0.1800690678239983,-0.0016958213792061,5.714626057358776e-05,0.0035119969397783,-0.0188854523003101,0.0694198384881019,-0.0054273065179586,0.0005732234567403,0.0457834899425506,0.9989364743232728,-0.0038635431369528,-0.0011177038933814,0.1253128810665265,-0.2357324361801147,0.041099727153778,-0.0878238677978515,112,26,14696,14347
24.9,1788267988269,4.8450703620910645,5.126760482788086,-0.0042181122116744,0.0033293955493718,-0.5473706126213074,0.8368730545043945,0.1699598027443422,0.0002053267026129,3.3594727215014915e-05,0.0007067798869684,-0.0058733574114739,0.0736854597926139,-0.0053067347034811,0.0002608131617307,0.0495814718306064,0.9987560510635376,0.0028375732039618,0.000317899204812,0.0693905301968646,0.0081314444541931,-0.1262145638465881,-0.0947294235229492,66,89,14746,14921
25.0,1788267988369,5.154929637908936,5.098591327667236,-0.0042375223711133,0.0031310394406318,-0.5447537302970886,0.838579535484314,0.1790439908152838,-0.0029707089264036,2.392002579193895e-06,0.0048395195044577,-0.0077652749605476,0.0681531354784965,-0.0052644917741417,0.0004065744578838,0.0533646829426288,0.998561143875122,0.0015985670177353,0.0302885140704961,0.0460835354612975,-0.1359486579895019,-0.2443214654922485,0.2071161270141601,103,56,15190,13944
25.1,1788267988469,5.098591327667236,5.098591327667236,-0.0043978979811072,0.0032474598847329,-0.5441175103187561,0.8389912247657776,0.174637695771006,0.001816832647399,-2.0616827848770746e-07,-0.0086200898513197,-0.0124313179403543,0.0012432818766683,-0.005427798256278,-1.771841198205948e-05,0.053518459200859,0.9985520839691162,0.0124023689770516,-0.0031239212278333,-0.0029191354458216,0.0118415355682373,0.2143970131874084,0.8758735656738281,103,57,15040,13850
25.2,1788267988569,5.126760482788086,5.042253494262695,-0.0042904084548354,0.003009955631569,-0.543957531452179,0.8390964269638062,0.1685315402001645,0.0003413469892154,1.402994294807033e-05,0.0085847256705164,-0.0055503672920167,0.0074646021239459,-0.0051256697624921,-0.0004248823970556,0.0535634458065032,0.9985511898994446,-0.0003513879265067,-0.0131725890315031,-0.011866003139812,0.1105762124061584,-0.2995732426643371,0.3932752609252929,112,87,15297,14130
25.3,1788267988669,5.014084339141846,5.070422649383545,-0.0040541901253163,0.0028588797431439,-0.5438706278800964,0.8391544222831726,0.1827850517067539,0.0018928175460784,-9.621279041084008e-05,0.005131468642503,0.011111413128674,0.0060583655722439,-0.0048784147948026,-0.0001417146995663,0.0536774806678295,0.9985464215278624,0.0074100822712443,0.0076325541675185,-0.009566094784532,0.0281335711479187,-0.1477812528610229,0.0453567504882812,73,60,15725,13951
25.4,1788267988769,4.732394218444824,5.323943614959717,-0.0041059339419007,0.0025670605245977,-0.5441926121711731,0.8389463424682617,0.1863072938999508,-0.0009339000079709,1.5800558050990981e-07,0.0,-1.0588856014237535e-08,0.0,-0.0048203459009528,-0.0001304317265748,0.0533822663128376,0.998562514781952,0.0065866222533278,-0.0050924017442431,0.0019337529292286,-0.0617461204528808,-0.0338810086250305,-0.2220029830932617,52,87,15647,14526
25.5,1788267988869,4.985915660858154,5.183098793029785,-0.0036987038329243,0.0032027575653046,-0.5427852272987366,0.839857280254364,0.1782785754517665,-0.0024092922920919,-1.4377639182151594e-05,-0.0070570399984717,0.0200002826750278,0.0523475185036659,-0.0049574105069041,0.0005407342687249,0.0552294440567493,0.9984612464904784,-0.0233140861821281,0.0363902138080562,0.0218872857989592,0.0830582380294799,0.0042648911476135,-0.2604513168334961,76,69,14360,14717
25.6,1788267988969,5.014084339141846,5.295774459838867,-0.0037667769938707,0.0034283637069165,-0.5420486927032471,0.8403316736221313,0.1776734180464408,-0.0002441747385631,-3.1602884841297055e-05,-0.0072059892117977,0.005928689148277,0.0350518375635147,-0.0050185844302177,0.0005469061434268,0.056899931281805,0.998367190361023,0.0028794888064918,-0.0082957554814123,0.0356850725469448,-0.1368350982666015,-0.2255541682243347,0.2621278762817383,71,100,14559,14624
25.7,1788267989069,5.014084339141846,5.098591327667236,-0.0038522668182849,0.0037584046367555,-0.5399696826934814,0.8416672348976135,0.1784598247879486,0.0020449133430647,-8.552941675617455e-05,-0.0074102892540395,0.0126474481076002,0.0282990634441375,-0.0054677054286003,0.0009168032556772,0.0591565705835819,0.9982333779335022,-0.005734009435047,0.0014622378904574,0.0376794826677625,-0.0813589096069336,-0.2897294163703918,-0.1795940399169922,68,67,15353,14126
25.8,1788267989169,5.042253494262695,5.042253494262695,-0.0036613531410694,0.003896253183484,-0.539312481880188,0.8420887589454651,0.1779098238824268,-0.0028928371625101,-3.925826009882065e-05,0.0073737716302275,0.0069573428481817,0.0048863235861063,-0.0051871482282876,0.0012176362797617,0.0593062192201614,0.9982256293296814,0.0005961057395671,0.0100260730223776,0.0030116482111855,0.327929139137268,0.3850775957107544,0.2778358459472656,77,76,15727,14332
25.9,1788267989269,4.929577350616455,5.098591327667236,-0.0035565574653446,0.0044298665598034,-0.5389291644096375,0.8423319458961487,0.1815087583109108,0.0005240777629282,3.9221394552572704e-05,-0.0102225700393319,0.0031585874967277,0.0281953494995832,-0.0054982993751764,0.001299318857491,0.0595851577818393,0.9982072114944458,-0.0211778001181738,0.0046559428698511,0.0226275835701975,-0.0334147214889526,0.037679374217987,-0.8743181228637695,76,98,14617,15321
26.0,1788267989369,4.788732528686523,5.183098793029785,-0.0035752318799495,0.0048450087197124,-0.5377061367034912,0.8431109189987183,0.1820739571669918,4.188270366284067e-05,-9.812500537701608e-05,-0.0096846465021371,0.0132732773199677,0.058057677000761,-0.0057020066305994,0.0016904901713132,0.0629781484603881,0.9979972839355468,-0.0141761187388803,-0.0221304799493721,0.040260144385691,0.0757530927658081,0.1072337627410888,-0.7560529708862305,63,64,15174,14829
26.1,1788267989469,5.042253494262695,5.239436626434326,-0.0039323763921856,0.0043930802494287,-0.5349763035774231,0.8448464870452881,0.1840865712792578,-0.0010120732789442,0.0001462887668557,-0.0039758849889039,-0.0221247039735317,0.0346588902175426,-0.0057469140738248,0.0011992286890745,0.0642013847827911,0.9979196786880492,0.0045195265418888,-0.0140423543440907,0.0309939119739993,-0.0675140023231506,-0.0793001651763916,-0.1082096099853515,74,103,14191,14701
26.2,1788267989569,5.183098793029785,4.957746505737305,-0.0036762910895049,0.0045924396254122,-0.5333171486854553,0.8458949327468872,0.1907893854447626,-0.0003150942995988,1.0846293597500796e-05,-0.0032602797728031,-0.0056062247604131,0.0147614227607846,-0.0054336013272404,0.0012439033016562,0.066253125667572,0.9977872967720032,0.0157281931713267,-0.0196851718426523,-0.0082888841885722,0.0072522163391113,-0.136097252368927,0.033635139465332,71,64,16084,13339
26.3,1788267989669,5.154929637908936,4.985915660858154,-0.0036312169395387,0.0041550267487764,-0.5337106585502625,0.8456491827964783,0.178740144267828,0.0017987453363864,7.139642450573393e-05,0.0108899679034948,-0.0137325059622526,-0.0186090804636478,-0.0054330779239535,0.0012082448229193,0.0655966624617576,0.9978306889533995,-0.0054241369110036,0.0006981356673713,-0.0128881703423354,0.0517236590385437,0.0758042335510253,0.2655954360961914,69,64,14932,14256
26.4,1788267989769,5.183098793029785,4.957746505737305,-0.0036184883210808,0.0042982213199138,-0.5341192483901978,0.8453904390335083,0.1787498991409059,-9.520902796559034e-05,-2.6523246151948776e-05,-0.0025905126240104,0.0052065677009522,-0.0192787442356348,-0.0049435161054134,0.0017940988764166,0.0658242851495742,0.99781733751297,0.0104051142453018,0.0118294584985503,0.0295318753482974,0.0214882493019104,0.1496431231498718,-1.328752517700195,99,33,16287,13341
26.5,1788267989869,5.183098793029785,4.901408672332764,-0.002797036897391,0.0041379397734999,-0.5337512493133545,0.845626711845398,0.1823073234782958,0.001592667722125,1.1029093507466124e-05,0.0111148450523614,-0.0016946787945926,0.0073682400397956,-0.0044674072414636,0.0014975266531109,0.0660933703184127,0.9978023171424866,0.0023679001216485,-0.0103504331687502,0.0085382430455309,0.0075146555900573,0.0540080666542053,0.1685352325439453,107,56,16148,13436
26.6,1788267989969,5.014084339141846,5.239436626434326,-0.0027225094381719,0.0036701608914881,-0.5347490906715393,0.8449985384941101,0.1814390642311076,-0.0042081372711144,-3.1056756602655285e-05,0.0107403835281729,0.0094145806506276,-0.058828018605709,-0.0044046882539987,0.0015642624348402,0.0636159181594848,0.9979634881019592,-0.0043849278369323,0.011517065376204,-0.072617772961177,-0.2535285353660583,0.0859239697456359,-0.0751609802246093,78,57,14554,14454
26.7,1788267990069,4.11267614364624,5.943662166595459,-0.0025721418205648,0.0029426817782223,-0.5346938371658325,0.8450368046760559,0.1765221022077535,0.0036137647091044,1.686580893863539e-05,0.0182369109243154,-0.0142845353111624,0.0742240101099014,-0.0037152487784624,0.0007791826501488,0.0652747526764869,0.997860074043274,0.0231556149356098,-0.0177116070583892,0.137855084191539,-0.0036638975143432,0.3479946851730346,0.2066202163696289,38,99,12747,17057
26.8,1788267990169,4.14084529876709,5.97183084487915,-0.0027797324582934,0.0034900777973234,-0.5307351350784302,0.847525954246521,0.1833887295832966,0.0064947576922565,-5.836037242960133e-05,-0.0196972992271184,0.0139010697603225,0.1946186572313308,-0.0043781921267509,0.0014545740559697,0.0770933255553245,0.99701327085495,-0.0023959641667507,0.0214293581905206,0.3271897416364621,0.1138088107109069,0.0252659320831298,-1.014601707458496,78,83,12782,16655
