time_s,timestamp_ms,wheel_vels__velocity_left,wheel_vels__velocity_right,odom__orient_x,odom__orient_y,odom__orient_z,odom__orient_w,odom__lin_x,odom__lin_y,odom__lin_z,odom__ang_x,odom__ang_y,odom__ang_z,imu__orient_x,imu__orient_y,imu__orient_z,imu__orient_w,imu__angvel_x,imu__angvel_y,imu__angvel_z,imu__acc_x,imu__acc_y,imu__acc_z,wheel_status__current_ma_left,wheel_status__current_ma_right,wheel_status__pwm_left,wheel_status__pwm_right
0.0,1788443541035,0.0,0.0,-0.0010562647366896,-0.0039670229889452,0.9883276224136353,0.1522882580757141,0.0,0.0,0.0,0.0,0.0,0.0,-0.0006616795435547,-0.0040710717439651,0.9977383017539978,0.0670919194817543,-5.929360902202048e-05,0.000496283678811,0.0013237298337281,0.0129730701446533,-0.0077610611915588,-0.0023403167724609,0,0,0,0
0.1,1788443541135,0.0,0.0,-0.0010562647366896,-0.0039670229889452,0.9883276224136353,0.1522882580757141,0.0,0.0,0.0,0.0,0.0,0.0,-0.0006616795435547,-0.0040710717439651,0.9977383017539978,0.0670919194817543,-5.929360902202048e-05,0.000496283678811,0.0013237298337281,0.0129730701446533,-0.0077610611915588,-0.0023403167724609,0,0,0,0
0.2,1788443541235,0.0,0.0,-0.0010562647366896,-0.0039670229889452,0.9883276224136353,0.1522882580757141,0.0,0.0,0.0,0.0,0.0,0.0,-0.0006616795435547,-0.0040710717439651,0.9977383017539978,0.0670919194817543,-5.929360902202048e-05,0.000496283678811,0.0013237298337281,0.0129730701446533,-0.0077610611915588,-0.0023403167724609,0,0,0,0
0.3,1788443541335,0.0,0.0,-0.0010562647366896,-0.0039670229889452,0.9883276224136353,0.1522882580757141,0.0,0.0,0.0,0.0,0.0,0.0,-0.0006616795435547,-0.0040710717439651,0.9977383017539978,0.0670919194817543,-5.929360902202048e-05,0.000496283678811,0.0013237298337281,0.0129730701446533,-0.0077610611915588,-0.0023403167724609,0,0,0,0
0.4,1788443541435,0.0,0.0,-0.0010562647366896,-0.0039670229889452,0.9883276224136353,0.1522882580757141,0.0,0.0,0.0,0.0,0.0,0.0,-0.0006616795435547,-0.0040710717439651,0.9977383017539978,0.0670919194817543,-5.929360902202048e-05,0.000496283678811,0.0013237298337281,0.0129730701446533,-0.0077610611915588,-0.0023403167724609,0,0,0,0
0.5,1788443541535,0.0,0.0,-0.0010562647366896,-0.0039670229889452,0.9883276224136353,0.1522882580757141,0.0,0.0,0.0,0.0,0.0,0.0,-0.0006616795435547,-0.0040710717439651,0.9977383017539978,0.0670919194817543,-5.929360902202048e-05,0.000496283678811,0.0013237298337281,0.0129730701446533,-0.0077610611915588,-0.0023403167724609,0,0,0,0
0.6,1788443541635,0.0,0.0,-0.0010562647366896,-0.0039670229889452,0.9883276224136353,0.1522882580757141,0.0,0.0,0.0,0.0,0.0,0.0,-0.0006616795435547,-0.0040710717439651,0.9977383017539978,0.0670919194817543,-5.929360902202048e-05,0.000496283678811,0.0013237298337281,0.0129730701446533,-0.0077610611915588,-0.0023403167724609,0,0,0,0
0.7,1788443541735,0.0,0.0,-0.0010562647366896,-0.0039670229889452,0.9883276224136353,0.1522882580757141,0.0,0.0,0.0,0.0,0.0,0.0,-0.0006616795435547,-0.0040710717439651,0.9977383017539978,0.0670919194817543,-5.929360902202048e-05,0.000496283678811,0.0013237298337281,0.0129730701446533,-0.0077610611915588,-0.0023403167724609,0,0,0,0
0.8,1788443541835,0.0,0.0,-0.0010562647366896,-0.0039670229889452,0.9883276224136353,0.1522882580757141,0.0,0.0,0.0,0.0,0.0,0.0,-0.0006616795435547,-0.0040710717439651,0.9977383017539978,0.0670919194817543,-5.929360902202048e-05,0.000496283678811,0.0013237298337281,0.0129730701446533,-0.0077610611915588,-0.0023403167724609,0,0,0,0
0.9,1788443541935,0.0,0.0,-0.0010562647366896,-0.0039670229889452,0.9883276224136353,0.1522882580757141,0.0,0.0,0.0,0.0,0.0,0.0,-0.0006616795435547,-0.0040710717439651,0.9977383017539978,0.0670919194817543,-5.929360902202048e-05,0.000496283678811,0.0013237298337281,0.0129730701446533,-0.0077610611915588,-0.0023403167724609,0,0,0,0
1.0,1788443542035,0.0,0.0,-0.0010562647366896,-0.0039670229889452,0.9883276224136353,0.1522882580757141,0.0,0.0,0.0,0.0,0.0,0.0,-0.0006616795435547,-0.0040710717439651,0.9977383017539978,0.0670919194817543,-5.929360902202048e-05,0.000496283678811,0.0013237298337281,0.0129730701446533,-0.0077610611915588,-0.0023403167724609,0,0,0,0
1.1,1788443542135,0.0,0.0,-0.0010562647366896,-0.0039670229889452,0.9883276224136353,0.1522882580757141,0.0,0.0,0.0,0.0,0.0,0.0,-0.0006616795435547,-0.0040710717439651,0.9977383017539978,0.0670919194817543,-5.929360902202048e-05,0.000496283678811,0.0013237298337281,0.0129730701446533,-0.0077610611915588,-0.0023403167724609,0,0,0,0
1.2,1788443542235,0.0,0.0,-0.0010562647366896,-0.0039670229889452,0.9883276224136353,0.1522882580757141,0.0,0.0,0.0,0.0,0.0,0.0,-0.0006616795435547,-0.0040710717439651,0.9977383017539978,0.0670919194817543,-5.929360902202048e-05,0.000496283678811,0.0013237298337281,0.0129730701446533,-0.0077610611915588,-0.0023403167724609,0,0,0,0
1.3,1788443542335,0.0,0.0,-0.0010562647366896,-0.0039670229889452,0.9883276224136353,0.1522882580757141,0.0,0.0,0.0,0.0,0.0,0.0,-0.0006616795435547,-0.0040710717439651,0.9977383017539978,0.0670919194817543,-5.929360902202048e-05,0.000496283678811,0.0013237298337281,0.0129730701446533,-0.0077610611915588,-0.0023403167724609,0,0,0,0
1.4,1788443542435,0.0,0.0,-0.0010562647366896,-0.0039670229889452,0.9883276224136353,0.1522882580757141,0.0,0.0,0.0,0.0,0.0,0.0,-0.0006616795435547,-0.0040710717439651,0.9977383017539978,0.0670919194817543,-5.929360902202048e-05,0.000496283678811,0.0013237298337281,0.0129730701446533,-0.0077610611915588,-0.0023403167724609,0,0,0,0
1.5,1788443542535,0.0,0.0,-0.0010562647366896,-0.0039670229889452,0.9883276224136353,0.1522882580757141,0.0,0.0,0.0,0.0,0.0,0.0,-0.0006616795435547,-0.0040710717439651,0.9977383017539978,0.0670919194817543,-5.929360902202048e-05,0.000496283678811,0.0013237298337281,0.0129730701446533,-0.0077610611915588,-0.0023403167724609,0,0,0,0
1.6,1788443542635,0.0,0.0,-0.0010562647366896,-0.0039670229889452,0.9883276224136353,0.1522882580757141,0.0,0.0,0.0,0.0,0.0,0.0,-0.0006616795435547,-0.0040710717439651,0.9977383017539978,0.0670919194817543,-5.929360902202048e-05,0.000496283678811,0.0013237298337281,0.0129730701446533,-0.0077610611915588,-0.0023403167724609,0,0,0,0
1.7,1788443542735,0.0,0.0,-0.0010562647366896,-0.0039670229889452,0.9883276224136353,0.1522882580757141,0.0,0.0,0.0,0.0,0.0,0.0,-0.0006616795435547,-0.0040710717439651,0.9977383017539978,0.0670919194817543,-5.929360902202048e-05,0.000496283678811,0.0013237298337281,0.0129730701446533,-0.0077610611915588,-0.0023403167724609,0,0,0,0
1.8,1788443542835,0.0,0.0,-0.0010562647366896,-0.0039670229889452,0.9883276224136353,0.1522882580757141,0.0,0.0,0.0,0.0,0.0,0.0,-0.0006616795435547,-0.0040710717439651,0.9977383017539978,0.0670919194817543,-5.929360902202048e-05,0.000496283678811,0.0013237298337281,0.0129730701446533,-0.0077610611915588,-0.0023403167724609,0,0,0,0
1.9,1788443542935,0.0,0.0,-0.0010562647366896,-0.0039670229889452,0.9883276224136353,0.1522882580757141,0.0,0.0,0.0,0.0,0.0,0.0,-0.0006616795435547,-0.0040710717439651,0.9977383017539978,0.0670919194817543,-5.929360902202048e-05,0.000496283678811,0.0013237298337281,0.0129730701446533,-0.0077610611915588,-0.0023403167724609,0,0,0,0
2.0,1788443543035,0.0,0.0,-0.0010562647366896,-0.0039670229889452,0.9883276224136353,0.1522882580757141,0.0,0.0,0.0,0.0,0.0,0.0,-0.0006616795435547,-0.0040710717439651,0.9977383017539978,0.0670919194817543,-5.929360902202048e-05,0.000496283678811,0.0013237298337281,0.0129730701446533,-0.0077610611915588,-0.0023403167724609,0,0,0,0
2.1,1788443543135,0.0,0.0,-0.0010562647366896,-0.0039670229889452,0.9883276224136353,0.1522882580757141,0.0,0.0,0.0,0.0,0.0,0.0,-0.0006616795435547,-0.0040710717439651,0.9977383017539978,0.0670919194817543,-5.929360902202048e-05,0.000496283678811,0.0013237298337281,0.0129730701446533,-0.0077610611915588,-0.0023403167724609,0,0,0,0
2.2,1788443543235,0.0,0.0,-0.0010562647366896,-0.0039670229889452,0.9883276224136353,0.1522882580757141,0.0,0.0,0.0,0.0,0.0,0.0,-0.0006616795435547,-0.0040710717439651,0.9977383017539978,0.0670919194817543,-5.929360902202048e-05,0.000496283678811,0.0013237298337281,0.0129730701446533,-0.0077610611915588,-0.0023403167724609,0,0,0,0
2.3,1788443543335,0.0,0.0,-0.0010562647366896,-0.0039670229889452,0.9883276224136353,0.1522882580757141,0.0,0.0,0.0,0.0,0.0,0.0,-0.0006616795435547,-0.0040710717439651,0.9977383017539978,0.0670919194817543,-5.929360902202048e-05,0.000496283678811,0.0013237298337281,0.0129730701446533,-0.0077610611915588,-0.0023403167724609,0,0,0,0
2.4,1788443543435,0.0,0.0,-0.0010562647366896,-0.0039670229889452,0.9883276224136353,0.1522882580757141,0.0,0.0,0.0,0.0,0.0,0.0,-0.0006616795435547,-0.0040710717439651,0.9977383017539978,0.0670919194817543,-5.929360902202048e-05,0.000496283678811,0.0013237298337281,0.0129730701446533,-0.0077610611915588,-0.0023403167724609,0,0,0,0
2.5,1788443543535,0.0,0.0,-0.0010562647366896,-0.0039670229889452,0.9883276224136353,0.1522882580757141,0.0,0.0,0.0,0.0,0.0,0.0,-0.0006616795435547,-0.0040710717439651,0.9977383017539978,0.0670919194817543,-5.929360902202048e-05,0.000496283678811,0.0013237298337281,0.0129730701446533,-0.0077610611915588,-0.0023403167724609,0,0,0,0
2.6,1788443543635,0.0,0.0,-0.0010562647366896,-0.0039670229889452,0.9883276224136353,0.1522882580757141,0.0,0.0,0.0,0.0,0.0,0.0,-0.0006616795435547,-0.0040710717439651,0.9977383017539978,0.0670919194817543,-5.929360902202048e-05,0.000496283678811,0.0013237298337281,0.0129730701446533,-0.0077610611915588,-0.0023403167724609,0,0,0,0
2.7,1788443543735,0.0,0.0,-0.0010562647366896,-0.0039670229889452,0.9883276224136353,0.1522882580757141,0.0,0.0,0.0,0.0,0.0,0.0,-0.0006616795435547,-0.0040710717439651,0.9977383017539978,0.0670919194817543,-5.929360902202048e-05,0.000496283678811,0.0013237298337281,0.0129730701446533,-0.0077610611915588,-0.0023403167724609,0,0,0,0
2.8,1788443543835,0.0,0.0,-0.0010562647366896,-0.0039670229889452,0.9883276224136353,0.1522882580757141,0.0,0.0,0.0,0.0,0.0,0.0,-0.0006616795435547,-0.0040710717439651,0.9977383017539978,0.0670919194817543,-5.929360902202048e-05,0.000496283678811,0.0013237298337281,0.0129730701446533,-0.0077610611915588,-0.0023403167724609,0,0,0,0
2.9,1788443543935,0.0,0.0,-0.0010562647366896,-0.0039670229889452,0.9883276224136353,0.1522882580757141,0.0,0.0,0.0,0.0,0.0,0.0,-0.0006616795435547,-0.0040710717439651,0.9977383017539978,0.0670919194817543,-5.929360902202048e-05,0.000496283678811,0.0013237298337281,0.0129730701446533,-0.0077610611915588,-0.0023403167724609,0,0,0,0
3.0,1788443544035,0.0,0.0,-0.0010562647366896,-0.0039670229889452,0.9883276224136353,0.1522882580757141,0.0,0.0,0.0,0.0,0.0,0.0,-0.0006616795435547,-0.0040710717439651,0.9977383017539978,0.0670919194817543,-5.929360902202048e-05,0.000496283678811,0.0013237298337281,0.0129730701446533,-0.0077610611915588,-0.0023403167724609,0,0,0,0
3.1,1788443544135,0.0,0.0,-0.0010562647366896,-0.0039670229889452,0.9883276224136353,0.1522882580757141,0.0,0.0,0.0,0.0,0.0,0.0,-0.0006616795435547,-0.0040710717439651,0.9977383017539978,0.0670919194817543,-5.929360902202048e-05,0.000496283678811,0.0013237298337281,0.0129730701446533,-0.0077610611915588,-0.0023403167724609,0,0,0,0
3.2,1788443544235,0.0,0.0,-0.0010562647366896,-0.0039670229889452,0.9883276224136353,0.1522882580757141,0.0,0.0,0.0,0.0,0.0,0.0,-0.0006616795435547,-0.0040710717439651,0.9977383017539978,0.0670919194817543,-5.929360902202048e-05,0.000496283678811,0.0013237298337281,0.0129730701446533,-0.0077610611915588,-0.0023403167724609,0,0,0,0
3.3,1788443544335,0.0,0.0,-0.0010562647366896,-0.0039670229889452,0.9883276224136353,0.1522882580757141,0.0,0.0,0.0,0.0,0.0,0.0,-0.0006616795435547,-0.0040710717439651,0.9977383017539978,0.0670919194817543,-5.929360902202048e-05,0.000496283678811,0.0013237298337281,0.0129730701446533,-0.0077610611915588,-0.0023403167724609,0,0,0,0
3.4,1788443544435,0.0,0.0,-0.0010562647366896,-0.0039670229889452,0.9883276224136353,0.1522882580757141,0.0,0.0,0.0,0.0,0.0,0.0,-0.0006616795435547,-0.0040710717439651,0.9977383017539978,0.0670919194817543,-5.929360902202048e-05,0.000496283678811,0.0013237298337281,0.0129730701446533,-0.0077610611915588,-0.0023403167724609,0,0,0,0
3.5,1788443544535,0.0,0.0,-0.0010180857498198,-0.0039550815708935,0.9883331060409546,0.1522532105445861,0.0,0.0,0.0,0.0,0.0,0.0,-0.0006616795435547,-0.0040710717439651,0.9977383017539978,0.0670919194817543,-5.929360902202048e-05,0.000496283678811,0.0013237298337281,0.0129730701446533,-0.0077610611915588,-0.0023403167724609,0,0,0,0
3.6,1788443544635,0.0,0.0,-0.0010000652400776,-0.0039997864514589,0.9883337020874025,0.1522484570741653,0.0,0.0,0.0,0.0,0.0,0.0,-0.0006447052583098,-0.0040671853348612,0.9977375864982604,0.0671031102538108,0.0017175205022511,0.0017473561164298,8.070675223142248e-05,-0.0161003470420837,-0.0276504158973693,0.0083093643188476,0,0,0,0
3.7,1788443544735,0.0,0.0,-0.0010000652400776,-0.0039997864514589,0.9883337020874025,0.1522484570741653,0.0,0.0,0.0,0.0,0.0,0.0,-0.0005910387262701,-0.004064917564392,0.9977381825447084,0.0670939683914184,-0.0002654245005798,-0.0007380881012509,0.0001043113093967,0.0097942948341369,0.0333004593849182,0.0103740692138671,0,0,0,0
3.8,1788443544835,0.0,0.0,-0.0009291260503232,-0.0039984667673707,0.9883366227149964,0.15222929418087,7.000286267857883e-05,-7.90933266379969e-05,-5.963135687572278e-07,0.000484307820443,-0.0028021009638905,0.000764810363762,-0.0006075147539377,-0.0040604127570986,0.9977385401725768,0.0670896917581558,0.0003424769677971,0.0001931092005666,2.8256420272664823e-05,0.0065242052078247,0.0098465085029602,0.0210466384887695,0,0,0,0
3.9,1788443544935,0.0,0.0,-0.0009308368898928,-0.0040110675618052,0.9883384108543396,0.1522177457809448,3.9098727527292266e-05,-4.646347533974376e-05,-3.561768967128008e-07,-0.0004972431925125,-1.0757883501355536e-05,0.0004567696887534,-0.0006324239075183,-0.0040830336511135,0.997738003730774,0.0670955702662468,-0.0002689583472153,0.0019342067035002,-0.0010664448277176,-0.0001664757728576,-0.0488638281822204,0.0010433197021484,0,0,0,0
4.0,1788443545035,0.0,0.0,-0.000983707839623,-0.0040088430978357,0.9883411526679992,0.1521997153759002,0.0001212862085751,-0.000138244372766,-1.0515191020282878e-06,0.0001814725255826,0.0001980401575565,0.0013738601701334,-0.0006203334778547,-0.0041147004812955,0.9977393746376038,0.067073680460453,-0.0012555583865847,0.0008835569034898,-0.0011990831259875,-0.0148043036460876,-0.0267192721366882,0.0046863555908203,0,0,0,0
4.1,1788443545135,0.0,0.0,-0.0009817829122766,-0.0040479330345988,0.9883407950401306,0.1522012501955032,-5.570242239346737e-06,4.737936067572162e-06,3.4930411526131714e-08,-0.0012500690063461,-0.0002557979023549,-5.295602750265971e-05,-0.0006234655156731,-0.0040983706712722,0.9977416396141052,0.0670410767197609,-5.460907284946344e-05,0.0001395706642856,-9.643464343735752e-05,-0.0057246685028076,0.0053101778030395,0.0012226104736328,0,0,0,0
4.2,1788443545235,0.0,0.0,-0.0009631022112444,-0.004031685180962,0.9883443117141724,0.1521790623664856,7.867393176238858e-05,-9.101895211087944e-05,-6.997735074608308e-07,0.0007551375892944,-0.0006427951739169,0.000895110249985,-0.0006375182420015,-0.0040942505002021,0.9977406859397888,0.0670554861426353,-0.0005864978095819,0.0003308183423855,0.0002509110804853,-0.0018500089645385,0.0034351348876953,0.0048065185546875,0,0,0,0
4.3,1788443545335,0.0,0.0,-0.0009631022112444,-0.004031685180962,0.9883443117141724,0.1521790623664856,0.0,0.0,0.0,0.0,-2.9174873628079467e-09,0.0,-0.0006126752123236,-0.0040858378633856,0.9977381825447084,0.0670933723449707,0.0004766117048929,0.0012237281709202,-0.0009926676650952,0.0048868656158447,-0.0146611928939819,-0.0114336013793945,0,0,0,0
4.4,1788443545435,0.0,0.0,-0.0009631022112444,-0.004031685180962,0.9883443117141724,0.1521790623664856,0.0,0.0,0.0,0.0,-2.376472130194429e-09,0.0,-0.0005987435579299,-0.0040758363902568,0.9977402687072754,0.0670629143714904,-0.0002811072023823,-0.0003151672613298,0.0004410036141606,-0.0061427950859069,0.0048655867576599,-0.0077857971191406,0,0,0,0
4.5,1788443545535,0.0,0.0,-0.0010090414434671,-0.0040012802928686,0.9883362054824828,0.1522319018840789,-6.422719054436264e-05,7.387681016752002e-05,5.609843277256499e-07,-0.0002534697705414,0.0015151312109082,-0.000718853494618,-0.000706915743649,-0.0040545705705881,0.9977371096611024,0.0671088173985481,0.0010449568637253,0.0027330581154041,-0.0012040747602654,0.0104222297668457,-0.0240611433982849,-0.0312480926513671,0,0,0,0
4.6,1788443545635,0.0,0.0,-0.0010644090361893,-0.0039723245427012,0.9883307218551636,0.1522678583860397,-0.0001398594251443,0.00016093023079,1.212118103964382e-06,0.0007909097475931,0.0021286832634359,-0.0015780586982145,-0.000730562955141,-0.0040537547320127,0.9977354407310486,0.0671344399452209,-4.763406217002408e-05,0.0014840383859859,-0.0015980199889218,-0.0106828212738037,-0.0258982181549072,-0.0169181823730468,0,0,0,0
4.7,1788443545735,0.0,0.0,-0.0011009235167875,-0.0039635892026126,0.9883333444595336,0.1522508561611175,2.9191453967508417e-05,-3.255829220336902e-05,-2.4038532362481795e-07,0.0007569172885268,0.0014609929639846,0.0003359692345838,-0.0007250970229506,-0.0040518874302506,0.9977372288703918,0.0671082511544227,0.0001137584687918,-0.0002685938236596,0.0002359902699438,-0.0089740753173828,-0.0151548981666564,-0.0204801559448242,0,0,0,0
4.8,1788443545835,0.0,0.0,-0.0010770140215754,-0.0039641126058995,0.988335907459259,0.1522341072559356,5.723889107575552e-05,-6.962515731768633e-05,-5.18818099301502e-07,0.0003963952767662,0.0006295228959061,0.0006864195456728,-0.0006529027596116,-0.0040091341361403,0.9977424144744872,0.0670340806245803,0.0010119454097731,-0.0022058254559614,0.0019016721849191,0.0147989392280578,-0.0053912997245788,-0.0006723403930664,0,0,0,0
4.9,1788443545935,0.0,0.0,-0.0010457723401486,-0.0039325840771198,0.9883434176445008,0.1521863937377929,0.0001375418235208,-0.0001616900636003,-1.1932164193065652e-06,0.0011830517323687,-0.000865978654474,0.0015887799672782,-0.0006968937814235,-0.0039981873705983,0.9977409839630128,0.0670549049973487,-5.824337889375292e-05,0.0022881808851658,0.0006150328114771,-0.013052761554718,-0.0073408484458923,-0.0025234222412109,0,0,0,0
5.0,1788443546035,0.0,0.0,-0.0009967084042727,-0.0039080213755369,0.9883477687835692,0.1521594077348709,3.875867277174885e-05,-4.394755882563922e-05,-3.193625065429468e-07,0.0005820108926855,-0.0023105926811695,0.0004178910457994,-0.0006673019379377,-0.0039924979209899,0.9977436661720276,0.0670153275132179,-0.0007171552853765,0.0003381683918564,0.0004274302496981,0.0204935669898986,-0.0201122164726257,0.0100336074829101,0,0,0,0
5.1,1788443546135,0.0,0.0,-0.0009921714663505,-0.003946020733565,0.9883534908294678,0.1521213501691818,8.743404374221587e-05,-9.92878450030782e-05,-7.283489710687237e-07,-0.0012390469200909,-0.0013389361556619,0.0009768340969458,-0.0006477031856775,-0.0040827374905347,0.9977458119392396,0.0669796019792556,-0.0020643313889966,0.0002510894199566,-0.0001066353901523,0.0110557079315185,-0.0002942085266113,-0.0168428421020507,0,0,0,0
5.2,1788443546235,0.0,0.0,-0.0010181671241298,-0.004025830887258,0.9883567690849304,0.152098000049591,3.82766149182025e-05,-4.042827695177208e-05,-3.024389820057013e-07,-0.0026766185183078,0.0019394983537495,0.000425498408731,-0.0006797555834054,-0.0041004847735166,0.9977473020553588,0.0669550374150276,-0.0009279717176857,0.0014337970426583,0.0011552270972533,0.0134375095367431,0.0107943415641784,0.0029630661010742,0,0,0,0
5.3,1788443546335,0.0,0.0,-0.0010642538545653,-0.0040726298466324,0.9883572459220886,0.1520928293466568,-3.9328158266975385e-05,4.56569833564518e-05,3.4782881238037337e-07,-0.0011900691315531,0.0011711288243532,-0.0004419637261889,-0.0007336298003792,-0.0041324803605675,0.997748613357544,0.0669326409697532,0.0004441892956994,0.0004852620355943,0.0012432863801906,0.0198317170143127,0.0024463534355163,0.0208940505981445,0,0,0,0
5.4,1788443546435,0.0,0.0,-0.00106229679659,-0.0040574455633759,0.9883658289909364,0.1520377099514007,8.919617303685408e-05,-0.0001096009008658,-8.322981682751923e-07,-6.039821164449677e-05,-0.0010350019438192,0.0010626235743984,-0.0007152929902076,-0.0041316589340567,0.9977501034736632,0.066911794245243,0.0004695730145713,0.0005178511415296,-0.0009817357297703,-0.0002193450927734,-0.013584017753601,-0.0241012573242187,0,0,0,0
5.5,1788443546535,0.0,0.0,-0.00106229679659,-0.0040574455633759,0.9883658289909364,0.1520377099514007,8.919617303685408e-05,-0.0001096009008658,-8.322981682751923e-07,-6.039821164449677e-05,-0.0010350019438192,0.0010626235743984,-0.0006804224103689,-0.004133915528655,0.9977527856826782,0.066871166229248,-0.0007688251052497,-0.0003666221812215,0.0007853417040601,0.004464566707611,0.0204607844352722,-0.0042057037353515,0,0,0,0
5.6,1788443546635,0.0,0.0,-0.0010479053016752,-0.00406248960644,0.9883671402931212,0.1520293056964874,-7.164778896463788e-05,8.037114049422489e-05,6.126673165200098e-07,-0.0001812653499655,0.0006509309168905,-0.000793486542534,-0.000661052763462,-0.0041043991222977,0.9977526664733888,0.0668753981590271,0.0001190273305519,-0.0018086379008019,0.000789499243849,-0.0102334022521972,0.030642032623291,-0.0077829360961914,0,0,0,0
5.7,1788443546735,0.0,0.0,-0.001044979551807,-0.0040213959291577,0.9883677363395692,0.1520266085863113,1.1048008337504129e-05,-8.444168872072986e-06,-6.126495973043401e-08,0.0013776631094515,0.0001122038593166,9.34940981096588e-05,-0.0006458507850766,-0.0041345953941345,0.9977529048919678,0.0668700635433197,-5.190112242276086e-05,-0.000190210228645,0.0013209106825821,0.0091537833213806,0.0167356133460998,0.0209217071533203,0,0,0,0
5.8,1788443546835,0.0,0.0,-0.0009924038313329,-0.0040739583782851,0.988371968269348,0.1519979536533355,8.479064575177763e-05,-9.698881588549846e-05,-7.472164348955485e-07,-0.0002898977545555,1.3745327123615423e-05,0.0009624556987546,-0.0006333673372864,-0.0041775377467274,0.997751235961914,0.0668930634856224,-0.0016675451021014,-0.0007146677454324,-0.0017336419243451,0.0034777522087097,-0.0326935052871704,0.0117378234863281,0,0,0,0
5.9,1788443546935,0.0,0.0,-0.0009958127047866,-0.0040919072926044,0.9883703589439392,0.1520075798034668,0.000109131351123,-0.0001272266043805,-9.971676176569646e-07,0.0008911830955184,0.0009249523282051,0.0012653486337512,-0.0006366306915879,-0.0041769305244088,0.997752845287323,0.0668679550290107,-0.0007314462399073,-0.0003213782177856,2.4939492203149514e-05,-0.0071924924850463,0.0123055577278137,-0.0150489807128906,0,0,0,0
6.0,1788443547035,0.0,0.0,-0.0009715124033391,-0.0041570514440536,0.9883711338043212,0.1520011872053146,1.409931394646207e-05,-1.439015159509794e-05,-1.1147646310853439e-07,-0.0012530381791293,-0.0011227969080209,0.0001368544762954,-0.0005595777183771,-0.0041860826313495,0.9977535605430604,0.0668572708964347,0.0008588117238561,-0.0007374667323503,0.0004397622138271,-0.0033670663833618,0.005045473575592,0.0226259231567382,0,0,0,0
6.1,1788443547135,0.0,0.0,-0.0009282224345952,-0.0041335541754961,0.988370954990387,0.1520027965307235,-7.182003455766538e-06,5.664682809870384e-06,4.3507428101477364e-08,0.0012870942009612,-0.0016931758727878,-7.657612150069326e-05,-0.0005595777183771,-0.0041860826313495,0.9977535605430604,0.0668572708964347,0.0008588117238561,-0.0007374667323503,0.0004397622138271,-0.0033670663833618,0.005045473575592,0.0226259231567382,0,0,0,0
6.2,1788443547235,0.0,0.0,-0.0009282224345952,-0.0041335541754961,0.988370954990387,0.1520027965307235,-7.182003455766538e-06,5.664682809870384e-06,4.3507428101477364e-08,0.0012870942009612,-0.0016931758727878,-7.657612150069326e-05,-0.0005970709025859,-0.0041394066065549,0.9977543950080872,0.0668486803770065,7.232545583715328e-05,-0.0005433480204001,0.0005235748433016,-0.0115169286727905,0.0419532656669616,0.0065736770629882,0,0,0,0
6.3,1788443547335,0.0,0.0,-0.000908441375941,-0.004094866104424,0.9883708357810974,0.1520048975944519,-2.786556636655559e-05,3.283437708479819e-05,2.596576224827249e-07,0.0009552571573294,-0.0009941672906279,-0.0003314534842502,-0.0005280654877424,-0.0041582910344004,0.9977555871009828,0.0668288990855217,3.549771093426867e-05,-0.0008920178713442,0.0012276273315257,-0.0002970695495605,0.0135460495948791,-0.0079078674316406,0,0,0,0
6.4,1788443547435,0.0,0.0,-0.0008703687926754,-0.0040866304188966,0.9883764386177064,0.1519693583250045,2.2672219929488025e-05,-2.5674519960563905e-05,-2.0293321187487434e-07,0.0005917402449995,-0.0010363854235038,0.0002457674709148,-0.000549154356122,-0.0041428720578551,0.9977539777755736,0.0668545216321945,0.0008228346192444,0.0022722226824914,-0.0004476911743963,0.0019362568855285,0.016861081123352,-0.0079050064086914,0,0,0,0
6.5,1788443547535,0.0,0.0,-0.0008840229129418,-0.0040651401504874,0.9883766174316406,0.1519682258367538,5.1993845889888925e-06,-3.0116342208764743e-06,-2.263875842959029e-08,0.000651849724818,0.0005699071916751,4.155822898610495e-05,-0.0005604345351457,-0.004086791537702,0.9977550506591796,0.0668427199125289,0.0016821694870161,0.0027591671027698,-0.0004972489866751,-0.0067938566207885,-0.0113430023193359,0.0350570678710937,0,0,0,0
6.6,1788443547635,0.0,0.0,-0.0008590880897827,-0.0040548159740865,0.9883752465248108,0.1519777774810791,-1.489484832236008e-05,1.624145684476784e-05,1.2816942139846474e-07,0.0010104172397404,-0.0002077663957607,-0.000164977973327,-0.0005604345351457,-0.004086791537702,0.9977550506591796,0.0668427199125289,0.0016821694870161,0.0027591671027698,-0.0004972489866751,-0.0067938566207885,-0.0113430023193359,0.0350570678710937,0,0,0,0
6.7,1788443547735,0.0,0.0,-0.0008590880897827,-0.0040548159740865,0.9883752465248108,0.1519777774810791,-1.489484832236008e-05,1.624145684476784e-05,1.2816942139846474e-07,0.0010104172397404,-0.0002077663957607,-0.000164977973327,-0.0005604345351457,-0.004086791537702,0.9977550506591796,0.0668427199125289,0.0016821694870161,0.0027591671027698,-0.0004972489866751,-0.0067938566207885,-0.0113430023193359,0.0350570678710937,0,0,0,0
6.8,1788443547835,0.0,0.0,-0.0008590880897827,-0.0040548159740865,0.9883752465248108,0.1519777774810791,-1.489484832236008e-05,1.624145684476784e-05,1.2816942139846474e-07,0.0010104172397404,-0.0002077663957607,-0.000164977973327,-0.0005604345351457,-0.004086791537702,0.9977550506591796,0.0668427199125289,0.0016821694870161,0.0027591671027698,-0.0004972489866751,-0.0067938566207885,-0.0113430023193359,0.0350570678710937,0,0,0,0
6.9,1788443547935,0.0,0.0,-0.000826240167953,-0.0040440708398818,0.9883739352226256,0.151986762881279,-9.540582385432094e-05,0.0001057748994502,8.283855742246051e-07,0.0001333309628535,-0.0012760593090206,-0.0010672645876184,-0.0004767784848809,-0.0041186651214957,0.9977555871009828,0.0668320432305336,-0.0005828050742548,-0.0009782135186749,-0.0001121788407175,-0.0084084868431091,-0.0214913487434387,0.0026369094848632,0,0,0,0
7.0,1788443548035,0.0,0.0,-0.0008470333414152,-0.0040959622710943,0.9883805513381958,0.1519423574209213,8.202785992128353e-05,-9.451920873276472e-05,-7.503184890366783e-07,-0.0015238558407872,0.0007057167240418,0.0009426819742657,-0.0004866635426878,-0.0041443053632974,0.997758448123932,0.0667888224124908,0.0007276937111005,0.0001995393965015,0.0004763222708642,0.0330879688262939,0.027575135231018,-0.0114917755126953,0,0,0,0
7.1,1788443548135,0.0,0.0,-0.000838708889205,-0.0040877959690988,0.988383412361145,0.1519238948822021,6.386545254050291e-05,-7.598474585482392e-05,-6.073664971180534e-07,0.0003727641305886,-0.0002822003443725,0.0007451934507116,-0.000525570474565,-0.0041252840310335,0.9977600574493408,0.0667642578482627,0.0009837372266768,-0.0003530421408832,0.0021381264983176,-0.0038607120513916,0.0253788232803344,0.0081968307495117,0,0,0,0
7.2,1788443548235,0.0,0.0,-0.0008681496838107,-0.0040618130005896,0.9883859157562256,0.1519085764884948,-1.5375303621506837e-05,1.714263222254898e-05,1.346712901337793e-07,0.0001843152276705,-0.0003151065320707,-0.0001737005950417,-0.0005234451964497,-0.0040754470974206,0.9977620840072632,0.0667369812726974,0.0011841450904795,-0.0005330362825801,0.0020265350454382,0.0087277889251708,-0.0097678899765014,0.0188283920288085,0,0,0,0
7.3,1788443548335,0.0,0.0,-0.0008557527326047,-0.0040024206973612,0.9883927702903748,0.1518651694059372,0.000147882992691,-0.0001714900809902,-1.336489213660208e-06,0.0013111415319144,-0.0008075873483903,0.0016892439452931,-0.0005015637725591,-0.0040516974404454,0.997763991355896,0.0667102709412574,0.0010097973598915,-0.0008173837598242,0.001071815116213,0.0101521015167236,-0.0048074722290039,0.0008811950683593,0,0,0,0
7.4,1788443548435,0.0,0.0,-0.0008464545826427,-0.0039939121343195,0.9883950352668762,0.1518508493900299,3.9473677420376975e-05,-4.820369616476097e-05,-3.75136904964763e-07,0.00031822710298,-0.0002578954736236,0.0004689345078077,-0.0004926118999719,-0.0040203053504228,0.99776291847229,0.0667294487357139,0.00048494913939,-0.0001760319301621,0.0007007130809093,-0.0079386830329895,0.0269088149070739,-0.0026273727416992,0,0,0,0
7.5,1788443548535,0.0,0.0,-0.0008362200460396,-0.0039481855928897,0.9883882403373718,0.1518962383270263,-0.0001176028077011,0.0001330216028058,1.0258549425607956e-06,0.0007128725992515,0.0006282854010351,-0.0013170142192393,-0.0004952801391482,-0.0040052626281976,0.9977611899375916,0.0667561367154121,0.000594371252305,0.0001512073281415,-0.0010705933081446,0.0263141989707946,0.0104585886001586,0.0081243515014648,0,0,0,0
7.6,1788443548635,0.0,0.0,-0.00090245163301,-0.0039346641860902,0.988391637802124,0.1518740504980087,2.255772943199089e-05,-2.483582025877475e-05,-1.882850917239368e-07,0.0003928480728063,0.0009426747565157,0.0002571815275587,-0.0005426872521638,-0.0040054256096482,0.9977620840072632,0.0667417123913765,-5.635861720909711e-05,0.0005429094521939,-0.0002849059527195,-0.0069215297698974,-0.0253756046295166,-0.0100469589233398,0,0,0,0
7.7,1788443548735,0.0,0.0,-0.0008654774865135,-0.0039247181266546,0.9883922934532166,0.1518703252077102,3.0660941485461466e-05,-3.422533629947294e-05,-2.5831426516905375e-07,4.9374288209946826e-05,-0.0002223436167696,0.0003395658568479,-0.0005444483831524,-0.0039732968434691,0.9977623224258424,0.0667395517230033,0.0007512919171817,0.0004979690687124,-0.0005072477807513,-0.0122089982032775,0.038722276687622,-0.0259866714477539,0,0,0,0
7.8,1788443548835,0.0,0.0,-0.0009122246410697,-0.0039231982082128,0.9883913397789,0.151876151561737,1.5197907029464371e-05,-1.5116489320610564e-05,-1.125062800529188e-07,-0.0006457547424361,0.0011573629453778,0.0001630626939004,-0.0005852179601788,-0.0039809886366128,0.9977625012397766,0.0667363479733467,0.0008035659258635,0.0022200167697027,0.0007651271238929,-0.0024796724319458,0.002868115901947,0.0079975128173828,0,0,0,0
7.9,1788443548935,0.0,0.0,-0.0009100432507693,-0.0039294436573982,0.988393485546112,0.1518618911504745,-2.9362198159104296e-05,3.139589158563715e-05,2.340640814041788e-07,-0.0007730543729849,0.0003543698985595,-0.0003135880106128,-0.0005669565871357,-0.0039934189990162,0.9977639317512512,0.0667138770222663,-0.0006499914993212,0.0001795446880055,-1.661450061588112e-05,0.0115376710891723,-0.0094282627105712,-0.0046243667602539,0,0,0,0
8.0,1788443549035,0.0,0.0,-0.0009211878059431,-0.0039312141016125,0.9883968830108644,0.1518395841121673,7.862610223162706e-05,-9.09998976999456e-05,-6.844244534817084e-07,-0.0001379646128043,0.0004261909925844,0.000904131506104,-0.0005869781598448,-0.0039814254269003,0.9977644085884094,0.0667084977030754,-0.0004103587400696,-0.000166613350342,-0.0011839770589547,-0.0024356842041015,-0.0294354557991027,0.0060415267944335,0,0,0,0
8.1,1788443549135,0.0,0.0,-0.0009338922100141,-0.003876335453242,0.9883973002433776,0.151838481426239,3.893316910275925e-05,-4.346485222327118e-05,-3.23821998068535e-07,0.0015566637739539,0.0005788650596514,0.0004378352023195,-0.0005964329466223,-0.0039456719532608,0.997766137123108,0.0666833668947219,0.0002125457854251,-0.0007055026669373,0.00082813447082,0.0211571455001831,0.0130116343498229,-0.0009565353393554,0,0,0,0
8.2,1788443549235,0.0,0.0,-0.0009319023229181,-0.0038801562041044,0.9883994460105896,0.1518242359161377,3.822448116443505e-05,-4.640779043183057e-05,-3.4321142944172684e-07,-0.0001096001287805,-8.203690231312066e-05,0.0004534510080702,-0.0006320420652627,-0.0039445254951715,0.9977647066116332,0.0667047277092933,-4.8972191383118085e-05,0.0014279396916313,-0.0008507362410662,-0.0014995336532592,0.0130181908607482,0.0043964385986328,0,0,0,0
8.3,1788443549335,0.0,0.0,-0.0009855453390628,-0.0039163501933217,0.9884000420570374,0.1518194079399109,3.6664612542541503e-05,-4.260869590422305e-05,-3.166365406085375e-07,0.000464491546154,0.0006218595663085,0.0004263715818524,-0.0007003024220466,-0.0039851227775216,0.9977670907974244,0.0666673481464386,-0.0011533790994962,0.000550566551652,0.0011775708175775,-0.0056073069572448,0.0192811489105224,0.0097808837890625,0,0,0,0
8.4,1788443549435,0.0,0.0,-0.0010331117082387,-0.0039312629960477,0.9884016513824464,0.1518077701330185,4.856285038103221e-05,-6.017682869058442e-05,-4.423929684971297e-07,-0.0010077899787575,0.0003471227537374,0.0005886427825316,-0.0006872853264212,-0.0040138689801096,0.9977667927742004,0.0666700229048729,-0.0010986523818244,-0.0005883116259899,-0.0001088759939986,0.0282164812088012,-0.0214996933937072,0.0150480270385742,0,0,0,0
8.5,1788443549535,0.0,0.0,-0.0010331117082387,-0.0039312629960477,0.9884016513824464,0.1518077701330185,4.856285038103221e-05,-6.017682869058442e-05,-4.423929684971297e-07,-0.0010077899787575,0.0003471227537374,0.0005886427825316,-0.0007194094359874,-0.0040133027359843,0.997765064239502,0.0666945800185203,-0.0004088259066516,0.00232060312047,0.0004388791497735,0.0055128335952758,0.0198999643325805,0.0008068084716796,0,0,0,0
8.6,1788443549635,0.0,0.0,-0.0010699083795771,-0.0039357477799057,0.9883981347084044,0.1518305838108062,0.0,0.0,0.0,0.0,-4.475077197696464e-09,0.0,-0.0007771318778395,-0.0040058586746454,0.9977663159370422,0.0666763931512832,0.0003432439876586,0.0015480143540594,0.0008343723776537,0.0228636860847473,0.012790560722351,-0.0351419448852539,0,0,0,0
8.7,1788443549735,0.0,0.0,-0.0011094170622527,-0.0039153704419732,0.988400936126709,0.1518125236034393,-7.961528487038193e-06,7.704741407931396e-06,5.5439794528445055e-08,0.0006130270194262,0.0027587607037276,-5.744419831898995e-05,-0.0007771318778395,-0.0040058586746454,0.9977663159370422,0.0666763931512832,0.0003432439876586,0.0015480143540594,0.0008343723776537,0.0228636860847473,0.012790560722351,-0.0351419448852539,0,0,0,0
8.8,1788443549835,0.0,0.0,-0.0011346621904522,-0.0039324490353465,0.9883953332901,0.1518484801054,0.0,0.0,0.0,0.0,-4.6625037164460545e-09,0.0,-0.0008033271878957,-0.0040058502927422,0.9977662563323976,0.0666768923401832,0.0002174353357445,0.0002789457653484,0.0011949759317597,0.0036046504974365,-0.0069631338119506,-0.0262870788574218,0,0,0,0
8.9,1788443549935,0.0,0.0,-0.0011472117621451,-0.0039193546399474,0.9884005188941956,0.1518156826496124,0.0001118989973921,-0.0001277448778107,-9.197415842818714e-07,0.0004214853106532,0.0005453012418001,0.0012726396089419,-0.0007977187633514,-0.0040370440110564,0.9977657198905944,0.0666822269558906,-0.0003926556796889,-0.0011775024720623,0.0003285725246175,0.0016337633132934,-0.0028001070022583,-0.0155048370361328,0,0,0,0
9.0,1788443550035,0.0,0.0,-0.0011299601756036,-0.0039507821202278,0.9883965849876404,0.1518400013446808,-2.31987144960131e-05,2.700334633667793e-05,1.937357196954811e-07,-0.000196195411263,-0.0018346859142184,-0.0002810591249726,-0.0008607935160398,-0.0040339492261409,0.9977654814720154,0.0666864961385726,-0.0010269237917041,0.0007921872967899,0.0002186150087057,-0.0007606744766235,-0.0136581659317016,0.0113840103149414,0,0,0,0
9.1,1788443550135,0.0,0.0,-0.0012063374742865,-0.0039334027096629,0.9883983135223388,0.1518283635377884,0.0,0.0,0.0,0.0,0.0,0.0,-0.0008594272658228,-0.004065397195518,0.9977641701698304,0.066703587770462,-0.0007552183846912,0.000651799625147,-0.000667403230291,-0.0116350650787353,-0.0256845951080322,0.0292835235595703,0,0,0,0
9.2,1788443550235,0.0,0.0,-0.0011795447207987,-0.0039801360107958,0.9883962869644164,0.151840478181839,0.0,0.0,0.0,0.0,-4.6742267834076764e-09,0.0,-0.0008330279961228,-0.0040943790227174,0.9977651238441468,0.0666880905628204,-0.0006903680636551,-0.0010202990294468,-0.0009650503436521,0.009415328502655,0.0432937145233154,-0.0189161300659179,0,0,0,0
9.3,1788443550335,0.0,0.0,-0.0012031109072268,-0.0039870464242994,0.9884016513824464,0.1518050134181976,0.0001024534979812,-0.0001179524604868,-8.552615425720774e-07,-0.0003407668264117,0.0007219879189506,0.0011743947397917,-0.0008606798946857,-0.0040930211544036,0.9977656006813048,0.0666805803775787,-0.0012890228672321,0.0005490986078672,-0.0011729726945736,0.0352128744125366,-0.000212013721466,0.0284948348999023,0,0,0,0
9.4,1788443550435,0.0,0.5070422291755676,-0.001207789639011,-0.0040043522603809,0.988399088382721,0.1518213748931884,4.031662468520972e-05,-4.861170872601409e-05,-3.5264783531949295e-07,-0.0007317842100746,-0.0004903562366962,0.0004725543258246,-0.0008432706817984,-0.004141230136156,0.9977814555168152,0.0664408057928085,-0.0035249612676398,0.0011667887137089,0.0160627517938219,0.2610247135162353,0.1656011939048767,0.1156606674194336,526,464,-16742,14906
9.5,1788443550535,-3.802816867828369,2.507042169570923,-0.0011710480321198,-0.0041312081739306,0.990636706352234,0.1364567428827285,-0.0256986074533248,-0.0004897584562067,7.844219666831648e-06,1.6935013263719156e-05,-0.0110737010836601,0.6380616426467896,-0.0008432706817984,-0.004141230136156,0.9977814555168152,0.0664408057928085,-0.0035249612676398,0.0011667887137089,0.0160627517938219,0.2610247135162353,0.1656011939048767,0.1156606674194336,526,464,-16742,14906
9.6,1788443550635,0.0,1.2957746982574463,-0.0014262706972658,-0.0042818887159228,0.9957907795906068,0.0915446504950523,0.0459278420294252,-0.0169877717998784,2.4401856655041838e-05,0.0026362650096416,-0.0034736136440187,0.7541788816452026,0.0008298875764012,0.0042108697816729,-0.9999861121177672,0.0030603120103478,0.0014748945123991,0.0050340816952774,0.1362816070726133,-0.3296548128128052,0.0552632808685302,-0.0417985916137695,83,504,-21194,15768
9.7,1788443550735,0.0,-0.591549277305603,-0.0011746201198548,-0.0041431677527725,0.996431529521942,0.0842950120568275,0.0427207524370825,-0.0082048333394824,1.7236269868005429e-06,0.0060221119783818,-0.0105813182890415,0.2853428721427917,0.0007705297321081,0.0041911229491233,-0.9999837875366212,0.0037804311141371,0.0007807128594189,-0.0025784181080131,0.0297167675046889,-0.242724061012268,-0.1390223503112793,-0.0640125274658203,0,44,0,0
9.8,1788443550835,0.0,-0.591549277305603,-0.001058024354279,-0.0041599180549383,0.9966304302215576,0.0819111168384552,-0.0019428022948261,-0.0032100111156734,-1.6199004976070034e-06,0.0,0.0,0.0,0.000648827292025,0.0041028391569852,-0.9999880790710448,0.0025640008971095,-3.4139791304863946e-05,0.0014941911246269,-0.0134082192920627,-0.1662532091140747,0.1410489678382873,-0.0107231140136718,0,44,0,0
9.9,1788443550935,0.0,0.0,-0.001058024354279,-0.0041599180549383,0.9966304302215576,0.0819111168384552,-0.0019428022948261,-0.0032100111156734,-1.6199004976070034e-06,0.0,0.0,0.0,0.0005661686882376,0.0041416371241211,-0.9999880790710448,0.0025040544569492,-5.2998887564275206e-05,0.0011849970851848,0.0001673822758843,-0.0619882941246032,0.1595250964164734,0.0523529052734375,0,0,0,0
10.0,1788443551035,0.0,0.0,-0.0008972431533038,-0.0040880339220166,0.9965344667434692,0.0830757692456245,-0.0001971120386433,-0.0002030258872475,-1.9031380705955483e-06,0.0,0.0,0.0,0.0005869334563612,0.0041559915989637,-0.9999881386756896,0.0024590920656919,-0.0007151089680479,0.0010511032180971,-0.0022480781529885,-0.0723701119422912,0.0071111321449279,0.0589208602905273,0,0,0,0
10.1,1788443551135,0.0,0.0,-0.0009218204068019,-0.0041167926974594,0.9965277910232544,0.0831537023186683,-0.0005856852135739,0.0001572188682985,6.009886751400119e-07,-0.000800451321993,-0.0012166853994131,-0.0016274608206003,0.0005770940333604,0.0041734091937541,-0.9999881386756896,0.0024291295558214,-0.0001638900763641,-0.0004910593527875,-0.0010060158878423,0.0118794441223144,-0.01042240858078,0.0374088287353515,0,0,0,0
10.2,1788443551235,0.0,0.0,-0.000895470730029,-0.0041317595168948,0.9965280890464784,0.0831498801708221,1.2324388588780917e-05,-1.599585098667201e-05,-1.1949749370633886e-07,-0.0005072099156677,-0.0010968266287818,0.0001481836952734,0.0004651201888918,0.0042060548439621,-0.9999880194664,0.0024511087685823,-5.430184913776896e-05,-0.0008664303471964,0.0014907709323181,0.016891062259674,-0.0294772982597351,0.0229740142822265,0,0,0,0
10.3,1788443551335,0.0,0.0,-0.0008382503292523,-0.0041599799878895,0.996528387069702,0.0831461995840072,0.0004454574322772,6.426761123859552e-06,4.902598670592477e-07,0.0,0.0,0.0,0.0004864707589149,0.0042485827580094,-0.9999878406524658,0.0024350341409444,-0.0022319988378964,0.0023884060234285,-0.0012000603107257,0.0065104961395263,0.0054095983505249,0.0410633087158203,0,0,0,0
10.4,1788443551435,0.0,0.0,-0.0008108018664643,-0.0041617066599428,0.9965293407440186,0.0831344425678253,0.0,0.0,0.0,0.0,2.322543934951682e-09,0.0,0.0004666792228817,0.0042365435510873,-0.9999879002571106,0.002451105043292,0.0004726566786576,-0.0007844746365583,0.0006307702636421,0.0096992850303649,-0.0146322846412658,0.0535593032836914,0,0,0,0
10.5,1788443551535,0.0,0.0,-0.0008170931832864,-0.0041947406716644,0.99653297662735,0.083089604973793,0.0001628167438547,-0.0001891949385704,-1.4473192462350148e-06,-0.0005132899386808,-0.0004709893546532,0.0018676372710615,0.0005036005750298,0.0042483136057853,-0.999987781047821,0.0024944553151726,0.0002699075750079,0.0019956972138342,0.0004431205328596,0.004404604434967,-0.0008745789527893,0.017409324645996,0,0,0,0
10.6,1788443551635,0.0,0.0,-0.0008170931832864,-0.0041947406716644,0.99653297662735,0.083089604973793,0.0,0.0,0.0,0.0,-2.3155899420146397e-09,0.0,0.0004984233528375,0.0042562102898955,-0.9999877214431764,0.0024810973554849,-5.22558359257654e-05,-2.5171141670581865e-05,0.0002944411752006,0.0260788798332214,-0.0136769413948059,-0.0129919052124023,0,0,0,0
10.7,1788443551735,0.0,0.0,-0.0008608381031081,-0.0041979397647082,0.9965314865112304,0.0831061676144599,-0.000474373606006,3.5939338133104594e-05,-1.7057312823073333e-07,-9.006712934933603e-05,0.0003080384922213,-0.0004177590308245,0.0004974473267793,0.0042822239920496,-0.9999876022338868,0.0024848459288477,-0.0006904517075202,-0.0004758890139096,0.0003188541181491,-0.0061567425727844,0.0115111470222473,0.0158605575561523,0,0,0,0
10.8,1788443551835,0.0,0.0,-0.0008608381031081,-0.0041979397647082,0.9965314865112304,0.0831061676144599,0.0,0.0,0.0,0.0,0.0,0.0,0.0005335565656423,0.0042995335534214,-0.999987542629242,0.0025143101811408,0.0001595787110545,-0.0005837060750349,0.000640734049225,0.0092431902885437,-0.0312982201576232,0.0373306274414062,0,0,0,0
10.9,1788443551935,0.0,0.0,-0.0008608381031081,-0.0041979397647082,0.9965314865112304,0.0831061676144599,0.0,0.0,0.0,0.0,0.0,0.0,0.0005335565656423,0.0042995335534214,-0.999987542629242,0.0025143101811408,0.0001595787110545,-0.0005837060750349,0.000640734049225,0.0092431902885437,-0.0312982201576232,0.0373306274414062,0,167,-5232,5284
11.0,1788443552035,0.0,3.6619718074798575,-0.0008608381031081,-0.0041979397647082,0.9965314865112304,0.0831061676144599,0.0,0.0,0.0,0.0,0.0,0.0,0.000972194597125,0.0043347552418708,-0.999646246433258,0.0262246094644069,0.0044801323984446,0.0123213424884429,0.6377924117471483,-0.1740460991859436,-0.0631893277168273,-0.0258913040161132,0,195,-32767,13484
11.1,1788443552135,0.0,3.633802890777588,-0.0014565767487511,-0.0041030496358871,0.99906986951828,0.0428997389972209,0.0718830867311936,-0.0031112374069597,-7.769386878722543e-06,0.0032635191455483,-0.000578599050641,0.5918993949890137,0.0005910582840442,0.003757988102734,-0.9981896877288818,0.0600235946476459,0.0162957261176574,-0.020158800317148,0.504437682602781,0.0342691540718078,0.1672843694686889,0.0740289688110351,0,195,-32767,13484
11.2,1788443552235,0.0,3.7183098793029785,-0.0007988103316165,-0.0035781585611402,0.999853014945984,0.0167482923716306,0.0604143741827362,-0.0024161563565217,9.898913637503232e-06,0.0096687320619821,-0.0098458714783191,0.499717116355896,-7.113441824913025e-05,0.0029925573617219,-0.9963675141334534,0.0851056203246116,0.0204658508464382,-0.0252071588297623,0.5023787220719423,0.068329632282257,0.1648048758506775,0.2715978622436523,0,134,-32767,12305
11.3,1788443552335,-4.169013977050781,3.577464818954468,8.76152771525085e-05,0.0028660870157182,-0.999961793422699,0.0082567017525434,0.0568495259455098,-0.002304763776984,1.8203939275415934e-05,0.0096991239115595,-0.0114415446296334,0.4901877343654632,0.000307354144752,0.0028398931026458,-0.994853675365448,0.1012822687625885,0.0051402314367091,0.0370816665794153,0.5946346645727801,-2.558419704437256,0.3283154368400574,0.2041788101196289,227,187,-15689,10812
11.4,1788443552435,-1.436619758605957,3.6056337356567374,0.0006295698694884,0.0026434913743287,-0.9997344017028807,0.0228834599256515,0.00203716139356,-0.0052951369211277,7.194136952613446e-07,0.0115614496171474,0.0255846790969371,0.75130295753479,0.0006078081205487,0.0025010891258716,-0.9873491525650024,0.1585407853126526,0.0011108531821683,-0.0022064872119005,1.2093924248097268,1.3830838203430176,-0.5810744166374207,0.0763416290283203,124,68,-21579,10761
11.5,1788443552535,0.0,1.6338027715682983,0.0012887391494587,0.0030117332935333,-0.9946858286857604,0.1029043644666671,0.0346814612063137,-0.0042788460377087,1.4168585870585642e-06,-0.0083063198253512,0.0014453368494287,0.3085167407989502,0.0010824976488947,0.0031788861379027,-0.9819805026054382,0.1889525949954986,-0.0097796174609994,0.0075738650713719,0.1962588771451603,-0.1036739945411682,-0.4306101202964782,0.1504850387573242,124,68,-21579,10761
11.6,1788443552635,0.0,0.0,0.0013610322494059,0.0030622803606092,-0.9944643378257751,0.1050207465887069,0.0072990209120693,-0.0033195710229064,-2.472832843768156e-06,-0.0012995410943403,0.0019962908700108,0.0598161183297634,0.0010691545903682,0.0031190952286124,-0.9818519949913024,0.1896201521158218,0.0011293422273215,-2.3299319115636007e-05,-0.0066506441392982,-0.0303606986999511,-0.0739656686782836,0.0639829635620117,0,0,0,0
11.7,1788443552735,0.0,0.0,0.0013610322494059,0.0030622803606092,-0.9944643378257751,0.1050207465887069,-0.0001652107582987,-0.0001684126558187,-1.5311230605503805e-06,0.0,0.0,0.0,0.0010691545903682,0.0031190952286124,-0.9818519949913024,0.1896201521158218,0.0011293422273215,-2.3299319115636007e-05,-0.0066506441392982,-0.0303606986999511,-0.0739656686782836,0.0639829635620117,0,0,0,0
11.8,1788443552835,0.0,0.0,0.0013610322494059,0.0030622803606092,-0.9944643378257751,0.1050207465887069,0.0,0.0,0.0,0.0,0.0,0.0,0.00101407058537,0.0030975146219134,-0.9818551540374756,0.1896044313907623,-0.0008462988717074,-0.0009479150764283,-0.0006432713469916,0.0403951406478881,-0.0147417783737182,0.0229959487915039,0,0,0,0
11.9,1788443552935,0.0,0.0,0.0013610322494059,0.0030622803606092,-0.9944643378257751,0.1050207465887069,0.0,0.0,0.0,0.0,0.0,0.0,0.0010235346853733,0.0030979579314589,-0.9818515777587892,0.1896228492259979,0.000115638234097,-0.0004756023677985,0.0003968625616583,0.0315390825271606,0.0065987706184387,0.0697689056396484,0,0,0,0
12.0,1788443553035,0.0,0.0,0.0013610322494059,0.0030622803606092,-0.9944643378257751,0.1050207465887069,0.0,0.0,0.0,0.0,0.0,0.0,0.0009324233978986,0.0030929911881685,-0.9818397164344788,0.1896848082542419,0.0013046315227925,-0.0017962782944503,0.0012565450418044,0.0459611415863037,0.0212868452072143,0.0500850677490234,0,0,0,0
12.1,1788443553135,0.0,0.0,0.0013610322494059,0.0030622803606092,-0.9944643378257751,0.1050207465887069,0.0,0.0,0.0,0.0,0.0,0.0,0.0009028632193803,0.0030731679871678,-0.981845200061798,0.1896570026874542,0.0002172968514181,-0.0013672001354693,-0.000654426313772,0.0004101991653442,-0.049044907093048,0.0533380508422851,0,0,0,0
12.2,1788443553235,0.0,0.0,0.0013610322494059,0.0030622803606092,-0.9944643378257751,0.1050207465887069,0.0,0.0,0.0,0.0,0.0,0.0,0.0009028632193803,0.0030731679871678,-0.981845200061798,0.1896570026874542,0.0002172968514181,-0.0013672001354693,-0.000654426313772,0.0004101991653442,-0.049044907093048,0.0533380508422851,0,0,0,0
12.3,1788443553335,0.0,0.0,0.0013610322494059,0.0030622803606092,-0.9944643378257751,0.1050207465887069,0.0,0.0,0.0,0.0,0.0,0.0,0.0008724406361579,0.0030271569266915,-0.9818429946899414,0.1896690875291824,-4.969239768373507e-05,-0.0003196682377263,-0.0006228377826415,0.055330753326416,-0.0390485525131225,0.0552434921264648,0,0,0,0
12.4,1788443553435,0.0,0.0,0.0013610322494059,0.0030622803606092,-0.9944643378257751,0.1050207465887069,0.0,0.0,0.0,0.0,0.0,0.0,0.0009323619306087,0.0029514683410525,-0.9818434715270996,0.1896676272153854,0.0022470432815173,0.0009038971493623,0.0006107781182728,-0.0227217674255371,0.0018391609191894,-0.0228080749511718,0,0,0,0
12.5,1788443553535,0.0,0.0,0.0013610322494059,0.0030622803606092,-0.9944643378257751,0.1050207465887069,0.0,0.0,0.0,0.0,0.0,0.0,0.0008844127878546,0.0030044317245483,-0.981844425201416,0.189662367105484,-0.0018357649251664,-0.0004314437178088,-0.0009417761817815,-0.0019729733467102,-0.0143064856529235,0.0355072021484375,0,0,0,0
12.6,1788443553635,0.0,2.6478872299194336,0.0013610322494059,0.0030622803606092,-0.9944643378257751,0.1050207465887069,0.0,0.0,0.0,0.0,0.0,0.0,0.0008974019438028,0.0032800640910863,-0.9810768365859984,0.1935891807079315,-0.0095994758434023,0.0044663790749487,0.1879341472403935,0.4251089096069336,0.3371509313583374,0.1182899475097656,0,314,-28208,13509
12.7,1788443553735,0.0,3.774647951126098,0.0011791626457124,0.0034376760013401,-0.9932161569595336,0.1162261739373207,0.0481090054710974,0.0022010219657674,-1.6125540179477032e-06,-0.0134369153529405,0.0008541585411876,0.3879838585853576,0.002012051641941,0.004979008808732,-0.9763187766075134,0.2162700593471527,-0.0374856330063035,0.0412610580148215,0.482933113396504,-0.1714413166046142,-0.0297402143478393,-0.1765060424804687,0,278,-32767,13060
12.8,1788443553835,0.0,3.070422649383545,0.0025871626567095,0.0049899504519999,-0.9898980259895324,0.1416696906089782,0.0654307936332078,-0.0038732883453037,-2.0538496844379663e-05,-0.0171349626034498,0.0129896188154816,0.5379956960678101,0.0005251318216323,0.0030413623899221,-0.968943417072296,0.2472632080316543,0.0458321832586957,-0.0699816366527295,0.546333203335672,-0.0868447422981262,-0.0296241641044616,-0.911212921142578,0,278,-32767,13060
12.9,1788443553935,0.0,2.901408433914185,0.0016121375374495,0.0037800758145749,-0.987967014312744,0.1546101123094558,0.0635236610549369,0.0009482517122209,3.009406403014744e-05,0.040943082422018,-0.0481837317347526,0.5269531607627869,0.0005289195105433,0.0028286110609769,-0.9636881947517396,0.2670148015022278,-0.0008405243873115,0.0096471087888481,0.4676910322145354,0.0983689427375793,0.0792673230171203,0.3736658096313476,0,451,-32767,16255
13.0,1788443554035,0.0,2.901408433914185,0.0004696935066021,0.002279658569023,-0.9811622500419616,0.1931713074445724,0.0625476118919994,-0.0024295342376607,-2.156267190391185e-06,0.0186967495828866,-0.012656008824706,0.5277597904205322,0.0005289195105433,0.0028286110609769,-0.9636881947517396,0.2670148015022278,-0.0008405243873115,0.0096471087888481,0.4676910322145354,0.0983689427375793,0.0792673230171203,0.3736658096313476,196,214,-15737,14408
13.1,1788443554135,0.0,2.901408433914185,0.0004696935066021,0.002279658569023,-0.9811622500419616,0.1931713074445724,0.0625476118919994,-0.0024295342376607,-2.156267190391185e-06,0.0186967495828866,-0.012656008824706,0.5277597904205322,0.0004249159246683,0.0015513207763433,-0.9373899698257446,0.3482779562473297,0.0008706162838859,-0.0106800654214371,1.2430899280181924,1.6728496551513672,-0.5500929355621338,0.1253395080566406,24,287,-10863,14522
13.2,1788443554235,-1.211267590522766,3.1549296379089355,0.0008010995225049,0.0014499651733785,-0.9595104455947876,0.2816682457923889,0.0547539586812454,-0.0143298223067281,1.5111582653874944e-05,0.005243940744549,0.0068049281835556,0.6807895302772522,0.0009706132113933,0.0017677368596196,-0.9290242791175842,0.3700133860111236,-0.0065527432838612,0.0087839475528185,0.1801174530974131,-0.4596959948539734,-0.3694797158241272,0.2113227844238281,0,36,-26554,4576
13.3,1788443554335,0.0,1.183098554611206,0.0010563536779955,0.0016446749214082,-0.957158863544464,0.2895567417144775,0.0021923761671587,-0.0033306716367612,-1.7555817061986511e-06,0.0003429162024985,-0.002267278265208,0.0249995701014995,0.0008457079529762,0.0016347793862223,-0.9289385080337524,0.3702293634414673,-0.000589150179507,0.0019452115281102,0.0052406581113026,0.0330304503440856,-0.0326077938079834,0.0282955169677734,0,0,0,0
13.4,1788443554435,0.0,0.0,0.0009699265938252,0.0015532481484115,-0.9572285413742064,0.2893271148204803,0.0004048802070959,4.445347964108379e-06,1.1264502625303571e-06,0.0,0.0,0.0,0.0007434226572513,0.0015884926542639,-0.928950846195221,0.370198905467987,-0.0006711554886503,-0.0018356764571111,-0.0005597689259953,0.0128055214881896,-0.0472754836082458,0.0784988403320312,0,0,0,0
13.5,1788443554535,0.0,0.0,0.0009699265938252,0.0015532481484115,-0.9572285413742064,0.2893271148204803,0.0,0.0,0.0,0.0,0.0,0.0,0.0007257461547851,0.0016185892745852,-0.9289340376853944,0.3702410757541656,-0.0003223562319673,-0.0013676787477619,0.0016367429708069,0.034325897693634,0.0092915892601013,0.0248661041259765,0,0,0,0
13.6,1788443554635,0.0,0.0,0.0009699265938252,0.0015532481484115,-0.9572285413742064,0.2893271148204803,0.0,0.0,0.0,0.0,0.0,0.0,0.0007309047505259,0.0016517816111445,-0.9289565682411194,0.370184451341629,-0.0004771427518488,0.0008062317734161,-0.0008553171612638,0.0220749974250793,-0.0314852595329284,0.0336675643920898,0,0,0,0
13.7,1788443554735,0.0,0.0,0.0009699265938252,0.0015532481484115,-0.9572285413742064,0.2893271148204803,0.0,0.0,0.0,0.0,0.0,0.0,0.0007307492196559,0.0016846032813191,-0.9289495944976808,0.370201826095581,-0.001220104749395,0.000478222861804,0.0007469333492765,0.038450002670288,-0.0112085938453674,0.0535259246826171,0,0,0,0
13.8,1788443554835,0.0,0.0,0.0009699265938252,0.0015532481484115,-0.9572285413742064,0.2893271148204803,0.0,0.0,0.0,0.0,0.0,0.0,0.0007362216711044,0.0017396481707692,-0.9289374947547911,0.3702316880226135,8.050399385590088e-05,0.0006427794606625,0.0004354675830577,0.0138511061668396,-0.00651216506958,0.0175914764404296,0,0,0,0
13.9,1788443554935,0.0,0.0,0.0009699265938252,0.0015532481484115,-0.9572285413742064,0.2893271148204803,0.0,0.0,0.0,0.0,0.0,0.0,0.0007362216711044,0.0017396481707692,-0.9289374947547911,0.3702316880226135,8.050399385590088e-05,0.0006427794606625,0.0004354675830577,0.0138511061668396,-0.00651216506958,0.0175914764404296,0,0,0,0
14.0,1788443555035,0.0,0.0,0.0009699265938252,0.0015532481484115,-0.9572285413742064,0.2893271148204803,0.0,0.0,0.0,0.0,0.0,0.0,0.0007655918598175,0.0017329361289739,-0.9289445877075196,0.3702139556407928,-0.0007636822167194,-0.0012234065034647,6.379875055690421e-05,0.0232775807380676,-0.0410935878753662,0.0480012893676757,0,0,0,0
14.1,1788443555135,0.0,0.0,0.0009699265938252,0.0015532481484115,-0.9572285413742064,0.2893271148204803,0.0,0.0,0.0,0.0,0.0,0.0,0.0007878635078668,0.0017434991896152,-0.9289477467536926,0.3702060878276825,-5.192127446305757e-05,0.000821299460235,-0.0002814568311207,-0.0084376335144042,-0.0249977111816406,0.0037450790405273,0,0,0,0
14.2,1788443555235,0.0,0.0,0.0009699265938252,0.0015532481484115,-0.9572285413742064,0.2893271148204803,0.0,0.0,0.0,0.0,0.0,0.0,0.0007619988173246,0.0017875209450721,-0.9289546012878418,0.3701886236667633,-0.0016889288951569,-0.0005626672550181,-0.0014880224855658,0.0234484076499938,-0.0164626836776733,0.0001182556152343,0,0,0,0
14.3,1788443555335,0.0,1.0704225301742554,0.0009699265938252,0.0015532481484115,-0.9572285413742064,0.2893271148204803,0.0,0.0,0.0,0.0,0.0,0.0,0.0007637171074748,0.0018339417874813,-0.9289525151252748,0.370193600654602,-0.0010432751324541,0.0002281953696197,-0.0002244346473868,0.0096256732940673,-0.0409793853759765,0.033614158630371,0,0,0,0
14.4,1788443555435,0.0,3.1549296379089355,0.0008646331261843,0.0018495192052796,-0.956623911857605,0.2913187146186828,0.0091202145695084,-0.0034025315213948,-2.438395678886311e-06,-0.012869500555098,-0.0007137602660804,0.0844981968402862,0.00091696344316,0.00170583371073,-0.921305239200592,0.3888354301452636,-0.0009215826933666,0.010433889113333,0.5158567712845223,-0.008035659790039,0.3313919901847839,0.2290554046630859,0,227,-32767,14944
14.5,1788443555535,0.0,2.5915493965148926,0.0010227476013824,0.0017394896131008,-0.9497770071029664,0.3129210472106933,0.0630423537277076,-0.0011745049034607,-1.9653738283658732e-05,-0.0066519454121589,0.008635557256639,0.5154040455818176,0.0006670989096164,0.0018614940345287,-0.9073818922042848,0.4203025996685028,-0.0217645505746316,0.0232442298361116,0.4178276768590334,-0.1500139236450195,-0.4895459413528442,-0.1425943374633789,0,283,-32767,14196
14.6,1788443555635,0.0,3.183098554611206,0.0007726911571808,0.0016398641746491,-0.9408330321311952,0.338865727186203,0.0558471924116903,-0.0011688204460043,5.542995905476251e-06,-0.0113366078585386,0.0096749691292643,0.4635176360607147,0.0006857505068182,0.0020302096381783,-0.8984764814376831,0.4390165507793426,-0.00373408618773,0.0030066911590957,0.4374954618102088,-0.1752265691757202,-0.3185725212097168,0.3358163833618164,0,609,-32767,18572
14.7,1788443555735,-4.02816915512085,2.873239517211914,0.0007726911571808,0.0016398641746491,-0.9408330321311952,0.338865727186203,0.0558471924116903,-0.0011688204460043,5.542995905476251e-06,-0.0113366078585386,0.0096749691292643,0.4635176360607147,0.0008182255551218,0.0023756101727485,-0.8936451077461243,0.4487674534320831,-0.0106053309783347,0.0102542809760058,0.4340508997722518,0.2224481701850891,0.2297693490982055,-0.0063381195068359,764,694,-32767,22174
14.8,1788443555835,-1.5492957830429075,2.760563373565674,0.0016944070812314,0.0020930557511746,-0.9179730415344238,0.3966336250305176,-0.008983600350336,-0.0022011365113707,5.707086039633126e-06,0.0162181854248046,0.0056941932998597,0.8772602081298828,0.0009165611118078,0.00194504391402,-0.863601565361023,0.5041704773902893,-0.0052734973050756,-0.0226159517785705,1.1246771305583412,2.7248682975769043,-1.1016675233840942,0.6364269256591797,156,800,-23946,24499
14.9,1788443555935,0.0,1.7464789152145386,0.0010941919172182,0.0018641741480678,-0.9039910435676576,0.427545964717865,-0.0113105592309479,-0.0033894035293041,-3.193772265276628e-07,-0.0035692569799721,-0.0222350563853979,1.1046828031539917,0.0011836225166916,0.0021969340741634,-0.8516351580619812,0.5241290330886841,-0.0043874449369398,0.0047300322173037,0.2541661561811064,-0.1904118061065673,-0.4060174226760864,0.3121395111083984,21,506,-24675,15327
15.0,1788443556035,0.0,-0.7605633735656738,0.0013646531151607,0.0020841713994741,-0.8934893608093262,0.4490774869918823,0.0312038894910656,-0.0042751085005444,3.1464801614204403e-06,0.0019760192371904,-0.0001960860390681,0.3284588158130646,0.0011280132457613,0.0020467182621359,-0.8516873121261597,0.5240451693534851,0.0058001306352657,-0.0083720806077293,-0.050832771542702,0.1606600880622863,0.1085042953491211,-0.0392045974731445,0,20,0,0
15.1,1788443556135,0.0,0.0,0.0012119940947741,0.0019383979961276,-0.8936210870742798,0.4488164186477661,-0.0005234559533331,0.0014971102879504,1.5131708237031713e-06,0.0,0.0,0.0,0.0011549815535545,0.0021012276411056,-0.851994514465332,0.5235452055931091,-0.0003765006591135,0.0059674460652609,-0.001071603845517,0.0242672562599182,-0.0402377843856811,0.0552234649658203,0,0,0,0
15.2,1788443556235,0.0,0.0,0.0012119940947741,0.0019383979961276,-0.8936210870742798,0.4488164186477661,-0.0001955103044033,-0.0002047279436702,-1.2502230905061069e-06,0.0,0.0,0.0,0.0011148834601044,0.0020927097648382,-0.8519882559776306,0.5235556960105896,-0.0007948496094761,-0.0008941551993925,-0.0017195701180878,-0.0493354797363281,-0.0219674706459045,0.0318489074707031,0,0,0,0
15.3,1788443556335,0.0,0.0,0.0012119940947741,0.0019383979961276,-0.8936210870742798,0.4488164186477661,0.0001965408618131,0.0002058070883219,1.2568131609057707e-06,0.0,0.0,0.0,0.0010764161124825,0.0020543932914733,-0.8519905209541321,0.5235519409179688,0.0008340133247535,-0.0035206880633056,-0.0002959752239055,0.1040529608726501,-0.072624385356903,0.0623807907104492,0,0,0,0
15.4,1788443556435,0.0,0.0,0.0012119940947741,0.0019383979961276,-0.8936210870742798,0.4488164186477661,0.0,0.0,0.0,0.0,0.0,0.0,0.0011582244187593,0.0020899381488561,-0.8519995808601379,0.5235370397567749,0.0002148142726255,0.0017125252949744,-0.0002831403540145,0.0303453803062438,-0.0872449874877929,0.0640268325805664,0,0,0,0
15.5,1788443556535,0.0,0.0,0.0012119940947741,0.0019383979961276,-0.8936210870742798,0.4488164186477661,0.0,0.0,0.0,0.0,0.0,0.0,0.0012056203559041,0.0021545514464378,-0.8520060181617737,0.523526132106781,-4.991959567767781e-05,0.0038548432977441,-0.000606650891489,0.0336189270019531,-0.0560472607612609,0.0461978912353515,0,0,0,0
15.6,1788443556635,0.0,0.0,0.0013989626895636,0.0020394050516188,-0.8936805129051208,0.4486971497535705,-2.2877197425657947e-06,2.5376396295222807e-06,-3.390157009727335e-09,0.00024473661324,0.0025527921970933,-3.1465755455428734e-05,0.0012192893773317,0.0021516513079404,-0.8520000576972961,0.5235357880592346,0.0005077641669111,0.0005348068157458,0.0006019894596989,0.0499522686004638,-0.0132233500480651,0.0697393417358398,0,0,0,0
15.7,1788443556735,0.0,0.0,0.0013976860791444,0.0020604669116437,-0.8936823606491089,0.4486933052539825,-2.647867723066081e-05,3.087974894729023e-05,-4.0874787978123785e-08,-0.0013199127279222,0.000566110596992,-0.0002921902050729,0.0011788615956902,0.0021595163270831,-0.8520057797431946,0.523526668548584,-0.0009304453934473,-0.0008208014178667,0.0002160186799581,0.061985969543457,0.0036588907241821,0.0267114639282226,0,0,0,0
15.8,1788443556835,0.0,0.0,0.0013976860791444,0.0020604669116437,-0.8936823606491089,0.4486933052539825,0.0,0.0,0.0,0.0,0.0,0.0,0.0011924589052796,0.0021023023873567,-0.8520170450210571,0.5235084295272827,0.0004763399168801,-0.0015718267138977,0.0011336977495043,0.0047351717948913,-0.0190290808677673,-0.003005027770996,0,0,0,0
15.9,1788443556935,0.0,0.0,0.0013976860791444,0.0020604669116437,-0.8936823606491089,0.4486933052539825,0.0,0.0,0.0,0.0,0.0,0.0,0.0011386098340153,0.0020785257220268,-0.8520116806030273,0.5235174894332886,-0.0004100851472764,0.0001993004328035,0.0002542554838492,0.0037097334861755,-0.0493951439857482,0.0044164657592773,0,0,0,0
16.0,1788443557035,0.0,0.0,0.0013124017277732,0.0019666708540171,-0.8936921954154968,0.4486745297908783,0.0,0.0,0.0,0.0,0.0,0.0,0.0011280244216322,0.0020837979391217,-0.8520040512084961,0.5235298275947571,-0.0005838925932799,-0.0022815856402165,0.0007755021397551,-0.0070172548294067,0.0087288618087768,-0.0150442123413085,0,0,0,0
16.1,1788443557135,0.0,1.211267590522766,0.0013266964815557,0.0020231334492564,-0.8936994075775146,0.448659747838974,-5.7000186239322897e-05,6.642337909740261e-05,-7.903774612017158e-08,-0.001696789287962,0.0014699136372655,-0.000635364674963,0.0011819144710898,0.0022555021569132,-0.850749135017395,0.5255658626556396,-0.0007046128869011,0.0011298183782933,0.1300787057787352,0.1725374460220337,0.1143600344657898,0.1099157333374023,0,751,-28214,21390
16.2,1788443557235,0.0,3.2957746982574463,0.0013251847121864,0.0021362761035561,-0.8899309039115906,0.45608851313591,0.033839355929138,0.0017300541690773,-6.685853362736926e-06,-0.0009115823777392,-0.0003414305392652,0.2747536301612854,0.0016079796478152,0.0027965642511844,-0.8395615220069885,0.5432550311088562,-0.009122175255121,0.0038311513389874,0.4805573847285732,-0.2362481951713562,-0.2485748529434204,0.1079940795898437,0,675,-32767,21118
16.3,1788443557335,0.0,3.2676055431365967,0.0015895622782409,0.0025167902931571,-0.8735485076904297,0.4867280423641205,0.059621373535497,-0.0041067905985594,2.192286885732247e-07,0.0036364668048918,-0.0133271589875221,0.5052185654640198,0.0015838285908102,0.0029881289228796,-0.8330166935920715,0.5532374382019043,-0.0083216112092411,0.002762453956425,0.4786980790015461,0.2239870429039001,0.1876344084739685,-0.0513229370117187,0,675,-32767,21118
16.4,1788443557435,0.0,4.2253522872924805,0.0015662752557545,0.0025844261981546,-0.8672786951065063,0.4978137016296386,0.0616893317427932,-0.002124634901239,1.1226872352120813e-05,-0.0042186588980257,-0.0002176417619921,0.5174998044967651,0.0015082852914929,0.0026538642123341,-0.8129382133483887,0.5823419690132141,0.0094933603177646,0.0160416702723897,0.8423541980554151,-0.0369583964347839,0.0512621402740478,0.0771064758300781,0,76,-32767,13646
16.5,1788443557535,-4.11267614364624,3.380281686782837,0.0023121666163206,0.0028133823070675,-0.8420958518981934,0.5393155813217163,0.026121990764914,-0.0089326424949377,-3.616722687977435e-06,0.0034087016247212,0.0174878258258104,0.7149199843406677,0.001928879879415,0.0025922507047653,-0.783389151096344,0.6215232610702515,0.0127757317021409,-0.028644458247324,0.9684449808673404,-1.498603582382202,0.8707937598228455,-0.4495410919189453,96,199,-13223,11149
16.6,1788443557635,-1.774647831916809,3.7183098793029785,0.0011720682960003,0.0016096632461994,-0.8037547469139099,0.5949574112892151,0.0186153412992832,-0.0160618536612922,-6.252165346943646e-06,0.0039379359222948,-0.0135639980435371,1.1316090822219849,0.0010106600821018,0.001685282215476,-0.7495647072792053,0.661928117275238,0.0033034107118237,-0.0440043701564127,1.048172595771858,2.7470028400421143,-0.8181044459342957,0.328683853149414,149,111,-20463,10080
16.7,1788443557735,0.0,1.4647886753082275,0.001281049568206,0.0017482717521488,-0.797122061252594,0.6038143038749695,0.0550546383453678,-0.0102911982343878,5.602287243903387e-06,-0.0033912865910679,0.0082031264901161,0.5548855066299438,0.0012008724734187,0.0017720805481076,-0.7365745902061462,0.6763529777526855,0.0013172362891099,0.0006149973349202,0.2933257541450058,-0.0740904808044433,-0.1410427689552307,0.2989988327026367,0,27,-25731,1911
16.8,1788443557835,0.0,0.0,0.0012363472487777,0.0016368357464671,-0.7909196019172668,0.6119166612625122,0.0087373928907184,-0.0022484258073161,-6.145872580660808e-07,-0.0017835266189649,-0.0025808811187744,0.0633781552314758,0.0010891612619161,0.0017256587743759,-0.7356435060501099,0.6773658990859985,0.0019049347642987,0.0004086496928212,-0.0027666648902844,0.0857014060020446,0.1805125474929809,0.0238723754882812,0,0,0,0
16.9,1788443557935,0.0,0.0,0.0012374982470646,0.0016669085016474,-0.7909098267555237,0.6119290590286255,0.0001815952116124,-0.0001790162984584,4.952245348658286e-07,1.993686782952864e-05,0.0027206712402403,0.000133316629217,0.0010818494483828,0.0017628828063607,-0.7356314659118652,0.6773788332939148,-0.0009003185465142,0.0010336761728128,0.0010902173035301,0.0142119526863098,-0.1709916591644287,0.0493268966674804,0,0,0,0
17.0,1788443558035,0.0,0.0,0.0012469649082049,0.0016221032710745,-0.7908918857574463,0.6119524836540222,-9.616811358004572e-05,-0.0003213043359666,-7.450203482899926e-07,0.0016512324800714,-0.0008000159286893,0.0011869062436744,0.0011193715035915,0.0017576646059751,-0.7356241345405579,0.6773866415023804,0.0007430819971559,0.000503787759955,0.0008301912203346,0.0344268679618835,-0.0512713193893432,0.0606088638305664,0,0,0,0
17.1,1788443558135,0.0,0.0,0.0012207861291244,0.0016263083089143,-0.7908929586410522,0.6119511723518372,2.7033910964748537e-05,-3.158062146606492e-05,7.471589306692828e-08,0.0004701781144831,-0.0025488401297479,0.0003058519796468,0.0010655876249074,0.0017159841954708,-0.7356360554695129,0.677374005317688,-5.018284232679464e-05,-0.0006861766148577,-0.0015427407385988,0.0187709331512451,-0.0653977990150451,0.0281963348388671,0,0,0,0
17.2,1788443558235,0.0,0.0,0.0012487745843827,0.0015978093724697,-0.7908915281295776,0.6119530200958252,7.44959130329356e-05,-8.436392626002294e-05,2.0064580846001134e-07,0.0015451626386493,0.0003735501668415,0.0008710258407518,0.0011278931051492,0.0017006369307637,-0.7356173992156982,0.6773941516876221,0.0008357220593678,0.001086996658708,7.767184993171784e-05,0.0446017384529113,-0.0610877871513366,0.0354375839233398,0,0,0,0
17.3,1788443558335,0.0,0.0,0.0012475210241973,0.0016072083963081,-0.7908932566642761,0.6119507551193237,-2.0632997708513664e-05,2.4467978478760203e-05,-5.7938187131141256e-08,-0.0012422677827998,2.6054498448502272e-05,-0.0002345186658203,0.0011003958061337,0.0016965689137578,-0.7356152534484863,0.6773965954780579,-0.0008678852236874,-0.0003124575326691,0.000558785265982,0.0190269947052001,-0.0373682379722595,0.0193309783935546,0,0,0,0
17.4,1788443558435,0.0,0.0,0.0012071307282894,0.0015422729775309,-0.7908787727355957,0.6119697690010071,8.93282006590288e-06,-1.2471121362783174e-05,2.3466621047855137e-08,-0.0001592147746123,-0.0032418030314147,8.707655069883913e-05,0.0010575531050562,0.001646970398724,-0.7356180548667908,0.6773937344551086,-0.0012194201381442,-0.0008918946786695,-0.0011523915753081,0.0159360170364379,-0.0663085579872131,0.0335779190063476,0,0,0,0
17.5,1788443558535,0.0,0.0,0.0011803500819951,0.001527558080852,-0.7908667922019958,0.6119853258132935,0.0001405521046273,-0.0001655623726118,3.68342246626187e-07,0.0003709933953359,-0.0010121766244992,0.001603691605851,0.0010505504906177,0.001631774008274,-0.7355912923812866,0.6774228811264038,-0.0004070475301073,0.0010808756470425,0.0006111764500383,0.0425982475280761,-0.050200343132019,0.0157146453857421,0,0,0,0
17.6,1788443558635,0.0,0.0,0.0011433699401095,0.0015244296519085,-0.7908753752708435,0.6119742393493652,-4.872599014796034e-05,5.6264040353703135e-05,-1.2741548191651448e-07,-0.000804444134701,-0.0012449313653632,-0.0005609207437373,0.0010129939764738,0.0016010282561182,-0.7355772852897644,0.6774381995201111,-0.0003033840796463,-0.0004053843434961,0.0014185748036327,-0.0194373130798339,0.0209338068962097,-0.0297727584838867,0,0,0,0
17.7,1788443558735,0.0,0.0,0.0011433699401095,0.0015244296519085,-0.7908753752708435,0.6119742393493652,-4.872599014796034e-05,5.6264040353703135e-05,-1.2741548191651448e-07,-0.000804444134701,-0.0012449313653632,-0.0005609207437373,0.0011270260438323,0.0016699191182851,-0.7355858683586121,0.6774286031723022,0.0005893255465515,0.0029499204518368,-0.0006333537204299,-0.0045954585075378,0.0376152396202087,0.0023708343505859,0,0,0,0
17.8,1788443558835,0.0,0.0,0.0012660833308473,0.0015692129964008,-0.7908587455749512,0.6119954586029053,1.9742689241742796e-05,-2.4459627864235203e-05,5.466063693038596e-08,-5.286313535179943e-05,5.457801671582274e-05,0.0002171191154047,0.0010893773287534,0.0016492456197738,-0.7355782985687256,0.6774368286132812,-0.0008961971879388,-0.0015066273892081,0.0002279646551248,-0.0161455869674682,-0.0092739462852478,0.0289011001586914,0,0,0,0
17.9,1788443558935,0.0,0.0,0.0012716151541098,0.0015844985609874,-0.790856122970581,0.6119986176490784,1.852380632599577e-05,-1.9817786243152493e-05,5.1738357799473306e-08,0.0009039514698088,0.0018623251235112,0.0002216357679571,0.001140353269875,0.0016860272735357,-0.7355788350105286,0.677436113357544,0.0005126469226918,0.000258351083361,0.0001737276557355,0.0299638509750366,0.0030130743980407,0.0233592987060546,0,0,0,0
18.0,1788443559035,0.0,0.0,0.0012779480312019,0.0015947628999128,-0.7908613085746765,0.6119920015335083,-3.0226536913423967e-05,3.62673911223098e-05,-8.497265939268693e-08,-0.0001681298454059,0.0004494039458222,-0.00033441602136,0.0011210013180971,0.0016681402921676,-0.7355788350105286,0.677436113357544,0.001803814643523,-0.0010876402294749,0.0009637695414898,0.0080152153968811,0.0067111253738403,-0.0162725448608398,0,0,0,0
18.1,1788443559135,0.0,0.0,0.0009202185319736,0.0016983340028673,-0.7908688187599182,0.6119826436042786,-0.0001018603134966,0.0001169939047362,-2.5206547331059e-07,-0.0085291750729084,-0.0054203402251005,-0.0011786301620304,0.0007714992389082,0.001770855858922,-0.735593855381012,0.6774200797080994,-0.007500346795104,-0.0023961778700592,-0.001209710351173,0.0244631171226501,0.0193815827369689,-0.0090970993041992,0,0,0,0
18.2,1788443559235,0.0,0.0,0.0005820465157739,0.0017976469825953,-0.790871262550354,0.6119796633720398,-3.108746938943759e-05,3.624632296661021e-05,-3.661916086553128e-08,-0.0055732675828039,-0.0043265186250209,-0.0003669276484288,0.0003630891442298,0.0018697846680879,-0.7356047630310059,0.6774082183837891,-0.0064724360234791,-0.0030607306657867,-0.0012951620427321,-0.0240824818611145,0.0175503492355346,-0.0111351013183593,0,0,0,0
18.3,1788443559335,0.0,0.0,0.0003887529601342,0.0018942093010991,-0.7908822298049927,0.6119653582572937,-4.33225754083561e-07,-1.1233168680508305e-07,-1.576699463555483e-09,-0.0038681614678353,-0.0020562619902193,-1.4321758499136196e-05,0.0001563746482133,0.0019401386380195,-0.7355956435203552,0.6774181723594666,-0.004077379760665,-0.0024951416647914,0.0013030112242878,-0.0033279657363891,-0.0046188831329345,-0.0364065170288085,0,0,0,0
18.4,1788443559435,0.0,0.0,0.0001982905669137,0.0020124947186559,-0.7908891439437866,0.6119561195373535,-6.608428992543083e-05,7.656415453015658e-05,2.5401679392643868e-08,-0.0034128571860492,-0.0009630916174501,-0.000760203867685,7.473863661289215e-06,0.0020233802497386,-0.7356116771697998,0.6774004697799683,-0.0035404046363601,-0.001182196161727,0.0005620432571065,0.0090880990028381,-0.0163064002990722,-0.0059223175048828,0,0,0,0
18.5,1788443559535,0.0,0.0,-4.019076004624367e-05,0.0020726663060486,-0.7908831834793091,0.61196368932724,-7.323721489490903e-05,8.732272584362723e-05,7.87525629098566e-08,-0.0040765437297523,-0.0020924624986946,-0.0008390906150452,-0.0002014860510826,0.002040272578597,-0.7356042861938477,0.6774083375930786,-0.0041631429524086,-0.0023527802891414,-0.0004829768965099,-0.0038971304893493,0.0066207647323608,-0.0237960815429687,0,0,0,0
18.6,1788443559635,0.0,0.0,-0.0002072536735795,0.0021589482203125,-0.7908733487129211,0.6119760274887085,4.528844034174642e-05,-5.211464358069053e-05,-7.204019186589096e-08,-0.003660638583824,-0.0020975277293473,0.0005182830500416,-0.0004050498828291,0.0021388577297329,-0.7356032729148865,0.6774091124534607,-0.0027182558738705,-0.0027032319608688,-0.000124232053996,0.0006486177444458,-0.0095861554145812,-0.0075387954711914,0,0,0,0
18.7,1788443559735,0.0,0.0,-0.0003164244117215,0.0022136373445391,-0.7908742427825928,0.6119745373725891,2.7177984189160373e-05,-3.155067598294345e-05,-5.631332320956949e-08,-0.0023413861636072,-0.0018575666472315,0.0003035673289559,-0.0006183916702866,0.0021344535052776,-0.735593318939209,0.6774196624755859,-0.0020962551312383,-0.0057518277793297,0.000394882350729,-0.0056388974189758,0.0092754364013671,0.0375423431396484,0,0,0,0
18.8,1788443559835,0.0,0.0,-0.0005452166078612,0.002197275403887,-0.7908733487129211,0.6119756698608398,0.0002049861083603,0.0002212579387247,1.2991432563870724e-06,-0.0043681235983967,-0.0055460198782384,-0.0001029807172017,-0.0007248427718877,0.0021923026069998,-0.7355893850326538,0.6774237155914307,-0.0021508752326467,0.0025595049576802,0.0009655822136086,-0.004858374595642,0.0200937986373901,0.0214452743530273,0,0,0,0
18.9,1788443559935,0.0,0.0,-0.0006207330734468,0.0022586102131754,-0.7908644080162048,0.6119869351387024,-2.506224385020769e-05,2.6682967705779525e-05,6.712842865294135e-08,-0.0032781418412923,-0.0016049767145887,-0.0002970940258819,-0.0008674897253513,0.0022036666050553,-0.7356001138687134,0.6774118542671204,-0.0022656716950308,-0.0018463691357541,-0.0011115864560369,-0.0107768177986145,0.0291614532470703,0.0071296691894531,0,0,0,0
19.0,1788443560035,0.0,0.0,-0.0006639732746407,0.0022796913981437,-0.7908720970153809,0.6119768619537354,0.0001134485091836,0.0001897764666073,1.0244129476287525e-06,-0.0012762871338054,-0.0006294524646364,-0.0003775088698603,-0.0009344760328531,0.0022542430087924,-0.7355928421020508,0.6774196624755859,-0.0028996670308976,-0.0005901846362686,2.5121384661502085e-05,-0.0151349306106567,0.0108255743980407,0.0016756057739257,0,0,0,0
19.1,1788443560135,0.0,0.0,-0.0008084488799795,0.0023778653703629,-0.7908858060836792,0.6119586229324341,-0.000111273731257,0.0001285727854811,4.137062418087924e-07,-0.0023762488272041,-3.9844337152317166e-05,-0.0012738283257931,-0.001036487519741,0.002256229519844,-0.7356019020080566,0.6774096488952637,0.0009017446009885,-0.0033284607477242,0.0011271827685352,-0.0244215726852417,-0.0253861546516418,-0.0235872268676757,0,0,0,0
19.2,1788443560235,0.0,0.0,-0.0009013258386403,0.0023749144747853,-0.7908959984779358,0.6119453310966492,8.490236824879865e-05,0.0003605544482773,1.8332089723922144e-06,-0.0028762877918779,-0.0010710682254284,-0.0014280581381171,-0.0011378545314073,0.0023004133254289,-0.7356168031692505,0.6773930788040161,-0.0016512506774627,-0.0019142492382511,0.0012405818873993,-0.0098053812980651,-0.0289162397384643,0.0051832199096679,0,0,0,0
19.3,1788443560335,0.0,0.0,-0.0009936278220266,0.0024024504236876,-0.7908804416656494,0.6119651198387146,-0.0001257601541435,-0.0002029535268121,-1.1809391853392665e-06,-0.0012983441120013,-0.0009103560005314,0.0003757969243451,-0.0012481296434998,0.0023356778547167,-0.7356145977973938,0.677395224571228,-0.002611654183011,-0.0004145734186677,-0.0001119550107113,0.0257595777511596,0.0221789479255676,0.0090312957763671,0,0,0,0
19.4,1788443560435,0.0,0.0,-0.0010710270144045,0.0024209215771406,-0.7909026741981506,0.6119363903999329,7.405858537799613e-05,0.0003725187448408,1.970035341079256e-06,-0.0026137037202715,-0.0021018963307142,-0.0015390468761324,-0.0012838253751397,0.0023079942911863,-0.7356342077255249,0.6773739457130432,0.000192264565886,-0.0003141949589349,-0.0001048970668522,0.0183696746826171,0.0247463583946228,0.0179882049560546,0,0,0,0
19.5,1788443560535,0.0,0.0,-0.0011265510693192,0.0024155403953045,-0.7908952236175537,0.6119457483291626,2.775986206278782e-05,-3.222127025280077e-05,-1.3412240701352032e-07,-0.0011348399566486,0.0007256172248162,0.000321965519106,-0.0013326425105333,0.0022893389686942,-0.735623300075531,0.6773857474327087,0.0008723699580133,-0.0011226591822668,6.786410604449182e-05,0.0037142634391784,0.0113773345947265,0.0412054061889648,0,0,0,0
19.6,1788443560635,0.0,0.0,-0.0011764781083911,0.002441941993311,-0.7908807396888733,0.6119642853736877,0.0002890370391451,0.0001215367081599,9.585550017044103e-07,-0.0027093472890555,-0.0002787444100249,0.0009405846940353,-0.0013636965304613,0.0023667514324188,-0.7356129288673401,0.6773966550827026,-0.0002538647522551,0.001632249502811,-0.0005115527853602,-0.0129267573356628,-0.0006941556930541,0.0104579925537109,0,0,0,0
19.7,1788443560735,0.0,0.0,-0.0011707973899319,0.0024927672930061,-0.7908748984336853,0.6119715571403503,-0.0001259047520349,-0.0002031786607708,-1.2404210501211193e-06,-0.0002591451047919,-5.594428512267768e-05,0.0003790977352764,-0.0014135846868157,0.0023611672222614,-0.7356012463569641,0.677409291267395,-0.0005577258336776,-0.0016942361489354,0.0002749648594255,0.0028730034828186,0.0047290921211242,-0.0129499435424804,0,0,0,0
19.8,1788443560835,0.0,0.0,-0.0011979371774941,0.0024849558249115,-0.7908987402915955,0.6119408011436462,-4.565729323485265e-05,5.212859358595988e-05,2.3388109402492087e-07,0.0003911753592547,0.0016964537790045,-0.0005144223687238,-0.0014646127820014,0.0023421524092555,-0.7356200218200684,0.6773888468742371,-0.0011106612609872,-0.0042781371604983,0.0007676992280667,-0.0155943632125854,0.0239580869674682,0.0174999237060546,0,0,0,0
19.9,1788443560935,0.0,0.0,-0.0013323463499546,0.0024817103985697,-0.7909079790115356,0.6119285821914673,-9.395870931371909e-05,0.0001093223818035,4.979602229017393e-07,-0.0025343426968902,-0.0017745069926604,-0.0010879976907745,-0.0015419600531458,0.0023793252184987,-0.7356365323066711,0.677370548248291,-0.0028848535010289,-0.0010120842053573,-0.000281370542116,0.0038633346557617,0.0200294852256774,-0.0490064620971679,0,0,0,0
20.0,1788443561035,0.0,0.0,-0.001322338823229,0.0025257961824536,-0.7909055948257446,0.611931562423706,1.310236996476022e-05,-1.6227278811594948e-05,-7.798172612980162e-08,-0.0011452432954683,0.0013897004537284,0.000155541303684,-0.001586721278727,0.0024220403283834,-0.735627293586731,0.6773803234100342,-0.0015111953901201,-0.000115837837308,-0.0002846041308883,0.0112628936767578,0.0024840235710144,0.0047454833984375,0,0,0,0
20.1,1788443561135,0.0,0.0,-0.0013749883510172,0.0025706249289214,-0.7909122705459595,0.6119227409362793,-0.0001865684580082,-0.0001316731432651,-9.308639911950382e-07,-0.0001040449933498,0.0005594976828433,-0.0003051846579182,-0.0015834337100386,0.002446100115776,-0.7356460690498352,0.677359938621521,-8.559903955912587e-06,0.0007143967697282,-0.0005076215186605,0.0084078907966613,-0.0049732327461242,-0.006134033203125,0,0,0,0
20.2,1788443561235,0.0,0.0,-0.0013930479763075,0.0025619305670261,-0.7909278273582458,0.6119024157524109,-2.7787903848281965e-05,3.224869987121608e-05,1.600070735340986e-07,-0.0002818114589899,0.0004913144512102,-0.0003115200088359,-0.0016386499628424,0.002439321950078,-0.7356413006782532,0.6773649454116821,-0.0017184986376664,-0.0012788664338212,0.0018521333537554,0.0365761518478393,-0.0102279186248779,-0.0115509033203125,0,0,0,0
20.3,1788443561335,0.0,0.0,-0.0014340735506266,0.0025700200349092,-0.790920615196228,0.6119115948677063,-5.55082858838844e-05,6.442419971683676e-05,3.2462874231995585e-07,-0.0002305821253685,-0.0003349201579112,-0.0006425787578336,-0.00165362842381,0.0024664849042892,-0.7356535196304321,0.6773514747619629,-0.0009000633597169,0.0003263785590975,0.0005697452133307,0.0063784122467041,-0.0063560009002685,-0.0187864303588867,0,0,0,0
20.4,1788443561435,0.0,0.0,-0.0014870276208966,0.0025473365094512,-0.7909144163131714,0.611919641494751,0.0002624686775589,0.0001511843782502,1.1301058485026709e-06,0.0004389123641885,-0.0033563075121492,0.0005931624909862,-0.0017259391024708,0.0024123769253492,-0.7356500625610352,0.6773553490638733,-0.0012698657625394,-0.0012163547773972,-0.0004703850482686,0.0048134326934814,0.0150439143180847,-0.0258951187133789,0,0,0,0
20.5,1788443561535,0.0,0.0,-0.00152430718299,0.0025712079368531,-0.790923535823822,0.6119077205657959,-0.0001498010974568,-0.0001789367039845,-1.1722236813075098e-06,-0.0005249812384136,-0.0006761215627193,0.0001123414112953,-0.0017543109133839,0.0024103969335556,-0.7356500029563904,0.6773553490638733,0.000634829632962,-0.0013757554538672,0.0001716167634229,0.0117098093032836,0.0024190545082092,-0.0079803466796875,0,0,0,0
20.6,1788443561635,0.0,0.0,-0.0015807717572897,0.0025535989552736,-0.7909311056137085,0.6118977665901184,-4.6281873546855226e-05,5.202203676485977e-05,2.814440774391176e-07,-0.0004031484713777,0.000268455245532,-0.0005399275105446,-0.0018060719594359,0.0023994678631424,-0.7356550693511963,0.6773496866226196,5.2705515139199856e-05,-0.002654711299019,0.0010784334029765,0.0234858989715576,0.0008444786071777,0.0064039230346679,0,0,0,0
20.7,1788443561735,0.0,0.0,-0.001622230396606,0.0025462466292083,-0.7909188270568848,0.6119135618209839,2.8809046954942415e-07,7.473740767317542e-08,6.28715016538509e-10,-0.0011311151320114,-0.0017379127675667,-4.762041953654261e-06,-0.0018221046775579,0.0024382136762142,-0.7356589436531067,0.677345335483551,-0.0007257320492872,0.0012681618284305,-0.0008148073825792,-0.0156098008155822,-0.0238304138183593,0.0116710662841796,0,0,0,0
20.8,1788443561835,0.0,0.0,-0.0016062291106209,0.0025838776491582,-0.7909262776374817,0.6119037866592407,-4.245806722982056e-05,4.78474901402988e-05,2.643610197029827e-07,-0.0007953408639878,0.0014227089704945,-0.000484304386191,-0.0018155081197619,0.0024706963449716,-0.7356469035148621,0.6773583292961121,-0.0016620433557884,0.0027449345322459,0.0002582002911917,-0.0060198307037353,-0.0020838379859924,0.0189704895019531,0,0,0,0
20.9,1788443561935,0.0,0.0,-0.0016226222505792,0.0026427768170833,-0.7909034490585327,0.6119329929351807,3.598235791546858e-06,-3.923909827240521e-06,-2.168629161982732e-08,8.034209167817608e-05,-0.0006755751674063,3.9964426832739264e-05,-0.0018626451492309,0.0025070058181881,-0.7356148958206177,0.677392840385437,-0.0017720431078653,-8.372865239161605e-05,0.001434322049161,-0.0060294270515441,0.013325810432434,-0.0168571472167968,0,0,0,0
21.0,1788443562035,0.0,0.0,-0.0016644654097035,0.0026738960295915,-0.7908978462219238,0.6119400858879089,-7.38536515652965e-05,8.444838418966611e-05,4.824416200093189e-07,-8.235761197283864e-05,0.0002264228096464,-0.0008571906946599,-0.0019031492993235,0.0025045480579137,-0.7356292605400085,0.6773769855499268,0.0002003464562334,-0.0021595799943361,-0.0007425411486713,-0.0226787328720092,0.0011543631553649,-0.0384407043457031,0,0,0,0
21.1,1788443562135,0.0,0.0,-0.0017023694235831,0.0025964630767703,-0.7908957004547119,0.6119431853294373,1.9721086677486992e-05,-2.442582923261612e-05,-1.412822480614687e-07,0.0008831133600324,-0.0014661418972536,0.0002096968382829,-0.0019181137904524,0.0024557495489716,-0.7356293201446533,0.6773771643638611,-0.0006809073983797,0.0006472550539556,-0.0004455884311196,-0.0037546157836914,0.0020660758018493,0.0155067443847656,0,0,0,0
21.2,1788443562235,0.0,0.0,-0.0017009163275361,0.0026108901947736,-0.7908997535705566,0.6119377017021179,-2.4038910980014405e-05,2.815814937360602e-05,1.6265967404680785e-07,-0.0004197039525024,0.0003989152319263,-0.0002710895787458,-0.0018999129533767,0.0024532312527298,-0.7356342673301697,0.6773717999458313,0.0007895901192286,-0.0026971847031053,-0.0001216467779916,0.0073267817497253,-0.0181323885917663,0.0262603759765625,0,0,0,0
21.3,1788443562335,0.0,0.0,-0.0017014642944559,0.0025964693631976,-0.7909024357795715,0.6119344234466553,0.0,0.0,0.0,0.0,-4.655353436078258e-09,0.0,-0.0019057225435972,0.0024837236851453,-0.7356273531913757,0.6773791909217834,0.0005788412303993,0.0015798955315336,0.0004366838322344,-0.0101827979087829,0.0146957039833068,-0.0005350112915039,0,0,0,0
21.4,1788443562435,0.0,0.0,-0.0016922908835113,0.0026836367323994,-0.7909073829650879,0.6119276285171509,0.000148831419329,0.0003034634486814,1.975808431808388e-06,-0.0017276287544518,0.0011057255323976,-0.0007717774133197,-0.001918920315802,0.0025322036817669,-0.735626220703125,0.6773802638053894,-0.0003027437557884,-1.31704223298871e-05,0.0011415536814228,0.0118906497955322,-0.0061641931533813,0.0191984176635742,0,0,0,0
21.5,1788443562535,0.0,0.0,-0.0017041827086359,0.0026970962062478,-0.7909016609191895,0.6119348406791687,3.1660909067687614e-05,-3.608190761560363e-05,-2.0866866520521322e-07,-0.0007163518457673,-4.78820911666844e-05,0.0003680202935356,-0.0019283285364508,0.0025461222976446,-0.7356319427490234,0.677374005317688,-0.0007611650057961,-0.0008189179053821,-0.0009297387379665,0.0192117691040039,-0.0273046493530273,-0.0149946212768554,0,0,0,0
21.6,1788443562635,0.0,0.0,-0.0017041827086359,0.0026970962062478,-0.7909016609191895,0.6119348406791687,0.0,0.0,0.0,0.0,0.0,0.0,-0.0019817324355244,0.0025481088086962,-0.7356431484222412,0.6773616671562195,0.0002771542846832,5.5488017911164615e-06,0.000468564068957,-0.0191826820373535,-0.0248738527297973,-0.009627342224121,0,0,0,0
21.7,1788443562735,0.0,0.0,-0.0017717098817229,0.0026821217034012,-0.7909102439880371,0.6119237542152405,0.0,0.0,0.0,0.0,0.0,0.0,-0.0019751535728573,0.0025185728445649,-0.7356311678886414,0.6773747205734253,0.0011426292917358,0.0007212455809113,0.000972361488792,0.0039758086204528,0.0087245106697082,-0.0292158126831054,0,0,0,0
21.8,1788443562835,0.0,0.0,-0.0017398558557033,0.0026622051373124,-0.7909072041511536,0.6119279265403748,0.0001778406118871,0.000265581996945,1.7847989116034024e-06,0.0008884557755663,1.7810606323109823e-06,-0.0004157966759521,-0.001970331184566,0.0025030858814716,-0.7356398701667786,0.6773653626441956,0.0004180289566521,2.622814645917826e-05,-0.0005979453222943,0.0092757940292358,-0.016815960407257,-0.02032470703125,0,0,0,0
21.9,1788443562935,0.0,0.0,-0.001717489445582,0.0026597478426992,-0.7908951044082642,0.6119435429573059,6.87431346324215e-05,-8.06048337395437e-05,-4.762944174493205e-07,0.0006244562100619,0.0006443737656809,0.0007908593397587,-0.0019294070079922,0.0025131339207291,-0.7356128692626953,0.6773948669433594,-7.28415809396452e-05,0.0009217869115847,0.0011494461027544,0.0064572095870971,0.0239895582199096,-0.0075855255126953,0,0,0,0
22.0,1788443563035,0.0,0.0,-0.001717489445582,0.0026597478426992,-0.7908951044082642,0.6119435429573059,0.0,0.0,0.0,0.0,4.6565773459406046e-09,0.0,-0.0018767192959785,0.0024835364893078,-0.7355984449386597,0.6774106621742249,0.0006472694366441,-0.0009152885382938,0.00060270536093,0.0158395171165466,-0.0096076726913452,0.0120534896850585,0,0,0,0
22.1,1788443563135,0.0,0.0,-0.0016608933219686,0.0026233391836285,-0.7908692359924316,0.6119772791862488,0.0,0.0,0.0,0.0,4.619995497279206e-09,0.0,-0.001916971988976,0.0024803122505545,-0.7355955839157104,0.6774135828018188,-0.0008806170254611,-0.0007784065305393,0.0007207120412352,-0.0206189155578613,0.0178072452545166,0.0013494491577148,0,0,0,0
22.2,1788443563235,0.0,0.0,-0.0017313498537987,0.0026485931593924,-0.7908776998519897,0.6119661331176758,0.0001686728925176,0.0002740837002817,1.7947388495288577e-06,-0.0020606110338121,-0.0008680385071784,-0.0005432058242149,-0.0019724518060684,0.0024871174246072,-0.7356119751930237,0.6773957014083862,-0.0007618352096116,-0.0011788251151095,-0.0006490767325554,-0.0141223669052124,-0.0210431814193725,0.0317392349243164,0,0,0,0
22.3,1788443563335,0.0,0.0,-0.0017419270006939,0.0026430508587509,-0.790878415107727,0.6119651198387146,-6.000514888369649e-06,8.297506309306008e-06,4.9326623373288185e-08,-8.360745414393023e-05,-0.0004701382422354,-5.842089740326628e-05,-0.0019851913675665,0.0024423645809292,-0.7356007099151611,0.67740797996521,0.0007311178313298,-0.0021094094152389,0.0008708898404248,-0.0202221870422363,0.021571397781372,0.0229158401489257,0,0,0,0
22.4,1788443563435,0.0,0.0,-0.0017604008316993,0.002587315859273,-0.7908777594566345,0.6119661927223206,4.1338772058174e-06,-3.746855001721763e-06,-2.1670430494405544e-08,0.0012824120931327,-0.0019064403604716,4.081474617123604e-05,-0.0019342321902513,0.0024230908602476,-0.7355931997299194,0.6774164438247681,0.0016094823675712,0.0022764684532828,0.001011508961278,0.016274869441986,0.0153049230575561,-0.0094003677368164,0,0,0,0
22.5,1788443563535,0.0,0.0,-0.0017144461162388,0.0025442747864872,-0.7908675074577332,0.6119797825813293,0.0,0.0,0.0,0.0,0.0,0.0,-0.0019089318811893,0.0024086385965347,-0.7356145977973938,0.67739337682724,-0.0006950793105711,0.0005773656686279,-0.0007646033930652,-0.0122294425964355,-0.0139756202697753,-0.0203323364257812,0,0,0,0
22.6,1788443563635,0.0,0.0,-0.0016774674877524,0.0025390079244971,-0.790882408618927,0.6119605898857117,0.0002239315863587,0.0002224019735142,1.4640626272606595e-06,0.001839232398197,0.0005822732346132,5.435185812530108e-05,-0.0018947534263134,0.0023770984262228,-0.7356208562850952,0.6773867011070251,-0.0002017188348983,-0.0006195069071607,-0.0008279377808077,-0.0016449689865112,0.0139586329460144,0.0085325241088867,0,0,0,0
22.7,1788443563735,0.0,0.0,-0.0016560115618631,0.002519977511838,-0.7908802628517151,0.6119635105133057,1.32145413676313e-05,-1.6368902314114553e-05,-9.334601984746255e-08,0.0011324397055432,0.0002134768583346,0.0001473080192226,-0.0018905634060502,0.0023392997682094,-0.7356060743331909,0.6774029731750488,0.0003299557764725,-0.0025714326721666,0.0002367902862897,-0.012809932231903,-0.0045968294143676,-0.0005273818969726,0,0,0,0
22.8,1788443563835,0.0,0.0,-0.0016560115618631,0.002519977511838,-0.7908802628517151,0.6119635105133057,0.0,0.0,0.0,0.0,-4.649860496641622e-09,0.0,-0.001937392167747,0.0023336857557296,-0.7355966567993164,0.6774129271507263,0.001372664624612,-0.0006935508612411,0.0014785555334285,0.0134109854698181,-0.0166667699813842,0.0066595077514648,0,0,0,0
22.9,1788443563935,0.0,0.0,-0.0017288828967139,0.0024760696105659,-0.7908708453178406,0.6119756698608398,0.0,0.0,0.0,0.0,4.6370622897029534e-09,0.0,-0.0019325939938426,0.0023257527500391,-0.7356063723564148,0.6774024367332458,-0.0002009499840793,0.0013521810405525,-0.0013488242750347,-0.0153542160987854,-0.0026338696479797,0.0426130294799804,0,0,0,0
23.0,1788443564035,0.0,0.0,-0.0017314631259068,0.002472928026691,-0.7908793687820435,0.6119647026062012,0.0002088007739583,0.000231173478298,1.46055154381083e-06,0.0002004707057494,-0.0004298075800761,-7.27029619156383e-05,-0.0019320109859108,0.002316603437066,-0.7356059551239014,0.677402913570404,-1.7943921394570898e-05,-0.0017701051073094,0.0002369560576505,0.0007760524749755,0.006319522857666,0.013946533203125,0,0,0,0
23.1,1788443564135,0.0,0.0,-0.0016816862626001,0.0025056765880435,-0.7908753752708435,0.6119697690010071,2.1572227560358225e-05,-2.3917449574662615e-05,-1.3803166129995966e-07,0.0001821404875954,0.002371945651248,0.0002654320560395,-0.0018673129379749,0.002377638593316,-0.7355932593345642,0.6774167418479919,-0.0002070626651202,0.0022359017822976,0.0009741000640576,-0.0171426534652709,0.0028846859931945,-0.02020263671875,0,0,0,0
23.2,1788443564235,0.0,0.0,-0.0017117322422564,0.0025072791613638,-0.7908762693405151,0.6119685769081116,-5.98536420911669e-06,8.27671488059835e-06,4.7405470904401103e-08,-0.0007843122584745,-0.0009089391096495,-6.30311478744261e-05,-0.001880588941276,0.0023673139512538,-0.7356011867523193,0.6774080991744995,0.0005242016665147,0.0012307328448499,0.0004505174890283,-0.0048864483833312,0.0082153677940368,0.0032052993774414,0,0,0,0
23.3,1788443564335,0.0,0.0,-0.0016566765261813,0.0025207444559782,-0.7908740043640137,0.6119716167449951,0.0,0.0,0.0,0.0,-4.611616422067755e-09,0.0,-0.0018694242462515,0.002368482761085,-0.7356135249137878,0.6773948073387146,-0.0005554931401421,0.0015404925735974,-0.00026897993599,0.0317946672439575,-0.0278640985488891,0.0444774627685546,0,0,-5463,-5463
23.4,1788443564435,0.0,0.0,-0.0016566765261813,0.0025207444559782,-0.7908740043640137,0.6119716167449951,0.0,0.0,0.0,0.0,-4.4927377373937816e-09,0.0,-0.0018572686240077,0.0023684483021497,-0.7355896234512329,0.6774207949638367,-0.0008185442032095,0.0004068566348829,-0.0003059624589959,-0.0075377821922302,0.0061137676239013,0.040968894958496,0,0,-28087,-28087
23.5,1788443564535,0.0,0.0,-0.0016566765261813,0.0025207444559782,-0.7908740043640137,0.6119716167449951,0.0,0.0,0.0,0.0,-4.657325192169992e-09,0.0,-0.0019019544124603,0.0023207319900393,-0.7355831861495972,0.6774278879165649,-0.0009398929167281,-0.0040595962660705,0.0002366578002141,-0.0034127831459045,-0.020879328250885,0.03009033203125,0,0,-32767,-32767
23.6,1788443564635,0.0,0.0,-0.0016566765261813,0.0025207444559782,-0.7908740043640137,0.6119716167449951,0.0,0.0,0.0,0.0,-4.652281226924515e-09,0.0,-0.0019056126475334,0.0023374985903501,-0.7356088161468506,0.6773998737335205,-0.0003992828037458,0.0005476961965288,-0.0008038269459584,0.0057143568992614,-0.0206530690193176,0.0462703704833984,0,0,-32767,-32767
23.7,1788443564735,0.0,0.0,-0.0016566765261813,0.0025207444559782,-0.7908740043640137,0.6119716167449951,0.0,0.0,0.0,0.0,-4.027538302864286e-09,0.0,-0.0019042631611227,0.0023657968267798,-0.7355923652648926,0.6774176359176636,-0.0016444998312206,-0.000152333133212,-0.0008196499896578,-0.017275333404541,-0.0239691138267517,0.0749645233154296,0,0,-32767,-32767
23.8,1788443564835,0.0,0.0,-0.0016566765261813,0.0025207444559782,-0.7908740043640137,0.6119716167449951,0.0,0.0,0.0,0.0,-4.560576361001267e-09,0.0,-0.001969582401216,0.0024028327316045,-0.7355773448944092,0.6774337291717529,-0.0014071993587689,-0.0028668498196187,0.0012533995332034,0.0110226869583129,0.0079936981201171,0.0679464340209961,0,0,-32767,-32767
23.9,1788443564935,0.0,0.0,-0.0016566765261813,0.0025207444559782,-0.7908740043640137,0.6119716167449951,0.0,0.0,0.0,0.0,-4.564619793256952e-09,0.0,-0.0019911881536245,0.0024041775614023,-0.7355860471725464,0.6774241328239441,-0.0005834474844235,-0.0017495530998561,-0.0002900282995916,0.0053074955940246,0.0297532081604003,0.0931730270385742,0,0,-32767,-32767
24.0,1788443565035,0.0,0.0,-0.0016566765261813,0.0025207444559782,-0.7908740043640137,0.6119716167449951,0.0,0.0,0.0,0.0,-4.7506603095825994e-09,0.0,-0.0020211804658174,0.0024303216487169,-0.7355928421020508,0.6774165630340576,-0.0016553442534468,0.0003798076232785,-0.0004673735133989,0.014218270778656,-0.0215080380439758,0.0804100036621093,0,0,-32767,-32767
24.1,1788443565135,0.0,0.0,-0.0016566765261813,0.0025207444559782,-0.7908740043640137,0.6119716167449951,0.0,0.0,0.0,0.0,-3.991278418880029e-09,0.0,-0.002009947784245,0.0024160435423254,-0.7355698943138123,0.6774414777755737,0.0003464174431216,0.0022581313580204,-0.000109231350394,0.0142019987106323,0.005106508731842,0.0733327865600586,0,0,-32767,-32767
24.2,1788443565235,0.0,0.0,-0.0016566765261813,0.0025207444559782,-0.7908740043640137,0.6119716167449951,0.0,0.0,0.0,0.0,-4.656505847577819e-09,0.0,-0.0019937604665756,0.0023966170847415,-0.7355554699897766,0.677457332611084,0.0011006346294758,0.000551847037015,0.000370016043367,0.0098522901535034,-0.0114524960517883,-0.0038795471191406,0,0,-32767,-32767
24.3,1788443565335,0.0,0.0,-0.0016566765261813,0.0025207444559782,-0.7908740043640137,0.6119716167449951,0.0,0.0,0.0,0.0,-4.551597321267309e-09,0.0,-0.0020344592630863,0.0024180086329579,-0.7355311512947083,0.6774834990501404,0.000295358056205,2.007311789077742e-05,0.0002390683272656,-0.0032214522361755,0.0022512078285217,0.0030031204223632,0,0,-32767,-32767
24.4,1788443565435,0.0,0.0,-0.0016566765261813,0.0025207444559782,-0.7908740043640137,0.6119716167449951,0.0,0.0,0.0,0.0,-4.747012560812891e-09,0.0,-0.0020726080983877,0.002429436892271,-0.7355252504348755,0.6774898171424866,-0.0011245665109292,-0.0008713153171832,-0.0001101574058426,0.0179548263549804,0.0297286510467529,0.0049934387207031,0,0,-32767,-32767
24.5,1788443565535,0.0,0.0,-0.0016566765261813,0.0025207444559782,-0.7908740043640137,0.6119716167449951,0.0,0.0,0.0,0.0,-3.894402578197287e-09,0.0,-0.0020845783874392,0.002434205263853,-0.7355267405509949,0.6774881482124329,-0.0002206553657815,-0.0018571800130439,-0.0004597386906594,0.021407127380371,-0.0066402554512023,0.0120553970336914,0,0,-32767,-32767
24.6,1788443565635,0.0,0.0,-0.0016566765261813,0.0025207444559782,-0.7908740043640137,0.6119716167449951,0.0,0.0,0.0,0.0,-4.65273997107829e-09,0.0,-0.0020979437977075,0.002445732243359,-0.7355107665061951,0.677505373954773,-0.001116484335641,-0.0008679371156387,0.0009539097938297,0.0105604529380798,0.0348416566848754,0.0032577514648437,0,0,-32767,-32767
24.7,1788443565735,0.0,0.0,-0.0016566765261813,0.0025207444559782,-0.7908740043640137,0.6119716167449951,0.0,0.0,0.0,0.0,-4.62306282145164e-09,0.0,-0.0020743794739246,0.0024088574573397,-0.7355223298072815,0.6774929761886597,0.0020229706996024,-0.0009008580478564,0.0002554761525882,-0.0144562125205993,0.0084818005561828,0.0210189819335937,0,0,-32767,-32767
24.8,1788443565835,0.0,0.0,-0.0016566765261813,0.0025207444559782,-0.7908740043640137,0.6119716167449951,0.0,0.0,0.0,0.0,-4.729506120071392e-09,0.0,-0.0021036900579929,0.0023883460089564,-0.7355346083641052,0.67747962474823,-0.0011600879858942,-0.0006476534534635,-0.0002863411490907,-0.0074040293693542,-0.0255742669105529,-0.007756233215332,0,0,-32767,-32767
24.9,1788443565935,0.0,0.0,-0.0019018599996343,0.0025329778436571,-0.7908029556274414,0.6120626926422119,2.878620753114139e-05,-3.52736591570444e-05,-2.2188763236444519e-07,0.0007142183021642,8.520736446371302e-05,0.0003279718803241,-0.0021447455510497,0.0023330617696046,-0.7355299592018127,0.6774848103523254,-0.0007014800629907,-0.0026178223597831,-0.0007358718329356,0.0349555611610412,-0.011700689792633,0.0536222457885742,0,0,-32767,-32767
25.0,1788443566035,0.0,0.0,-0.0019018599996343,0.0025329778436571,-0.7908029556274414,0.6120626926422119,0.0,0.0,0.0,0.0,0.0,0.0,-0.0021506492048501,0.0023637479171156,-0.7355298399925232,0.6774848103523254,-0.0002784156329267,0.0003710808536584,0.0005957470142157,-0.0054297447204589,-5.78761100769043e-05,-0.0217618942260742,0,0,-32767,-32767
25.1,1788443566135,0.0,0.0,-0.0019018599996343,0.0025329778436571,-0.7908029556274414,0.6120626926422119,0.0,0.0,0.0,0.0,0.0,0.0,-0.0021981755271553,0.0023655574768781,-0.7355345487594604,0.67747962474823,-0.0020615270539341,-0.0020725725565602,-0.0004360369072591,0.024560272693634,0.0022401213645935,0.0142288208007812,0,0,-32767,-32767
25.2,1788443566235,0.0,0.0,-0.0019018599996343,0.0025329778436571,-0.7908029556274414,0.6120626926422119,0.0,0.0,0.0,0.0,0.0,0.0,-0.0022433744743466,0.002395499497652,-0.7354854941368103,0.6775326132774353,-0.0003075472758404,-7.82835895592575e-05,0.0013919488635303,-0.0180906653404235,-0.0039669871330261,-0.005563735961914,0,0,-32767,-32767
25.3,1788443566335,0.0,0.0,-0.0019018599996343,0.0025329778436571,-0.7908029556274414,0.6120626926422119,0.0,0.0,0.0,0.0,0.0,0.0,-0.0022133663296699,0.0024107974022626,-0.7354868650436401,0.6775310635566711,0.0004513398371602,0.001612619393884,-9.923834728332028e-05,-0.0083641409873962,0.0047434568405151,0.0070886611938476,0,0,-32767,-32767
25.4,1788443566435,0.0,0.0,-0.0019018599996343,0.0025329778436571,-0.7908029556274414,0.6120626926422119,0.0,0.0,0.0,0.0,0.0,0.0,-0.0022168178111314,0.0024184510111808,-0.7354999780654907,0.6775168180465698,0.0003430791355403,0.0020556352872553,-0.0009166628034995,-0.0293555855751037,0.0209130048751831,-0.010690689086914,0,0,-32767,-32767
25.5,1788443566535,0.0,0.0,-0.0019018599996343,0.0025329778436571,-0.7908029556274414,0.6120626926422119,0.0,0.0,0.0,0.0,0.0,0.0,-0.0022353259846568,0.0023884875699877,-0.7354944944381714,0.6775227785110474,0.0008923485397484,-0.0011766264237914,0.0003758138188586,0.007817268371582,0.0187718272209167,0.0037603378295898,0,0,-32767,-32767
25.6,1788443566635,0.0,0.0,-0.0019018599996343,0.0025329778436571,-0.7908029556274414,0.6120626926422119,0.0,0.0,0.0,0.0,0.0,0.0,-0.0022056968882679,0.0024209581315517,-0.7354966402053833,0.6775203943252563,0.0013142266720787,0.0016074232611925,-0.0001030003885292,-0.0179609656333923,0.0008506774902343,-0.0321941375732421,0,0,-32767,-32767
25.7,1788443566735,0.0,0.0,-0.0019018599996343,0.0025329778436571,-0.7908029556274414,0.6120626926422119,0.0,0.0,0.0,0.0,0.0,0.0,-0.0022069159895181,0.0024529220536351,-0.7354992628097534,0.6775175929069519,-0.0010725956023561,0.0018814836706869,0.0002986065410107,-0.004895269870758,0.0011367797851562,-0.001561164855957,0,0,-32767,-32767
25.8,1788443566835,0.0,0.0,-0.0019018599996343,0.0025329778436571,-0.7908029556274414,0.6120626926422119,0.0,0.0,0.0,0.0,0.0,0.0,-0.0022998331114649,0.0024137813597917,-0.7354898452758789,0.6775276064872742,-0.0004941501360601,-0.001707110107252,0.0014175723520789,-0.0369868278503418,0.0159822106361389,0.0040540695190429,0,0,-32767,-32767
25.9,1788443566935,0.0,0.0,-0.0019018599996343,0.0025329778436571,-0.7908029556274414,0.6120626926422119,0.0,0.0,0.0,0.0,0.0,0.0,-0.0022632712498307,0.0024531800299882,-0.7354962825775146,0.6775205135345459,-0.0004578275708493,0.0036816075013381,-0.000808541794567,0.0144276618957519,0.0015327334403991,0.0256547927856445,0,0,-32767,-32767
26.0,1788443567035,0.0,0.0,-0.0019018599996343,0.0025329778436571,-0.7908029556274414,0.6120626926422119,0.0,0.0,0.0,0.0,0.0,0.0,-0.0022504348307847,0.0023986157029867,-0.7354916930198669,0.6775257587432861,0.000735938288601,-0.0012434280060857,0.0004258755074936,-0.0003995895385742,0.0005431771278381,0.0166730880737304,0,0,-32767,-32767
26.1,1788443567135,0.0,0.0,-0.0019018599996343,0.0025329778436571,-0.7908029556274414,0.6120626926422119,0.0,0.0,0.0,0.0,0.0,0.0,-0.0022529307752847,0.0024113999679684,-0.7355085015296936,0.6775075197219849,0.0003150204631297,0.0022506504740499,-0.0007743228054453,-0.0216772556304931,0.0258541703224182,0.0059795379638671,0,0,-32767,-32767
26.2,1788443567235,0.0,0.0,-0.0019018599996343,0.0025329778436571,-0.7908029556274414,0.6120626926422119,0.0,0.0,0.0,0.0,0.0,0.0,-0.0022172322496771,0.0024412097409367,-0.735517144203186,0.6774980425834656,-0.0004759946810389,0.0026260618426968,-0.0006249985667609,0.0026714205741882,-0.0156355500221252,0.0274248123168945,0,0,-32767,-32767
26.3,1788443567335,0.0,0.0,-0.0019018599996343,0.0025329778436571,-0.7908029556274414,0.6120626926422119,0.0,0.0,0.0,0.0,0.0,0.0,-0.0021967198699712,0.0023803571239113,-0.7355267405509949,0.6774880290031433,0.0004533657449705,-0.0017272168817457,-0.0006497294829464,-0.0031473040580749,-0.0060647726058959,0.0310325622558593,0,0,-32767,-32767
26.4,1788443567435,0.0,0.0,-0.0019018599996343,0.0025329778436571,-0.7908029556274414,0.6120626926422119,0.0,0.0,0.0,0.0,0.0,0.0,-0.002146472223103,0.0023928713053464,-0.7355346083641052,0.6774795651435852,0.0004861502747144,0.0007206886533699,0.0007553926625043,-0.0040026307106018,-0.0029743909835815,0.0238018035888671,0,0,-32767,-32767
26.5,1788443567535,0.0,0.0,-0.0019018599996343,0.0025329778436571,-0.7908029556274414,0.6120626926422119,0.0,0.0,0.0,0.0,0.0,0.0,-0.0021470878273248,0.002364438958466,-0.7355366945266724,0.6774773001670837,6.293175313204154e-05,0.0002090086589392,0.0004013801576042,0.0064298510551452,-0.0158608555793762,-0.0032243728637695,0,0,-32767,-32767
26.6,1788443567635,0.0,0.0,-0.0019018599996343,0.0025329778436571,-0.7908029556274414,0.6120626926422119,0.0,0.0,0.0,0.0,0.0,0.0,-0.0021838564425706,0.002316890284419,-0.7355490922927856,0.6774638891220093,0.0002065662383682,0.0001510060076004,-0.0017559668988669,-0.0163415670394897,-0.0324100255966186,0.0378952026367187,0,0,-32767,-32767
26.7,1788443567735,0.0,0.0,-0.0019018599996343,0.0025329778436571,-0.7908029556274414,0.6120626926422119,0.0,0.0,0.0,0.0,0.0,0.0,-0.0021583018824458,0.0022835433483123,-0.7355350255966187,0.6774793267250061,0.00139563486392,-0.0001288142573932,0.0006958368955405,-0.0055921077728271,-0.0097195506095886,-0.0033473968505859,0,0,-32767,-32767
26.8,1788443567835,0.0,0.0,-0.0019018599996343,0.0025329778436571,-0.7908029556274414,0.6120626926422119,0.0,0.0,0.0,0.0,0.0,0.0,-0.0021583018824458,0.0022835433483123,-0.7355350255966187,0.6774793267250061,0.00139563486392,-0.0001288142573932,0.0006958368955405,-0.0055921077728271,-0.0097195506095886,-0.0033473968505859,0,0,-32767,-32767
26.9,1788443567935,0.0,0.0,-0.0019018599996343,0.0025329778436571,-0.7908029556274414,0.6120626926422119,0.0,0.0,0.0,0.0,0.0,0.0,-0.0022221999242901,0.0022518057376146,-0.7355711460113525,0.6774401068687439,-0.0004400018869323,0.0003849773211717,-0.0003508886991118,-0.0213159322738647,-0.0200867652893066,0.0017910003662109,0,0,-32767,-32767
27.0,1788443568035,0.0,0.0,-0.0019018599996343,0.0025329778436571,-0.7908029556274414,0.6120626926422119,0.0,0.0,0.0,0.0,0.0,0.0,-0.0022210860624909,0.0022924672812223,-0.7355673909187317,0.6774440407752991,-0.0003761156696947,0.0004144889154242,0.0002189988997418,0.000827670097351,-0.0122967958450317,0.0035552978515625,0,0,-32767,-32767
27.1,1788443568135,0.0,0.0,-0.0019018599996343,0.0025329778436571,-0.7908029556274414,0.6120626926422119,0.0,0.0,0.0,0.0,0.0,0.0,-0.0022054286673665,0.0023037213832139,-0.7355702519416809,0.6774409413337708,0.0004140252111275,0.0038060285912806,0.0006265162316417,-0.0185462236404418,0.0271399617195129,0.0179977416992187,0,0,-32767,-32767
27.2,1788443568235,0.0,0.0,-0.0019018599996343,0.0025329778436571,-0.7908029556274414,0.6120626926422119,0.0,0.0,0.0,0.0,0.0,0.0,-0.0022458722814917,0.002262121066451,-0.7355422973632812,0.6774713397026062,0.0012897311450217,-0.0020739005054254,0.0014998494123053,-0.0160161256790161,0.0055732131004333,0.0142192840576171,0,0,-32767,-32767
27.3,1788443568335,0.0,0.0,-0.0019018599996343,0.0025329778436571,-0.7908029556274414,0.6120626926422119,0.0,0.0,0.0,0.0,0.0,0.0,-0.0022238753736019,0.0022964188829064,-0.7355534434318542,0.6774591207504272,0.0001904370052898,0.0021658627089123,-0.0017080809896276,-0.0133553147315979,-0.0138214230537414,-0.0146751403808593,0,0,-32767,-32767
27.4,1788443568435,0.0,0.0,-0.0019018599996343,0.0025329778436571,-0.7908029556274414,0.6120626926422119,0.0,0.0,0.0,0.0,0.0,0.0,-0.0022238753736019,0.0022964188829064,-0.7355534434318542,0.6774591207504272,0.0001904370052898,0.0021658627089123,-0.0017080809896276,-0.0133553147315979,-0.0138214230537414,-0.0146751403808593,0,0,-32767,-32767
27.5,1788443568535,0.0,0.0,-0.0019018599996343,0.0025329778436571,-0.7908029556274414,0.6120626926422119,0.0,0.0,0.0,0.0,0.0,0.0,-0.0022741816937923,0.002266745083034,-0.7355167865753174,0.677498996257782,-0.0011283172308889,0.0009388082727614,0.0008144357566593,0.0142922401428222,0.024056851863861,0.0213127136230468,0,0,-32767,-32767
27.6,1788443568635,0.0,0.0,-0.0019018599996343,0.0025329778436571,-0.7908029556274414,0.6120626926422119,0.0,0.0,0.0,0.0,0.0,0.0,-0.0022969543933868,0.0022827610373497,-0.7355049848556519,0.6775116324424744,-0.0001528226538642,0.0024074810934374,0.0002621352782351,0.0052261352539062,0.0210240483283996,0.0212345123291015,0,0,-32767,-32767
27.7,1788443568735,0.0,0.0,-0.0019018599996343,0.0025329778436571,-0.7908029556274414,0.6120626926422119,0.0,0.0,0.0,0.0,0.0,0.0,-0.0023422185331583,0.002264610491693,-0.7355147004127502,0.6775009632110596,-0.000237762398321,-0.000777175105054,-0.0003873803406931,0.0025345683097839,0.0357167720794677,0.0284452438354492,0,0,-32767,-32767
27.8,1788443568835,0.0,0.0,-0.0019018599996343,0.0025329778436571,-0.7908029556274414,0.6120626926422119,0.0,0.0,0.0,0.0,0.0,0.0,-0.002341573126614,0.002234642393887,-0.7354962229728699,0.6775211095809937,0.0005493796604778,-0.0015019577928297,0.0011318499048651,-0.0265643000602722,-0.0132030844688415,-0.0149269104003906,0,0,-32767,-32767
27.9,1788443568935,0.0,0.0,-0.0019018599996343,0.0025329778436571,-0.7908029556274414,0.6120626926422119,0.0,0.0,0.0,0.0,0.0,0.0,-0.0022981688380241,0.0022866241633892,-0.7354801893234253,0.6775384545326233,0.0003696485172599,0.0022328493035878,0.001009728508202,0.0107154846191406,0.0086097717285156,0.0031299591064453,0,0,-32767,-32767
28.0,1788443569035,0.0,0.0,-0.0019018599996343,0.0025329778436571,-0.7908029556274414,0.6120626926422119,0.0,0.0,0.0,0.0,0.0,0.0,-0.0022981688380241,0.0022866241633892,-0.7354801893234253,0.6775384545326233,0.0003696485172599,0.0022328493035878,0.001009728508202,0.0107154846191406,0.0086097717285156,0.0031299591064453,0,0,-32767,-32767
28.1,1788443569135,0.0,0.0,-0.0019018599996343,0.0025329778436571,-0.7908029556274414,0.6120626926422119,0.0,0.0,0.0,0.0,0.0,0.0,-0.0023296419531106,0.0022205747663974,-0.7354668378829956,0.677553117275238,-0.0001116623972497,-0.0015459536468584,0.0001681848574444,0.0022041797637939,-0.0135305523872375,0.0138072967529296,0,0,-32767,-32767
28.2,1788443569235,0.0,0.0,-0.0019018599996343,0.0025329778436571,-0.7908029556274414,0.6120626926422119,0.0,0.0,0.0,0.0,0.0,0.0,-0.0023236330598592,0.0022305194288492,-0.7354493737220764,0.6775719523429871,0.0004015398426848,0.0005419223906138,-0.0002187194426873,0.0239834189414978,0.0080623626708984,0.0211133956909179,0,0,-32767,-32767
28.3,1788443569335,0.0,0.0,-0.0019018599996343,0.0025329778436571,-0.7908029556274414,0.6120626926422119,0.0,0.0,0.0,0.0,0.0,0.0,-0.002337054349482,0.0022130161523818,-0.7354450225830078,0.6775767207145691,-9.198015712688912e-05,-0.0026048011764315,0.0006203457595264,0.0183405876159667,0.0295072197914123,0.0193996429443359,0,0,-32767,-32767
28.4,1788443569435,0.0,0.0,-0.0021377895027399,0.002435426460579,-0.7907304763793945,0.6121557950973511,0.0004145833716906,-0.0004801596978339,1.7764604995258364e-06,-0.0026969120372086,-0.0098891546949744,0.0046982155181467,-0.0023369370028376,0.0022582439705729,-0.7354395389556885,0.6775825023651123,-0.0006596295441388,0.0014726905835608,0.0007675917899027,-0.0171295404434204,-0.0111221075057983,0.0281829833984375,0,0,-32767,-32767
28.5,1788443569535,0.0,0.0,-0.0021523472387343,0.0024467869661748,-0.7907321453094482,0.6121536493301392,0.0,0.0,0.0,0.0,4.725796198812304e-09,0.0,-0.0023509804159402,0.0022152578458189,-0.7354145050048828,0.6776098608970642,0.0007083575289598,-0.0012682568575642,0.0011842399035491,-0.0124409198760986,-0.0005939006805419,-0.0166702270507812,0,0,-32767,-32767
28.6,1788443569635,0.0,0.0,-0.0021523472387343,0.0024467869661748,-0.7907321453094482,0.6121536493301392,0.0,0.0,0.0,0.0,4.55813831123919e-09,0.0,-0.0022703446447849,0.0022180490195751,-0.7353962659835815,0.6776298880577087,-0.000107380945176,-0.002198434894593,0.000156642898836,0.0283153057098388,0.0127374529838562,-0.0147647857666015,0,0,-32767,-32767
28.7,1788443569735,0.0,0.0,-0.0021523472387343,0.0024467869661748,-0.7907321453094482,0.6121536493301392,0.0,0.0,0.0,0.0,5.811604975036744e-09,0.0,-0.0022225324064493,0.0022715590894222,-0.7354049682617188,0.6776204705238342,0.0014853690070239,0.0015235271782234,0.0005267378674313,0.0045526623725891,0.0217344760894775,0.0157852172851562,0,0,-32767,-32767
28.8,1788443569835,0.0,0.0,-0.0021523472387343,0.0024467869661748,-0.7907321453094482,0.6121536493301392,0.0,0.0,0.0,0.0,4.6669850206626515e-09,0.0,-0.0021933931857347,0.0022783176973462,-0.7354103326797485,0.677614688873291,0.0012733464528508,0.0010000482728055,0.0006160730732814,-0.0236120820045471,-0.0017446875572204,-0.0220508575439453,0,0,-32767,-32767
28.9,1788443569935,0.0,0.0,-0.0021523472387343,0.0024467869661748,-0.7907321453094482,0.6121536493301392,0.0,0.0,0.0,0.0,4.7184500751029645e-09,0.0,-0.0021986411884427,0.0022253077477216,-0.7353969812393188,0.677629292011261,0.0010603297827925,-0.0016189878686489,-0.0013348869292834,0.0330196619033813,0.0117195844650268,0.0319700241088867,0,0,-32767,-32767
29.0,1788443570035,0.0,0.0,-0.0021523472387343,0.0024467869661748,-0.7907321453094482,0.6121536493301392,0.0,0.0,0.0,0.0,5.718253870412582e-09,0.0,-0.0022335844114422,0.0021844832226634,-0.7353892922401428,0.6776376366615295,0.0007246134405727,-0.0032409343327886,6.725505680830938e-05,0.0068255066871643,0.0187751650810241,0.0337715148925781,0,0,-32767,-32767
29.1,1788443570135,0.0,0.0,-0.0021523472387343,0.0024467869661748,-0.7907321453094482,0.6121536493301392,0.0,0.0,0.0,0.0,5.857553997401511e-09,0.0,-0.002218353562057,0.0021820794790983,-0.7354027628898621,0.6776230931282043,0.0005540813713386,0.0024208967275931,0.0006132149099848,-0.0213475823402404,0.0170645713806152,-0.0201377868652343,0,0,-32767,-32767
29.2,1788443570235,0.0,0.0,-0.0021523472387343,0.0024467869661748,-0.7907321453094482,0.6121536493301392,0.0,0.0,0.0,0.0,4.761885996629189e-09,0.0,-0.0021381424739956,0.002257633022964,-0.7354292273521423,0.6775944232940674,0.0005549010228329,0.0022823519049246,-0.001276522323889,-0.010545790195465,-0.0261928439140319,-0.0005321502685546,0,0,-32767,-32767
29.3,1788443570335,0.0,0.0,-0.0021523472387343,0.0024467869661748,-0.7907321453094482,0.6121536493301392,0.0,0.0,0.0,0.0,3.797484549039609e-09,0.0,-0.002155921421945,0.0022480124607682,-0.735421359539032,0.677603006362915,-0.0003319922873542,-0.0013109485527011,0.0007722278682486,-0.0019534230232238,-0.0063263177871704,-0.0022354125976562,0,0,-32767,-32767
29.4,1788443570435,0.0,0.0,-0.0021523472387343,0.0024467869661748,-0.7907321453094482,0.6121536493301392,0.0,0.0,0.0,0.0,3.295193673480412e-09,0.0,-0.0021491982042789,0.0022813715040683,-0.7354260683059692,0.6775977611541748,-0.0002474826316325,0.0029951937665603,0.0009794022352869,-0.0157961249351501,0.0210646390914917,-0.0129127502441406,0,0,-32767,-32767
29.5,1788443570535,0.0,0.0,-0.0019460793118923,0.0024569248780608,-0.7907152771949768,0.6121761202812195,0.0,0.0,0.0,0.0,-2.347263539093092e-08,4.506745881371899e-06,-0.0021673394367098,0.0022642035037279,-0.7354198694229126,0.6776044368743896,2.2226264309861717e-05,-0.001667330732211,0.000602168650986,-0.0091346502304077,0.0012277960777282,0.0067787170410156,0,0,-32767,-32767
29.6,1788443570635,0.0,0.0,-0.0019552283920347,0.0024680679198354,-0.7906811833381653,0.6122199892997742,0.0001589752769878,-0.0001847037854801,-1.1693353428532526e-06,0.00056016567396,-0.0012875825632363,0.0018219701014459,-0.0021666446700692,0.0023098429664969,-0.7353894114494324,0.6776373386383057,-0.0003091840316221,-7.523601841079349e-05,0.0001071935498555,0.0201750397682189,0.0036374926567077,0.0211915969848632,0,0,-32767,-32767
29.7,1788443570735,0.0,0.0,-0.001939547015354,0.0024894657544791,-0.7906498908996582,0.6122604012489319,0.000111929735942,-0.0001325074533101,-8.503362883530356e-07,0.0003276265051681,0.0017166809411719,0.0012907452182844,-0.002144044265151,0.0023363707587122,-0.7353672981262207,0.6776613593101501,-0.0007066706207751,0.0013921331603981,-0.0011973838876102,0.0190903544425964,0.0074824690818786,-0.0201139450073242,0,0,-32767,-32767
29.8,1788443570835,0.0,0.0,-0.0019313843222334,0.0025415460113435,-0.7906664609909058,0.612238883972168,-8.535898146688375e-05,0.0001016593992354,6.471197568377868e-07,-0.0009434987441636,0.00185005471576,-0.0009559175232425,-0.0021417206153273,0.0023635160177946,-0.7353755235671997,0.6776523590087891,-0.0013969557697269,0.0015302769277518,-0.000921549450429,-0.0290225744247436,-0.0065450072288513,-0.0148448944091796,0,0,-32767,-32767
29.9,1788443570935,0.0,0.0,-0.0019109229324385,0.0025664204731583,-0.7906672954559326,0.6122376322746277,-5.2962444984067936e-05,6.028789992310815e-05,3.774488369257419e-07,-0.0003857148694805,-0.0004562979156617,-0.0006177779869176,-0.0020966511219739,0.0024463795125484,-0.7353757619857788,0.6776518821716309,-0.0003794729566815,0.0031078408635798,-0.0001013606098932,-0.0039203166961669,-0.0184296369552612,-0.0346250534057617,0,0,-32767,-32767
30.0,1788443571035,0.0,0.0,-0.0018777548102661,0.0025943813379853,-0.7906659245491028,0.6122394800186157,5.313891778652357e-05,-5.997982649364085e-05,-3.755698019730867e-07,0.0007633694913238,0.0001114710903493,0.0006209556595422,-0.0020937630906701,0.0024338150396943,-0.7353609800338745,0.6776679754257202,-0.0006947251418351,-0.0007939902329776,0.0004230500421203,0.0138826370239257,0.0244069695472717,-0.0218610763549804,0,0,-32767,-32767
30.1,1788443571135,0.0,0.0,-0.001867497107014,0.0026350931730121,-0.7906690239906311,0.6122353672981262,-7.653004099811438e-05,8.990554747624363e-05,5.601725620790393e-07,-0.0007377914153039,0.0011020767269656,-0.0008616696577519,-0.0020875185728073,0.002471194602549,-0.7353740930557251,0.6776537299156189,7.888813697356615e-06,-0.0011478026468374,-0.0001132728922838,0.0018900632858276,0.0320679545402526,-0.027235984802246,0,0,-32767,-32767
30.2,1788443571235,0.0,0.0,-0.0018683850066736,0.0026407719124108,-0.7906675338745117,0.6122370958328247,6.063837036824289e-06,-6.622853718904188e-06,-4.1084401736222255e-08,-0.0001674451486906,9.204372327076273e-05,7.632686174474657e-05,-0.0020693698897957,0.0024797292426228,-0.7353598475456238,0.6776691675186157,0.0010553221914957,0.0002575568511275,0.001132058147062,0.0148206353187561,0.0337322354316711,-0.0236234664916992,0,0,-32767,-32767
30.3,1788443571335,0.0,0.0,-0.0018470118520781,0.0026429872959852,-0.7906535863876343,0.612255334854126,4.563225090523429e-06,-4.984383814736019e-06,-3.0808602741574255e-08,0.0005379415233619,0.0002004269481403,6.11713039688766e-05,-0.0020443769171833,0.0024624429643154,-0.7353631854057312,0.6776655912399292,0.0013420783280425,0.0020351083494444,0.0004407991371259,-0.0120424032211303,-0.0190528631210327,0.0048742294311523,0,0,-32767,-32767
30.4,1788443571435,0.0,0.0,-0.0018119923770427,0.0026287999935448,-0.7906540036201477,0.6122549176216125,3.663768706735293e-05,-4.469367984494167e-05,-2.7628363528518576e-07,0.0008698321762494,0.0012721767416223,0.0004159625677857,-0.0020402166992425,0.0024585323408246,-0.7353595495223999,0.6776695847511292,0.0002117652525116,1.4571694747930916e-05,0.0002017166569477,0.0185044407844543,-0.0065440535545349,-0.0058097839355468,0,0,-32767,-32767
