time_s,timestamp_ms,wheel_vels__velocity_left,wheel_vels__velocity_right,odom__orient_x,odom__orient_y,odom__orient_z,odom__orient_w,odom__lin_x,odom__lin_y,odom__lin_z,odom__ang_x,odom__ang_y,odom__ang_z,imu__orient_x,imu__orient_y,imu__orient_z,imu__orient_w,imu__angvel_x,imu__angvel_y,imu__angvel_z,imu__acc_x,imu__acc_y,imu__acc_z,wheel_status__current_ma_left,wheel_status__current_ma_right,wheel_status__pwm_left,wheel_status__pwm_right
0.0,1788520652246,0.0,0.0,0.0005613117245957,0.0006348599563352,-0.9757924675941468,0.2186969220638275,-7.617626379457033e-05,8.861124197522349e-05,1.2969781787958923e-10,-0.0001008433755487,0.0002337749756406,-0.0008849128498695,0.0005900338292121,0.0006286716088652,-0.9803896546363832,0.1970670819282531,-0.0002251429629401,0.0010722577585266,-0.0007554653957573,0.0004634261131286,0.0001733303070068,-0.0161428451538085,0,0,0,0
0.1,1788520652346,0.0,0.0,0.0005613117245957,0.0006348599563352,-0.9757924675941468,0.2186969220638275,-7.617626379457033e-05,8.861124197522349e-05,1.2969781787958923e-10,-0.0001008433755487,0.0002337749756406,-0.0008849128498695,0.0005900338292121,0.0006286716088652,-0.9803896546363832,0.1970670819282531,-0.0002251429629401,0.0010722577585266,-0.0007554653957573,0.0004634261131286,0.0001733303070068,-0.0161428451538085,0,0,0,0
0.2,1788520652446,0.0,0.0,0.0005613117245957,0.0006348599563352,-0.9757924675941468,0.2186969220638275,-7.617626379457033e-05,8.861124197522349e-05,1.2969781787958923e-10,-0.0001008433755487,0.0002337749756406,-0.0008849128498695,0.0005900338292121,0.0006286716088652,-0.9803896546363832,0.1970670819282531,-0.0002251429629401,0.0010722577585266,-0.0007554653957573,0.0004634261131286,0.0001733303070068,-0.0161428451538085,0,0,0,0
0.3,1788520652546,0.0,0.0,0.0005613117245957,0.0006348599563352,-0.9757924675941468,0.2186969220638275,-7.617626379457033e-05,8.861124197522349e-05,1.2969781787958923e-10,-0.0001008433755487,0.0002337749756406,-0.0008849128498695,0.0005900338292121,0.0006286716088652,-0.9803896546363832,0.1970670819282531,-0.0002251429629401,0.0010722577585266,-0.0007554653957573,0.0004634261131286,0.0001733303070068,-0.0161428451538085,0,0,0,0
0.4,1788520652646,0.0,0.0,0.0005613117245957,0.0006348599563352,-0.9757924675941468,0.2186969220638275,-7.617626379457033e-05,8.861124197522349e-05,1.2969781787958923e-10,-0.0001008433755487,0.0002337749756406,-0.0008849128498695,0.0005900338292121,0.0006286716088652,-0.9803896546363832,0.1970670819282531,-0.0002251429629401,0.0010722577585266,-0.0007554653957573,0.0004634261131286,0.0001733303070068,-0.0161428451538085,0,0,0,0
0.5,1788520652746,0.0,0.0,0.0005613117245957,0.0006348599563352,-0.9757924675941468,0.2186969220638275,-7.617626379457033e-05,8.861124197522349e-05,1.2969781787958923e-10,-0.0001008433755487,0.0002337749756406,-0.0008849128498695,0.0005900338292121,0.0006286716088652,-0.9803896546363832,0.1970670819282531,-0.0002251429629401,0.0010722577585266,-0.0007554653957573,0.0004634261131286,0.0001733303070068,-0.0161428451538085,0,0,0,0
0.6,1788520652846,0.0,0.0,0.0005613117245957,0.0006348599563352,-0.9757924675941468,0.2186969220638275,-7.617626379457033e-05,8.861124197522349e-05,1.2969781787958923e-10,-0.0001008433755487,0.0002337749756406,-0.0008849128498695,0.0005900338292121,0.0006286716088652,-0.9803896546363832,0.1970670819282531,-0.0002251429629401,0.0010722577585266,-0.0007554653957573,0.0004634261131286,0.0001733303070068,-0.0161428451538085,0,0,0,0
0.7,1788520652946,0.0,0.0,0.0005613117245957,0.0006348599563352,-0.9757924675941468,0.2186969220638275,-7.617626379457033e-05,8.861124197522349e-05,1.2969781787958923e-10,-0.0001008433755487,0.0002337749756406,-0.0008849128498695,0.0005900338292121,0.0006286716088652,-0.9803896546363832,0.1970670819282531,-0.0002251429629401,0.0010722577585266,-0.0007554653957573,0.0004634261131286,0.0001733303070068,-0.0161428451538085,0,0,0,0
0.8,1788520653046,0.0,0.0,0.0005613117245957,0.0006348599563352,-0.9757924675941468,0.2186969220638275,-7.617626379457033e-05,8.861124197522349e-05,1.2969781787958923e-10,-0.0001008433755487,0.0002337749756406,-0.0008849128498695,0.0005900338292121,0.0006286716088652,-0.9803896546363832,0.1970670819282531,-0.0002251429629401,0.0010722577585266,-0.0007554653957573,0.0004634261131286,0.0001733303070068,-0.0161428451538085,0,0,0,0
0.9,1788520653146,0.0,0.0,0.0005613117245957,0.0006348599563352,-0.9757924675941468,0.2186969220638275,-7.617626379457033e-05,8.861124197522349e-05,1.2969781787958923e-10,-0.0001008433755487,0.0002337749756406,-0.0008849128498695,0.0005900338292121,0.0006286716088652,-0.9803896546363832,0.1970670819282531,-0.0002251429629401,0.0010722577585266,-0.0007554653957573,0.0004634261131286,0.0001733303070068,-0.0161428451538085,0,0,0,0
1.0,1788520653246,0.0,0.0,0.0005613117245957,0.0006348599563352,-0.9757924675941468,0.2186969220638275,-7.617626379457033e-05,8.861124197522349e-05,1.2969781787958923e-10,-0.0001008433755487,0.0002337749756406,-0.0008849128498695,0.0005900338292121,0.0006286716088652,-0.9803896546363832,0.1970670819282531,-0.0002251429629401,0.0010722577585266,-0.0007554653957573,0.0004634261131286,0.0001733303070068,-0.0161428451538085,0,0,0,0
1.1,1788520653346,0.0,0.0,0.0005613117245957,0.0006348599563352,-0.9757924675941468,0.2186969220638275,-7.617626379457033e-05,8.861124197522349e-05,1.2969781787958923e-10,-0.0001008433755487,0.0002337749756406,-0.0008849128498695,0.0005900338292121,0.0006286716088652,-0.9803896546363832,0.1970670819282531,-0.0002251429629401,0.0010722577585266,-0.0007554653957573,0.0004634261131286,0.0001733303070068,-0.0161428451538085,0,0,0,0
1.2,1788520653446,0.0,0.0,0.0005613117245957,0.0006348599563352,-0.9757924675941468,0.2186969220638275,-7.617626379457033e-05,8.861124197522349e-05,1.2969781787958923e-10,-0.0001008433755487,0.0002337749756406,-0.0008849128498695,0.0005900338292121,0.0006286716088652,-0.9803896546363832,0.1970670819282531,-0.0002251429629401,0.0010722577585266,-0.0007554653957573,0.0004634261131286,0.0001733303070068,-0.0161428451538085,0,0,0,0
1.3,1788520653546,0.0,0.0,0.0005613117245957,0.0006348599563352,-0.9757924675941468,0.2186969220638275,-7.617626379457033e-05,8.861124197522349e-05,1.2969781787958923e-10,-0.0001008433755487,0.0002337749756406,-0.0008849128498695,0.0005900338292121,0.0006286716088652,-0.9803896546363832,0.1970670819282531,-0.0002251429629401,0.0010722577585266,-0.0007554653957573,0.0004634261131286,0.0001733303070068,-0.0161428451538085,0,0,0,0
1.4,1788520653646,0.0,0.0,0.0005613117245957,0.0006348599563352,-0.9757924675941468,0.2186969220638275,-7.617626379457033e-05,8.861124197522349e-05,1.2969781787958923e-10,-0.0001008433755487,0.0002337749756406,-0.0008849128498695,0.0005900338292121,0.0006286716088652,-0.9803896546363832,0.1970670819282531,-0.0002251429629401,0.0010722577585266,-0.0007554653957573,0.0004634261131286,0.0001733303070068,-0.0161428451538085,0,0,0,0
1.5,1788520653746,0.0,0.0,0.0005613117245957,0.0006348599563352,-0.9757924675941468,0.2186969220638275,-7.617626379457033e-05,8.861124197522349e-05,1.2969781787958923e-10,-0.0001008433755487,0.0002337749756406,-0.0008849128498695,0.0005900338292121,0.0006286716088652,-0.9803896546363832,0.1970670819282531,-0.0002251429629401,0.0010722577585266,-0.0007554653957573,0.0004634261131286,0.0001733303070068,-0.0161428451538085,0,0,0,0
1.6,1788520653846,0.0,0.0,0.0005613117245957,0.0006348599563352,-0.9757924675941468,0.2186969220638275,-7.617626379457033e-05,8.861124197522349e-05,1.2969781787958923e-10,-0.0001008433755487,0.0002337749756406,-0.0008849128498695,0.0005900338292121,0.0006286716088652,-0.9803896546363832,0.1970670819282531,-0.0002251429629401,0.0010722577585266,-0.0007554653957573,0.0004634261131286,0.0001733303070068,-0.0161428451538085,0,0,0,0
1.7,1788520653946,0.0,0.0,0.0005613117245957,0.0006348599563352,-0.9757924675941468,0.2186969220638275,-7.617626379457033e-05,8.861124197522349e-05,1.2969781787958923e-10,-0.0001008433755487,0.0002337749756406,-0.0008849128498695,0.0005900338292121,0.0006286716088652,-0.9803896546363832,0.1970670819282531,-0.0002251429629401,0.0010722577585266,-0.0007554653957573,0.0004634261131286,0.0001733303070068,-0.0161428451538085,0,0,0,0
1.8,1788520654046,0.0,0.0,0.0005613117245957,0.0006348599563352,-0.9757924675941468,0.2186969220638275,-7.617626379457033e-05,8.861124197522349e-05,1.2969781787958923e-10,-0.0001008433755487,0.0002337749756406,-0.0008849128498695,0.0005900338292121,0.0006286716088652,-0.9803896546363832,0.1970670819282531,-0.0002251429629401,0.0010722577585266,-0.0007554653957573,0.0004634261131286,0.0001733303070068,-0.0161428451538085,0,0,0,0
1.9,1788520654146,0.0,0.0,0.0005613117245957,0.0006348599563352,-0.9757924675941468,0.2186969220638275,-7.617626379457033e-05,8.861124197522349e-05,1.2969781787958923e-10,-0.0001008433755487,0.0002337749756406,-0.0008849128498695,0.0005900338292121,0.0006286716088652,-0.9803896546363832,0.1970670819282531,-0.0002251429629401,0.0010722577585266,-0.0007554653957573,0.0004634261131286,0.0001733303070068,-0.0161428451538085,0,0,0,0
2.0,1788520654246,0.0,0.0,0.0005613117245957,0.0006348599563352,-0.9757924675941468,0.2186969220638275,-7.617626379457033e-05,8.861124197522349e-05,1.2969781787958923e-10,-0.0001008433755487,0.0002337749756406,-0.0008849128498695,0.0005900338292121,0.0006286716088652,-0.9803896546363832,0.1970670819282531,-0.0002251429629401,0.0010722577585266,-0.0007554653957573,0.0004634261131286,0.0001733303070068,-0.0161428451538085,0,0,0,0
2.1,1788520654346,0.0,0.0,0.0005613117245957,0.0006348599563352,-0.9757924675941468,0.2186969220638275,-7.617626379457033e-05,8.861124197522349e-05,1.2969781787958923e-10,-0.0001008433755487,0.0002337749756406,-0.0008849128498695,0.0005900338292121,0.0006286716088652,-0.9803896546363832,0.1970670819282531,-0.0002251429629401,0.0010722577585266,-0.0007554653957573,0.0004634261131286,0.0001733303070068,-0.0161428451538085,0,0,0,0
2.2,1788520654446,0.0,0.0,0.0005613117245957,0.0006348599563352,-0.9757924675941468,0.2186969220638275,-7.617626379457033e-05,8.861124197522349e-05,1.2969781787958923e-10,-0.0001008433755487,0.0002337749756406,-0.0008849128498695,0.0005900338292121,0.0006286716088652,-0.9803896546363832,0.1970670819282531,-0.0002251429629401,0.0010722577585266,-0.0007554653957573,0.0004634261131286,0.0001733303070068,-0.0161428451538085,0,0,0,0
2.3,1788520654546,0.0,0.0,0.0005613117245957,0.0006348599563352,-0.9757924675941468,0.2186969220638275,-7.617626379457033e-05,8.861124197522349e-05,1.2969781787958923e-10,-0.0001008433755487,0.0002337749756406,-0.0008849128498695,0.0005900338292121,0.0006286716088652,-0.9803896546363832,0.1970670819282531,-0.0002251429629401,0.0010722577585266,-0.0007554653957573,0.0004634261131286,0.0001733303070068,-0.0161428451538085,0,0,0,0
2.4,1788520654646,0.0,0.0,0.0005613117245957,0.0006348599563352,-0.9757924675941468,0.2186969220638275,-7.617626379457033e-05,8.861124197522349e-05,1.2969781787958923e-10,-0.0001008433755487,0.0002337749756406,-0.0008849128498695,0.0005900338292121,0.0006286716088652,-0.9803896546363832,0.1970670819282531,-0.0002251429629401,0.0010722577585266,-0.0007554653957573,0.0004634261131286,0.0001733303070068,-0.0161428451538085,0,0,0,0
2.5,1788520654746,0.0,0.0,0.0005613117245957,0.0006348599563352,-0.9757924675941468,0.2186969220638275,-7.617626379457033e-05,8.861124197522349e-05,1.2969781787958923e-10,-0.0001008433755487,0.0002337749756406,-0.0008849128498695,0.0005900338292121,0.0006286716088652,-0.9803896546363832,0.1970670819282531,-0.0002251429629401,0.0010722577585266,-0.0007554653957573,0.0004634261131286,0.0001733303070068,-0.0161428451538085,0,0,0,0
2.6,1788520654846,0.0,0.0,0.0005613117245957,0.0006348599563352,-0.9757924675941468,0.2186969220638275,-7.617626379457033e-05,8.861124197522349e-05,1.2969781787958923e-10,-0.0001008433755487,0.0002337749756406,-0.0008849128498695,0.0005900338292121,0.0006286716088652,-0.9803896546363832,0.1970670819282531,-0.0002251429629401,0.0010722577585266,-0.0007554653957573,0.0004634261131286,0.0001733303070068,-0.0161428451538085,0,0,0,0
2.7,1788520654946,0.0,0.0,0.0005613117245957,0.0006348599563352,-0.9757924675941468,0.2186969220638275,-7.617626379457033e-05,8.861124197522349e-05,1.2969781787958923e-10,-0.0001008433755487,0.0002337749756406,-0.0008849128498695,0.0005900338292121,0.0006286716088652,-0.9803896546363832,0.1970670819282531,-0.0002251429629401,0.0010722577585266,-0.0007554653957573,0.0004634261131286,0.0001733303070068,-0.0161428451538085,0,0,0,0
2.8,1788520655046,0.0,0.0,0.0005613117245957,0.0006348599563352,-0.9757924675941468,0.2186969220638275,-7.617626379457033e-05,8.861124197522349e-05,1.2969781787958923e-10,-0.0001008433755487,0.0002337749756406,-0.0008849128498695,0.0005900338292121,0.0006286716088652,-0.9803896546363832,0.1970670819282531,-0.0002251429629401,0.0010722577585266,-0.0007554653957573,0.0004634261131286,0.0001733303070068,-0.0161428451538085,0,0,0,0
2.9,1788520655146,0.0,0.0,0.0005759958876296,0.0006415582029148,-0.9757949113845824,0.2186859995126724,-3.844581256565272e-05,4.471876346689085e-05,9.143998623333903e-10,-0.0001321911258855,0.0006296348874457,-0.0004453847941476,0.0005933307111263,0.0006237337365746,-0.9803879261016846,0.1970757693052292,-0.0006778298385726,0.0011086025019617,-0.0006751012869673,0.0165691375732421,-0.012623906135559,2.765655517578125e-05,0,0,0,0
3.0,1788520655246,0.0,0.0,0.0005816092598251,0.0006401320570148,-0.9757989645004272,0.2186679691076278,-0.0001126729986348,0.0001310791356057,-8.947243277180334e-10,1.5750611055409536e-05,0.0004382858751341,-0.0013091417495161,0.0006053699180483,0.0006068982183933,-0.9803892970085144,0.1970687359571457,0.000279561517111,0.0001918303582013,0.0004938842328685,0.0185289978981018,0.0031834840774536,-0.0034399032592773,0,0,0,0
3.1,1788520655346,0.0,0.0,0.0005714298458769,0.0006504710181616,-0.9758000373840332,0.2186630964279174,-6.412830571572186e-05,7.46117762937709e-05,6.089689850955486e-11,-0.0012526408536359,-0.0004347846843302,-0.0007458964246325,0.0006016883999109,0.0006384691223502,-0.9803943634033204,0.1970433741807937,0.0001272107367753,0.0011377594666537,0.0003480739561493,-0.0064689517021179,0.0075243711471557,-0.0215234756469726,0,0,0,0
3.2,1788520655446,0.0,0.0,0.0005949854385107,0.0006398734403774,-0.9757956862449646,0.218682512640953,4.049734457145343e-05,-4.7101981525055794e-05,5.136441416072756e-10,0.0004538645152933,-0.0002582297020126,0.0004697158874478,0.0005874615162611,0.0006379298865795,-0.9803932309150696,0.1970493346452713,-0.0005610436606418,-0.0005689929309925,-0.0010307769515567,0.0128083825111389,0.0001457929611206,0.0126676559448242,0,0,0,0
3.3,1788520655546,0.0,0.0,0.000573219556827,0.0006507574580609,-0.9757989048957824,0.2186683267354965,0.0,0.0,0.0,0.0,0.0,0.0,0.0006134705618023,0.0005995305255055,-0.9803914427757264,0.1970583945512771,0.000771580428637,-0.0015078713063839,0.0007913377539311,0.0275567770004272,0.0029357075691223,0.007390022277832,0,0,0,0
3.4,1788520655646,0.0,0.0,0.0006125239306129,0.0006411331123672,-0.9758017659187316,0.2186551839113235,-0.0001053190592718,0.000122521577903,4.168044923243477e-10,-0.001153991674073,0.0008420111844316,-0.0012229011626914,0.0006417073309421,0.0006301458925008,-0.9803907871246338,0.1970612704753875,1.2687024232611917e-05,0.0006180086882694,0.0010311987243825,-0.0129792690277099,0.0053547620773315,-0.0125942230224609,0,0,0,0
3.5,1788520655746,0.0,0.0,0.0006125239306129,0.0006411331123672,-0.9758017659187316,0.2186551839113235,0.0,0.0,0.0,0.0,0.0,0.0,0.000607349909842,0.0006475169211626,-0.9803937673568726,0.1970463097095489,-0.0008572565558926,0.000427833339785,-0.0016115691804339,-0.004545509815216,-0.0048947930335998,-0.0197954177856445,0,0,0,0
3.6,1788520655846,0.0,0.0,0.000596907979343,0.0006542963674291,-0.975801408290863,0.2186570614576339,0.0,0.0,0.0,0.0,0.0,0.0,0.0005697030574083,0.000629486516118,-0.980390191078186,0.1970643997192382,-0.0005490838859295,-0.0004059334549768,-0.0009920034048251,0.0124094486236572,-0.0089255571365356,0.0126237869262695,0,0,0,0
3.7,1788520655946,0.0,0.0,0.0005414061015471,0.0006430479115806,-0.9757981300354004,0.2186716794967651,-6.616633592835621e-05,7.697638407865957e-05,-3.6320419358262377e-10,-0.0003221872320864,-0.0001766748173395,-0.0007696875254623,0.0005428921431303,0.0006102053448557,-0.9803895354270936,0.1970676928758621,0.0011923685701563,-0.0010997518043257,0.0010248634703564,0.015460193157196,0.0339771509170532,0.0039787292480468,0,0,0,0
3.8,1788520656046,0.0,0.0,0.0005267301457934,0.0006209399434737,-0.9758020043373108,0.218654453754425,-6.027558970552375e-05,7.012394569511523e-05,2.6927060590247536e-12,0.0007294167298823,-0.0007600109092891,-0.00070093217073,0.0005442053079605,0.0006167069077491,-0.9803997874259948,0.1970167905092239,-0.0006698120698474,0.0003994887513214,-0.0019278253280917,0.0028563141822814,-0.0198745727539062,0.0161008834838867,0,0,0,0
3.9,1788520656146,0.0,0.0,0.0005097479443065,0.0006064487970434,-0.9757977724075316,0.2186735272407531,6.722544530849488e-05,-7.819639714575944e-05,-1.0149418650312783e-09,0.0004160474054515,-0.0007889625849202,0.0007804124034009,0.0005405899137258,0.0006138049066066,-0.9803934693336488,0.1970482319593429,-0.0015965460097224,0.0015404656846419,-0.0007254855812092,-0.0078424215316772,-0.0035595893859863,-0.0107784271240234,0,0,0,0
4.0,1788520656246,0.0,0.0,0.0005386997945606,0.0006461794837377,-0.975800395011902,0.218661680817604,0.0,0.0,0.0,0.0,0.0,0.0,0.0005062613636255,0.000644571147859,-0.980388879776001,0.1970711648464203,-0.0010326082022194,0.000384531750219,-0.0018247095155492,0.0040132999420166,0.0023599863052368,0.0162887573242187,0,0,0,0
4.1,1788520656346,0.0,0.0,0.0005199509323574,0.0006619991618208,-0.9757941365242004,0.2186895012855529,-5.952193883999158e-05,6.924186857026692e-05,-2.2324898924589175e-10,-0.0005719941109418,0.000708945968654,-0.0006905902992002,0.0005297856405377,0.0006447350606322,-0.9803786873817444,0.1971218883991241,0.0005048244649249,-0.000224280921395,0.0029261889693608,0.0153545141220092,0.0042027235031127,-0.0033855438232421,0,0,0,0
4.2,1788520656446,0.0,0.0,0.0005037411465309,0.000670293928124,-0.9757812023162842,0.2187474370002746,0.0001697437022435,-0.0001974355296314,-3.8534401917396607e-10,-0.0003878947172779,-0.0004662025894504,0.0019714687950909,0.0005517425015568,0.0006512673571705,-0.9803804755210876,0.1971124112606048,0.000574935617283,0.0020986104577146,-0.0004502180406544,-0.0077022314071655,-0.0246791243553161,0.0232210159301757,0,0,0,0
4.3,1788520656546,0.0,0.0,0.0005294089205563,0.0006350693292915,-0.975782573223114,0.2187410145998001,-2.2588339837812084e-05,2.627363848020724e-05,-2.5144173422031355e-10,0.0016003823839128,0.0006941106403246,-0.0002611929667182,0.0005154209211468,0.0006121648475527,-0.9803821444511414,0.1971047520637512,-5.6640750215718615e-05,-0.0004978420917741,-0.0019307686687474,-0.0209958553314209,-0.0179458856582641,-0.0001440048217773,0,0,0,0
4.4,1788520656646,0.0,0.0,0.0005294089205563,0.0006350693292915,-0.975782573223114,0.2187410145998001,-2.2588339837812084e-05,2.627363848020724e-05,-2.5144173422031355e-10,0.0016003823839128,0.0006941106403246,-0.0002611929667182,0.0005154209211468,0.0006121648475527,-0.9803821444511414,0.1971047520637512,-5.6640750215718615e-05,-0.0004978420917741,-0.0019307686687474,-0.0209958553314209,-0.0179458856582641,-0.0001440048217773,0,0,0,0
4.5,1788520656746,0.0,0.0,0.0004968660650774,0.0006201121723279,-0.975784182548523,0.2187341302633285,-2.6731557953324387e-05,3.110045286952991e-05,-1.175431168568576e-09,0.0003248680441174,-0.001520870369859,-0.0003080110473092,0.0004959981888532,0.0006081154569983,-0.9803836941719056,0.1970968097448349,2.280312097879203e-06,-0.0003081478050583,-0.0001259299783534,0.0018998980522155,-0.0108409523963928,0.0108213424682617,0,0,0,0
4.6,1788520656846,0.0,0.0,0.0004968660650774,0.0006201121723279,-0.975784182548523,0.2187341302633285,-2.6731557953324387e-05,3.110045286952991e-05,-1.175431168568576e-09,0.0003248680441174,-0.001520870369859,-0.0003080110473092,0.0005276734009385,0.0006452007219195,-0.9803905487060548,0.197062686085701,-0.001670367502903,0.0013743624550051,-0.0014492879186878,0.0063173770904541,-0.0119667053222656,5.817413330078125e-05,0,0,0,0
4.7,1788520656946,0.0,0.0,0.0004960049409419,0.0006157967727631,-0.9757881760597228,0.2187164574861526,0.0,0.0,0.0,0.0,0.0,0.0,0.0005765398964285,0.0006551938131451,-0.9803940653800964,0.1970447897911071,-0.0008438565630278,0.0015325677745728,-0.0011609747067459,-0.021446406841278,-0.0245442390441894,-0.000187873840332,0,0,0,0
4.8,1788520657046,0.0,0.0,0.0004960049409419,0.0006157967727631,-0.9757881760597228,0.2187164574861526,0.0,0.0,0.0,0.0,0.0,0.0,0.0005871513858437,0.0006488244980573,-0.9803865551948548,0.1970821619033813,0.0002999344097361,-0.0019883963379189,0.0017144427245835,-0.0104493498802185,-0.0085002779960632,-0.0053892135620117,0,0,0,0
4.9,1788520657146,0.0,0.0,0.0004960049409419,0.0006157967727631,-0.9757881760597228,0.2187164574861526,0.0,0.0,0.0,0.0,0.0,0.0,0.0005580279976129,0.0006421636790037,-0.9803881049156188,0.1970748007297516,0.0004738610835074,-0.0001957705851341,0.0004936579023278,0.0014767050743103,-0.0139724016189575,0.0036306381225585,0,0,0,0
5.0,1788520657246,0.0,0.0,0.0004960049409419,0.0006157967727631,-0.9757881760597228,0.2187164574861526,0.0,0.0,0.0,0.0,0.0,0.0,0.0005036331713199,0.0006151832640171,-0.980388045310974,0.1970753371715545,-0.0002138823440285,-0.0009723994278183,-0.0016819619462707,0.000395119190216,-0.0034160017967224,-0.0106611251831054,0,0,0,0
5.1,1788520657346,0.0,0.6760563254356384,0.0004960049409419,0.0006157967727631,-0.9757881760597228,0.2187164574861526,0.0,0.0,0.0,0.0,0.0,0.0,0.0003850311040878,0.0005632452666759,-0.980233907699585,0.1978409439325332,0.0012862472703448,-0.0088703750712964,0.0441151567288427,1.0105730295181274,0.0047022700309753,0.0595579147338867,148,199,6953,7294
5.2,1788520657446,2.6478872299194336,3.8309860229492183,0.0004136611823923,0.0005863436381332,-0.975677490234375,0.2192097008228302,0.0344205942254929,-0.0009166726943136,5.549934454998522e-06,0.0005196908023208,-0.0043422267772257,0.025216119363904,0.001162483356893,0.0017934162169694,-0.979563057422638,0.2011260241270065,-0.0235412044359275,0.01287352494686,0.1496107528578553,0.3787415623664856,0.0022965669631958,-6.961822509765625e-05,126,222,10877,13341
5.3,1788520657546,4.478873252868652,6.3380279541015625,0.001336638466455,0.0019273378420621,-0.9739356637001038,0.226812407374382,0.1351642339828886,0.0019462509888624,-4.930181554088995e-06,-0.0033670598641037,0.0125111313536763,0.2386143207550048,0.0003912234678864,0.0020822193473577,-0.9770591259002686,0.2129575163125991,-0.0107579179847328,-0.0712907690463709,0.2582466334154221,0.3920462131500244,-0.3278283476829529,0.3730897903442383,63,78,12261,15460
5.4,1788520657646,4.507042407989502,6.056337833404541,0.0003826410975307,0.002334841992706,-0.9705680012702942,0.24081552028656,0.1910770294421003,0.0006202393484656,-4.909580880617923e-05,-0.0107087204232811,-0.0012996095465496,0.2827888429164886,-0.0002553919330239,0.0029525374993681,-0.974056363105774,0.226286381483078,-0.0324018675292911,-0.0321318933404244,0.2658212837020515,0.0224045515060424,-0.1729199886322021,-1.0290231704711914,59,52,11663,13820
5.5,1788520657746,3.690140962600708,4.704225540161133,0.0005890259053558,0.0028879551682621,-0.9676003456115724,0.2524693012237549,0.1732659210823987,0.0017765546701693,1.626451750921635e-05,0.007822080515325,0.0275295339524745,0.216194212436676,0.0011917315423488,0.0025268634781241,-0.9717796444892884,0.2358739078044891,0.0148446471710716,0.0022349912452796,0.2197627958892029,-0.669802188873291,-0.0536947846412658,-0.4360265731811523,14,34,8630,8055
5.6,1788520657846,1.6619718074798584,1.887323975563049,0.0007186859729699,0.0025876944418996,-0.9659355878829956,0.2587684094905853,0.1288385881574392,0.003875055235993,2.4487768638471e-05,-0.003634271910414,-0.0121194403618574,0.0672309100627899,0.0010853689163923,0.0025802142918109,-0.971221685409546,0.2381610870361328,-0.0002509518172585,0.0089502773031052,0.0352003308701688,-1.1437265872955322,-0.0154287219047546,0.4505348205566406,42,66,1348,1439
5.7,1788520657946,0.0,0.0,0.001068539917469,0.0026142185088247,-0.965694010257721,0.2596670687198639,0.0294194711137734,0.0001151923749767,-9.639572081443196e-07,-0.0005502369604073,0.008053995668888,0.0210656598210334,0.0008979365229606,0.0025577908381819,-0.9710996747016908,0.2386590540409088,-0.0015403393814485,-0.0038337548947609,0.0143571744677245,0.2211968898773193,0.0305128693580627,-0.1427497863769531,2,11,0,0
5.8,1788520658046,0.0,0.0,0.0007908517145551,0.0025614290498197,-0.9655499458312988,0.2602041661739349,0.0029744918054805,-0.0001909025085041,-6.953820006761367e-08,-7.441174238920212e-05,0.0036000136751681,0.0070976736024022,0.0008251694962382,0.0025649135932326,-0.9710832834243774,0.2387259751558303,-0.0018806907450961,-0.0028008251064689,-0.006628843022667,-0.0472574234008789,-0.0405851602554321,0.0724935531616211,0,0,0,0
5.9,1788520658146,0.0,0.0,0.0007826463552191,0.0025909261312335,-0.9655861258506776,0.2600696086883545,-8.174639266214303e-05,0.0005654252699536,1.1307921553175646e-08,-0.0012166709639132,2.747381586232222e-06,-0.005575377959758,0.0008553881198167,0.0025359597057104,-0.9710924625396729,0.2386883497238159,0.0011735056459488,0.0009995821235777,0.0042436257434776,-0.0340126752853393,0.1008899807929992,0.0340604782104492,0,0,0,0
6.0,1788520658246,0.0,0.0,0.0007526839617639,0.0025724328588694,-0.9655957818031312,0.2600339651107788,0.0003093221820984,-0.0003596958834312,3.18783654205889e-08,-0.0004667921748477,0.0004673509101849,0.0035934715997427,0.0008414406329393,0.0025645177811384,-0.9711037278175354,0.238642618060112,0.0011320310498796,0.0018144566833251,0.0009955192397458,-0.0447205901145935,0.0137358307838439,-0.0007505416870117,0,0,0,0
6.1,1788520658346,0.0,0.0,0.0007916955510154,0.0025856816209852,-0.9655988812446594,0.2600223124027252,-0.0001840082978483,0.0002140396151883,-6.055418942194605e-10,0.0003181381325703,0.0017300430918112,-0.0021289815194904,0.0007966896519064,0.0025611901655793,-0.97109854221344,0.2386638522148132,-0.0003991856392128,-0.0012800064738336,-0.0004076154977274,0.0045961737632751,0.0047718286514282,0.0174436569213867,0,0,0,0
6.2,1788520658446,0.0,0.0,0.0007379231974482,0.0025851251557469,-0.9655917286872864,0.2600486874580383,0.0,0.0,0.0,0.0,0.0,0.0,0.0008139247074723,0.0025709606707096,-0.9710984230041504,0.2386641204357147,-4.736288727810058e-05,-0.0014023650985057,0.0006314812763023,0.0407632589340209,0.0137034058570861,0.0392732620239257,0,0,0,0
6.3,1788520658546,0.0,0.0,0.0007379231974482,0.0025851251557469,-0.9655917286872864,0.2600486874580383,0.0,0.0,0.0,0.0,0.0,0.0,0.000830634497106,0.0025853514671325,-0.9711000323295592,0.2386571913957595,-5.526926349068952e-05,0.0011958924705285,0.0015649353291715,-0.0450731515884399,0.0049099922180175,0.0404977798461914,0,0,0,0
6.4,1788520658646,0.0,0.0,0.0007379231974482,0.0025851251557469,-0.9655917286872864,0.2600486874580383,0.0,0.0,0.0,0.0,0.0,0.0,0.0007852176204323,0.0025846259668469,-0.9710937142372132,0.2386836111545562,-4.0172860758091296e-05,0.0010402078122403,-0.0009256924653706,-0.0028130412101745,-0.0649142265319824,0.036661148071289,0,0,0,0
6.5,1788520658746,0.0,1.6619718074798584,0.0007379231974482,0.0025851251557469,-0.9655917286872864,0.2600486874580383,0.0,0.0,0.0,0.0,0.0,0.0,0.0007623052224516,0.0026009771972894,-0.9710560441017152,0.2388364821672439,-0.001074804584532,-0.0035286320590888,0.0086002851327682,0.2733315825462341,0.0503208637237548,0.0552825927734375,99,268,7208,10198
6.6,1788520658846,1.183098554611206,2.11267614364624,0.0006351241027005,0.002596567152068,-0.965384840965271,0.2608160078525543,0.0029165120338038,-0.0019637633605653,-4.5043097422647256e-10,-0.0012884627794846,-0.0032513919286429,0.0263259727507829,0.0005851229652762,0.0025495244190096,-0.97049742937088,0.2410971820354461,0.0002161257650679,-0.0101849021462294,0.1249338555654889,2.311734199523926,0.1830360889434814,-0.1993026733398437,99,268,7208,10198
6.7,1788520658946,4.2816901206970215,6.02816915512085,0.0003592018620111,0.0026652291417121,-0.962104320526123,0.2726682424545288,0.1399487073768065,0.0089613416644995,5.471274698530804e-05,0.0019638510420918,-0.011285388842225,0.2092789262533188,0.0002315193414688,0.002595204859972,-0.9674866199493408,0.2529086172580719,-0.0023517782254527,-0.0100674240566576,0.2410137990066503,0.6787424683570862,-0.2597910165786743,-0.2390480041503906,127,194,13654,17505
6.8,1788520659046,4.647887229919434,5.633802890777588,0.001006620703265,0.002648658119142,-0.958579957485199,0.2848093211650848,0.1931512472040436,0.0019199381952288,-2.432255551558372e-06,-0.0075860922224819,-0.0094231935217976,0.2703304290771484,0.0015644710510969,0.0029116095975041,-0.96335107088089,0.2682234346866607,-0.0014114931177272,0.0355684618323435,0.1652594852158218,-0.5722954869270325,0.1059491038322448,0.9397182464599608,68,37,12339,13443
6.9,1788520659146,4.647887229919434,5.183098793029785,0.0009983974741771,0.0026724585331976,-0.9562825560569764,0.2924305200576782,0.1677649174346409,0.0025201308067075,6.444905640137217e-05,0.0039222449995577,-0.0242317542433738,0.1329336911439895,0.0005127880722284,0.0026027765125036,-0.9614485502243042,0.2749720215797424,-0.0011877582143029,-0.0527826027905854,0.0569733736609106,0.0987862348556518,0.1153997182846069,2.3304595947265625,98,55,14792,12870
7.0,1788520659246,5.014084339141846,5.042253494262695,-0.0003432790690567,0.0022849442902952,-0.9551554918289183,0.296095609664917,0.1784121956533857,0.0018367857274899,0.0001656494926525,0.0037641387898474,-0.0309489741921424,-0.004541334696114,-0.0003879088908433,0.0021222997456789,-0.9615045189857484,0.2747809588909149,0.0085153306360871,-0.0040535602813502,-0.0085285957595791,-0.108767032623291,-0.1327452659606933,1.0145721435546875,84,48,13629,13276
7.1,1788520659346,5.014084339141846,4.985915660858154,-0.0003432790690567,0.0022849442902952,-0.9551554918289183,0.296095609664917,0.1681904917094907,-0.0003482976754207,-3.1824382016591035e-11,0.0,1.1638631169930136e-09,0.0,-0.0006866240873932,0.0014828639104962,-0.9612914323806764,0.2755288779735565,0.0142339656833299,-0.0137583141592756,0.0440867599293383,0.407476007938385,0.1558775901794433,-0.6362981796264648,85,70,14133,12663
7.2,1788520659446,4.563380241394043,5.380281925201416,-0.0003755000943783,0.0017051701433956,-0.9550908207893372,0.2963082492351532,0.1641145945637222,-0.0012242045458976,2.0519578752358893e-09,0.0003780408296734,0.0133393201977014,-0.0090092392638325,-0.0002733785659074,0.0018749171867966,-0.9615185856819152,0.2747336030006408,-0.009698208965406,-0.0110932948934686,-0.0150564390490804,-0.0390718579292297,-0.1021234989166259,0.002176284790039,56,119,12061,15142
7.3,1788520659546,4.816901206970215,5.267605781555176,0.0007647549500688,0.0023697633296251,-0.954193651676178,0.2991791665554046,0.1783030226868736,0.0040052947000569,-0.0001379531320144,-0.0120839057490229,0.052050732076168,0.122331291437149,0.0008980631828308,0.0020488975569605,-0.9590664505958556,0.2831724882125854,0.0066057228184372,-0.0210014658615543,0.1558697983909719,-0.0392852425575256,0.0484419465065002,-1.1787233352661133,48,81,13396,13167
7.4,1788520659646,5.014084339141846,5.014084339141846,0.005270114634186,0.0039403894916176,-0.951956033706665,0.3061641156673431,0.1693092340883942,0.0012279908218873,-0.0004226903555207,-0.0125905806198716,0.1542707234621048,0.093640498816967,0.0033981427550315,0.0034651774913072,-0.958507239818573,0.2850269079208374,-0.0120741885864054,-0.100101419236221,-0.0052362132100965,0.194591999053955,-0.0354515314102172,-3.789606094360352,84,55,13974,12697
7.5,1788520659746,5.352112770080566,4.901408672332764,0.0023480630479753,0.0030333581380546,-0.9518266916275024,0.3066127598285675,0.1682757233183182,0.0040141508176484,0.0002439764427049,0.0046152076683938,-0.0607654079794883,0.0185498557984828,0.0017314124852418,0.0027207471430301,-0.95832622051239,0.2856580018997192,0.0018463087210638,-0.0576631991372342,-0.0389333081423734,-0.1089715957641601,-0.182852566242218,-0.3761568069458008,107,65,14314,12270
7.6,1788520659846,5.380281925201416,4.901408672332764,0.00178182288073,0.0028643610421568,-0.9522713422775269,0.3052342534065246,0.1744892290982583,0.0019240775256294,-7.837430670699542e-05,-0.0029603275470435,0.0035014057066291,-0.0814948678016662,0.0022986829280853,0.0029875840991735,-0.959269404411316,0.2824679613113403,-0.0098667107412436,0.0431396456565833,-0.0646038192685507,-0.0106539130210876,0.0811769366264343,-0.0881271362304687,87,56,13697,12175
7.7,1788520659946,5.267605781555176,4.873239517211914,0.0014924309216439,0.0025682635605335,-0.9530250430107116,0.3028769791126251,0.1818634277994166,0.00248982272154,0.0001440911943652,0.0041575185023248,-0.0309932958334684,-0.0464940406382083,0.0014301026239991,0.002302348613739,-0.959924817085266,0.2802447974681854,0.0191326399553376,-0.0089976819487022,-0.0554920492690973,-0.025570809841156,-0.184796392917633,0.8349704742431641,89,58,14006,12248
7.8,1788520660046,5.352112770080566,4.929577350616455,0.0008704577339813,0.0016681314446032,-0.9538909792900084,0.3001473248004913,0.1746912848746823,0.0003890405853719,7.1371943050914e-05,0.0165147632360458,-0.0190291162580251,-0.0481157228350639,0.0006826361641287,6.486289203166962e-05,-0.9605981707572936,0.277940034866333,0.0752030758242978,-0.0243397133173452,-0.0200189030158648,0.2396544218063354,-0.0037459135055541,-1.6872930526733398,106,44,13804,12111
7.9,1788520660146,4.901408672332764,5.098591327667236,0.0009315773495472,0.0003119485918432,-0.9543662667274476,0.2986369431018829,0.166699394134337,-0.0013234124277676,0.0001409525935153,-0.0036654300056397,0.0116111291572451,-0.020086895674467,-0.0002557095140218,8.833874017000198e-05,-0.9611731171607972,0.2759460806846618,-0.011303550032599,-0.0498012645055295,-0.0756251103594963,-0.1501038670539856,0.0487579703330993,-0.708470344543457,58,65,13967,12604
8.0,1788520660246,5.098591327667236,5.014084339141846,-0.0006558164604939,0.0002254245191579,-0.9552443623542786,0.295816957950592,0.1608754134418786,0.0009958571081364,5.764545549740888e-05,-0.006242798641324,-0.0359696932137012,-0.0463527590036392,0.0005089426413178,0.0020076353102922,-0.9615325331687928,0.2746831774711609,-0.0662994208972862,0.0232120440111313,-0.028365182752929,0.1913164258003235,-0.2704806327819824,0.7081813812255859,74,119,13841,13395
8.1,1788520660346,5.154929637908936,4.985915660858154,0.0007221234263852,0.0024312380701303,-0.9552246928215028,0.2958703637123108,0.1781456803266963,0.0026983436588949,-5.900784304760595e-05,-0.0364258587360382,0.0267770290374755,-0.0116327023133635,0.0003301138058304,0.0029719471931457,-0.9615996479988098,0.2744400203227997,-0.0013122243094446,-0.063297451562708,-0.0199962394616648,0.1917146444320678,-0.0267592072486877,-1.1003456115722656,60,52,14354,12208
8.2,1788520660446,5.436619758605957,4.957746505737305,0.0008804522221907,0.0038401274941861,-0.955857276916504,0.2938049137592315,0.1682190377365006,0.0001493959078294,-9.435096052456e-05,-0.0243617985397577,0.0094323558732867,-0.0747592821717262,0.000715940259397,0.0040962612256407,-0.9624927639961244,0.2712757587432861,-0.0178893371779584,0.012635419518777,-0.068371960183985,-0.2093092799186706,-0.1872692704200744,0.3380727767944336,63,73,13235,12262
8.3,1788520660546,4.873239517211914,5.380281925201416,-0.0021406295709311,0.004824873059988,-0.9569070935249328,0.29034623503685,0.1817477688331342,-0.0032105717154445,0.0002085105268788,-0.0569538474082946,-0.0743056461215019,-0.0811635330319404,-0.0016815727576613,0.0042814407497644,-0.9630559682846068,0.2692619264125824,0.0284361378172435,-0.0254974575298117,0.0891145558409178,-0.4214510917663574,0.4452642202377319,-0.5853061676025391,73,58,12425,13132
8.4,1788520660646,4.676056385040283,5.183098793029785,-0.0016093223821371,0.0039774873293936,-0.9561788439750672,0.292752057313919,0.1670994260792116,-0.0005281125319849,7.91422896620561e-05,0.0202869307249784,-0.0176520459353923,0.1574679464101791,-0.0012969309464097,0.0039107846096158,-0.9615519642829896,0.2745921313762665,0.0016409360249704,0.0461161449430015,0.0841817238849102,0.611636221408844,0.0080534815788269,0.0247802734375,105,93,14382,13504
8.5,1788520660746,5.042253494262695,5.126760482788086,-0.0012118950253352,0.0042990767396986,-0.95486718416214,0.2969996333122253,0.1685570588079231,0.0009830323523408,5.8767191338343264e-06,-0.0094242179766297,0.0128087904304265,0.0319291651248931,-0.0010905042290687,0.0043400814756751,-0.9611907601356506,0.2758485972881317,-0.0096895419652553,0.0378421832410752,0.0313711175787813,-0.1837967634201049,-0.1765723228454589,-1.0733423233032229,93,54,13849,12622
8.6,1788520660846,5.239436626434326,5.042253494262695,-0.0016018250025808,0.0042422460392117,-0.9547854661941528,0.2972609102725982,0.1713504607613465,-0.0014765986574718,2.750987411337574e-05,-0.002412341767922,-0.0152954263612627,0.0106559917330741,-0.0012973360717296,0.0044695883989334,-0.9612364172935486,0.2756864726543426,-0.008090957303827,0.0389007005111183,-0.021259915818622,0.1157369017601013,0.0146173238754272,-0.9372711181640624,73,93,13302,12907
8.7,1788520660946,4.985915660858154,5.070422649383545,-0.002257446758449,0.0050551164895296,-0.9550334215164183,0.2964466512203216,0.1719384448032529,0.0019367295220216,9.42542391533642e-05,-0.0128176296129822,-0.0180811006575822,-0.0032214340753853,-0.0021970001980662,0.0050563896074891,-0.9611075520515442,0.2761194705963135,0.004574416268699,0.0568493108365104,0.038154308590998,0.0422008633613586,-0.2441331148147583,0.0592718124389648,86,102,13323,13277
8.8,1788520661046,4.704225540161133,5.239436626434326,-0.0030418161768466,0.0051515037193894,-0.9546446800231934,0.2976873815059662,0.1694429889346684,0.0027536844914486,8.524992205871878e-05,-0.0178337767720222,-0.0330291502177715,0.0206515062600374,-0.0030748583376407,0.0052345683798193,-0.9607594013214112,0.2773166596889496,-0.0037343093882631,-0.0094244220561193,0.0551337243950832,-0.1268000602722168,-0.2812739014625549,-0.3944664001464844,77,84,13918,13417
8.9,1788520661146,4.760563373565674,5.239436626434326,-0.0034843771718442,0.0055514392443001,-0.9536816477775574,0.3007464110851288,0.1774343778688271,-0.0013665666015045,3.1953850286868744e-05,-0.0072933589108288,-0.002324755070731,0.065812774002552,-0.0036713313311338,0.0055413637310266,-0.9599753618240356,0.2800054550170898,-0.0045427175962454,-0.0146288693928639,0.0472313354202511,0.1093103289604187,0.2130047082901001,0.3398094177246094,60,65,13783,13284
9.0,1788520661246,5.014084339141846,5.098591327667236,-0.002788231242448,0.0056643327698111,-0.953124701976776,0.3025121390819549,0.1725976363899947,-0.0022807740980633,-9.135855190772608e-05,0.0042027104645967,0.0392064899206161,0.0279291030019521,-0.0021633580327033,0.0056860595941543,-0.95965576171875,0.2811118066310882,0.0053411038186373,0.0223334605559147,-0.0157445957380859,-0.2887709140777588,0.1242613196372985,0.9292783737182616,53,82,13099,13377
9.1,1788520661346,4.8450703620910645,5.577464580535889,-0.001124340808019,0.0060839965008199,-0.9531998038291932,0.3022777438163757,0.1696887529426866,0.0003158947934595,-0.0001234872494582,0.000178510978003,0.0405566915869712,0.0138760022819042,-0.0006957165896892,0.0062716593965888,-0.9593636393547058,0.2821023762226105,-0.0050362512442152,0.0214902836870588,0.0670617431783355,0.2112206816673278,0.0695758461952209,-0.3238134384155273,63,131,11092,14570
9.2,1788520661446,4.563380241394043,5.521126747131348,-0.0001335991546511,0.0064322031103074,-0.9525344371795654,0.304362803697586,0.1752666957703616,0.0023367934992813,-4.2968590905974446e-05,-0.0013632973423227,0.0413836613297462,0.0876664221286773,-0.0017293421551585,0.0059949979186058,-0.957991659641266,0.2867284715175628,-0.0022817707539254,-0.1035087661497081,0.145028592191695,0.0937371253967285,-0.1663100719451904,2.1167068481445312,48,115,12068,14551
9.3,1788520661546,4.535211086273193,5.577464580535889,-0.0007446242962032,0.0068152351304888,-0.9488528966903688,0.3156440258026123,0.1732420673686135,0.0042666508997981,-2.7090315132141465e-06,0.0003758945385925,0.0173554196953773,0.1871351450681686,-0.0009077042341232,0.0070321103557944,-0.9541462063789368,0.2992570102214813,-0.0205959484283714,-0.0311427104969942,0.1830681364068181,0.1244565248489379,0.0377463698387146,1.733938217163086,61,111,12440,14234
9.4,1788520661646,4.253520965576172,5.7183098793029785,-0.0008837492205202,0.0071441456675529,-0.9455477595329284,0.3254038095474243,0.16655439214428,0.0016260791841051,-5.095438458422764e-05,-0.0051053161732852,0.0058609833940863,0.1771366447210312,-0.0001117167994379,0.0072073061019182,-0.951111614704132,0.3087631464004516,0.0082966728339626,0.0345874689836262,0.1886465921860197,-0.0971471667289733,-0.1609060764312744,1.1240577697753906,47,77,12181,14036
9.5,1788520661746,4.676056385040283,5.549295902252197,-0.0004861712222918,0.0061796717345714,-0.9424427151679992,0.3343101143836975,0.1767002268720789,-0.0036763027727823,4.839117092429397e-05,0.0354426950216293,-0.0230018161237239,0.1954536437988281,0.0001029688864946,0.0055659962818026,-0.9483435153961182,0.3171965777873993,0.0376109687271002,0.00297475626428,0.1613406093938912,0.0800563693046569,-0.3057817220687866,-1.7391595840454102,78,67,12289,13786
9.6,1788520661846,4.535211086273193,5.605633735656738,-0.0010994909098371,0.0043686139397323,-0.9397903084754944,0.3417219817638397,0.1749178199214244,0.0001921594975194,0.0001193877717067,0.0383276082575321,-0.0731157809495925,0.196425125002861,-0.0002059387043118,0.0045531401410698,-0.9457384943962096,0.3248966634273529,-0.0010849439404871,0.0426031445170217,0.1455517955346298,-0.0172027349472045,-0.0354495048522949,0.0295934677124023,56,63,12705,13745
9.7,1788520661946,4.478873252868652,5.577464580535889,0.0001067382982,0.0041706338524818,-0.936798632144928,0.3498441278934479,0.1713942591173664,-0.0006624483111094,-0.0001558968795481,0.0122290253639221,0.0171036534011364,0.1272916048765182,0.0003554122522473,0.0038286419585347,-0.9437209367752076,0.3307205438613891,0.0253384779984204,0.0019905941522936,0.1209066649944296,-0.0141173601150512,-0.2762534022331238,-0.3529138565063476,105,63,13018,13735
9.8,1788520662046,4.535211086273193,5.577464580535889,0.0006865109317004,0.0037148024421185,-0.9348102807998656,0.3551275134086609,0.1653896545859789,-0.0004638237348377,-4.240492979980668e-05,0.007922301068902,0.0104367323219776,0.1218014657497406,0.0012422017753124,0.0039135171100497,-0.941955029964447,0.3357141017913818,-0.0057427178659416,0.0466426013837636,0.0973224474579076,0.0623631477355957,-0.1019430756568908,-1.245748519897461,89,114,12743,13811
9.9,1788520662146,4.901408672332764,5.352112770080566,0.0020636762492358,0.0040483730845153,-0.9324564933776855,0.3612537682056427,0.1716176688353974,0.0019295484781744,-0.0001351160697749,0.0159159135073423,0.0380303636193275,0.1464934051036834,0.0021196426823735,0.0042393133044242,-0.9395204186439514,0.3424600064754486,-0.0160866671256697,0.0029514064433361,0.1344679372834296,0.1326875686645507,0.3257693648338318,0.9723691940307616,86,33,13804,12479
10.0,1788520662246,5.042253494262695,5.014084339141846,0.002800338435918,0.0045332596637308,-0.9309828281402588,0.3650240898132324,0.1802492678822555,0.0009324666184419,-0.0001367125550395,-0.0058337477967143,0.0434560850262641,0.0561907440423965,0.0030413744971156,0.0045336736366152,-0.9385469555854796,0.3451085388660431,-0.000530979830328,0.0329055708380806,0.0259259188837205,-0.0235710740089416,0.1602795124053955,0.8643331527709961,96,81,13996,12515
10.1,1788520662346,4.957746505737305,5.183098793029785,0.0047984030097723,0.0050194086506962,-0.930874228477478,0.3652737140655517,0.1602319465815946,-0.0005635097170938,-0.0001564893778456,0.0126695726066827,0.123290829360485,-0.0229113847017288,0.00457932241261,0.0048274202272295,-0.9389448761940002,0.3440033793449402,-0.0056975012280693,-0.0720402523070831,-0.0550201245533567,-0.1169112920761108,0.3662911057472229,-1.0152091979980469,64,66,13082,13213
10.2,1788520662446,4.478873252868652,5.746479034423828,0.0026008514687418,0.0046897307038307,-0.9312132596969604,0.3644354343414306,0.1720052558664081,-0.0008070740572058,0.0001924091739048,-0.0189161654561758,-0.048523124307394,0.0020659654401242,0.003303300589323,0.0044135777279734,-0.938350260257721,0.3456421196460724,0.029007950151602,0.0311438595888055,0.138041985173344,0.0044136643409729,0.0905039310455322,0.7634372711181641,66,63,12199,13887
10.3,1788520662546,4.985915660858154,5.042253494262695,0.0026624505408108,0.0042296582832932,-0.9288427233695984,0.3704405426979065,0.1659177960973411,0.0036908276714535,4.87840435052181e-05,0.0026951157487928,-0.0173758845776319,0.1747109740972519,0.0029854597523808,0.0043266834691166,-0.9354534149169922,0.353410929441452,-0.0006968808881618,-0.0055043336401603,0.1449157959044819,0.0665954947471618,-0.1680755615234375,0.4799613952636719,94,43,14072,12473
10.4,1788520662646,5.126760482788086,4.873239517211914,0.0028291358612477,0.0045026470907032,-0.926910161972046,0.3752456903457641,0.171613638735317,3.1637069968627934e-07,1.825289331130464e-05,-0.0061513376422226,-0.0008505462901666,0.0633125454187393,0.0032528033480048,0.004753129556775,-0.9351370334625244,0.3542395830154419,-0.0056778121763391,0.0496379735202642,-0.031787291468042,-0.1267400383949279,0.0151729583740234,0.7980508804321289,55,49,14740,12167
10.5,1788520662746,5.211267471313477,4.788732528686523,0.0025758761912584,0.004652711097151,-0.9273794889450072,0.3740842640399933,0.166511751509464,0.0017865715029397,6.33406248520972e-05,-0.0022644854616373,-0.012696380726993,-0.0284385960549116,0.0029790187254548,0.0043561700731515,-0.9355193972587584,0.3532359898090362,0.0220169897711585,0.0132044521152588,-0.0189233168710409,0.3811858296394348,-0.0817907452583313,-0.4605493545532226,93,65,14358,12533
10.6,1788520662846,5.577464580535889,4.535211086273193,0.0032826415263116,0.0047454726882278,-0.9279640913009644,0.372624933719635,0.1773614672634878,0.0021525146592064,-7.621074016203327e-05,-0.0060239727608859,0.0205370597541332,-0.0531205050647258,0.0036498121917247,0.0046374192461371,-0.9365473389625548,0.350491464138031,-0.0015569231049805,0.0123534608238554,-0.0752057757921303,0.3484954833984375,-0.0487335920333862,-0.4496850967407226,123,66,15384,11255
10.7,1788520662946,5.521126747131348,4.507042407989502,0.0039190496318042,0.0044107241556048,-0.9299632906913756,0.367605060338974,0.1748637764392103,-0.0004326508847283,-8.343021935668027e-06,0.0124283675104379,0.0120842130854725,-0.1246913447976112,0.0039734272286295,0.004292064346373,-0.9387616515159608,0.3445174992084503,0.0018805300074292,-0.0028689010916558,-0.1734848239640307,0.1645978689193725,0.1132295131683349,-0.0885744094848632,113,50,15183,11302
10.8,1788520663046,5.633802890777588,4.535211086273193,0.0046515027061104,0.0045766346156597,-0.9331228137016296,0.3594985008239746,0.1581064038720604,-0.0028805303036732,-5.289105392981247e-05,0.0049171294085681,0.0202209595590829,-0.1915766447782516,0.0047123413532972,0.0046789851039648,-0.94293212890625,0.3329189419746399,-0.0134498197504621,0.0064342392511467,-0.1935147535303222,-0.0798007845878601,0.1031172275543212,1.339726448059082,56,83,14514,11467
10.9,1788520663146,5.352112770080566,4.507042407989502,0.0055458843708038,0.0051006972789764,-0.936492681503296,0.3506062626838684,0.1604353064656381,0.0008767004287284,-0.0001302734047541,-0.0018733869073912,0.0492450967431068,-0.1981881707906723,0.0017755776643753,0.0032214792445302,-0.945099711418152,0.3267616033554077,0.0177712534991798,-0.1756053858164795,-0.1390514139151714,0.6189916133880615,-0.1170012950897216,4.745882987976074,99,88,15409,11828
11.0,1788520663246,5.239436626434326,5.070422649383545,0.0012766097206622,0.0029416335746645,-0.9389973878860474,0.3439092934131622,0.1669241071495814,-0.0030793713240688,7.602489996008687e-05,0.0051501258276402,-0.0160978864878416,-0.1249043345451355,0.0012979907914996,0.0028511574491858,-0.9463451504707336,0.3231424391269684,0.0177097607500044,-0.0319687137699605,-0.0957814510759419,-0.0108758807182312,-0.0019258856773376,0.9135560989379884,53,70,13725,12678
11.1,1788520663346,5.183098793029785,4.760563373565674,-0.0002957072574645,0.0023978638928383,-0.940644383430481,0.3393852114677429,0.1680229679883863,-0.0003409235340468,7.511865933942843e-05,-0.006224863231182,-0.0261349249631166,-0.1101764887571334,-0.0003569293767213,0.0023177312687039,-0.9482856392860411,0.3174096345901489,0.0029181507414904,-0.0084350901466493,-0.0744667519940234,0.1829113364219665,-0.0009105205535888,0.6058864593505859,61,106,13843,13108
11.2,1788520663446,5.267605781555176,4.985915660858154,-0.001044581294991,0.0018491763621568,-0.9415070414543152,0.3369865417480469,0.173761269279413,0.0009326793815294,2.1496439569780595e-06,0.0112293884158134,-0.0170659478753805,-0.0368494726717472,-0.0008567450568079,0.0017963228747248,-0.9490020871162416,0.315263569355011,0.0104075626142832,0.0201106717373892,-0.0525773299202223,-0.0972362160682678,-0.2068156003952026,-0.925678253173828,71,68,13699,12381
11.3,1788520663546,5.126760482788086,4.732394218444824,-0.001139229745604,0.0008978875121101,-0.9420346617698668,0.33551225066185,0.1702340299483548,-0.0007696888064565,9.380645435240442e-06,0.0294126439839601,-0.0206198822706937,-0.0268271602690219,-0.0009753135964274,0.0011594966053962,-0.9492915272712708,0.3143936693668365,-0.0079439865144695,0.010312327632089,-0.0094638975921855,0.0667530298233032,0.473662793636322,-1.446084976196289,73,76,13805,12325
11.4,1788520663646,4.760563373565674,5.323943614959717,-0.0011729791294783,0.0023722725454717,-0.9428719878196716,0.3331446945667267,0.1824742962949138,-0.0011709856531304,3.914436442652071e-05,-0.0206907298415899,-0.0156550984829664,-0.0476560331881046,-0.0012040194123983,0.0028424505144357,-0.9500747919082642,0.3120070099830627,-0.0181015083421954,0.0079703720959946,0.0086608634913629,0.0106297731399536,0.0895790457725524,-0.6715202331542969,48,87,14035,12623
11.5,1788520663746,4.929577350616455,4.957746505737305,-0.0018806906882673,0.0030328999273478,-0.9427417516708374,0.3335044980049133,0.1754102909318962,0.0007177354094212,3.521874969213764e-05,-0.0259907636791467,-0.0225016977638006,0.0228652879595756,-0.0020043849945068,0.0033415211364626,-0.9496843814849854,0.3131842315196991,-0.0114774374709852,0.0009783964914813,0.025327539643466,0.0422329902648925,-0.2234794497489929,-0.11126708984375,70,102,14394,12632
11.6,1788520663846,5.126760482788086,4.873239517211914,-0.0025992090813815,0.0031889122910797,-0.9423197507858276,0.334688663482666,0.1601248585279654,-0.0012383890125238,7.61553450235968e-05,-0.0032465260010212,-0.023777337744832,0.028534984216094,-0.0028327759355306,0.0034909173846244,-0.9497933387756348,0.312845766544342,-0.0106589725313724,0.0121530069576074,-0.0425690274904632,0.067794382572174,0.0548176169395446,-0.5095634460449219,84,90,13706,13324
11.7,1788520663946,5.154929637908936,4.901408672332764,-0.0026208502240478,0.0036393741611391,-0.9427379965782166,0.333504170179367,0.1703633562067563,-0.001379561627251,-4.7617394228771937e-05,-0.009251988492906,0.0119508011266589,-0.0390355996787548,-0.0020606452599167,0.0042625060304999,-0.9502254724502563,0.3115273118019104,-0.0133246204014867,-0.0111643011070685,-0.0410715993299894,0.0823416113853454,-0.0493087172508239,0.8421611785888672,76,73,14353,12393
11.8,1788520664046,4.901408672332764,5.323943614959717,-0.0014234563568606,0.0043186042457818,-0.9432706236839294,0.331993967294693,0.1689083847203606,-0.0008054357417028,-0.0001049725565237,0.0021302583627402,0.0252363681793212,-0.0286954827606678,-0.0023039607331156,0.0037036379799246,-0.9499387741088868,0.312405914068222,0.0024752514714004,-0.0606877451685654,0.0604566020683412,-0.0254567265510559,0.1246570944786071,0.1279220581054687,61,113,13252,13053
11.9,1788520664146,4.929577350616455,5.154929637908936,-0.0017580448184162,0.0035647193435579,-0.9423607587814332,0.3345748484134674,0.1515570006947511,0.004223923784641,-2.7565701926827177e-06,0.0166138559579849,0.0223088636994361,0.0550587773323059,-0.0013889176771044,0.0028557199984788,-0.9491960406303406,0.3146693110466003,0.0253374184704101,-0.0081655046708237,-0.0049411013785465,0.1587845683097839,0.0947862863540649,-0.4478588104248047,94,69,13919,12587
12.0,1788520664246,5.408450603485107,4.873239517211914,-0.0013941280776634,0.0029871184378862,-0.9419859647750854,0.335636168718338,0.1712351081702873,0.0011018703195563,3.937027851277455e-09,0.0,5.168610872630097e-09,0.0,-0.0011772410944104,0.0024034073576331,-0.9493113160133362,0.314326137304306,0.0072638267478106,0.0058647423935918,-0.0068739344445354,0.1139198541641235,0.2403637766838073,-0.5656394958496094,99,49,13787,12245
12.1,1788520664346,5.126760482788086,4.873239517211914,-0.0009311963221989,0.0022224562708288,-0.9425124526023864,0.3341622650623321,0.1687898539269114,-0.001577657361607,-1.2896555989950256e-05,0.0099220974370837,0.0094200987368822,-0.0454489514231681,-0.0002556163817644,0.0023170942440629,-0.9501876831054688,0.3116696178913116,0.000733427696658,0.0480199729620328,-0.0721605949265267,-0.1758313775062561,0.1534163355827331,0.7970333099365234,81,91,14616,12334
12.2,1788520664446,5.380281925201416,4.873239517211914,-0.0010964451357722,0.0017162858275696,-0.9435574412345886,0.3312026858329773,0.1711735385851725,0.0039776745761273,2.662677883443964e-05,0.011931057088077,-0.0335395261645317,-0.0646329671144485,-0.0002877945080399,0.0025443015620112,-0.9511157274246216,0.3088240921497345,-0.0271466505856962,0.0404643468403661,-0.0753976588895474,-0.1404634714126587,-0.0865445733070373,-1.5761919021606443,97,70,13661,12366
12.3,1788520664546,5.098591327667236,4.760563373565674,-0.0015477049164474,0.0024547250941395,-0.9447439312934875,0.3277963995933532,0.1645473253316409,-0.0074748338372253,0.0001270591548124,-0.0081593301147222,-0.0273501686751842,-0.0751039981842041,-0.0017326297238469,0.00283276848495,-0.9519394040107728,0.3062684535980224,-0.03542519140834,-0.0085698992594712,-0.0722987970607903,0.0471610426902771,0.4384803771972656,0.8352251052856445,107,114,15127,12493
12.4,1788520664646,5.154929637908936,5.042253494262695,-0.0005179270519874,0.0038398513570427,-0.9461657404899596,0.3236593902111053,0.1749557530642168,0.0003907781992281,-1.964531809585261e-06,-0.0217931382358074,0.0147622395306825,-0.1145054996013641,-0.0009802607819437,0.0039407648146152,-0.9543803930282592,0.2985659837722778,-0.0144015193555514,-0.0190222457016373,-0.1879966675169994,0.006875991821289,-0.1309157013893127,-0.8168535232543945,62,119,13096,13399
12.5,1788520664746,5.042253494262695,5.014084339141846,-0.0008354266174137,0.0038878701161593,-0.9477936625480652,0.3188595175743103,0.1673548240600606,-0.0016838873658424,-2.107960677835845e-05,0.0032642355654388,0.0025345222093164,-0.0174562633037567,-0.0007558055222034,0.0038713486865162,-0.954726219177246,0.2974598109722137,0.0048000117972778,-0.0001475448680051,-0.0094178379248938,-0.2069213390350341,-0.2913606762886047,0.4218721389770508,40,70,13158,12637
12.6,1788520664846,5.126760482788086,5.126760482788086,0.0004470074782148,0.0045375898480415,-0.947645366191864,0.3192921876907348,0.170777548104122,-0.0008894098744282,-0.000177140605493,-0.0069345338270068,0.0475757904350757,0.0154994567856192,0.0008028401061892,0.0046991594135761,-0.9544867277145386,0.298215240240097,-0.0002259659314274,0.013962487817465,-0.0068490945407107,0.1188140511512756,0.2000897526741027,0.912139892578125,75,71,12981,12848
12.7,1788520664946,5.211267471313477,4.732394218444824,0.0025650630705058,0.0056075197644531,-0.947763741016388,0.3189135491847992,0.1663506133222713,0.0017917784416407,-0.0002590971711467,-0.013684238307178,0.0954625755548477,-0.015736524015665,4.151370376348496e-05,0.0048539284616708,-0.9547629952430724,0.2973281443119049,0.007410527679313,-0.0655835909121037,-0.0281093959450577,0.2104246616363525,-0.0776291489601135,-3.4736785888671875,92,97,13871,12980
12.8,1788520665046,5.352112770080566,4.957746505737305,0.0006273878971114,0.0052915345877408,-0.9480151534080504,0.3181802332401275,0.1718385010384328,0.0013699498220939,-6.330966151081313e-05,-0.0113396309316158,0.0363407731056213,-0.0117858136072754,0.0016343034803867,0.0058009829372167,-0.9550020098686218,0.2965381145477295,-0.0129697394417048,0.0661543369655521,-0.0388308257353027,-0.1396723389625549,-0.3334885239601135,-0.8893098831176758,69,88,13897,12578
12.9,1788520665146,5.239436626434326,4.873239517211914,0.0012546662474051,0.0058063021861016,-0.9484365582466124,0.3169113099575043,0.1736362140948609,0.0012536446919862,-2.2624999319904607e-05,-0.0050708972848951,0.0029364735819399,-0.0391370393335819,0.0015039294958114,0.005757899954915,-0.9553931951522828,0.2952769994735718,0.0007932455962273,0.0009309092056787,-0.0372348289733633,0.0158822536468505,0.0462999939918518,0.2710294723510742,78,77,13906,12396
13.0,1788520665246,5.239436626434326,4.901408672332764,0.000990861444734,0.0058693373575806,-0.949221134185791,0.3145535290241241,0.1768897558171002,0.0023431480671389,4.383838722208444e-05,-0.0068794302642345,-0.0120997671037912,-0.0676148235797882,0.001798684708774,0.005766088142991,-0.9561619162559508,0.2927761375904083,0.0183138379994119,0.0434711832801886,-0.0437030623157651,-0.2075095772743225,-0.1313886642456054,1.5814447402954102,93,88,14016,12393
13.1,1788520665346,5.436619758605957,4.563380241394043,0.0007381880423054,0.0047730137594044,-0.949713945388794,0.3130818009376526,0.1720753881828206,0.0013534638021969,5.6263106446965886e-05,0.0193692147731781,-0.0347664169967174,-0.0229487735778093,0.0004975581541657,0.0035749748349189,-0.9563848376274108,0.2920874059200287,0.0619014215956951,-0.0366473010715299,0.0072688511854309,-0.0930691361427307,-0.2020002007484436,1.4846277236938477,104,26,15468,10992
13.2,1788520665446,5.7183098793029785,4.422535419464111,0.000389865017496,0.0038789354730397,-0.951102375984192,0.3088510036468506,0.1733972700341655,0.0030558831711119,-6.017350761633616e-05,-0.0265501104295253,0.021965330466628,-0.2001584768295288,0.0009630108252167,0.0038312030956149,-0.959996461868286,0.2799844145774841,0.0141047694308601,0.0296250132626195,-0.2490237215655762,0.1354004740715026,0.3706003427505493,-0.6294660568237305,79,88,14674,11838
13.3,1788520665546,5.380281925201416,4.563380241394043,0.0006406797328963,0.0037245105486363,-0.954599916934967,0.2978667318820953,0.1654058341496469,-0.0002634253712217,-6.516757793635329e-06,0.0061809299513697,-0.0028363985475152,-0.2124574184417724,0.0010670078918337,0.0034785345196723,-0.9620996117591858,0.2726742029190063,0.013414579973108,0.0003226195528121,-0.14400866980544,-0.0598690509796142,0.0333673357963562,1.6319599151611328,49,154,13235,13929
13.4,1788520665646,5.267605781555176,4.957746505737305,0.0005002490943297,0.0037151761353015,-0.9573922753334044,0.2887662053108215,0.1739801633430946,-0.0001737882754248,2.642782207849821e-06,-0.016452332958579,-0.0080863079056143,-0.0926809161901474,0.0005600061267614,0.0040985355153679,-0.9637725949287416,0.2666934430599212,-0.0397944173349322,0.004103533294986,-0.1159809714290299,-0.1391394734382629,0.2341828942298889,-0.0626583099365234,52,71,14325,11702
13.5,1788520665746,5.97183084487915,4.14084529876709,-0.0003676544874906,0.0043422253802418,-0.9583075046539308,0.2857057452201843,0.170987764817276,0.0002071642300019,7.849440273859979e-05,-0.0338402576744556,-0.025557180866599,-0.1279127895832061,-0.001160841435194,0.0046901209279894,-0.9655412435531616,0.26020547747612,-0.026825221913801,-0.0670804485103725,-0.199465477814475,0.3735554814338684,0.108920931816101,0.1857290267944336,62,58,15153,10568
13.6,1788520665846,5.746479034423828,4.084506988525391,-0.0013190541649237,0.0047364416532218,-0.96055406332016,0.2780497968196869,0.1637928018208251,-0.0003830983549812,-4.978527862687309e-05,-0.0062492080032825,-0.0035615861415863,-0.1964350342750549,-0.0006697466596961,0.0036659799516201,-0.967832326889038,0.2515684962272644,0.057137795992805,0.0239672810092821,-0.2195139260949407,0.089653193950653,-0.0651634335517883,-0.1279735565185547,148,54,16526,10890
13.7,1788520665946,6.11267614364624,4.169013977050781,0.0001045597018674,0.0036542520392686,-0.9638881683349608,0.2662822306156158,0.1557314122313112,0.0018989271386849,-4.115110322859283e-05,0.0189383309334516,0.0591367222368717,-0.3136014640331268,0.0004192544147372,0.0036774016916751,-0.970096230506897,0.242692545056343,0.0166263128321937,0.0573528270665762,-0.3328377784627141,-0.1361271142959594,-0.3299934864044189,-1.97952938079834,64,64,15476,10606
13.8,1788520666046,5.943662166595459,4.253520965576172,0.0004199327086098,0.0033534336835145,-0.9681437611579896,0.2503721714019775,0.1758174688204985,0.0041992858018844,0.0001015338173503,0.0029675546102225,-0.0132220359519124,-0.2817233204841614,6.446614861488342e-05,0.0034402180463075,-0.9744330644607544,0.2246519476175308,-0.0140284034680263,-0.0313746309535747,-0.2575088498448064,0.0424476861953735,0.3195209503173828,0.3019018173217773,78,41,14649,11350
13.9,1788520666146,5.549295902252197,4.619718074798584,0.0003203210653737,0.0038240370340645,-0.9713601469993592,0.2375812530517578,0.1682605754192764,-0.0024332982491908,1.0886660596985844e-05,-0.0077177053317427,0.0106702260673046,-0.2584573924541473,0.0004511512815952,0.0038833701983094,-0.9772477746009828,0.2120649218559265,-0.0055899203409882,-0.0234334367740071,-0.1963404886570113,-0.1304711103439331,-0.238809585571289,0.0490226745605468,60,53,13651,12627
14.0,1788520666246,5.014084339141846,4.957746505737305,-2.7513131499290463e-05,0.0041217659600079,-0.972993552684784,0.230795681476593,0.1797578085294484,0.0012800057206363,2.615916255497159e-05,-0.0111911157146096,-0.0180002022534608,-0.115779623389244,-0.0003471579402685,0.0043528266251087,-0.9779622554779052,0.2087361961603164,-0.0197532591752662,-0.0073619927294858,0.004514031738531,-0.1317532658576965,0.2608007192611694,-0.5832252502441406,58,79,13850,12698
14.1,1788520666346,5.098591327667236,4.8450703620910645,-0.0003178968327119,0.0042938282713294,-0.9730565547943116,0.2305262833833694,0.1697247251370016,0.0012373073069232,-1.1973499649208328e-05,0.0036723245866596,0.0051717553287744,0.0114731900393962,-0.0003623645752668,0.0044403178617358,-0.9779601097106934,0.2087440639734268,-0.006462217728611,0.0361220162163444,-0.0114132562668441,0.0142936706542968,-0.1510654091835022,-1.2749958038330078,67,95,14245,12767
14.2,1788520666446,5.239436626434326,4.873239517211914,-0.00035575235961,0.0043579339981079,-0.973162829875946,0.2300758361816406,0.1684549940148123,0.0007689371518038,-8.366894396304624e-05,0.0026073488406836,0.0073344968259334,-0.0077554262243211,-0.0002593882381916,0.0043647298589348,-0.9780083298683168,0.2085202038288116,-0.0022265853956683,-0.0243415395650771,-0.0197315736764668,0.0450431704521179,-0.2767030000686645,0.4791393280029297,83,64,14181,12353
14.3,1788520666546,5.436619758605957,4.760563373565674,0.0031323048751801,0.0048547554761171,-0.9735188484191896,0.2285335659980774,0.1682493761101805,0.0021676563558775,-0.0001113705803659,0.0077944323420524,0.13739013671875,-0.0411065332591533,0.0034604128450155,0.0049802670255303,-0.9784343838691713,0.206469178199768,-0.007106542581775,0.0700715338807953,-0.0326012487477508,-0.509316623210907,-0.3117136359214782,3.703246116638184,77,65,14072,12507
14.4,1788520666646,5.436619758605957,4.478873252868652,0.0022561422083526,0.0046651349402964,-0.973953664302826,0.2266881018877029,0.1611971323823404,0.0016947321611805,-6.853455960752305e-05,0.0024718164931982,0.0428221188485622,-0.053784504532814,0.0008764304220676,0.0045619839802384,-0.9792748689651488,0.2024828195571899,-0.0094009014924072,-0.0859255224305745,-0.1320314538964695,0.1514689326286316,-0.3554630875587463,-1.934912204742432,78,70,15450,11389
14.5,1788520666746,5.577464580535889,4.507042407989502,0.0011524508008733,0.0042299712076783,-0.9758075475692748,0.2185875028371811,0.1711274217318895,0.0002809155689789,3.862041190406918e-05,0.0225129481405019,-0.0190445426851511,-0.1869941800832748,0.0015269173309206,0.0045900968834757,-0.9798868894577026,0.1994953006505966,0.007253456014284,0.0442324339179143,-0.2053812698907884,0.2213637828826904,-0.0824792385101318,-1.9451632499694824,85,55,14978,11537
14.6,1788520666846,5.577464580535889,4.619718074798584,0.001564004458487,0.0046573942527174,-0.9780374765396118,0.2083711922168731,0.1567681363169593,-0.0039073324799792,-0.0001020695312031,-0.0058062900789082,0.0233215577900409,-0.1842152327299118,0.0016220454126596,0.0045523755252361,-0.9832044839859008,0.1824433654546737,0.0014662554479682,-0.0202214849318909,-0.1575569775573088,-0.0321416854858398,-0.0664305090904235,-0.949681282043457,53,47,14703,11520
14.7,1788520666946,5.6619720458984375,4.478873252868652,0.0018359078094363,0.0045745940878987,-0.9796637296676636,0.2005856931209564,0.1698923173638961,-0.0060378164882158,-0.0001067217066806,0.0037174504250288,0.0119535736739635,-0.1539466381072998,0.0021239891648292,0.0046649510040879,-0.9844730496406556,0.1754610538482666,-0.0026646385546245,0.0142619815812588,-0.1545400001660319,0.0087856650352478,-0.1992093920707702,0.411111831665039,71,83,14365,11984
14.8,1788520667046,5.521126747131348,4.478873252868652,0.00193831929937,0.0045862928964197,-0.98109769821167,0.193449005484581,0.1637736303122746,-0.0007350885740818,9.1669792272692e-06,0.005777359008789,0.0074528269469738,-0.1548126190900802,0.0028356723487377,0.0044278064742684,-0.9857610464096068,0.1680703908205032,0.0127560379514827,0.0368021348641133,-0.1428031883316884,0.0114767551422119,-0.0057047009468078,0.8292055130004883,79,77,14759,11918
14.9,1788520667146,5.605633735656738,4.647887229919434,0.0020009558647871,0.0032012257725,-0.982797622680664,0.1846470087766647,0.1680835014768204,-0.0031625073582922,8.018134469353989e-05,0.0328405611217021,-0.0262550823390483,-0.1539778709411621,0.0012756921350955,0.0020221378654241,-0.9867907762527466,0.1619825661182403,0.0841605203390403,-0.0725791689964385,-0.0878785189781009,-0.0075612068176269,0.409486711025238,1.8271942138671875,92,84,14615,11366
15.0,1788520667246,5.77464771270752,4.704225540161133,0.0007082567899487,0.0027209208346903,-0.9839068055152892,0.178660050034523,0.1743864515531968,-0.000424206398018,-8.5650322741798e-05,-0.0227160323411226,-0.0176802780479192,-0.1727199107408523,-0.0007595503702759,0.0054180352017283,-0.9886746406555176,0.1499755084514618,-0.1372685845767428,-0.0513632287452985,-0.3004563529938754,-0.7602753639221191,0.3468304276466369,4.381963729858398,16,125,11076,13121
15.1,1788520667346,5.070422649383545,4.957746505737305,-0.0001042595831677,0.0054572322405874,-0.985823690891266,0.167695865035057,0.1561443401594271,0.0032539592235753,-9.327135364357082e-05,-0.0046588815748691,0.0270085893571376,-0.1839921027421951,0.0008329488337039,0.0052709095180034,-0.9892390370368958,0.1462114006280899,0.011051255003088,0.0512375956334341,0.0273028134989184,-0.1867528557777404,0.4220488667488098,0.5724830627441406,62,86,13738,12806
15.2,1788520667446,4.957746505737305,5.014084339141846,0.0006641433574259,0.005319592077285,-0.9856883883476256,0.1684923321008682,0.1685735249659893,0.0012747258636906,3.695766202039183e-05,0.0050645489245653,0.0055418233387172,0.0306186191737651,0.0012563969939947,0.0053466167300939,-0.989136278629303,0.1468989551067352,-0.0044414088577205,0.0406328936725922,-0.0068714180169602,0.178106427192688,0.2011951208114624,1.3561954498291016,69,52,14708,12227
15.3,1788520667546,5.239436626434326,4.957746505737305,0.0012632224243134,0.0054682120680809,-0.9858672618865968,0.1674344986677169,0.1647727118499906,-0.000453267383621,-4.0570395759372816e-05,-0.0028507735114544,0.0403310917317867,-0.0694684907793998,0.0011634845286607,0.0050820829346776,-0.9894603490829468,0.1447102427482605,0.0172974759009393,-0.0265058770218562,-0.0375224064165947,-0.0215905308723449,0.0688486099243164,-1.1767311096191406,56,64,13880,12051
15.4,1788520667646,5.211267471313477,4.873239517211914,0.0011245512869209,0.0053266328759491,-0.9862552881240844,0.1651390194892883,0.1809229044591822,0.0002551788298941,-7.768312238475605e-05,-0.0086727477610111,0.0048227114602923,-0.0547231435775756,0.0010140426456928,0.0052572861313819,-0.9897396564483644,0.1427824795246124,-0.0019323299211753,-0.0283306148239548,-0.0459212295730225,-0.1201804876327514,-0.1116949915885925,0.7738552093505859,90,65,14044,12373
15.5,1788520667746,5.070422649383545,4.873239517211914,0.0018067811615765,0.005363134201616,-0.9867273569107056,0.1622872352600097,0.1697703421055581,-0.000831706349673,-4.787999067752634e-05,-0.0004617281665559,0.0308570209890604,-0.0603330209851264,0.0019902754575014,0.0053073680028319,-0.990115761756897,0.1401383727788925,0.0043474016038624,0.0167037918213028,-0.0546430058867731,-0.0542134642601013,0.0887268781661987,0.3966407775878906,49,73,14750,12612
15.6,1788520667846,5.126760482788086,4.901408672332764,0.0009843425359576,0.0050285733304917,-0.9870174527168274,0.1605309695005417,0.1785408461365976,-0.0029403040881223,6.23657782682889e-05,0.0030670657288283,-0.0358452759683132,-0.0280425250530242,0.0010039461776614,0.0045285942032933,-0.990589201450348,0.1367906630039215,0.0177578873066957,-0.0022124825389239,-0.042851829535688,-0.0947406291961669,-0.1176941990852356,-0.3450746536254883,72,76,14345,12315
15.7,1788520667946,5.154929637908936,4.760563373565674,0.0006154383881948,0.0043804235756397,-0.9875478744506836,0.1572569608688354,0.1783776224960956,0.0002748722677731,-1.6424771078513184e-05,0.0055059706792235,-0.0123698394745588,-0.057832758873701,0.0010043587535619,0.0043397545814514,-0.9908310174942015,0.1350340247154235,0.0066368642432502,-0.0098479672203504,-0.0704890877091406,-0.0319792032241821,-0.0828797221183776,1.078105926513672,79,100,14421,12814
15.8,1788520668046,5.211267471313477,4.957746505737305,0.000822257134132,0.0042635803110897,-0.9877587556838988,0.1559288948774337,0.181584368305368,-0.00099875174028,0.0001018826390002,-0.0026445435360074,-0.018355431035161,-0.0154763655737042,0.0016930727288126,0.0039096986874938,-0.9910793900489808,0.1332053542137146,0.0141378541631144,0.0197301345898502,-0.0152575157584232,-0.3861522078514099,-0.1542953848838806,1.0957918167114258,69,93,13859,12019
15.9,1788520668146,5.352112770080566,4.816901206970215,0.0014114270452409,0.0042300401255488,-0.988089680671692,0.153814285993576,0.1715026904449514,0.0025275552138619,2.1169863926486e-05,-0.0111185256391763,-0.0033186904620379,-0.0519351065158844,0.0032226247712969,0.0046308040618896,-0.9915066361427308,0.1299337297677993,-0.0128465691358268,0.0759300513478036,-0.0917842751692513,0.3798510432243347,0.0940967798233032,-1.2257280349731443,73,92,13620,12696
16.0,1788520668246,5.352112770080566,5.014084339141846,0.0005971164209768,0.0043041622266173,-0.9885697960853576,0.1507012993097305,0.1699700605267673,-0.0003842146163741,0.0003509405036854,-0.0025682742707431,-0.1457573026418686,-0.038525253534317,0.0003266418352723,0.0041593722999095,-0.9917812943458556,0.1278764903545379,0.0029890592321966,0.0231581133674642,-0.0361404052021977,0.139572262763977,0.0574325919151306,-3.6678385734558105,74,56,13736,12224
16.1,1788520668346,5.549295902252197,4.507042407989502,-0.0001032274449244,0.0040824250318109,-0.9888504147529602,0.1488563120365142,0.1824870819161831,0.0006627945877123,3.258932254013288e-05,0.0053815124556422,-0.0230756532400846,-0.043180052191019,-0.0002012215554714,0.0041740546002984,-0.992046058177948,0.125805988907814,-0.015437192986092,-0.0191819509951799,-0.0760777466697965,0.2374821305274963,-0.0252645015716552,0.5557308197021484,81,70,15248,11410
16.2,1788520668446,5.549295902252197,4.563380241394043,-0.0003957215812988,0.004038720857352,-0.9898028373718262,0.1423861533403396,0.162374945451117,-0.0014562002084875,3.55235811386138e-05,0.0016858165618032,-0.0106603223830461,-0.1558166295289993,-0.0005439762026071,0.0037467293441295,-0.9931814074516296,0.1165183633565902,0.0151547402211677,-0.0140975254520913,-0.1570312305075175,-0.1619230508804321,-0.2759901881217956,0.1564712524414062,97,53,13950,12260
16.3,1788520668546,5.042253494262695,4.8450703620910645,-0.0006699847290292,0.0032034204341471,-0.9908277988433838,0.1350913941860199,0.1671048029644542,0.0026992519869622,-6.161567386037193e-05,0.021069973707199,-0.0040373234078288,-0.1380118876695633,-0.001045967452228,0.0029096202924847,-0.993683934211731,0.1121727302670478,0.0107168909117645,-0.0280605185346827,-0.0362084254298264,0.0381019115447998,0.4056949019432068,0.1571779251098632,74,87,14491,12820
16.4,1788520668646,5.154929637908936,5.014084339141846,-0.0002958810364361,0.0031057035084813,-0.9911365509033204,0.1328103244304657,0.181178429055828,0.0018905774144343,-9.25269733904099e-05,-0.0054182391613721,0.0264900550246238,-0.0552104301750659,7.622689008712769e-05,0.0031391019001603,-0.9939090013504028,0.1101596802473068,0.0004073968402228,0.0206374560218116,-0.0486992953278783,-0.0766301751136779,0.0425635576248168,0.2328195571899414,66,83,14268,12199
16.5,1788520668746,5.183098793029785,4.929577350616455,-0.0004180906107649,0.0033468049950897,-0.9915710687637328,0.1295204162597656,0.1792364441054793,-0.0032726292007598,8.632352406382876e-05,-0.0136655671522021,-0.0169704388827085,-0.0743811875581741,-0.0005209855735301,0.0032080980017781,-0.9942818284034728,0.1067381501197815,-0.0031374158221719,-0.0063003136270774,-0.0848352991808303,-0.0768272280693054,-0.3835442066192627,0.4094858169555664,81,89,13872,12366
16.6,1788520668846,5.323943614959717,4.873239517211914,-0.0016760088037699,0.0037367427721619,-0.9921194911003112,0.1252284198999405,0.1671646550455961,-0.000898051308697,9.316287227123654e-05,-0.0187296327203512,-0.0267184358090162,-0.0846524834632873,-0.0018333168700337,0.0032182969152927,-0.9947200417518616,0.1025596335530281,0.0324583834260671,-0.0241616243353216,-0.0458721008880326,-0.6281225681304932,0.0157083868980407,-0.0254383087158203,46,70,13088,12474
16.7,1788520668946,5.154929637908936,4.929577350616455,-0.0010334466351196,0.0018788099987432,-0.9919958114624025,0.1262524276971817,0.158403393869361,-0.0060107844668071,0.0001311241248615,0.0151450987905263,-0.0045150821097195,0.0372080355882644,-0.0003669084981083,0.0021085469052195,-0.9946841597557068,0.1029505282640457,-0.0108367136130997,0.0685535309942893,-0.0893365516421254,-0.0337222814559936,-0.2838239073753357,0.5020847320556641,74,53,14601,12521
16.8,1788520669046,5.549295902252197,4.563380241394043,-0.000535518862307,0.0021303014364093,-0.9923346042633056,0.1235602423548698,0.181669551262472,-0.0008354076634629,3.304846056994635e-05,-0.0037212043534964,-0.0172318965196609,-0.048312734812498,-0.0002715969458222,0.0021180855110287,-0.995200216770172,0.0978365913033485,0.0108057531811512,0.0142719957584578,-0.1463265053301589,-0.1980369091033935,-0.0641437768936157,0.9301414489746094,107,76,15497,11323
16.9,1788520669146,5.577464580535889,4.563380241394043,-0.0007533620810136,0.0019799345172941,-0.9930567145347596,0.1176174208521843,0.1799519458554348,-0.002127184293589,4.1862778501780666e-05,0.0057951444759964,-0.0298905633389949,-0.1540924906730651,-0.0008834367617964,0.002000268548727,-0.9956520199775696,0.0931255221366882,-0.0015109623020848,-0.0102176396495096,-0.1636324851952279,-0.1519924998283386,-0.2065329551696777,-0.4373903274536133,70,47,14913,11340
17.0,1788520669246,5.436619758605957,4.507042407989502,-0.0007443455979228,0.0022994452156126,-0.994044542312622,0.1089473366737365,0.1760037983940701,0.0021528713142558,3.911220701104417e-05,-0.0141321495175361,0.012083382345736,-0.1837030351161956,-0.0001664077863097,0.0024115508422255,-0.9965982437133788,0.0823785215616226,0.0020545303525895,0.0414960876109291,-0.1798775589996446,0.0580517053604126,-0.3667308688163757,1.069594383239746,67,106,14164,12814
17.1,1788520669346,5.295774459838867,5.014084339141846,0.0003002884914167,0.0026955551002174,-0.9949642419815063,0.1001929640769958,0.1803279183964284,0.0001922761727736,3.049465805706544e-05,-0.007187511306256,0.015380498021841,-0.1331468075513839,0.0002513034269213,0.00274942163378,-0.9970446228981018,0.0767749324440956,-0.0004891789922892,0.0491299662256705,-0.0386642163025373,-0.261414885520935,-0.2243165373802185,1.8410024642944336,73,52,13311,12372
17.2,1788520669446,5.183098793029785,4.901408672332764,0.0002023313718382,0.0027486521285027,-0.995186448097229,0.0979605019092559,0.1726820289677015,-0.0019647679521561,-0.0002087366543462,-0.0029618910048156,0.036363661289215,-0.0495729111135005,0.0001494232565164,0.0027325246483087,-0.9971672296524048,0.0751665234565734,-0.0072618345574372,-0.0318712409672003,-0.0213575744279763,-0.017856478691101,0.1901978254318237,0.0959253311157226,90,79,13793,12610
17.3,1788520669546,5.098591327667236,4.957746505737305,0.000261826760834,0.0027454919181764,-0.9952723979949952,0.0970843732357025,0.1720143425720659,0.0008181251050983,5.652165019923768e-06,-0.0006068461807444,-0.0010555615881457,-0.0077758962288498,0.0006137555465102,0.0026286374777555,-0.9972059726715088,0.0746532529592514,-0.0054884128915998,-0.0083845531205263,-0.0359651484097525,-0.1223055124282836,-0.0365480184555053,-0.4793148040771484,63,80,14243,12246
17.4,1788520669646,5.267605781555176,4.957746505737305,0.0002037757949437,0.0027189906686544,-0.9954071640968324,0.0956926196813583,0.1678650053157701,0.0006992359083354,4.011641046160038e-05,-0.0042443829588592,-0.0130889201536774,-0.0376988053321838,0.000200749374926,0.0026731397956609,-0.9972891211509703,0.0735340863466262,0.0047480356387396,-0.0192516129594465,-0.0323016964459354,-0.0243441462516784,0.0257208347320556,-0.1854820251464843,108,87,13573,12173
17.5,1788520669746,5.126760482788086,4.760563373565674,0.0004229859332554,0.0027171692345291,-0.9956644773483276,0.0929761603474617,0.1741936858973137,0.0028574267240156,1.9644507682415466e-05,0.0002154727262677,0.0071286745369434,-0.0642929673194885,0.0001369807869195,0.002748898230493,-0.9973987936973572,0.0720293000340461,-0.0060077946105772,-0.0061278827355849,-0.0533314110152656,0.0567990541458129,-0.0657091736793518,-0.7478446960449219,67,100,14315,12928
17.6,1788520669846,3.6056337356567374,6.760563373565674,0.0008204507175832,0.0029708694200962,-0.9958555698394777,0.0908959433436393,0.1742455061010513,-0.0008414256551496,2.331866459970212e-05,-0.0040735299699008,-0.0139127634465694,-0.0214750356972217,0.0033904341980814,0.0029340581968426,-0.9972707033157348,0.0736965611577034,0.0102204113637109,0.1479300291788323,0.2500524846092228,-1.4383490085601809,0.4074742794036865,3.808770179748535,63,276,5179,19815
17.7,1788520669946,3.126760482788086,6.901408672332764,7.118677604012191e-05,0.0033931729849427,-0.9934171438217164,0.1145028620958328,0.1729598532793351,0.0025753713395385,0.0001665949236788,0.0291303005069494,-0.162691593170166,0.6800498366355896,0.0021859053522348,0.0034780427813529,-0.9943087697029114,0.106458194553852,0.0081280292833017,0.1868164783176805,0.7758916910213122,0.238120436668396,-0.4618597030639648,0.5076017379760742,128,80,11016,15488
17.8,1788520670046,3.802816867828369,6.2816901206970215,0.0017987806349992,0.0037615539040416,-0.9888779520988464,0.1486707776784896,0.1742151658583821,0.004185650962819,7.173770958979054e-05,-0.0143118277192115,-0.0012934247497469,0.5167635083198547,0.0018127243965864,0.0038870070129632,-0.990666389465332,0.1362415254116058,-0.006043976607884,0.0074950794804823,0.3923823604494987,0.1466222405433654,-0.0709452629089355,0.3769111633300781,134,58,10817,15912
17.9,1788520670146,4.450704097747803,5.943662166595459,0.0019386163912713,0.0041577313095331,-0.9859932065010072,0.1667217761278152,0.1689756678688997,0.00349256900382,8.433692306281022e-06,-0.0083107845857739,0.0194034576416015,0.3470759689807892,0.0019038021564483,0.0043828971683979,-0.9873389005661012,0.1585533916950225,-0.0107511230327082,0.0106649380891282,0.3364365632431861,-0.2641428709030151,0.0043354630470275,0.806086540222168,67,52,11019,14667
18.0,1788520670246,3.7183098793029785,6.253520965576172,0.0017477211076766,0.0043758866377174,-0.9829883575439452,0.1836075186729431,0.1721782368229125,0.0060114403324982,1.0543282519706675e-05,-0.0050729885697364,-0.0066420347429811,0.3092708885669708,0.0018398147076368,0.0041305879130959,-0.9846071004867554,0.1747240722179412,-0.0001428861644543,0.0337050718039332,0.3999607882516794,-0.16762375831604,0.1511591076850891,-0.1586418151855468,63,75,12243,14671
18.1,1788520670346,4.056337833404541,5.88732385635376,0.0012230481952428,0.0040353741496801,-0.9794310927391052,0.2017350196838379,0.1712714343467963,0.0048272932342121,9.350544918080284e-05,0.0009585175430402,-0.0351141802966594,0.3381380140781402,0.0008978266268968,0.0039994269609451,-0.9823329448699952,0.1870965957641601,-0.0007320781769139,0.0081469513209052,0.2211952202995641,0.03935307264328,0.2960899472236633,0.7237653732299805,59,91,12488,14604
18.2,1788520670446,3.8309860229492183,5.830986022949219,0.0005697419401258,0.003830935107544,-0.9766075611114502,0.2149946242570877,0.1736275376876253,0.006575958394883,2.1497100824428587e-05,0.0056678713299334,-0.0100439013913273,0.2548000514507293,0.000930811278522,0.0038552023470401,-0.9792963862419128,0.202392891049385,-0.0247501581505933,0.0935546628868579,0.2316066367123305,0.2295365929603576,-0.0952157974243164,-0.5549545288085938,112,78,13202,14851
18.3,1788520670546,4.478873252868652,5.633802890777588,-1.4671124517917631e-05,0.0038069717120379,-0.9738680124282836,0.2270826399326324,0.1778080986184766,0.0022551212704303,-2.694810891691305e-05,-0.0132750831544399,-0.019942058250308,0.2157088965177536,0.000700999982655,0.0039149485528469,-0.97783225774765,0.2093518674373626,0.0015086036735927,0.0417303579424089,0.2618813920306428,-0.0468491315841674,-0.040248155593872,-1.2082014083862305,66,104,11954,15029
18.4,1788520670646,4.676056385040283,5.577464580535889,0.0005924289580434,0.0042747873812913,-0.9712134599685668,0.2381716966629028,0.1761289345989748,0.003101009416499,-5.447225119366693e-05,-0.0177385155111551,0.0174894817173481,0.2237382382154464,-0.0003500645980238,0.0047796769067645,-0.97523295879364,0.2211282551288604,-0.0404345149688919,-0.0776083020688785,0.1462352432680814,0.2390487194061279,0.3184412717819214,-0.2339544296264648,69,61,12125,13571
18.5,1788520670746,4.366197109222412,5.464788913726807,0.0007187043083831,0.0046878210268914,-0.9694072008132936,0.2454122006893158,0.1657321880300133,0.005953284553252,4.989294385658268e-05,0.0066463258117437,0.0275030732154846,0.137663647532463,0.0007199523970484,0.0041765319183468,-0.9734589457511902,0.2288226038217544,-0.015990693767972,-0.0172993432559779,0.0866365833484775,0.0800465941429138,0.0485281348228454,0.3073396682739258,146,34,15734,11827
18.6,1788520670846,6.056337833404541,4.02816915512085,0.0016019530594348,0.0041901362128555,-0.9681912064552308,0.250171035528183,0.1779120240969937,0.0036996278931737,-6.512165159095933e-05,0.0108450194820761,0.0165351461619138,-0.033381663262844,0.0017609614878892,0.0040789050981402,-0.9735686182975768,0.2283513844013214,0.0276347800521451,0.0236618257624708,-0.1086179384079242,-0.1201081275939941,-0.7002437710762024,0.3726682662963867,196,31,18637,7832
18.7,1788520670946,6.422535419464111,3.549295663833618,0.0013361705932766,0.0042048129253089,-0.9703105688095092,0.2418223768472671,0.1747625004688182,-0.0050099356846706,1.8274553168240995e-05,-0.0024684865493327,-0.0093790953978896,-0.3638302087783813,0.0015653707087039,0.0042793070897459,-0.9782637357711792,0.2073145359754562,-0.0017041244404278,-0.0265822546149348,-0.5446621402267583,-0.0616076588630676,-0.0614956617355346,-0.2439346313476562,89,67,16220,10023
18.8,1788520671046,6.3380279541015625,3.94366192817688,0.0014315795851871,0.0044109961017966,-0.975595772266388,0.219525396823883,0.1655759740537368,0.0025004619104997,-8.261914785227914e-06,-0.0038675770629197,0.0010348134674131,-0.4557380080223083,0.0018174313008785,0.0042114164680242,-0.981881320476532,0.189441442489624,0.0212898521296354,0.0004635752337023,-0.3127610449796186,0.0479378700256347,-0.1112260818481445,1.511214256286621,71,54,15790,9894
18.9,1788520671146,5.943662166595459,4.084506988525391,0.0015760138630867,0.0040401215665042,-0.979324221611023,0.2022504061460495,0.1664511103376466,-0.0083756873624011,-5.217912896882129e-05,0.0067350347526371,-0.0084316479042172,-0.3504675030708313,0.002177370712161,0.0042534880340099,-0.9857387542724608,0.1682152897119522,-0.0138525197904818,0.0002966770889377,-0.3715211009586271,0.0509037971496582,0.2096348404884338,-1.0909414291381836,100,95,16124,10296
19.0,1788520671246,5.746479034423828,4.422535419464111,0.0020459212828427,0.0047022737562656,-0.9844210743904114,0.1757519543170929,0.172871232381767,0.0007654101163419,-6.469609412296552e-05,-0.0102436710149049,0.0184474904090166,-0.2790224850177765,0.0022327750921249,0.0047842506319284,-0.988023579120636,0.1542127281427383,-0.0175261848877543,0.0334052589456363,-0.282478638233631,-0.2167112827301025,0.2025265097618103,0.6928234100341797,17,148,13391,12888
19.1,1788520671346,5.605633735656738,4.591549396514893,0.0023071249015629,0.004500045441091,-0.9852527976036072,0.1710300296545028,0.1678273242020396,-0.0026626276099555,-3.6010214053928055e-05,0.010792470537126,0.0101053137332201,-0.2000615149736404,0.0020963344722986,0.0046561388298869,-0.9891653656959534,0.1467172056436538,-0.0094172467605791,0.0012815058944843,-0.133932059917507,0.0479193925857543,-0.0577129125595092,-0.3312654495239258,68,73,14030,11962
19.2,1788520671446,5.521126747131348,4.563380241394043,0.0019731521606445,0.0045166052877902,-0.9861093163490297,0.1660244464874267,0.1721294640792841,-0.0032326440109623,5.411408541931695e-05,0.0066404840908944,-0.0115682017058134,-0.0994799956679344,0.0024097925052046,0.0045245615765452,-0.9901142716407776,0.1401694416999817,0.0002588483720646,0.0209555643839232,-0.1239523087524383,0.2175491452217102,0.1713762283325195,-1.4099349975585938,67,62,14812,11761
19.3,1788520671546,5.802816867828369,4.478873252868652,0.0051100738346576,0.0050381333567202,-0.9876458644866944,0.1565380096435547,0.1664998324773409,-0.0003620251721286,-0.0002010594730342,-0.0031736637465655,0.0806341245770454,-0.1342033147811889,0.0054114488884806,0.0049864090979099,-0.99091637134552,0.1342781484127044,-0.0117420702710635,0.109609837957891,-0.1499389886976231,0.3439640402793884,0.128113567829132,-5.502767562866211,84,61,13894,11914
19.4,1788520671646,5.605633735656738,4.563380241394043,0.0025071017444133,0.0043066553771495,-0.9888486266136168,0.1488404422998428,0.1752156491380401,0.0025237040460475,-9.365575497404656e-05,0.0031893302220851,-0.0213161408901214,-0.1552553921937942,0.0026314407587051,0.0041900603100657,-0.9920728802680968,0.1255662590265274,0.0020866515920727,-0.0499913298454367,-0.1683321943544409,0.3169881105422973,-0.205637514591217,-0.531895637512207,83,60,14851,11402
19.5,1788520671746,5.577464580535889,4.591549396514893,0.0027620256878435,0.0044923750683665,-0.9894649982452391,0.1446762382984161,0.1699097932780621,0.0035086739834136,-6.37717384048089e-05,-0.005096189212054,0.0113794729113578,-0.1617455035448074,0.0022739684209227,0.0044065909460186,-0.992907464504242,0.1187862157821655,-0.009733674953199,-0.0410399400209667,-0.134105549685255,-0.1849197745323181,-0.1341639161109924,0.5469284057617188,62,71,14708,11476
19.6,1788520671846,5.521126747131348,4.535211086273193,0.0025064814835786,0.0039689876139163,-0.9903321862220764,0.1386367976665496,0.1756267244205066,-0.0016204493485898,3.581442899282444e-05,0.0246765483170747,0.0001568297157064,-0.1296707242727279,0.0028817011043429,0.0040577361360192,-0.9936764240264891,0.1121715977787971,0.0036890128812173,0.070914968001376,-0.1817287434771471,0.0105373859405517,-0.1345588564872741,-1.257065773010254,99,68,14205,12152
19.7,1788520671946,5.239436626434326,4.957746505737305,0.002744146157056,0.0044481949880719,-0.9914478063583374,0.1303992122411728,0.1686194271304935,-0.0062667185954518,6.228239012373654e-05,-0.0118506588041782,0.0134887499734759,-0.1778887659311294,0.002767976373434,0.0042522298172116,-0.994290828704834,0.1065833941102027,0.0103121100356117,-0.0472403900038106,-0.0622097112870851,-0.1565175652503967,0.1045637726783752,-0.4157571792602539,82,79,13519,12343
19.8,1788520672046,4.985915660858154,5.014084339141846,0.0027806919533759,0.0045552365481853,-0.9918521046638488,0.127283290028572,0.1756976330241771,-0.0010180179872406,7.594576118176209e-05,-0.0077501167543232,-0.0102966371923685,-0.0503767058253288,0.0020651128143072,0.0043841712176799,-0.9945154786109924,0.1044779792428016,0.0012392136138749,-0.0789162136133428,-0.0307383437837612,-0.1077606081962585,0.2823116779327392,-0.3279895782470703,41,66,14426,11974
19.9,1788520672146,5.295774459838867,4.901408672332764,0.0013005140936002,0.0044805244542658,-0.9920846223831176,0.1254837960004806,0.1653767519113517,-0.0002883033172218,2.746534405584016e-06,-0.0049717519432306,-0.0342387147247791,-0.0465254485607147,0.0017673494294285,0.004412779584527,-0.994748592376709,0.1022383421659469,0.0089967478233528,0.0294543364975921,-0.0470580847321235,-0.0052138566970825,-0.1400684714317321,1.6687736511230469,76,70,13492,12283
20.0,1788520672246,5.098591327667236,4.929577350616455,0.0008389706490561,0.0046998728066682,-0.9923271536827089,0.1235478967428207,0.1702903786942905,-0.0003494922648708,3.690930841902557e-05,-0.0158084817230701,-0.0358106940984725,-0.0294822696596384,0.0011538630351424,0.0030575869604945,-0.994748830795288,0.102293886244297,-0.0067112746488951,0.0041248715880697,0.022127301099544,0.6782014966011047,0.6058406829833984,-0.9496536254882812,128,53,14261,12035
20.1,1788520672346,5.183098793029785,5.014084339141846,0.001346901175566,0.0034334000665694,-0.9923853874206544,0.1231161877512931,0.1669154709556332,-0.0021896863714141,-7.433454556976497e-05,-0.0149675365537405,0.0225187819451093,-0.0370265804231166,0.0020404672250151,0.0043026488274335,-0.9950993657112122,0.0987654253840446,-0.0114415822175906,0.0230710857665271,-0.0552958826769708,-0.0880745649337768,0.2115466594696045,0.1027078628540039,60,91,14146,12183
20.2,1788520672446,5.295774459838867,4.8450703620910645,0.00239525642246,0.004492187872529,-0.993012547492981,0.1178996562957763,0.1706337910100536,-0.0011160523040356,-1.4699840928432269e-05,0.0092856381088495,-0.0023143514990806,-0.0549555607140064,0.0021660961210727,0.0044887056574225,-0.9953760504722596,0.0959256440401077,0.0115908903089289,-0.025287085684927,-0.0464237399048654,0.1528676152229309,0.07465261220932,-1.6283340454101562,107,64,12788,13422
20.3,1788520672546,5.239436626434326,5.126760482788086,0.0025159351062029,0.0045477021485567,-0.9931126236915588,0.1170484572649002,0.1702909522034937,0.0030280394752053,-0.000100013413935,-0.0015067892381921,0.0050983857363462,-0.0336053557693958,0.0024188952520489,0.0042595723643898,-0.9954780340194702,0.0948665291070938,0.0105650980624881,-0.0332446076117057,0.0063600073992959,0.055435299873352,0.1893475651741027,-0.5055065155029297,77,71,12773,12639
20.4,1788520672646,5.267605781555176,5.154929637908936,0.0029390410054475,0.0043366621248424,-0.9931221604347228,0.1169656366109848,0.1694874401557182,0.0002126568342689,-4.788475208881988e-05,0.0040047080256044,0.0273921936750412,0.0089905830100178,0.0029789684340357,0.004017730243504,-0.9954169392585754,0.0954992249608039,-0.0048613572853622,0.0015199452740433,0.0054378452615703,0.0968267917633056,-0.0546396970748901,0.2371416091918945,87,83,14017,13301
20.5,1788520672746,5.042253494262695,5.014084339141846,0.0028750863857567,0.0040077366866171,-0.993074119091034,0.1173857003450393,0.1788965140076889,0.0004336574536319,-1.5945005791877053e-08,0.0,0.0,0.0,0.0033490965142846,0.0043534142896533,-0.9954436421394348,0.0951935201883316,-0.0158382021256109,0.0230195148563194,-0.0096427463074648,-0.1772196292877197,-0.1833782196044922,0.2028608322143554,63,93,13416,13005
20.6,1788520672846,5.126760482788086,5.070422649383545,0.0032653380185365,0.0044529102742671,-0.9930579662322998,0.1174961328506469,0.1638449731741204,-0.0010191923194781,-7.252265735670377e-05,-0.0107492646202445,0.0114159965887665,0.0049242456443607,0.0028788736090064,0.0041923113167285,-0.995373785495758,0.0959440171718597,0.0001883829722285,-0.0224511018413997,-0.0089384272967412,-0.0747895240783691,-0.03872811794281,-1.0755548477172852,58,87,13297,12715
20.7,1788520672946,5.183098793029785,5.126760482788086,0.0027855546213686,0.0042548882775008,-0.993011236190796,0.1179105266928672,0.1726874081761809,0.0010762550571996,1.909059075233317e-05,0.0027307025156915,-0.0031115200836211,0.0026297417934983,0.0019766725599765,0.0041526053100824,-0.9953832030296326,0.095870517194271,0.0054429124489324,-0.0647819809097136,-0.0049687628486529,0.2670713067054748,0.1072434782981872,-3.0817079544067383,89,74,13033,12504
20.8,1788520673046,4.985915660858154,5.014084339141846,0.0020230826921761,0.0042044334113597,-0.9930205941200256,0.1178484857082367,0.1780383144633041,0.0001615241921846,7.064629088305239e-09,0.0,0.0,0.0,0.0017647081986069,0.0038151517510414,-0.9952960014343262,0.0967895090579986,0.0029920517377288,0.0084702711168325,0.0284745635911389,0.1420429348945617,0.0190717577934265,-0.6632719039916992,88,72,13736,12832
20.9,1788520673146,5.042253494262695,5.014084339141846,0.0016950397985056,0.0036529507488012,-0.9929128289222716,0.1187770962715148,0.1759847563169171,-0.0025467799628907,-4.424628440569984e-06,0.0120444893836975,0.0006229009595699,0.0221145488321781,0.0025176536291837,0.0038895113393664,-0.9953166246414183,0.0965575352311134,0.0026779349205252,0.0422809166355221,-0.0170613309534812,0.0961074233055114,-0.2210282087326049,-1.0022077560424805,73,89,13520,12843
21.0,1788520673246,5.070422649383545,5.070422649383545,0.0033392205368727,0.0041944431141018,-0.9929555654525756,0.1183658242225647,0.1823072375635213,0.0009256875177271,9.485182505266656e-05,-0.0008784059318713,-0.0839733257889747,-0.0029577903915196,0.0029968982562422,0.0040817102417349,-0.9953303337097168,0.0963947772979736,-0.0011967688864111,-0.1327934856091265,-0.0016943622843726,0.181714117527008,0.1410046815872192,-5.0140533447265625,51,59,13537,12636
21.1,1788520673346,5.323943614959717,4.901408672332764,0.003932106308639,0.0043764747679233,-0.9929842352867126,0.1181007325649261,0.1736453251665093,-0.0001649997979672,1.2496990348671662e-08,-0.0043764715082943,0.024416372179985,-0.0105744209140539,0.0021082162857055,0.0041263615712523,-0.9953793883323668,0.0959080830216407,-0.0018231753014275,-0.0999702592327432,-0.0110694110827465,0.284817099571228,0.1440640091896057,-0.2578182220458984,59,53,13742,12157
21.2,1788520673446,5.183098793029785,4.8450703620910645,0.0025747586041688,0.0042020240798592,-0.9931586980819702,0.1166683137416839,0.1765192431687757,0.0014937859882312,-9.299484743309932e-06,0.0037004891782999,-0.0061159804463386,-0.0538438558578491,0.0028356257826089,0.0038440227508544,-0.99562269449234,0.0933422595262527,0.000446121134066,0.0141774496130422,-0.0419130152651396,0.1597023606300354,-0.0414366722106933,0.9238071441650392,79,59,14095,11955
21.3,1788520673546,5.211267471313477,4.901408672332764,0.002886752365157,0.0039516286924481,-0.9933896660804749,0.1146862134337425,0.1761547826346132,0.002733210307595,-4.790028104915425e-05,0.000726081081666,0.0140183232724666,-0.0545755550265312,0.0030058482661843,0.0038898847997188,-0.995818853378296,0.0912184193730354,-0.0085327763777355,-0.0220808229515178,-0.0394009411313012,-0.1428175568580627,0.0644131302833557,0.3227958679199219,68,78,14087,12177
21.4,1788520673646,5.183098793029785,5.070422649383545,0.0036272665020078,0.0048607098869979,-0.9939285516738892,0.1098601296544075,0.1730573350944487,-0.000125791455821,-1.566768504514806e-05,-0.0137467542663216,0.0104349916800856,-0.0565081872045993,0.0036902707070112,0.0047938413918018,-0.996106505393982,0.0879500284790992,-0.0152572757625317,0.0126809096690792,-0.0485209187043936,-0.0130876898765563,0.4363894462585449,-0.6203765869140625,45,115,13001,13008
21.5,1788520673746,5.126760482788086,4.957746505737305,0.0040880492888391,0.0047535207122564,-0.993971049785614,0.1094637215137481,0.1749845265205376,0.0016625152807174,2.6993025557040016e-05,0.006373228970915,0.0179786700755357,-0.0158942192792892,0.0042945919558405,0.0047484543174505,-0.9961528778076172,0.0873985141515731,-0.0078547303390796,0.0133574433210794,-0.025762116908618,-0.1392927765846252,0.1212730407714843,0.718109130859375,69,58,14289,12022
21.6,1788520673846,5.183098793029785,4.873239517211914,0.003808669745922,0.004686726257205,-0.9940630197525024,0.1086383685469627,0.1750106226942276,0.002312748297358,8.846724551778677e-06,0.0019248679745942,-0.0136737655848264,-0.0403956696391105,0.003269562497735,0.0046701729297637,-0.9964125752449036,0.0844368115067482,-0.0141165553994247,-0.0656309451626512,-0.0849847369381768,-0.5528488755226135,-0.2141698002815246,3.0195178985595703,54,60,14146,12188
21.7,1788520673946,5.070422649383545,5.014084339141846,0.00344685674645,0.0037302465643733,-0.994320034980774,0.1063098683953285,0.1726047818991964,0.0030032918847054,0.0001098266401427,0.0482411794364452,-0.0139750242233276,-0.0313248001039028,0.0033928602933883,0.0030116010457277,-0.9964885115623474,0.0836075693368911,0.0123635421680533,0.0231850931738301,-0.0358541975690484,-0.1751611828804016,-0.3096473813056946,0.7594470977783203,55,57,13527,12710
21.8,1788520674046,5.098591327667236,5.098591327667236,0.0038912813179194,0.004115518182516,-0.9946242570877076,0.1033946126699447,0.1733154888897634,0.0025823959493272,-3.91976042512485e-05,-0.0012175822630524,0.0110847540199756,-0.0109873013570904,0.0039602909237146,0.004024650901556,-0.9966641664505004,0.0814172625541687,0.0043745934417335,-0.0077810622671867,0.0083107448047589,0.0842219591140747,-0.1599062085151672,0.2963981628417969,77,82,13569,12952
21.9,1788520674146,5.126760482788086,5.042253494262695,0.0038912813179194,0.004115518182516,-0.9946242570877076,0.1033946126699447,0.1703701753168574,0.0002884697745919,6.546820207542611e-10,0.0,0.0,0.0,0.0040280269458889,0.0039406483992934,-0.996629536151886,0.0818396583199501,-0.0075894494782494,-0.0107973773672997,0.003971414330369,-0.0374248623847961,0.298531174659729,-0.5633888244628906,66,86,13205,12833
22.0,1788520674246,5.126760482788086,5.042253494262695,0.0040693790651857,0.0039694118313491,-0.9945930242538452,0.1036936044692993,0.1751152453074894,0.0014272993939488,-2.3222768100316704e-08,0.0,0.0,0.0,0.0042403414845466,0.0040409723296761,-0.9966149926185608,0.0820019468665123,-0.0098194568230168,-7.535457109394385e-05,0.0167925799215814,0.1498752236366272,0.3277149200439453,0.044830322265625,66,72,13135,12843
22.1,1788520674346,4.901408672332764,5.070422649383545,0.0040693790651857,0.0039694118313491,-0.9945930242538452,0.1036936044692993,0.1725724318253102,0.0009000197536408,-4.416092904905007e-09,0.0,0.0,0.0,0.003684158436954,0.0038763126358389,-0.9965807199478148,0.0824514850974083,-0.0025064430438887,-0.0200108048721854,0.0083862528261612,-0.1871250867843628,-0.0920573472976684,-0.1776065826416015,74,50,13514,12326
22.2,1788520674446,4.901408672332764,5.042253494262695,0.004072539974004,0.0040379948914051,-0.994518220424652,0.1044063344597816,0.1636873333875965,-0.0001865613420669,-0.0001273986300699,-0.0030119377188384,0.0254334900528192,0.000213300838368,0.0043858485296368,0.0038772514089941,-0.9965208768844604,0.0831381231546402,-0.001362646601608,-0.0091235292106324,0.0387887093258694,0.1255209445953369,0.12129408121109,0.6698102951049805,111,73,14123,12761
22.3,1788520674546,5.070422649383545,5.070422649383545,0.0037660733796656,0.0037363388109952,-0.99442857503891,0.1052789390087127,0.171259226173517,0.0002065783802329,8.162748149844598e-05,0.0047760843299329,-0.0156714189797639,0.0051066600717604,0.0035409592092037,0.0034178327769041,-0.9965270161628724,0.0831253305077552,0.0018594542231562,-0.0061719431313405,-0.0043474080705301,-0.0357721447944641,-0.1048700213432312,-0.2418184280395507,54,53,13547,12587
22.4,1788520674646,5.014084339141846,5.070422649383545,0.0032980241812765,0.003457486629486,-0.9944454431533812,0.1051448136568069,0.1667504216028184,-0.0014403889330679,3.958389918234124e-05,0.0111175188794732,-0.0240432173013687,-0.0066072437912225,0.0035491529852151,0.0032222019508481,-0.9965378642082214,0.0830021053552627,0.0046688448265572,0.0136499162465197,-0.0060811246747598,0.036874771118164,0.234933853149414,-0.1151332855224609,60,54,13661,12525
22.5,1788520674746,5.126760482788086,5.126760482788086,0.0030713875312358,0.0032896294724196,-0.9944642186164856,0.1049792915582656,0.175397062587181,0.0006542874420796,4.9279623492402646e-05,0.0006990690599195,-0.0136807188391685,-0.0051859291270375,0.00317985098809,0.0033793840557336,-0.9965736865997314,0.0825801268219947,-0.0064042379836826,-0.0213247204604214,-0.0060927926493586,-0.2087410688400268,-0.2924397587776184,1.0291242599487305,64,52,13339,12529
22.6,1788520674846,4.957746505737305,5.042253494262695,0.0030484145972877,0.0032692705281078,-0.994476079940796,0.1048682108521461,0.1780887692897142,0.0012693614161075,-9.939985646773132e-09,0.0055043827742338,-0.020806897431612,0.0073585687205195,0.0060973297804594,0.0037328666076064,-0.9965526461601256,0.0826548263430595,-0.0144037206562509,0.0698144553518658,-0.0260743756963346,0.4131854772567749,-0.3235688209533691,0.3575172424316406,81,72,13770,12646
22.7,1788520674946,5.126760482788086,5.211267471313477,0.0046223411336541,0.0037154117599129,-0.9944830536842346,0.1047299429774284,0.1698851254073719,0.00213770875892,0.0004483616736496,0.011730583384633,-0.0989560708403587,0.0069570424966514,0.0047530625015497,0.0034388173371553,-0.9965347647666932,0.0829700455069542,0.0144040204691565,-0.0478263957579408,0.0199680793638612,-0.0739884376525878,0.5203110575675964,2.641407012939453,73,73,13277,12233
22.8,1788520675046,5.126760482788086,5.098591327667236,0.0040854150429368,0.0036004460416734,-0.994461715221405,0.1049583330750465,0.1877329490188651,0.0035300457880133,-0.0001186390388498,0.0027665568049997,-0.0265540331602096,0.0110682621598243,0.0038583120331168,0.0035591339692473,-0.9965214133262634,0.0831716954708099,-0.0065380760074213,0.0255371400540289,0.010413291895014,0.0231192708015441,-0.2975928783416748,-0.5808267593383789,97,94,13533,12815
22.9,1788520675146,4.929577350616455,5.239436626434326,0.0031578047201037,0.0034077719319611,-0.9944307804107666,0.1052895411849021,0.1709511174408539,-0.0005500639723483,0.000199783759767,0.009578519500792,-0.0399600863456726,0.0066113644279539,0.003459982573986,0.003427262417972,-0.9966537356376648,0.0815949067473411,-0.0123111413567752,0.0355349661696593,-0.0698773099341089,0.0433869957923889,-0.162382423877716,-1.203171730041504,59,74,12819,13178
23.0,1788520675246,5.042253494262695,5.014084339141846,0.0034571185242384,0.0041105062700808,-0.994667947292328,0.1029891371726989,0.1706744619415789,0.0018368746410988,1.498066176817193e-08,-0.019839446991682,0.0078214537352323,0.004534741397947,0.0035626096650958,0.0040841326117515,-0.9966992139816284,0.0810010656714439,-0.0195154802666826,-0.0015920422630821,0.0200736959763574,0.0545035600662231,0.1780285835266113,0.4607620239257812,129,43,14449,11951
23.1,1788520675346,5.464788913726807,4.901408672332764,0.004475534427911,0.004252303391695,-0.9946237206459044,0.1033706441521644,0.1691568305002174,0.0001622243332151,6.8476052403951785e-09,0.0035577600356191,-0.0056799333542585,-0.023855522274971,0.004535392858088,0.0042116018012166,-0.9966459274291992,0.0816005915403366,0.0031101153512853,-0.0123239827453397,-0.0381456844374603,-0.0886889696121215,-0.0735403895378112,-0.9212713241577148,79,57,13275,12157
23.2,1788520675446,5.239436626434326,4.901408672332764,0.0043393257074058,0.0042426735162734,-0.9947516322135924,0.1021387055516243,0.1675180446971816,-0.0012324513657836,-2.7732586449275685e-05,7.598626689286903e-05,-0.0064375903457403,-0.0605179108679294,0.0033031459897756,0.0040247421711683,-0.9969059228897096,0.0784315839409828,0.003819408967966,-0.0631764588852562,-0.0450872815933765,-0.0927833914756774,-0.0367271900177001,-0.7450723648071289,51,60,13791,12139
23.3,1788520675546,5.295774459838867,4.8450703620910645,0.0033001520205289,0.0041102431714534,-0.9949225783348083,0.1005054116249084,0.1692305590626825,0.0001080964030062,0.0001786989612014,0.0019926908425986,-0.034945610910654,-0.0279429238289594,0.0035490998998284,0.0028882892802357,-0.9969360828399658,0.0780866667628288,0.059964042548831,0.0427248015234825,0.0169595530721341,0.2339549660682678,0.0033556222915649,-0.2057771682739257,107,51,13708,12237
23.4,1788520675646,5.154929637908936,4.816901206970215,0.0027551434468477,0.0013837579172104,-0.9949933886528016,0.0998927727341651,0.1738490777712335,-0.0037252348496777,2.146651909086755e-05,-0.0022109772544354,0.024708092212677,-0.0346942394971847,0.0024168249219655,0.0016598617658019,-0.9970656037330629,0.0764959678053855,-0.0313554662682625,-0.0022217327921022,-0.1267043056917556,-0.1704060435295105,-0.4335106015205383,0.0151081085205078,83,47,14276,11887
23.5,1788520675746,5.352112770080566,4.704225540161133,0.0030726406257599,0.0022999311331659,-0.9955361485481262,0.0943034216761589,0.1613904428519256,-0.002513208077063,-2.9581275142548864e-05,-0.0110599715262651,0.0232643466442823,-0.0835998058319091,0.0030921334400773,0.0023521715775132,-0.99740070104599,0.0719500854611396,-0.0202063956533208,0.0231701837101096,-0.0524115123117405,-0.05265474319458,0.0018457770347595,-0.8109893798828125,68,133,13680,13384
23.6,1788520675846,5.183098793029785,4.929577350616455,0.0030122755561023,0.0026927494909614,-0.9956749081611632,0.0928183048963546,0.1763431700580555,0.0001272841917372,3.922842059836724e-06,-0.0195908527821302,-0.0010029555996879,-0.0746344402432441,0.0029785176739096,0.0026858355849981,-0.9976412057876588,0.068526841700077,0.0088647726976981,0.0016021026979945,-0.0615319937403394,-0.1855524182319641,0.1799395084381103,0.3785276412963867,60,94,13866,12463
23.7,1788520675946,5.098591327667236,4.816901206970215,0.0029366293456405,0.0027971058152616,-0.9960312843322754,0.088912546634674,0.1752328747493705,0.0022092004521953,2.4215084809965133e-05,0.0026021457742899,0.0003356577362865,-0.0656451135873794,0.0029872152954339,0.0026740171015262,-0.9978252053260804,0.0657933577895164,-0.0005656288252408,-0.0016696990226855,-0.0460038222418512,0.1330713033676147,-0.0909270048141479,-0.9506607055664062,65,77,14202,12659
23.8,1788520676046,5.126760482788086,5.070422649383545,0.0034391356166452,0.0027024976443499,-0.9961323738098145,0.0877557843923568,0.1767705696335186,0.001044030467215,-4.632725720701483e-05,0.0045157135464251,0.0198856238275766,-0.0253423955291509,0.0026858234778046,0.0023191273212432,-0.9978516697883606,0.0654173046350479,0.0164363796859354,-0.0055267216326751,-0.0253377352548307,-0.0837083458900451,0.2947158813476562,1.999135971069336,66,66,13065,12650
23.9,1788520676146,5.126760482788086,4.985915660858154,0.0018857223913073,0.0023060704115778,-0.9962561130523682,0.0863998979330062,0.1730533547418069,0.0034454478819563,-4.322108185178679e-05,-0.0002329449489479,-0.0237204656004905,-0.0244253240525722,0.001978694461286,0.0023444574326276,-0.9979283213615416,0.0642633512616157,0.0032820946875122,-0.0585955719749268,-0.0264008624514172,0.0728102922439575,-0.4709653258323669,-0.5652370452880859,89,115,12938,13147
24.0,1788520676246,5.070422649383545,5.042253494262695,0.0027244258671998,0.0021711103618144,-0.9961435794830322,0.0876688584685325,0.1695558954190132,-0.001495908603553,-9.900773360001974e-05,0.0102235134690999,0.0411004461348056,0.0638697445392608,0.0017076199874281,0.0022364323958754,-0.9977748394012452,0.066614918410778,0.0007431152301388,-0.0643650806934508,0.0140555307661439,0.0185873508453369,-0.2125695347785949,1.3160905838012695,66,91,13329,12806
24.1,1788520676346,4.816901206970215,5.070422649383545,0.0016902565257623,0.0022683748975396,-0.9960614442825316,0.0886202529072761,0.1677496182252458,-0.0042331366974241,0.0001176418826444,-0.0062948619015514,-0.0247025955468416,0.0165577419102191,0.0023980364203453,0.002748429775238,-0.9977648258209229,0.066723383963108,-0.0178151736680866,0.0358035481345608,0.0022119163628099,0.0286085605621337,0.0794106125831604,-0.4642753601074219,61,110,14472,12894
24.2,1788520676446,4.957746505737305,5.014084339141846,0.0024674080777913,0.0027649442199617,-0.996038019657135,0.0888514220714569,0.1745635412203631,0.0006622938355971,1.2597120769800268e-08,-0.0027810300234705,0.0096544735133647,0.0037239780649542,0.003340701572597,0.0030323816463351,-0.9977534413337708,0.0668415874242782,-0.0135206284123115,0.0404868858667257,-0.004644977596403,0.1111218333244323,0.064869225025177,-0.9879999160766602,34,66,13671,12879
24.3,1788520676546,4.985915660858154,5.014084339141846,0.0037135719321668,0.0030747819691896,-0.9960092902183532,0.0891198888421058,0.1639942260935745,-0.0042494391918334,4.656362174537915e-09,-0.0028510531410574,0.0348627679049968,0.0105634601786732,0.0076420260593295,0.0034919725731015,-0.9977489709854126,0.0665323808789253,-0.0117700810249644,0.1420720054533714,-0.0301096778742189,0.3713023662567138,0.0384554862976074,0.9358816146850586,99,84,13908,12833
24.4,1788520676646,4.929577350616455,5.042253494262695,0.0067137009464204,0.0035529138986021,-0.996027946472168,0.0887165442109108,0.1755885403117377,-4.400127542306714e-05,-0.0001878842809387,0.0023132648784667,0.0153705663979053,-0.0005187469650991,0.0069452263414859,0.003594109788537,-0.9977535009384156,0.0665353164076805,-0.0054123032831225,0.1851939505649706,-0.0212289923252665,0.1952512264251709,0.0079623460769653,1.128708839416504,74,71,13925,12653
24.5,1788520676746,4.957746505737305,5.042253494262695,0.0058908937498927,0.0037523943465203,-0.9960759282112122,0.0882268324494361,0.1754348491862318,-0.0004488794576055,-0.0002538652415937,-0.0060133282095193,-0.0059657469391822,-0.0195938888937234,0.0070848008617758,0.0036620870232582,-0.9977737665176392,0.0662109553813934,-0.0088956401394975,0.0247686325332022,-0.0062465407812881,-0.1603302359580993,0.1797588467597961,2.2053279876708984,57,97,13759,12689
24.6,1788520676846,4.816901206970215,5.098591327667236,0.0072485799901187,0.0038622370921075,-0.9960657954216005,0.088234931230545,0.1739862459574573,-0.0015035545074238,-2.42145797160382e-05,-0.000875576341059,0.0096644256263971,-7.680003182031214e-05,0.0075466157868504,0.003850040026009,-0.9977735877037048,0.0661524683237075,-0.002116759809657,0.0328779385938683,-0.0057876427908261,-0.2023320198059082,-0.4778146743774414,1.898832321166992,47,64,14122,12589
24.7,1788520676946,4.929577350616455,4.985915660858154,0.0082103470340371,0.0039918213151395,-0.9960122108459472,0.0887491926550865,0.1699410677193675,0.0004819444538956,-6.874537489380816e-05,-0.002994984621182,0.0381511263549327,0.0105305677279829,0.0082840956747531,0.0043105194345116,-0.997743844985962,0.0664844959974289,-0.0119117658399218,0.0409089949723678,-0.0131645530165937,-0.1736509203910827,-0.3800028562545776,2.132115364074707,74,126,13678,13145
24.8,1788520677046,5.295774459838867,4.816901206970215,0.0080643314868211,0.0046638553030788,-0.9959951043128968,0.088921420276165,0.1605570119665607,-0.0083318830132594,-7.109382262238563e-05,-0.0092614805325865,-0.0054253390990197,0.0205430686473846,0.0079300189390778,0.0048306034877896,-0.997732937335968,0.0666554048657417,-0.0082256579758779,-0.0206346659873741,-0.011843035197272,-0.0363414883613586,0.1975358128547668,1.6967973709106443,86,73,13590,12494
24.9,1788520677146,5.267605781555176,4.985915660858154,0.0083845695480704,0.0049152229912579,-0.9961350560188292,0.0872949883341789,0.1833178033543503,0.000558391072681,-0.0001189058362633,0.0062463344074785,0.0199833773076534,-0.0272960495203733,0.0080694919452071,0.0048132911324501,-0.9978420734405518,0.0649845674633979,-0.0043530071373082,-0.0412663996730797,-0.0312441241093766,0.2330604791641235,0.1255939602851867,-0.8299999237060547,65,68,13885,11892
25.0,1788520677246,4.816901206970215,5.239436626434326,0.0081503205001354,0.0043598632328212,-0.9961925745010376,0.0866886228322982,0.1736659334880838,0.0008855256758713,0.0001073899657057,0.0212244503200054,-0.0110168689861893,-0.0238827690482139,0.008309113793075,0.0035503664985299,-0.9978495836257936,0.0649194121360778,0.011710688905411,-0.0228182182542579,0.0081519664349824,0.0207980275154113,-0.0830462574958801,1.186753273010254,56,53,13142,13015
25.1,1788520677346,4.8450703620910645,5.267605781555176,0.0073027177713811,0.0024244487285614,-0.996094524860382,0.0879576653242111,0.1792601889053881,-0.0005916883447875,6.962968753400901e-05,0.0485798493027687,-0.0415718890726566,0.0407899357378482,0.0086260624229907,0.0030545704066753,-0.9977445602416992,0.066499039530754,-0.05632453942104,0.081291040380741,0.0094549878850974,-0.2847456932067871,0.2210322618484497,0.6608963012695312,50,65,13054,12582
25.2,1788520677446,4.816901206970215,5.239436626434326,0.0080861616879701,0.0037496406584978,-0.9961925745010376,0.086724042892456,0.1644803065592208,0.0012064105749188,9.479943453053848e-05,-0.0122126918286085,-0.0144029036164283,-0.0735126659274101,0.008534051477909,0.0033591855317354,-0.9977900385856628,0.065809927880764,0.0065918780742684,-0.0159248858369803,0.0715825912067489,0.1814783811569214,0.233005940914154,-0.6636486053466797,48,68,13694,12590
25.3,1788520677546,4.985915660858154,5.042253494262695,0.0077901319600641,0.0036416233051568,-0.9959986209869384,0.088954247534275,0.1757474240832265,0.0001337459464225,8.175116106793976e-05,-0.00540864886716,-0.0268204715102911,0.045733094215393,0.0082374457269907,0.0039086835458874,-0.9977304339408876,0.0667151287198066,-0.0230334241218615,0.0358495972744152,-0.0141120684073938,-0.0091975927352905,0.1210858225822448,-0.5560722351074219,49,94,13506,12683
25.4,1788520677646,5.267605781555176,5.098591327667236,0.0078526409342885,0.0041538351215422,-0.9960252046585084,0.0886281579732894,0.1734943485181496,-0.0009986968361727,8.532582521537042e-05,-0.0035369168035686,-0.011466865427792,-0.0045631872490048,0.0073066735640168,0.004293505102396,-0.9977155923843384,0.0670209825038909,-0.0110817222088352,-0.007714194727902,0.0160807278838332,0.0567005276679992,0.1215917468070983,-0.4139585494995117,74,62,12514,12487
25.5,1788520677746,5.042253494262695,5.070422649383545,0.0074820797890424,0.0045632468536496,-0.9959683418273926,0.0892767906188964,0.1751712618050274,0.0024150698784916,2.116063730397362e-05,-0.0080276140943169,0.0053343661129474,0.0116606596857309,0.0076684840023517,0.0043873786926269,-0.9976418018341064,0.0680643543601036,-0.0062396998830409,0.0061602262811241,0.0276635985220587,-0.0467234849929809,0.1742093563079834,-0.8272476196289062,65,89,12066,13710
25.6,1788520677846,4.985915660858154,5.239436626434326,0.0083238389343023,0.0046442421153187,-0.9958088994026184,0.0909599512815475,0.1700154543939514,-0.0012438103160401,-0.0001403195200407,-0.0013609291054308,0.0378026403486728,0.0439615622162818,0.007959789596498,0.0041653020307421,-0.9974719882011414,0.0704915598034858,0.019587071814431,-0.0044303194697933,0.0638337108785913,0.0669081807136535,-0.0471943020820617,-1.483686447143555,88,67,12574,13057
25.7,1788520677946,4.760563373565674,5.098591327667236,0.0076254564337432,0.0045387758873403,-0.9955601692199708,0.0937084406614303,0.1783765417349581,0.0003891654991225,-4.035927813048511e-06,-0.0055121495388448,-0.0113049028441309,0.0456325933337211,0.0077116349712014,0.0047021973878145,-0.997311532497406,0.0727191418409347,-0.0022356738608854,0.0030305636710251,0.0294286064658892,-0.1106577515602111,-0.153029978275299,0.2334108352661132,39,58,13249,13494
25.8,1788520678046,5.042253494262695,5.042253494262695,0.007257324643433,0.0053489813581109,-0.9952335953712464,0.0971021503210067,0.1728637279472854,0.0011155141347464,-6.28162403125812e-05,-0.0107567980885505,-0.0161974355578422,0.0384635962545871,0.0075742900371551,0.0051402961835265,-0.9971299171447754,0.0751539468765258,-0.0086178673946194,-0.0329271912675464,0.0404385902522651,0.0615555644035339,0.0628782510757446,-0.566136360168457,44,58,13379,12515
25.9,1788520678146,5.239436626434326,5.098591327667236,0.0072275516577064,0.0050469161942601,-0.99514502286911,0.0980233177542686,0.1827347160618292,-0.0016507164374195,8.819586628606749e-05,0.0123642012476921,-0.0026911890599876,0.0394620262086391,0.0073032425716519,0.0050556138157844,-0.9970137476921082,0.0767126902937889,0.0017072505805137,-0.0030159319951479,0.0343518434318922,-0.158160924911499,0.0196346640586853,-0.5922107696533203,78,65,12619,12298
26.0,1788520678246,4.8450703620910645,5.014084339141846,0.0075346897356212,0.0052000489085912,-0.994970202445984,0.0997524037957191,0.175061382730305,-0.0002519316926603,-4.031087997267363e-05,-0.0072171348147094,0.0108398869633674,0.0377327315509319,0.0129540730267763,0.0050458945333957,-0.9968701004981996,0.0778256654739379,0.0038817760027503,0.1715262900617159,-0.0347151556643605,-0.6621416807174683,0.0320618152618408,1.9904937744140625,119,63,14365,12551
26.1,1788520678346,4.8450703620910645,5.295774459838867,0.0104647278785705,0.0052162450738251,-0.9950066208839417,0.099122017621994,0.185248967991615,0.0008484202672276,-4.607170701350902e-06,-0.0006874218233861,-0.0644381567835807,-0.0433867834508419,0.0090366974472999,0.0050887092947959,-0.997012972831726,0.0765346363186836,0.0025855822183409,-0.1084398500520072,-0.003256199104217,0.0023697614669799,0.0288524031639099,-1.316981315612793,51,85,12589,12826
26.2,1788520678446,4.873239517211914,5.014084339141846,0.0076973568648099,0.0053373491391539,-0.9950351715087892,0.0990822911262512,0.1758756460430431,-0.0017209941324006,0.0001684020959431,-0.0075619318522512,-0.0503804683685302,0.018633134663105,0.0075596906244754,0.0052557056769728,-0.9968907237052916,0.0782577544450759,-0.0067008502775708,0.0005305760967702,0.0457938813277996,-0.0477563738822937,-0.0395013093948364,0.8419208526611328,83,76,12348,12856
26.3,1788520678546,5.014084339141846,5.323943614959717,0.0067573934793472,0.0053080269135534,-0.9948074817657472,0.1014111191034317,0.1817923042915694,0.0022328230857447,0.0001101389532731,-0.0035302529577165,-0.0404947698116302,0.0809135288000106,0.0067157475277781,0.0047849100083112,-0.9966667890548706,0.0811627954244613,0.0173310799472902,-0.0332072077186952,0.0556729087609275,-0.0119987726211547,0.0477851033210754,-1.265787124633789,45,61,12463,12747
26.4,1788520678646,5.070422649383545,5.042253494262695,0.007206393405795,0.0050717121921479,-0.9945654273033142,0.1037393137812614,0.1804017124631878,0.0026077360998899,-9.525206923755748e-05,-0.0025722405407577,0.0299495831131935,0.0441055782139301,0.0073893768712878,0.0053017465397715,-0.9965966939926147,0.0819287300109863,-0.0105777319472744,0.0266084696099693,-0.0105645510455507,0.0965324640274047,0.0422634482383728,-0.5088033676147461,63,68,13332,12504
26.5,1788520678746,5.183098793029785,4.957746505737305,0.0072700371965765,0.0053533352911472,-0.9945501685142516,0.1038676649332046,0.1749219951794948,-0.0008759047706933,-2.683690825380823e-05,0.0001602232368895,0.0047721681185066,-0.007855799049139,0.0068067414686083,0.0052677262574434,-0.9965811967849731,0.0821693837642669,-0.0127507962207722,-0.031268175066305,-0.0017505615465049,0.2108884453773498,-0.2417696118354797,-0.9125213623046876,87,66,12814,12851
