time_s,timestamp_ms,wheel_vels__velocity_left,wheel_vels__velocity_right,odom__orient_x,odom__orient_y,odom__orient_z,odom__orient_w,odom__lin_x,odom__lin_y,odom__lin_z,odom__ang_x,odom__ang_y,odom__ang_z,imu__orient_x,imu__orient_y,imu__orient_z,imu__orient_w,imu__angvel_x,imu__angvel_y,imu__angvel_z,imu__acc_x,imu__acc_y,imu__acc_z,wheel_status__current_ma_left,wheel_status__current_ma_right,wheel_status__pwm_left,wheel_status__pwm_right
0.0,1788352223735,0.0,0.0,-0.0014909291639924,0.0022472005803138,-0.9496631026268004,0.3132613897323608,0.0,0.0,0.0,0.0,0.0,0.0,-0.0019351746886968,0.0018300609663128,-0.8463974595069885,0.5325450301170349,0.0005616757112231,0.0031072208948517,0.0014863223789753,-0.0102820396423339,-0.005117654800415,-0.0104312896728515,0,0,0,0
0.1,1788352223835,0.0,0.0,-0.0014909291639924,0.0022472005803138,-0.9496631026268004,0.3132613897323608,0.0,0.0,0.0,0.0,0.0,0.0,-0.0019351746886968,0.0018300609663128,-0.8463974595069885,0.5325450301170349,0.0005616757112231,0.0031072208948517,0.0014863223789753,-0.0102820396423339,-0.005117654800415,-0.0104312896728515,0,0,0,0
0.2,1788352223935,0.0,0.0,-0.0014909291639924,0.0022472005803138,-0.9496631026268004,0.3132613897323608,0.0,0.0,0.0,0.0,0.0,0.0,-0.0019351746886968,0.0018300609663128,-0.8463974595069885,0.5325450301170349,0.0005616757112231,0.0031072208948517,0.0014863223789753,-0.0102820396423339,-0.005117654800415,-0.0104312896728515,0,0,0,0
0.3,1788352224035,0.0,0.0,-0.0014909291639924,0.0022472005803138,-0.9496631026268004,0.3132613897323608,0.0,0.0,0.0,0.0,0.0,0.0,-0.0019351746886968,0.0018300609663128,-0.8463974595069885,0.5325450301170349,0.0005616757112231,0.0031072208948517,0.0014863223789753,-0.0102820396423339,-0.005117654800415,-0.0104312896728515,0,0,0,0
0.4,1788352224135,0.0,0.0,-0.0014909291639924,0.0022472005803138,-0.9496631026268004,0.3132613897323608,0.0,0.0,0.0,0.0,0.0,0.0,-0.0019351746886968,0.0018300609663128,-0.8463974595069885,0.5325450301170349,0.0005616757112231,0.0031072208948517,0.0014863223789753,-0.0102820396423339,-0.005117654800415,-0.0104312896728515,0,0,0,0
0.5,1788352224235,0.0,0.0,-0.0014909291639924,0.0022472005803138,-0.9496631026268004,0.3132613897323608,0.0,0.0,0.0,0.0,0.0,0.0,-0.0019351746886968,0.0018300609663128,-0.8463974595069885,0.5325450301170349,0.0005616757112231,0.0031072208948517,0.0014863223789753,-0.0102820396423339,-0.005117654800415,-0.0104312896728515,0,0,0,0
0.6,1788352224335,0.0,0.0,-0.0014909291639924,0.0022472005803138,-0.9496631026268004,0.3132613897323608,0.0,0.0,0.0,0.0,0.0,0.0,-0.0019351746886968,0.0018300609663128,-0.8463974595069885,0.5325450301170349,0.0005616757112231,0.0031072208948517,0.0014863223789753,-0.0102820396423339,-0.005117654800415,-0.0104312896728515,0,0,0,0
0.7,1788352224435,0.0,0.0,-0.0014909291639924,0.0022472005803138,-0.9496631026268004,0.3132613897323608,0.0,0.0,0.0,0.0,0.0,0.0,-0.0019351746886968,0.0018300609663128,-0.8463974595069885,0.5325450301170349,0.0005616757112231,0.0031072208948517,0.0014863223789753,-0.0102820396423339,-0.005117654800415,-0.0104312896728515,0,0,0,0
0.8,1788352224535,0.0,0.0,-0.0014909291639924,0.0022472005803138,-0.9496631026268004,0.3132613897323608,0.0,0.0,0.0,0.0,0.0,0.0,-0.0019351746886968,0.0018300609663128,-0.8463974595069885,0.5325450301170349,0.0005616757112231,0.0031072208948517,0.0014863223789753,-0.0102820396423339,-0.005117654800415,-0.0104312896728515,0,0,0,0
0.9,1788352224635,0.0,0.0,-0.0014909291639924,0.0022472005803138,-0.9496631026268004,0.3132613897323608,0.0,0.0,0.0,0.0,0.0,0.0,-0.0019351746886968,0.0018300609663128,-0.8463974595069885,0.5325450301170349,0.0005616757112231,0.0031072208948517,0.0014863223789753,-0.0102820396423339,-0.005117654800415,-0.0104312896728515,0,0,0,0
1.0,1788352224735,0.0,0.0,-0.0014909291639924,0.0022472005803138,-0.9496631026268004,0.3132613897323608,0.0,0.0,0.0,0.0,0.0,0.0,-0.0019351746886968,0.0018300609663128,-0.8463974595069885,0.5325450301170349,0.0005616757112231,0.0031072208948517,0.0014863223789753,-0.0102820396423339,-0.005117654800415,-0.0104312896728515,0,0,0,0
1.1,1788352224835,0.0,0.0,-0.0014909291639924,0.0022472005803138,-0.9496631026268004,0.3132613897323608,0.0,0.0,0.0,0.0,0.0,0.0,-0.0019351746886968,0.0018300609663128,-0.8463974595069885,0.5325450301170349,0.0005616757112231,0.0031072208948517,0.0014863223789753,-0.0102820396423339,-0.005117654800415,-0.0104312896728515,0,0,0,0
1.2,1788352224935,0.0,0.0,-0.0014909291639924,0.0022472005803138,-0.9496631026268004,0.3132613897323608,0.0,0.0,0.0,0.0,0.0,0.0,-0.0019351746886968,0.0018300609663128,-0.8463974595069885,0.5325450301170349,0.0005616757112231,0.0031072208948517,0.0014863223789753,-0.0102820396423339,-0.005117654800415,-0.0104312896728515,0,0,0,0
1.3,1788352225035,0.0,0.0,-0.0014771693386137,0.0022584774997085,-0.9496607184410096,0.3132686614990234,-0.000189912498454,-0.0002436777751798,-1.0088187731415195e-06,-0.0010482642101123,-0.001582869561389,0.0002180115407099,-0.001981190405786,0.001815871335566,-0.8463810086250305,0.5325710773468018,0.0013941430854283,-0.0020371792677268,0.0014439569113031,-0.0147807598114013,0.0094658136367797,0.0075998306274414,0,0,0,0
1.4,1788352225135,0.0,0.0,-0.0014890616293996,0.0022273960057646,-0.9496524333953856,0.313293993473053,9.291654277407796e-05,-0.0001065514714768,-6.84893745275299e-07,0.0010308781638741,-0.0008427537977695,0.0010605900315567,-0.0019945707172155,0.0017871689051389,-0.8463937640190125,0.5325508117675781,-0.0001434047164315,0.0001204803441827,-0.0014854564985752,-0.0260652303695678,-0.0177646279335021,-0.0086145401000976,0,0,0,0
1.5,1788352225235,0.0,0.0,-0.0014966272283345,0.002208883408457,-0.9496592879295348,0.3132734000682831,0.0002861119814056,0.0003042037563829,1.1441945378121189e-06,0.0,-1.3656988429033845e-08,0.0,-0.0019626757130026,0.0017366791144013,-0.8463852405548096,0.532564640045166,0.0019270230332536,-0.0010955736847709,0.0002246744397126,0.0062780380249023,0.0097810626029968,0.0004596710205078,0,0,0,0
1.6,1788352225335,0.0,0.0,-0.0014999689301475,0.0021608397364616,-0.949656903743744,0.3132808804512024,0.0,0.0,0.0,0.0,4.583200041707869e-09,0.0,-0.0019185487180948,0.0017655966803431,-0.8463804125785828,0.5325725078582764,-0.0003248720074687,0.0011915309537315,-0.0001112443737071,0.0037388801574707,0.0026267170906066,-0.0031328201293945,0,0,0,0
1.7,1788352225435,0.0,0.0,-0.0014143413864076,0.0022355250548571,-0.9496536254882812,0.3132908344268799,-0.0002295796907816,-0.000198519466979,-6.767418789462982e-07,-0.0025475702714174,0.0021800526883453,-0.0002310560375917,-0.001884545199573,0.001861285418272,-0.846378743648529,0.5325748324394226,-0.0008543064757402,0.0025743803691692,0.000423282681634,-0.0072666406631469,0.0109869241714477,0.0184526443481445,0,0,0,0
1.8,1788352225535,0.0,0.0,-0.0013908760156482,0.0022579804062843,-0.9496518969535828,0.3132957518100738,1.7316806721888823e-05,-2.014644128722687e-05,-1.256575501229322e-07,-0.0005519851110875,0.0011579111451283,0.0002096001553582,-0.0019030543044209,0.0018450189381837,-0.8463830947875977,0.5325679779052734,0.0002064556427671,-0.0006071614674054,-0.0001247865560335,0.0066443681716918,-0.0141561031341552,-0.0121307373046875,0,0,0,0
1.9,1788352225635,0.0,0.0,-0.0013708060141652,0.0022451537661254,-0.9496492743492126,0.3133038580417633,-0.0001501834023233,-0.000293841817886,-1.3275361669206671e-06,0.0006692947936244,0.0010386855574324,0.0006807063473388,-0.0018823305144906,0.0018748147413134,-0.8463740348815918,0.5325823426246643,-0.0013899554828165,0.0002893875204587,0.0002400301700507,-0.0016829967498779,0.0040156841278076,0.0148687362670898,0,0,0,0
2.0,1788352225735,0.0,0.0,-0.0013487937394529,0.0023063002154231,-0.9496451020240784,0.3133162260055542,3.947063952682645e-05,-4.528478219726223e-05,-2.814583173569844e-07,-0.0009237438207492,0.001430333009921,0.0004576229548547,-0.0018538692966103,0.0018942067399621,-0.8463626503944397,0.532600462436676,0.0010013088340627,-5.713904442833448e-05,-0.0005960023179976,-0.020759105682373,-0.0264663696289062,0.0040187835693359,0,0,0,0
2.1,1788352225835,0.0,0.0,-0.0013281011488288,0.002298129023984,-0.9496439695358276,0.3133198022842407,-3.2254252281126504e-05,3.692007795553881e-05,2.2866255003256698e-07,-4.532046295935288e-05,0.0012201587669551,-0.0003723667759913,-0.0018616672605276,0.0018842620775103,-0.8463507890701294,0.532619297504425,3.256023629616112e-05,-0.0009502902014958,0.0004081279476469,-0.0173949003219604,0.0129599571228027,0.0059232711791992,0,0,0,0
2.2,1788352225935,0.0,0.0,-0.0013730945065617,0.0022645313292741,-0.9496399164199828,0.3133321404457092,-5.950937001038265e-05,6.823455384680357e-05,4.20812635384493e-07,0.0002720955817494,-0.0010257781250402,-0.0006979031604714,-0.0018056267872452,0.001889819279313,-0.8463608026504517,0.5326036214828491,0.0009105004477476,0.0029488761333735,0.0007815730694666,-0.0092156529426574,-5.27501106262207e-05,-0.0156574249267578,0,0,0,0
2.3,1788352226035,0.0,0.0,-0.0012879277346655,0.0022759197745472,-0.949636459350586,0.3133430182933807,-0.0001071013360892,-0.0003298989478048,-1.5776319639765347e-06,0.0004198699898552,0.0023539802059531,0.0011137545807287,-0.001792368479073,0.0019184369593858,-0.8463578820228577,0.5326082110404968,-0.0009571261863685,-6.916818781670179e-05,-0.0007313755305277,0.0200260281562805,-0.0051807165145874,0.0166730880737304,0,0,0,0
2.4,1788352226135,0.0,0.0,-0.0012601224007084,0.0023056808859109,-0.949641764163971,0.3133266866207123,0.0001084471272827,0.0002200331916307,1.018123691169222e-06,-0.0006248708232305,0.0011429346632212,-0.0005446233553811,-0.0017383135855197,0.0019640121608972,-0.8463484048843384,0.532623291015625,-0.0001464652972917,0.0008185497726273,0.0018403993834479,-0.0378673076629638,-0.0031110048294067,-0.0138740539550781,0,0,0,0
2.5,1788352226235,0.0,0.0,-0.0012601224007084,0.0023056808859109,-0.949641764163971,0.3133266866207123,0.0001084471272827,0.0002200331916307,1.018123691169222e-06,-0.0006248708232305,0.0011429346632212,-0.0005446233553811,-0.0017383135855197,0.0019640121608972,-0.8463484048843384,0.532623291015625,-0.0001464652972917,0.0008185497726273,0.0018403993834479,-0.0378673076629638,-0.0031110048294067,-0.0138740539550781,0,0,0,0
2.6,1788352226335,0.0,0.0,-0.0012601224007084,0.0023056808859109,-0.949641764163971,0.3133266866207123,0.0001084471272827,0.0002200331916307,1.018123691169222e-06,-0.0006248708232305,0.0011429346632212,-0.0005446233553811,-0.0017383135855197,0.0019640121608972,-0.8463484048843384,0.532623291015625,-0.0001464652972917,0.0008185497726273,0.0018403993834479,-0.0378673076629638,-0.0031110048294067,-0.0138740539550781,0,0,0,0
2.7,1788352226435,0.0,0.0,-0.0011679849121719,0.0023383037187159,-0.9496301412582396,0.3133620321750641,2.323074939752824e-05,-2.6688490951117863e-05,-1.5610751194397638e-07,0.000434621470049,-9.276455239159986e-05,0.0002642249455675,-0.0016967253759503,0.0019974038004875,-0.8463487029075623,0.5326226353645325,-0.0005126251717627,0.0002879245897715,-0.0008295239191605,0.0008557438850402,-0.0084021687507629,0.0023088455200195,0,0,0,0
2.8,1788352226535,0.0,0.0,-0.0011336794123053,0.0023701160680502,-0.9496360421180724,0.3133441209793091,3.176937884746456e-05,-3.5930720792384075e-05,-2.0925939900235118e-07,-0.0001921568618854,0.0006927900831215,0.0003542041813489,-0.0017175804823637,0.0020076856017112,-0.8463496565818787,0.5326212644577026,-0.0010232037695595,-0.000590816955452,-0.0002898085492436,-0.0047937035560607,0.0260588526725769,0.0239572525024414,0,0,0,0
2.9,1788352226635,0.0,0.0,-0.0011403743410483,0.0023672226816415,-0.9496322870254515,0.313355416059494,4.1004902830218594e-05,-4.715735265999212e-05,-2.77548024345672e-07,0.0004791966639459,0.0012927685165777,0.0004846237425226,-0.0016712145879864,0.0020230244845151,-0.8463453054428101,0.5326281189918518,0.000200680001259,0.0002819939721218,6.33571176301417e-05,-0.0218334197998046,-0.0082754492759704,0.0148811340332031,0,0,0,0
3.0,1788352226735,0.0,0.0,-0.0011424487456679,0.0023898128420114,-0.9496323466300964,0.3133551776409149,-9.97239289244338e-06,1.2123038171888462e-05,6.998030106583078e-08,-0.000949693378061,-0.000215788022615,-0.0001294475368922,-0.001659040339291,0.0020575914531946,-0.8463424444198608,0.5326327085494995,0.0007024745993516,0.001114418508414,0.0007404827905856,-0.0194851160049438,-0.0167997479438781,0.0112695693969726,0,0,0,0
3.1,1788352226835,0.0,0.0,-0.0011000791564583,0.0023930300958454,-0.9496296048164368,0.3133634328842163,-3.2934461885845855e-05,3.714180038854896e-05,2.1392206991029322e-07,-0.0002516009262762,0.0003518819867167,-0.0003612560976762,-0.0016411691904067,0.002060797996819,-0.84635329246521,0.5326153039932251,2.7233755452857106e-05,0.0008159856715472,-0.0008287238928458,-0.0119876861572265,-0.0672279000282287,0.0111398696899414,0,0,0,0
3.2,1788352226935,0.0,0.0,-0.0010612145997583,0.0023639684077352,-0.9496378898620604,0.3133386373519897,-1.2899193009681904e-05,1.4765979336607342e-05,8.484151319646345e-08,0.0016404897905886,0.0009788169991225,-0.0001388663513353,-0.0015894128009676,0.002057165838778,-0.84637051820755,0.5325883030891418,-0.0006757121519422,0.0011639249327234,-0.0018859086744727,0.0031924843788146,0.0058633685111999,-0.0084285736083984,0,0,0,0
3.3,1788352227035,0.0,0.0,-0.001004786347039,0.0024016785901039,-0.9496477842330932,0.3133086562156677,3.332768065645445e-05,-3.781733370961426e-05,-2.110966073347903e-07,-0.0002554559323471,0.0010758753633126,0.0003802271385211,-0.0015786010771989,0.0020811213180422,-0.8463641405105591,0.5325981974601746,-0.0005124622095167,-0.0009741709081615,0.0005926977536994,0.0197648406028747,-0.001018464565277,-0.0156259536743164,0,0,0,0
3.4,1788352227135,0.0,0.0,-0.0010231958003714,0.0024217206519097,-0.949643611907959,0.3133210837841034,2.448618596171093e-05,-2.79143305358856e-05,-1.554654219937057e-07,-0.0011252717813476,0.0002422114339424,0.0002806445991154,-0.0015557911247015,0.0021129995584487,-0.8463626503944397,0.532600462436676,0.000911134682394,-8.483227641161262e-05,0.0007704061119845,-0.0082883834838867,0.0064086318016052,0.0041389465332031,0,0,0,0
3.5,1788352227235,0.0,0.0,-0.0010039642220363,0.0024339202791452,-0.9496400952339172,0.3133317828178406,1.9919437759740336e-05,-2.307657499950808e-05,-1.2840792227064558e-07,-0.0002974058152176,1.871226959337946e-05,0.0002299998304806,-0.0015308195725083,0.0021462626755237,-0.8463696837425232,0.5325892567634583,1.5913149915636174e-05,0.0017587679386035,-0.0011030094412583,-0.0039597749710083,-0.0454129576683044,0.0147867202758789,0,0,0,0
3.6,1788352227335,0.0,0.0,-0.0009667763952165,0.0024504649918526,-0.9496479630470276,0.3133078813552856,0.0,0.0,0.0,0.0,0.0,0.0,-0.0015785116702318,0.0020895712077617,-0.8463597893714905,0.5326051115989685,-0.000856425902179,-0.0014967367280374,5.122225714890656e-05,-0.0035614371299743,0.015231430530548,0.0095586776733398,0,0,0,0
3.7,1788352227435,0.0,0.0,-0.0010161588434129,0.0024231316056102,-0.9496410489082336,0.3133288025856018,0.0,0.0,0.0,0.0,2.2919401931886796e-09,0.0,-0.0015364680439233,0.0020476896315813,-0.8463594317436218,0.5326060056686401,0.0012555201701713,-0.0013114440669927,-0.0001230669217468,0.0038636326789855,-0.0074008107185363,-0.008458137512207,0,0,0,0
3.8,1788352227535,0.0,0.0,-0.0010161588434129,0.0024231316056102,-0.9496410489082336,0.3133288025856018,0.0,0.0,0.0,0.0,2.289873402006037e-09,0.0,-0.0015370296314358,0.0020458474755287,-0.846362292766571,0.5326014161109924,0.0014380870802266,-0.0018728598047954,0.0007632280737418,-0.0249263644218444,-0.0200391411781311,0.0094585418701171,0,0,0,0
3.9,1788352227635,0.0,0.0,-0.0010161588434129,0.0024231316056102,-0.9496410489082336,0.3133288025856018,0.0,0.0,0.0,0.0,1.9228687531125392e-09,0.0,-0.0015352284535765,0.0020299553871154,-0.8463780283927917,0.5325764417648315,-0.0003295017509506,-0.0006202277838617,-0.0013615582040935,0.0090481042861938,0.0030509233474731,0.0005464553833007,0,0,0,0
4.0,1788352227735,0.0,0.0,-0.0010161588434129,0.0024231316056102,-0.9496410489082336,0.3133288025856018,0.0,0.0,0.0,0.0,2.3384170155793527e-09,0.0,-0.0014875205233693,0.0020582359284162,-0.8463746905326843,0.5325819849967957,-0.0001585077039002,0.0007892066149462,-0.0006503599223135,0.0190938711166381,0.0210217833518981,-0.0137767791748046,0,0,0,0
4.1,1788352227835,0.0,0.0,-0.0010161588434129,0.0024231316056102,-0.9496410489082336,0.3133288025856018,0.0,0.0,0.0,0.0,2.2917978625969222e-09,0.0,-0.0014617340639233,0.0020888149738311,-0.8463675379753113,0.532593309879303,-0.0013917195388268,-0.0002813315596058,0.0009462537703461,-0.0214935541152954,0.0212373733520507,-0.0030183792114257,0,0,0,0
4.2,1788352227935,0.0,0.0,-0.0010161588434129,0.0024231316056102,-0.9496410489082336,0.3133288025856018,0.0,0.0,0.0,0.0,2.286071998369721e-09,0.0,-0.0014678565785288,0.002089811488986,-0.8463717699050903,0.5325865149497986,-0.0012547536783615,-0.0001112772775877,0.001347642502428,-0.0090442299842834,0.0302291512489318,0.0257453918457031,0,0,0,0
4.3,1788352228035,0.0,0.0,-0.0010161588434129,0.0024231316056102,-0.9496410489082336,0.3133288025856018,0.0,0.0,0.0,0.0,1.9442301102401416e-09,0.0,-0.0015043774619698,0.0020807394757866,-0.8463813066482544,0.5325713157653809,0.0001992361616546,-0.0013545665900228,0.000230709783385,-0.0151566863059997,0.0125713348388671,-0.0012502670288085,0,0,0,0
4.4,1788352228135,0.0,0.0,-0.0010161588434129,0.0024231316056102,-0.9496410489082336,0.3133288025856018,0.0,0.0,0.0,0.0,2.295711842847936e-09,0.0,-0.0015054624527692,0.0020380718633532,-0.8463827967643738,0.5325689911842346,0.0003831333173728,-0.0004637405382513,-0.0004751451232235,0.0148959755897521,0.0352587699890136,-0.0155591964721679,0,0,0,0
4.5,1788352228235,0.0,0.0,-0.0010161588434129,0.0024231316056102,-0.9496410489082336,0.3133288025856018,0.0,0.0,0.0,0.0,2.293057965729872e-09,0.0,-0.0014804201200604,0.0020086709409952,-0.8463871479034424,0.5325621366500854,0.0010327121689629,-0.0011229899801869,-0.0011382670309241,-0.0119712352752685,-0.0050718784332275,0.0094690322875976,0,0,0,0
4.6,1788352228335,0.0,0.0,-0.0010161588434129,0.0024231316056102,-0.9496410489082336,0.3133288025856018,0.0,0.0,0.0,0.0,2.3234512092074056e-09,0.0,-0.0014717234298586,0.0020138761028647,-0.8463927507400513,0.5325533747673035,1.5598767915565638e-05,0.0002355457639774,-0.0002938465084844,0.0133559107780456,0.000389814376831,-0.0228452682495117,0,0,0,0
4.7,1788352228435,0.0,0.0,-0.0010161588434129,0.0024231316056102,-0.9496410489082336,0.3133288025856018,0.0,0.0,0.0,0.0,1.9053629785048543e-09,0.0,-0.0013789804652333,0.0020481068640947,-0.8464064002037048,0.53253173828125,0.0003747128572448,0.0027185433095685,-0.0004643126675003,0.0044403672218322,-0.0018298625946044,-0.0120849609375,0,0,0,0
4.8,1788352228535,0.0,0.0,-0.0010161588434129,0.0024231316056102,-0.9496410489082336,0.3133288025856018,0.0,0.0,0.0,0.0,2.292836143169552e-09,0.0,-0.0014030151069164,0.0020507844164967,-0.8464035987854004,0.5325361490249634,-0.0006863983761786,-0.0008315253611775,-0.0006554047947248,0.013030469417572,-0.0033250451087951,-0.0156803131103515,0,0,0,0
4.9,1788352228635,0.0,0.0,-0.0010161588434129,0.0024231316056102,-0.9496410489082336,0.3133288025856018,0.0,0.0,0.0,0.0,2.2468604754521952e-09,0.0,-0.0013826815411448,0.0020528156310319,-0.8464065194129944,0.5325316786766052,0.0010100885110548,-0.0002818679054635,-0.0004419246320611,0.0295305252075195,0.0108512639999389,-0.0102577209472656,0,0,0,0
5.0,1788352228735,0.0,0.0,-0.0010161588434129,0.0024231316056102,-0.9496410489082336,0.3133288025856018,0.0,0.0,0.0,0.0,1.6806893654575104e-09,0.0,-0.0014103557914495,0.0020271223038434,-0.8463946580886841,0.5325504541397095,0.0012724925148743,-0.0006636430197938,0.0004124008669532,0.0072209239006042,-0.0108569264411926,-0.0013465881347656,0,0,0,0
5.1,1788352228835,0.0,0.0,-0.0010161588434129,0.0024231316056102,-0.9496410489082336,0.3133288025856018,0.0,0.0,0.0,0.0,2.7310256278667566e-09,0.0,-0.0013624895364046,0.0020749540999531,-0.8464101552963257,0.5325257182121277,0.0001951873362025,0.0016414681785149,0.0009620719564686,-0.0076665878295898,0.0092241168022155,-0.0138759613037109,0,0,0,0
5.2,1788352228935,0.0,0.0,-0.0010161588434129,0.0024231316056102,-0.9496410489082336,0.3133288025856018,0.0,0.0,0.0,0.0,2.298955026347471e-09,0.0,-0.0013923849910497,0.0020109396427869,-0.8464131355285645,0.53252112865448,0.0001970345928979,-0.0011610264572399,-0.0001209358770817,0.0127007365226745,0.0174254179000854,-0.0030746459960937,0,0,0,0
5.3,1788352229035,0.0,0.0,-0.0010161588434129,0.0024231316056102,-0.9496410489082336,0.3133288025856018,0.0,0.0,0.0,0.0,2.5409654380581514e-09,0.0,-0.0014727842062711,0.0019797496497631,-0.8463059067726135,0.532691478729248,-0.0012369823503539,-0.0055473708366313,0.0125590987713524,0.6608326435089111,0.3156796097755432,0.0010547637939453,77,324,3249,8349
5.4,1788352229135,0.7887324094772339,3.492957830429077,-0.0010803547920659,0.0021347745787352,-0.947587788105011,0.3194865882396698,0.0356436136754045,-0.0009711303054693,4.897598930495078e-06,0.0037363863084465,-0.0070792511105537,0.2502179145812988,-0.0010096793994307,0.0020321551710367,-0.8392113447189331,0.5438007116317749,0.0046420220156528,0.0376447928876962,0.3312927677584263,0.0840944051742553,-0.0495621562004089,0.0789604187011718,229,196,10348,13305
5.5,1788352229235,2.507042169570923,5.915493011474609,-0.0002550775534473,0.0021756829228252,-0.9405980110168456,0.3395152688026428,0.1196884531503364,0.0039125695551798,-2.586184112400604e-05,-0.0018157137092202,0.0090950755402445,0.4222931563854217,-0.0007067983970046,0.0021291999146342,-0.8283961415290833,0.5601381659507751,-0.004354908455625,0.0029663099775875,0.5022107154037629,0.7913274168968201,0.1436277031898498,0.3652544021606445,176,220,10286,19109
5.6,1788352229335,2.6478872299194336,7.408450603485107,0.0006294312770478,0.0022187244612723,-0.9309362769126892,0.3651743829250335,0.1710143840019133,-0.0008655325841236,-5.373690934436636e-05,0.0172857884317636,0.0145797645673155,0.6519434452056885,0.0004247548058629,0.0025100484490394,-0.8053216934204102,0.592832624912262,-0.0075561657745006,0.0256851257627528,0.7160640914061974,0.2174358963966369,0.1342971324920654,-0.3856782913208008,283,46,14116,18560
5.7,1788352229435,2.7887322902679443,6.0,0.0008835750631988,0.0025768051855266,-0.9177467823028564,0.3971566259860992,0.1842787687554676,-0.0062922378936979,-5.7538574013331743e-05,-0.0136164110153913,-0.0025789991486817,0.6506689190864563,-0.0001880470663309,0.0030483519658446,-0.7883298397064209,0.6152452826499939,-0.0293262562307146,-0.0012881344255326,0.567332772985601,-0.6825587749481201,-0.3551831245422363,-0.5973291397094727,42,39,7944,11986
5.8,1788352229535,1.436619758605957,3.239436626434326,0.0009868307970464,0.0033303804229944,-0.907465636730194,0.4201119244098663,0.1265030817833447,0.0004362110095843,-2.784901266517132e-05,-0.0057249846868216,0.0151687571778893,0.4416393637657165,6.63120299577713e-05,0.003489077091217,-0.7765313386917114,0.6300689578056335,-0.0055221900519864,-0.0047126090556148,0.3370190614053843,-0.9204986095428468,-0.1106052994728088,0.4288339614868164,55,57,4875,5816
5.9,1788352229635,0.4507042169570923,1.0704225301742554,0.0010261458810418,0.0034072208218276,-0.9016860723495485,0.4323766529560089,0.0490544733073408,-0.0006772489226979,-3.3724955208273947e-06,2.098855838994496e-05,0.0026376326568424,0.1822645664215088,0.0003016889095306,0.003601474687457,-0.7701869010925293,0.637808084487915,0.0017905014781098,0.0070051743370262,0.0726716595313528,-0.3095840811729431,-0.2296000719070434,-0.0579986572265625,23,47,1773,0
6.0,1788352229735,0.0,0.0,0.0010583015391603,0.0033660964109003,-0.9011326432228088,0.4335290789604187,-0.0018871645435406,-0.0003718451657344,9.9729787531616e-08,0.0001675396924838,-0.0039427625015378,-0.011119301430881,0.0001931190490722,0.0035271598026156,-0.7704820036888123,0.6374520063400269,-0.0011854687221832,0.0053449938515929,-0.014505413532049,-0.0966532826423645,-0.0084932446479797,-0.030440330505371,0,0,0,0
6.1,1788352229835,0.0,0.0,0.0010073728626593,0.0033504208549857,-0.9011805057525636,0.4334298372268677,0.0004757677965924,0.0002603249291193,-1.0549990283481948e-06,0.0004478470946196,-0.0014798318734392,0.0033850518520921,0.000173008069396,0.0034755822271108,-0.7702811360359192,0.6376949548721313,-0.0003007176727133,-0.0003756334860507,0.0068695147668766,-0.0131817460060119,-0.0827752947807312,0.0089063644409179,0,0,0,0
6.2,1788352229935,0.0,0.0,0.0009993778076022,0.0033251156564801,-0.9010915160179138,0.4336150288581848,0.0007175208773694,-0.0004253401313243,1.189664124118081e-06,0.000768851255998,-0.0007627013255842,0.00837810523808,0.0001858845353126,0.0035054180771112,-0.7703753113746643,0.6375811100006104,-0.0011002695469814,0.002314342967267,-0.0062982715839225,0.0035536289215087,-0.0626353025436401,-0.025160789489746,0,0,0,0
6.3,1788352230035,0.0,0.0,0.0009651145664975,0.0032942332327365,-0.901113212108612,0.4335702359676361,-0.0001645073984124,0.0001882988569728,1.863930902546402e-07,-0.0002361138613196,-0.0019217905355617,-0.0019013399723917,0.0001726103946566,0.003440816886723,-0.7703232169151306,0.6376442909240723,0.0011121128076595,0.001572931023792,0.0041507879353711,0.004347801208496,-0.0077562928199768,-0.0304145812988281,0,0,0,0
6.4,1788352230135,0.0,0.0,0.0009665947873145,0.0033030924387276,-0.901137113571167,0.4335205256938934,0.0,0.0,0.0,0.0,0.0,0.0,0.0001530367881059,0.0034010438248515,-0.7703660130500793,0.6375927925109863,-0.0014170491395151,0.0011071719942495,-0.0056620711974016,0.0340786576271057,0.009796917438507,-0.0088109970092773,0,0,0,0
6.5,1788352230235,0.0,0.0,0.0009804995497688,0.0032637421973049,-0.9010907411575316,0.4336172938346863,0.0001187064631708,-0.0005955680052936,-2.454375776343536e-06,-0.0001036190005834,0.001034942572005,0.0037595059257,0.0001801708713173,0.0034091100096702,-0.7703534960746765,0.6376078724861145,0.0002291849237422,0.0003554381054896,-0.0040318992970212,0.0489548444747924,-0.0048218965530395,0.0037298202514648,0,0,0,0
6.6,1788352230335,0.0,0.0,0.0010011399863287,0.0032588536851108,-0.9011371731758118,0.4335207045078277,-0.0003770529114298,0.0004317480336269,4.38875893728333e-07,0.0005490572075359,0.0006761190015822,-0.0043226047419011,0.0001616608351469,0.0033387802541255,-0.7703161835670471,0.6376534104347229,0.001041331539952,-0.0024978704389761,0.0010523328278476,-0.0348168611526489,-0.0253800153732299,-0.0089292526245117,0,0,0,0
6.7,1788352230435,0.0,0.0,0.0009291239548474,0.00318831554614,-0.9011166095733644,0.4335640668869018,0.0002186571801346,0.0002327869707642,2.1207696111741187e-06,0.0,0.0,0.0,0.0001412685960531,0.0033501517027616,-0.7703383564949036,0.637626588344574,-0.0008337613002405,0.001574437108715,0.0023635153465308,0.0368643403053283,-0.023114800453186,-0.0250654220581054,181,198,5239,9792
6.8,1788352230535,2.1408450603485107,3.746478796005249,0.000913455733098,0.0031086166854947,-0.8997440338134766,0.4364059865474701,0.0543026786006715,-0.0014357427128568,1.970385244647772e-05,0.0029028570279479,-0.0028731615748256,0.1237033978104591,0.0005062595009803,0.0032132351770997,-0.7644244432449341,0.6447051763534546,0.0153549557104935,0.010842355615062,0.2956699875003777,0.6047752499580383,0.0073235034942626,0.7636804580688477,158,169,8702,14068
6.9,1788352230635,3.2676055431365967,6.169013977050781,0.0011774129234254,0.0025219770614057,-0.8931491374969482,0.4497520923614502,0.121481909440743,-0.0008058033036936,1.8590249315043545e-05,0.0158326253294944,-0.0147313186898827,0.346719741821289,0.0007987851276993,0.0026129242032766,-0.7530180811882019,0.6579942107200623,0.0130529853779014,0.0072112410962271,0.4977995028915412,0.5590863823890686,0.3683799505233764,0.3891735076904297,172,202,12804,19925
7.0,1788352230735,4.0,6.563380241394043,0.0019311422947794,0.0020394406747072,-0.8833497166633606,0.4687060713768005,0.1848438310711299,-0.0003974347566225,-2.7770631007376057e-05,0.0177793446928262,0.0114942155778408,0.4730496406555176,0.001628384925425,0.0021095518022775,-0.7388408184051514,0.6738747954368591,0.0156254314391505,-0.0061328582340967,0.479018742741804,0.1305333375930786,0.2659066915512085,-0.0691862106323242,197,69,13604,16798
7.1,1788352230835,3.436619758605957,6.197183132171631,0.0026805608067661,0.0008358997292816,-0.8722600936889648,0.4890341460704803,0.1751633408662904,-0.0001776915424235,-4.103592058131642e-05,0.0183629784733057,0.0026853904128074,0.3906163275241852,0.0026608882471919,0.0015554660931229,-0.7269181609153748,0.68671715259552,0.0203314897278584,0.0103675439708243,0.3503683517780367,0.0747989416122436,0.3092454075813293,0.8039121627807617,290,83,15677,17041
7.2,1788352230935,3.4647886753082275,6.309859275817871,0.0052529890090227,-9.814882650971413e-05,-0.8639171123504639,0.5036066174507141,0.1680543235300908,-0.0037626790788343,-0.0001349681978651,0.0399461947381496,0.0416992679238319,0.3412236869335174,0.0054725538939237,0.0011534662917256,-0.7111106514930725,0.7030578851699829,0.0043300368551688,-0.0027467492159122,0.3897913449598321,0.1026343703269958,-0.0353848934173584,1.117894172668457,250,133,14108,19097
7.3,1788352231035,3.380281686782837,6.704225540161133,0.0060362815856933,3.794347867369652e-05,-0.853347897529602,0.5213069915771484,0.1745681109920414,0.0028440540140771,-8.796803976698481e-05,0.0042121387086808,0.0230111703276634,0.4618434906005859,0.005702381953597,0.0016015823930501,-0.6951627731323242,0.7188279628753662,-0.0136024309449552,0.0142886738738216,0.5720974744431898,0.1937154531478881,-0.1896352767944336,-0.0588407516479492,333,73,15575,17448
7.4,1788352231135,3.436619758605957,6.309859275817871,0.0056678201071918,-5.8694276958704e-05,-0.841339647769928,0.5404772758483887,0.1708250110185625,0.0118504888485421,6.242584393639441e-05,-0.0014174068346619,-0.0037220309022814,0.4445786476135254,0.0055839577689766,0.0015189256519079,-0.6812142729759216,0.7320612668991089,-0.0088625199505936,0.0086221139399199,0.3812079575726875,-0.2289502620697021,-0.0117015838623046,0.7874116897583008,349,65,18155,16677
7.5,1788352231235,4.056337833404541,6.366197109222412,0.0055352291092276,4.782108590006828e-05,-0.8314581513404846,0.5555597543716431,0.1692892164065382,0.0041787349522481,7.238985034750763e-06,-0.0046538156457245,0.0026074952911585,0.3592339754104614,0.0052295690402388,0.0011826837435364,-0.6693283915519714,0.7429472804069519,0.0005237756453734,-0.014233487196023,0.3587094472437478,0.186563491821289,0.0209658741950988,-0.3655548095703125,391,74,17370,16764
7.6,1788352231335,3.91549301147461,6.253520965576172,0.005208239890635,-4.937127232551575e-05,-0.8197783827781677,0.5726571679115295,0.1687919675965679,0.0042066126982832,1.8118964872386556e-05,-0.0092717222869396,0.0085855768993496,0.3697908222675323,0.0051366668194532,0.0015381043776869,-0.6526930332183838,0.7576034665107727,-0.0077762869022056,0.0125020667904557,0.3675031294375048,0.0724583864212036,0.1392828226089477,-0.1012754440307617,474,95,18799,17278
7.7,1788352231435,3.94366192817688,5.97183084487915,0.005199912469834,1.4899764209985731e-05,-0.8092318177223206,0.5874663591384888,0.179653159408289,-0.00080956069347,5.468331868824194e-05,0.0027627137023955,-0.0061674113385379,0.371811181306839,0.0050342017784714,0.0015220260247588,-0.6406510472297668,0.7678142786026001,-0.0126683243120384,0.0136194665146034,0.3010276874112863,-0.1505694389343261,0.1526284217834472,-1.1322927474975586,534,62,21370,15836
7.8,1788352231535,4.788732528686523,5.605633735656738,0.0040381466969847,0.0006492352113127,-0.8021437525749207,0.597117006778717,0.1871031137500461,-0.0027062770217355,3.56348584367272e-05,-0.0357283018529415,-0.0324484072625637,0.2341075837612152,0.001866253092885,0.0013729101046919,-0.6329435110092163,0.7741944789886475,-0.0901434240421548,-0.0998961214293461,0.1732986160642732,0.6238579154014587,-0.0983069539070129,0.9646158218383788,486,70,20276,14696
7.9,1788352231635,4.619718074798584,5.549295902252197,0.000697533483617,0.0009445084724575,-0.7989087700843811,0.6014509797096252,0.1825892860673865,0.0003181863974508,8.601092673865646e-05,0.0064727063290774,-0.0241522807627916,0.0767683088779449,0.0004460820928215,0.0010098861530423,-0.6301834583282471,0.7764455080032349,0.0062442675505463,-0.0064582306467825,0.0831882171455535,0.1034092903137207,0.2343905568122863,0.4101858139038086,215,69,17700,15009
8.0,1788352231735,3.9718310832977295,5.549295902252197,-0.0002413553302176,0.0005923478165641,-0.7960163354873657,0.6052748560905457,0.1707353629054,-0.0021879053859226,9.48250083461533e-05,-0.017776645720005,-0.0408523268997669,0.1175962910056114,-0.0003560725599527,0.0003867791965603,-0.6246506571769714,0.7809041738510132,0.0153067154174236,0.00503463390096,0.1688339649440648,0.1236531734466552,-0.2941581606864929,0.2561569213867187,318,141,17211,17723
8.1,1788352231835,3.521126747131348,6.2816901206970215,0.0001024549346766,0.000301873718854,-0.7899028062820435,0.6132319569587708,0.1731947863822779,0.0001835728693613,-4.576051565592569e-05,0.0107438787817955,0.0069643789902329,0.2406398057937622,-0.0001054210588335,0.0006928881630301,-0.6153712272644043,0.7882371544837952,-0.0231250277585239,0.0146792781643024,0.3312294986259363,-0.0337397456169128,0.3071250915527344,0.3384628295898437,297,119,17362,17866
8.2,1788352231935,4.056337833404541,6.309859275817871,0.000588912051171,0.0005371164297685,-0.7791721820831299,0.6268094778060913,0.1706115001582928,0.0012193310306596,-4.8395375940280215e-05,0.0148633634671568,0.0114865908399224,0.4004563093185425,0.0005747284740209,0.0004684021696448,-0.6010147333145142,0.7992376685142517,0.0130027986921599,-0.014494820802989,0.3783240694291838,0.0247406363487243,0.2894409298896789,0.582737922668457,400,80,16975,17141
8.3,1788352232035,4.422535419464111,6.11267614364624,0.0016017057932913,0.0002227906370535,-0.7660777568817139,0.642745852470398,0.1782411148174451,0.0044235083875299,-0.0001245048960693,0.0106032993644475,0.0230568815022707,0.3614553213119507,0.0008643232285976,0.000430735759437,-0.5843871831893921,0.8114743232727051,-0.022251835941948,-0.0199696987519086,0.2817373164808113,0.0042864084243774,-0.254472553730011,-0.2196874618530273,375,65,17829,15462
8.4,1788352232135,4.366197109222412,6.084506988525391,8.865651034284383e-05,0.0001505083637312,-0.7575476765632629,0.6527798175811768,0.1703914228560791,0.0044391448775009,-2.3920018709751228e-05,-0.0095336101949214,-0.0123901823535561,0.2307633608579635,0.0002991156652569,0.0002137366682291,-0.5758023262023926,0.8175889253616333,0.0102828567988401,0.0040537712332987,0.2274735925488902,0.0767837166786193,0.2373017072677612,0.3311595916748047,290,60,16686,15484
8.5,1788352232235,4.478873252868652,6.0,0.0026332554407417,0.0003843874437734,-0.7506600022315979,0.660683274269104,0.1700266143210903,0.00871517849342,-0.0001429357559885,0.0402496568858623,0.0686096623539924,0.2087929099798202,0.0025863945484161,0.001172175630927,-0.5650846362113953,0.825028121471405,-0.0147059609165021,-0.0351485988849689,0.2194567942599939,0.0138065218925476,-0.114641785621643,-0.9286069869995116,123,95,14745,16255
8.6,1788352232335,3.94366192817688,5.85915470123291,0.0032308064401149,0.0009385168086737,-0.7439413070678711,0.668236494064331,0.1821529822192032,-0.0014686562469656,2.095994651467634e-06,-0.0054586445912718,0.0126265278086066,0.2216709852218628,0.0030085993930697,0.0015703225508332,-0.555387556552887,0.8315846920013428,0.0099918702294982,0.0076994124482971,0.3068171806872307,0.2633009552955627,0.1631907820701599,-0.5146474838256836,208,74,14906,16410
8.7,1788352232435,4.253520965576172,5.6619720458984375,0.0033428291790187,0.0013810738455504,-0.734005331993103,0.6791342496871948,0.1726444188422985,0.0022275053651861,-4.46525277511336e-05,-0.0139542175456881,0.0144535722211003,0.2514037191867828,0.0030689006671309,0.002408810891211,-0.54618239402771,0.8376572728157043,-0.0023572873309723,0.0214444257891704,0.2206544554559698,0.1443598866462707,0.1590607762336731,-0.2398452758789062,231,72,16758,14884
8.8,1788352232535,4.563380241394043,5.380281925201416,0.003380112349987,0.0017956586088985,-0.7270914912223816,0.6865299344062805,0.1623690990008598,0.0041528641289056,1.8654980545534465e-05,-0.0070556099526584,-0.0016689873300492,0.1930997222661972,0.0030162930488586,0.00296260882169,-0.5393207669258118,0.8420897722244263,-0.0069822491748709,0.0421023693196869,0.1529878104275958,0.0052704215049743,-0.0734331011772155,0.3666362762451172,222,91,17335,15963
8.9,1788352232635,4.366197109222412,5.7183098793029785,0.003013004316017,0.0023737228475511,-0.7225000262260437,0.6913602352142334,0.1679109561476364,0.0011802604503532,6.628437224608365e-06,-0.0108779584988951,-0.0012624524533748,0.1405832767486572,0.0024236068129539,0.0032870098948478,-0.5320156216621399,0.8467246890068054,-0.0025974029785001,0.0151758968573188,0.1577599255626325,0.1896716356277465,-0.0669583082199096,-0.788233757019043,296,139,16388,16525
9.0,1788352232735,3.94366192817688,6.02816915512085,0.0030870707705616,0.0027297714259475,-0.7162711024284363,0.6978099942207336,0.1688347643752883,0.0081693396497935,-3.665380280868818e-05,-0.0052781617268919,0.0018566383514553,0.2191381156444549,0.0023408457636833,0.0039445171132683,-0.5211522579193115,0.8534514307975769,-0.0172103535208677,0.043733660797826,0.28914047993787,-0.0377857685089111,-0.0975900292396545,0.6234111785888672,315,90,17492,16437
9.1,1788352232835,4.14084529876709,5.915493011474609,0.0024821360129863,0.002833693055436,-0.7052612900733948,0.7089375257492065,0.1678175383691387,0.0039220296404493,-5.266236300875358e-05,-0.0086623346433043,-0.0110521614551544,0.2776909172534942,0.0012063877657055,0.0031146695837378,-0.5107831358909607,0.8597031831741333,-0.0251574923614673,-0.0339097237748045,0.2279598956835882,0.1922559738159179,0.1482855677604675,-0.4250221252441406,338,108,17033,16441
9.2,1788352232935,4.422535419464111,5.943662166595459,0.0013469271361827,0.0030189433600753,-0.6967488527297974,0.7173075079917908,0.1791447103253899,0.0019550898010869,7.03016360636456e-05,-0.0275116544216871,-0.0121251009404659,0.2359582781791687,6.174575537443161e-05,0.0028050355613231,-0.5013903379440308,0.8652167320251465,-0.0100893144071294,-0.0472688060817443,0.2464003112457793,-0.0808274745941162,-0.1905241012573242,-0.8786849975585938,326,112,16193,16491
9.3,1788352233035,4.366197109222412,5.521126747131348,-0.001269566360861,0.0025397008284926,-0.6867649555206299,0.7268739342689514,0.1654128628731233,0.0014779971041496,0.0001447768656685,-0.0227954294532537,-0.0443831831216812,0.2832633256912231,-0.002886313945055,0.0013411436229944,-0.4874151647090912,0.8731645941734314,-0.0403176709611982,-0.0621422309997032,0.2280747035359345,0.3363922834396362,0.1675389409065246,0.8986654281616211,544,88,20567,15212
9.4,1788352233135,5.098591327667236,5.126760482788086,-0.0025509016122668,0.0019858637824654,-0.6796117424964905,0.7335648536682129,0.1530033568219173,0.0099150195724686,3.3552130058238376e-05,-0.0036610416136682,-0.0030187757220119,0.1959581077098846,-0.0025842869654297,0.0013264594599604,-0.4812440276145935,0.8765819668769836,0.0230852012328734,0.0097928544983858,0.0895834655336461,0.0020663738250732,-0.2394251823425293,-0.0669975280761718,545,59,22572,14412
9.5,1788352233235,5.183098793029785,5.239436626434326,-0.0021948290523141,0.0019663730636239,-0.6771875023841858,0.735804557800293,0.1914090954204229,0.0022810971022023,-2.699110741421507e-06,0.0070696142502129,-0.003149828640744,0.0169241670519113,-0.0024493904784321,0.0012588985264301,-0.4796270430088043,0.8774681091308594,0.0186733323081605,0.0033200277314192,0.0646098167827991,0.115069568157196,0.2019262313842773,1.0836524963378906,470,84,20860,14208
9.6,1788352233335,4.11267614364624,5.577464580535889,-0.0018890693318098,0.0012468529166653,-0.6746001839637756,0.7381798028945923,0.1804411960758714,-0.0010210731265683,-4.592552225992538e-05,0.0113190785050392,0.0050978162325918,0.0921366736292839,-0.0019163517281413,0.0009126681834459,-0.4765716791152954,0.8791329860687256,0.0174071288325018,0.0056227905054526,0.1013886746142682,0.1180953979492187,-0.2360756397247314,0.3425216674804687,432,101,21647,15234
9.7,1788352233435,4.873239517211914,5.577464580535889,-0.0008282151538878,0.0004613342462107,-0.6682859063148499,0.7439039349555969,0.1727266838770116,0.0035925713851525,4.42502914952622e-05,0.0236174333840608,-0.0117553183808922,0.1722441166639328,-0.0004279380664229,-0.0001553269103169,-0.4678924977779388,0.8837853074073792,0.0312449188137715,-0.011596402383962,0.0802506867436865,-0.1342483758926391,0.1914145350456237,0.4782419204711914,239,78,19463,15391
9.8,1788352233535,5.549295902252197,5.211267471313477,0.0006110384128987,-0.0002022388362092,-0.6649835109710693,0.7468577027320862,0.1896557048503762,0.0031746717486463,-2.3983069425498425e-05,0.0365922637283802,0.0236176308244466,0.100724920630455,-0.0004383437335491,-0.0001060282811522,-0.4644548594951629,0.885596752166748,-0.0672319644521003,-0.0434089375923695,0.056134863874299,0.2009820938110351,0.0729525685310363,-0.7091770172119141,162,73,16627,14509
9.9,1788352233635,5.436619758605957,5.183098793029785,-0.0013687834143638,-0.0002749493578448,-0.6633787751197815,0.7482824921607971,0.1842660974161532,0.0009498671808915,3.117426786751718e-05,-0.0051406067796051,-0.0155060719698667,0.0245577469468116,-0.0009492142125964,-0.0001135133206844,-0.4639750123023987,0.885847806930542,0.0037717288564677,0.04115989933108,-0.0106759565822059,-0.1628932952880859,0.1509356498718261,-1.0737056732177734,166,76,15064,14427
10.0,1788352233735,5.183098793029785,5.239436626434326,-0.0009620330529287,-3.313383786007762e-05,-0.6631726622581482,0.7484658360481262,0.1732920117534281,-0.0019177800428735,-9.73807761987641e-05,0.0056965132243931,0.0177914313971996,0.0109012247994542,-0.0008015818893909,-0.0005814237520098,-0.4627123177051544,0.8865079283714294,0.0156881272097914,0.0051725228181867,0.0528225354629901,0.0256049036979675,-0.0682933330535888,0.5351200103759766,209,95,15676,14493
10.1,1788352233835,4.3380279541015625,5.549295902252197,0.0039104027673602,-0.0004602596163749,-0.6598315238952637,0.7514032125473022,0.1654555175434601,0.0014357505761296,-0.0002260802070768,0.1393475234508514,0.1159137785434722,0.1226085275411605,0.0089258439838886,0.0016748579218983,-0.4570216834545135,0.8894091844558716,0.2397762273826506,0.2054355464800856,0.1813698154823968,0.1900287270545959,0.2832408547401428,-0.0421380996704101,262,116,17274,16048
10.2,1788352233935,4.8450703620910645,5.633802890777588,0.0183762870728969,-0.0005873097106814,-0.6503388285636902,0.759421706199646,0.1748090770657175,0.0024325829833949,-0.0008128414399807,0.1776081472635269,0.1577440649271011,0.2473101317882537,0.0185452122241258,0.0040665380656719,-0.4471813440322876,0.8942418694496155,0.0804576650507769,0.0855356368593249,0.2434180814551478,0.2354990839958191,0.3162662386894226,0.5025749206542969,235,92,14990,15450
10.3,1788352234035,4.619718074798584,5.577464580535889,0.0200681649148464,-0.0004178034141659,-0.6445678472518921,0.7642836570739746,0.1782865629276477,0.0032997337772245,-4.708235652630604e-05,-0.0005524915759451,0.0573874488472938,0.1820646524429321,0.0201298538595438,0.0049129677936434,-0.4372866451740265,0.8990834951400757,-0.0195383025561457,0.0697929295244624,0.1825695787138458,0.0942835807800293,-0.0546714663505554,-1.194321632385254,211,85,16498,15583
10.4,1788352234135,4.760563373565674,5.549295902252197,0.0210576727986335,0.00033684913069,-0.6368840932846069,0.7706717848777771,0.1752548516524885,0.0017700012561935,4.140516320419948e-05,-0.0109720239415764,0.0208350364118814,0.1719896793365478,0.0201302599161863,0.0043531935662031,-0.4299230575561523,0.9026305675506592,0.0157446967806703,-0.0720861500062024,0.1933916081355062,-0.1324769258499145,0.3650147318840027,0.5937108993530273,372,34,19407,13462
10.5,1788352234235,4.394366264343262,5.492957592010498,0.0198114160448312,-0.0006465194746851,-0.6314718127250671,0.7751453518867493,0.1752560680507883,0.0022820575305061,0.000177354465625,-0.0122907413169741,-0.030756389722228,0.0907425954937934,0.0192714594304561,0.0049870796501636,-0.426091194152832,0.9044612646102904,-0.037579203151537,0.0782572821816089,0.0276544916460098,-0.1867384314537048,-0.1269210577011108,-1.0102720260620115,349,117,19161,16052
10.6,1788352234335,4.450704097747803,5.549295902252197,0.019086305052042,-0.0006168326362967,-0.627395749092102,0.7784662842750549,0.1785833378607976,0.0061212759522158,-7.533872510735776e-06,-0.0113125024363398,-0.0095920236781239,0.1425350755453109,0.0173055697232484,0.0036322474479675,-0.4187075197696686,0.9079490303993224,-0.0330014171060922,-0.0145773436831193,0.1024282984601393,-0.3120214939117431,-0.2198107838630676,-1.1038293838500977,411,87,19679,15707
10.7,1788352234435,4.901408672332764,5.183098793029785,0.0116358287632465,-0.001823001075536,-0.6225047707557678,0.7825273275375366,0.188713302019703,-6.267067272184577e-05,0.0003230882071508,-0.1588196009397506,-0.1693962663412094,0.0933665782213211,0.0063343867659568,-0.0003578355535864,-0.4156873524188995,0.909485399723053,-0.2852585757452866,-0.2240304186324796,0.0145097384697539,0.3647580146789551,0.061880350112915,0.687495231628418,365,70,20064,14380
10.8,1788352234535,5.154929637908936,5.492957592010498,-0.0055381264537572,-0.0028275782242417,-0.6230284571647644,0.7821745276451111,0.171191138352793,0.0058397246590476,0.0008147071336145,-0.2129226624965667,-0.2058501541614532,-0.0074384212493896,-0.0040239803493022,-0.0032794214785099,-0.4155207872390747,0.9095689058303832,-0.0137428127726244,0.1242063922669051,0.1055436414273032,0.2034149765968322,-0.4450252056121826,-0.169412612915039,330,153,16878,16220
10.9,1788352234635,4.591549396514893,5.436619758605957,-0.0047679925337433,-0.0030706985853612,-0.6188332438468933,0.7855018377304077,0.1823091032584721,0.005371067717106,-4.5675297307766106e-05,0.0091454749926924,-0.0090270601212978,0.1029207855463028,-0.0040038712322711,-0.004441974684596,-0.4089260995388031,0.9125479459762572,-0.0062485812350776,-0.0231922003587323,0.1252963356352542,0.0552133321762084,0.2236368060111999,1.0268449783325195,233,98,16631,15982
11.0,1788352234735,5.042253494262695,5.239436626434326,-0.0043946453370153,-0.0030754623003304,-0.6135393381118774,0.7896459698677063,0.1847132859405124,0.0005347661552125,-0.0001548295596085,0.0118263363838195,0.0222420021891593,0.1493916660547256,-0.003526696935296,-0.0040892520919442,-0.4035389125347137,0.9149465560913086,-0.0008221594101492,-0.0066981338754318,0.0901940611287031,-0.0075817704200744,-0.1274192333221435,-0.6625146865844727,249,96,16859,14520
11.1,1788352234835,4.253520965576172,5.521126747131348,-0.0036783085670322,-0.0032661829609423,-0.608788013458252,0.7933176755905151,0.1796243342422497,0.0051440068804568,1.608315459510281e-05,0.0238603185862302,0.0006808433681726,0.1402539908885955,-0.0022858846932649,-0.0037111351266503,-0.3982473611831665,0.917267680168152,0.0302439683915131,0.0426548354176105,0.1890861098962252,0.0017098784446716,-0.1153723001480102,-0.0681304931640625,265,104,17003,16022
11.2,1788352234935,4.14084529876709,5.605633735656738,-0.0028762007132172,-0.002638179808855,-0.6026486754417419,0.7979970574378967,0.1817798043999571,0.0073917804269446,-5.3885431952182425e-06,-0.0187189523130655,0.0050696842372417,0.1465322226285934,-0.0016108173877,-0.0030466308817267,-0.3910869359970093,0.9203473329544068,0.0334779104841183,0.033013153272459,0.1951382601248412,-0.1102271080017089,-0.4620580673217773,-0.4607248306274414,245,75,17193,15393
11.3,1788352235035,5.042253494262695,5.577464580535889,-0.000267035968136,-0.0019717675168067,-0.5941590070724487,0.8043451309204102,0.17607821336591,0.0010596913762515,-0.0001396443081251,0.0205260999500751,0.0494744889438152,0.1462928205728531,0.0003473097458481,-0.0019786413758993,-0.3806172311306,0.9247305393218994,0.0062202815947124,-0.0031099958064646,0.1685872254136082,-0.1552937030792236,0.2362159490585327,-0.229161262512207,158,64,14520,14713
11.4,1788352235135,4.676056385040283,5.154929637908936,-0.0014145219465717,-0.0021422754507511,-0.5888941884040833,0.8082061409950256,0.1895565730202401,0.0038340711308857,4.939615231120332e-05,-0.042189497500658,-0.0294069703668355,0.1316524296998977,-0.0030667316168546,-0.0029700174927711,-0.3765808045864105,0.9263739585876464,-0.1126879111868912,-0.0810460472609173,0.0267982318474694,-0.0031777620315551,-0.1070728302001953,0.9376287460327148,152,73,16691,14520
11.5,1788352235235,4.985915660858154,4.985915660858154,-0.001903815427795,-0.0018775191856548,-0.5870095491409302,0.809575617313385,0.1672207523991768,-0.0035497786842979,-3.510935184457456e-05,0.0436639562249183,0.0433561205863952,0.0698010697960853,0.0022037709131836,-0.0006987433880567,-0.3733503818511963,0.9276875853538512,0.1044291666723511,0.1082539850923489,0.109327122965208,0.0322169065475463,0.2888859510421753,-0.0582647323608398,202,132,16311,15452
11.6,1788352235335,4.929577350616455,5.295774459838867,0.0048492802307009,-0.0007939152419567,-0.582801878452301,0.8125994205474854,0.1779065970073825,0.00524385286109,-0.0002119451035363,0.0767217352986335,0.0683536902070045,0.1212178096175193,0.006496611982584,0.0013053063303232,-0.3684160113334656,0.9296374320983888,0.0699749784006196,0.0852118920598067,0.1048366691372307,-0.2329273819923401,-0.2070843577384948,0.3921098709106445,342,68,17641,14391
11.7,1788352235435,4.056337833404541,5.521126747131348,0.0089753521606326,0.0003179786726832,-0.5780928730964661,0.8159216046333313,0.1638800537336957,0.0015726979789551,-0.0002019379205595,0.0418692044913768,0.0510060675442218,0.1082934215664863,0.0087602036073803,0.0031933402642607,-0.3631747961044311,0.9316743612289428,-0.0067236778989608,0.046230593739721,0.1360501452322309,-0.1741870641708374,0.141865849494934,1.0764312744140625,433,124,20694,16113
11.8,1788352235535,4.197183132171631,5.267605781555176,0.0097184069454669,0.0019471189007163,-0.5710522532463074,0.8208538889884949,0.1704151029693097,0.0053964535762442,-2.580486161100398e-05,-0.0107140513136982,0.0276078935712575,0.2044701725244522,0.0089693553745746,0.0042522540315985,-0.3534443974494934,0.9354029297828674,-0.005447774309317,0.0343572632610398,0.1420458113104751,0.3771855235099792,0.159149944782257,0.1087675094604492,663,83,26514,14423
11.9,1788352235635,4.084506988525391,5.211267471313477,0.0097918007522821,0.0024289900902658,-0.5658616423606873,0.8244385123252869,0.1786581143433307,0.0038475694247246,1.2088968517044492e-06,-0.0150035647675395,0.0294712260365486,0.1331117451190948,0.0087932692840695,0.0048961518332362,-0.34808149933815,0.937410295009613,-0.002834413479018,-0.0047656962145017,0.1279593547890081,-0.0780824422836303,-0.0059159398078918,-0.1001081466674804,886,90,31119,14960
12.0,1788352235735,4.2253522872924805,5.014084339141846,0.0095900315791368,0.0032310797832906,-0.5601715445518494,0.8283147811889648,0.1696231543934992,0.0064261150081825,-4.8998726271852304e-05,-0.0160802528262138,0.0142244575545191,0.1168890818953514,0.0085611818358302,0.0055174930021166,-0.3428891003131866,0.9393206834793092,-0.0009343777455364,0.0066001786619244,0.1372609888194295,0.0137282609939575,-0.0124809741973876,-0.1719141006469726,910,87,32767,14368
12.1,1788352235835,-1.4647886753082275,1.042253494262695,0.0077417995780706,0.0035692853853106,-0.5534642338752747,0.8328292965888977,0.1340554739339765,-0.0001936775435763,6.645475326146224e-05,-0.0655582547187805,-0.0325183793902397,0.190503641963005,0.0067275445908308,0.0052329264581203,-0.3318549692630768,0.943291962146759,0.0102708729665855,-0.0226566287881765,0.2255970908832489,-0.2222288250923156,0.1522518992424011,-0.1075925827026367,735,75,-15736,0
12.2,1788352235935,0.3943662047386169,-5.77464771270752,0.007695238571614,0.0033737993799149,-0.5487014055252075,0.8359761834144592,-0.0157346388090209,-5.874685766513673e-05,-3.060534172951306e-06,-0.0005126098985783,-0.0079769967123866,0.0388120226562023,0.0062175849452614,0.0050528245046734,-0.3439674377441406,0.9389473795890808,-0.0067672280441542,-0.0236535435287129,-0.6523906066779162,-1.686250925064087,-1.0770312547683716,-0.1221399307250976,917,286,32767,-21241
12.3,1788352236035,3.0985915660858154,-6.647887229919434,0.0053226305171847,0.0025144966784864,-0.5912978053092957,0.806431770324707,-0.0720319855328869,-0.0005418145133299,-5.0940117668030894e-05,-0.049281183630228,-0.0803232416510582,-1.359103798866272,0.0002695666626095,0.0016833590343594,-0.4037790894508362,0.9148549437522888,-0.1787570556291091,-0.2191498642731811,-1.4424391018185378,0.9452289938926696,-0.5501373410224915,-1.4576644897460938,850,206,27079,-20530
12.4,1788352236135,4.816901206970215,-6.873239517211914,-0.0013353492831811,0.0011639435542747,-0.6522989273071289,0.75795978307724,-0.0494513851185798,0.0013547979206485,8.252065147014566e-06,-0.0040365625172853,-0.0041115027852356,-1.628700852394104,-0.001551117748022,0.0009807180613279,-0.4714695513248443,0.8818804621696472,-0.011615697014452,-0.0130854828806963,-1.6351007263325177,0.5642814040184021,0.1066967844963073,1.7552528381347656,772,104,27159,-18928
12.5,1788352236235,5.323943614959717,-6.873239517211914,-0.0004882801731582,0.0013974234461784,-0.7157508134841919,0.698354184627533,-0.0302508122831304,0.0033555949531722,1.2160074688618395e-05,0.0175694040954113,0.0290755368769168,-1.7848143577575684,-0.001157209277153,0.0006281668320298,-0.5498780608177185,0.8352438807487488,0.0041006488797907,-0.0441332599190792,-1.829463814621917,-0.5196493268013,-0.0103934407234191,0.7200593948364258,551,94,23204,-18300
12.6,1788352236335,4.422535419464111,-6.8450703620910645,-0.0004384205094538,0.000781012349762,-0.7719511389732361,0.6356813311576843,-0.030930183832319,0.0058761621091069,1.2401203676915764e-05,0.011345051229,0.0119103174656629,-1.7412254810333252,-0.000629392452538,0.0005622198805212,-0.6145601868629456,0.7888695597648621,0.0023115907572799,-0.0110318722659103,-1.902619391125089,0.1573385000228881,-0.0488921999931335,0.2298412322998047,609,99,25562,-18412
12.7,1788352236435,4.929577350616455,-6.816901206970215,-0.0003411232028156,-0.0002629481605254,-0.8265790343284607,0.5628204345703125,-0.0323452879581025,0.0082737432470056,-1.693945652177881e-06,0.0345193035900592,-0.0093829175457358,-1.8605473041534424,0.0011783000081777,-0.00028046220541,-0.6975218653678894,0.7165625691413879,0.0459964144787205,0.0526104981198598,-1.8741374645335236,0.3502206206321716,-0.4110804796218872,-1.1018199920654297,324,71,20943,-18154
12.8,1788352236535,5.97183084487915,-6.14084529876709,4.717224510386586e-05,-0.0003640547511167,-0.8800340294837952,0.47491055727005,-0.0200138708713621,0.0029856449775028,-4.736919067038315e-05,-0.0164725109934806,-0.0262560341507196,-1.897233486175537,0.0014593256637454,-0.0003680838271975,-0.7562316060066223,0.6543023586273193,0.0729378926061152,0.0956549363403065,-1.6994348756209248,0.423571765422821,-0.7442361116409302,-2.246732711791992,329,70,21813,-16747
12.9,1788352236635,6.2253522872924805,-6.197183132171631,-0.0017133625224232,-5.478615639731288e-05,-0.9208135008811952,0.3899995386600494,0.0183402889662344,-0.0181246176352529,2.808421477311648e-05,-0.0867115259170532,-0.0845331624150276,-2.036904573440552,-0.0013887919485569,-0.00087405834347,-0.8223311305046082,0.5690068006515503,0.0595564374139964,0.0117093573930891,-1.6655086126220873,-0.6172692179679871,-0.4880622029304504,-1.1095199584960938,221,73,18852,-16297
13.0,1788352236735,6.056337833404541,-6.14084529876709,0.0032834946177899,-0.0035332276020199,-0.9500753283500672,0.3119833469390869,-0.0125016446721545,-0.008712883002909,-5.8150790824541805e-06,0.1746471524238586,0.1335985660552978,-1.7512526512145996,0.0071064177900552,-0.0037714699283242,-0.8600751757621765,0.5101038217544556,0.1614808319370108,0.1233348048033423,-1.6261601085086392,-0.0904330015182495,-0.0299156904220581,0.4361820220947265,280,85,20802,-16828
13.1,1788352236835,5.746479034423828,-6.309859275817871,0.0113613428547978,-0.0089999847114086,-0.9739039540290833,0.2264971286058426,0.0004675012942144,-0.0084449828642786,-2.8911237657739857e-05,0.1366040259599685,0.0722523480653762,-1.853600263595581,0.0125381425023078,-0.0063601350411772,-0.9114784002304076,0.4111078083515167,-0.0033676869208151,-0.0766933587029869,-1.9230422163843703,-0.7629212141036987,-0.2269204258918762,-0.1760168075561523,266,71,21730,-16617
13.2,1788352236935,5.323943614959717,-6.14084529876709,0.0105178067460656,-0.0102508934214711,-0.9923869371414183,0.1222802773118019,-0.0157037939748443,0.0005693098917858,-8.015509882891233e-06,0.0455150082707405,-0.027012025937438,-1.819046258926392,0.0130920745432376,-0.007548957131803,-0.942023515701294,0.3352062702178955,0.036874567978048,0.0093472661406121,-1.6294240367482355,0.145462691783905,-0.128633975982666,0.0334911346435546,572,76,27357,-16985
13.3,1788352237035,5.605633735656738,-6.3380279541015625,0.0099376030266284,-0.0107977027073502,-0.9992305040359496,0.0363727733492851,-0.0093351858293448,0.0001079338464773,-7.316220209797383e-06,0.0305121727287769,-0.0393217876553535,-1.7997322082519531,0.0117485160008072,-0.008903226815164,-0.9726085066795348,0.2319816499948501,0.0524785473497291,-0.0382148602832158,-1.7290009526177974,-0.1541051268577575,-0.1888583302497863,-0.1178503036499023,809,56,31168,-16743
13.4,1788352237135,4.2816901206970215,-6.676056385040283,-0.009146237745881,0.0115604512393474,0.9988591074943542,0.0454224981367588,-0.0158880188476494,0.0020754740726342,-1.0685247979824168e-05,0.0256526339799165,-0.0280152764171361,-1.7409796714782717,0.0112038385123014,-0.009425482712686,-0.9874415397644044,0.1573051959276199,0.0434740322275917,-0.0523698895489166,-1.6236936328546712,-0.3098439574241638,-0.3835141062736511,0.459874153137207,833,131,28879,-19413
13.5,1788352237235,3.323943614959717,-6.507042407989502,-0.0062589370645582,0.0085135977715253,0.9905978441238404,0.1363974213600158,-0.0413521089395656,0.0015170552380729,-7.384644231925595e-05,-0.0801147371530532,-0.1047180593013763,-1.6737511157989502,0.004237643443048,-0.0038561122491955,-0.99649840593338,0.0834162607789039,-0.2456407595359493,-0.3094091713294606,-1.7916509469173725,-0.1838735938072204,0.2754902839660644,-0.1816873550415039,860,163,27490,-19561
13.6,1788352237335,2.281690120697021,-6.788732528686523,-0.0007754061371088,-0.0002578287385404,0.9770546555519104,0.2129871845245361,-0.0745445370961361,0.0095932593872361,-8.741457250057539e-05,-0.0492488332092762,-0.0157084185630083,-1.492411732673645,-0.000736360438168,-0.0004025464877486,0.9999866485595704,0.0051130233332514,-0.003010387091381,0.0145414790393078,-1.3900935930044116,0.4188934564590454,0.3392553329467773,-1.0856103897094729,914,100,32767,-18533
13.7,1788352237435,0.0,-1.7183098793029783,-0.0007125988486222,-0.0005216502468101,0.9606198072433472,0.2778647840023041,-0.089926515211063,0.0103687599604441,-2.7057151536064294e-05,-0.0101261045783758,-0.0063828341662883,-1.3570324182510376,0.0003543579950928,-0.0002773869782686,0.9989545941352844,0.0457108058035373,0.024340645842447,-0.0376018972551792,-0.1792589523435542,2.327989339828491,1.5890889167785645,-0.6956682205200195,0,140,0,0
13.8,1788352237535,0.0,0.0,-0.000514619576279,-0.0004440512857399,0.9583518505096436,0.2855892777442932,0.0014335261696903,0.0120724714089849,3.0311792360340198e-06,-0.0091810701414942,0.0094112511724233,-0.032379675656557,-0.0002011023461818,-0.0004122210666537,0.9989474415779114,0.0458660535514354,0.01035489649031,0.0004417549438011,0.0307161648910661,-0.1885685324668884,0.7014424800872803,-0.0198011398315429,0,0,0,0
13.9,1788352237635,-0.98591548204422,5.690140724182129,-0.0003958425368182,-0.0004696690302807,0.959294855594635,0.2824056446552276,0.0070554895183972,-0.0019185187010462,2.7246221423979668e-06,-0.0040220590308308,-0.0037387979682534,0.125821441411972,-0.0004930021241307,-0.0002808924764394,0.999319553375244,0.0368792489171028,0.0193990007330876,0.0169537666385257,0.586758021398593,1.069001078605652,1.6530215740203855,0.5900983810424805,906,400,-32767,21232
14.0,1788352237735,-1.774647831916809,6.309859275817871,-0.0009575255098752,0.000448553240858,0.9742202758789062,0.2255964428186416,0.0923487750513838,0.0084910284856347,-5.491517010476814e-05,0.0002697462041396,0.0118713611736893,1.265670895576477,0.0010229097679257,-0.0004660272970795,-0.9992547035217284,0.0385848842561244,0.0141770687100967,0.0024605643335938,1.1744863670718315,-1.2733265161514282,0.443665087223053,-0.4338388442993164,939,69,-32767,17186
14.1,1788352237835,-1.042253494262695,6.169013977050781,-0.0007812383119016,0.0007805073400959,0.9857974648475648,0.1679349541664123,0.0803355161569835,0.0038114852994566,-2.607743677876298e-05,0.003400751389563,0.0027255977038294,1.1371885538101196,0.0006318045780062,-0.0006972709670662,-0.9959280490875244,0.0901471972465515,0.0055966266234948,-0.0207742767039675,1.062381812537645,0.2158849239349365,-0.0688400268554687,0.030522346496582,921,87,-32767,17074
14.2,1788352237935,-0.7323943376541138,4.873239517211914,-0.0004573090118356,0.0007704212330281,0.9936439990997314,0.1125646904110908,0.0880947975783225,0.0048198449872018,-7.309775909394161e-06,-0.0013478944310918,0.0031461254693567,0.9909909963607788,0.0006751082837581,-0.0005622142925858,-0.9910166263580322,0.1337355375289917,-0.0063246793120717,0.020292702804336,0.8478925938808038,-0.3869292140007019,-0.2974200248718261,-0.3941326141357422,918,24,-32767,11890
14.3,1788352238035,-0.7887324094772339,4.422535419464111,0.0003116493462584,0.0008104666485451,0.996855616569519,0.0792340338230133,0.0581876348855695,0.0035190177164938,6.980866917873519e-06,0.0046812933869659,-0.011362568475306,0.7312353253364563,0.0001093279570341,-0.0007600877434015,-0.9839118719100952,0.1786525696516037,-0.0042144228205978,0.0224953705159289,0.8145872316220164,-0.0113570094108581,0.1477116346359253,0.212407112121582,918,150,-32767,14441
14.4,1788352238135,-0.6478873491287231,4.788732528686523,-0.0003715011116582,0.0006031702505424,0.9993213415145874,0.0368290692567825,0.067191924837816,0.0050597087840631,-5.292771733560175e-06,-0.0071474611759185,0.0145931458100676,0.8712217807769775,1.742783933877945e-05,-0.0006942711770534,-0.9760286211967468,0.2176411151885986,0.0054721731951735,-0.034111029451288,0.8853084803124788,0.2309118509292602,0.0979215502738952,-0.0283260345458984,936,78,-32767,13333
14.5,1788352238235,-0.8450704216957092,4.676056385040283,0.0003370624326635,-0.0006414009258151,-0.9999873638153076,0.0049746809527277,0.0790761306778753,0.0019852875125052,-3.268761202145214e-05,0.0013455183943733,0.0158372446894645,0.7934553623199463,0.0004730550572276,-0.0005596205592155,-0.96734619140625,0.2534576654434204,0.0034749745275431,0.0050605814161182,0.921803184938271,0.3186265230178833,-0.0554044842720031,0.3862066268920898,936,103,-32767,13708
14.6,1788352238335,0.0,4.8450703620910645,-4.599585372488946e-05,-0.0006232660380192,-0.9991493821144104,0.0412324517965316,0.0751949621566755,0.0031992831910729,2.299108586426275e-05,-0.0024874221999198,-0.0138378450646996,0.790386974811554,-1.875031739473343e-05,-0.0005809627473354,-0.9539772272109984,0.2998787462711334,0.0031172485279878,-0.0398614961702919,0.8396028140062691,0.6914703249931335,-0.2147738337516784,-0.3486909866333008,934,64,-32767,13335
14.7,1788352238435,-0.9577465057373048,4.760563373565674,0.0001355025015072,-0.0004634635115507,-0.9962719678878784,0.0862664729356765,0.0751392681347295,0.0036042659603048,2.300666128720456e-05,0.0027516887057572,-0.0152948573231697,0.8539590239524841,0.0003186026588082,-0.0002864748239517,-0.9421720504760742,0.3351293206214905,-0.0075648944624717,0.0151711178388499,0.7561701625784476,-0.6587796807289124,-0.0798941254615783,0.2026147842407226,937,102,-32767,13424
14.8,1788352238535,-0.591549277305603,4.732394218444824,6.43145467620343e-05,-0.0003165538946632,-0.9917356371879578,0.1282975524663925,0.0705617025901686,0.0064225324769412,7.1884369222922e-06,-0.0065373247489333,0.0091129494830966,0.8313477635383606,-7.698219269514084e-05,-0.000429512001574,-0.9285016655921936,0.3713281452655792,0.0008578449254727,-0.0088898968947881,0.8316338258821693,0.4141504168510437,0.1051529645919799,-0.4737043380737304,922,72,-32767,13593
14.9,1788352238635,-0.2253521084785461,4.816901206970215,-0.0006409415509551,-0.0003897789865732,-0.9854466319084167,0.169983297586441,0.0749143773182835,0.0024939420770918,3.814283003925359e-05,0.0014761938946321,-0.0164336394518613,0.8102700114250183,-0.00073261000216,-0.0006007635965943,-0.909697651863098,0.4152701795101166,0.00081179118779,-0.0078452568267216,0.6853092973468915,-0.4922573566436767,0.0978433489799499,0.562352180480957,937,80,-32767,13178
15.0,1788352238735,0.0,4.619718074798584,-0.0008906916482374,-0.0004835966974496,-0.9791182279586792,0.2032888531684875,0.0743836940635537,0.0023121846307654,-1.6363915724033711e-06,0.0031627686694264,-0.0010667645838111,0.7540996074676514,-0.001016560010612,-0.0008725123479962,-0.8924683332443237,0.4511081576347351,0.0056796911138717,-0.0247909225929024,0.8402798937818104,0.2223851084709167,0.0544938445091247,0.0577869415283203,932,96,-32767,14130
15.1,1788352238835,-0.3098591566085815,4.8450703620910645,-0.0011248595546931,-0.0006339916726574,-0.969154953956604,0.2464485466480255,0.0776286530645979,0.0048390858149172,8.530588591900875e-06,0.0026882959064096,0.0019527622498571,0.8167366981506348,-0.0009805541485548,-0.0009361635893583,-0.8755271434783936,0.4831672012805938,0.0032216422365206,-0.0044106057368114,0.73242189978057,-0.4802612066268921,-0.1378466486930847,0.6282367706298828,940,60,-32767,13151
15.2,1788352238935,-0.3661971688270569,4.647887229919434,-0.0017840148648247,-0.001075433101505,-0.9587839841842652,0.284128338098526,0.0750877525175666,0.0038653468945343,3.284762349723902e-05,0.0083623398095369,-0.0244207624346017,0.7605088949203491,-0.0017115520313382,-0.0015113707631826,-0.8537499308586121,0.5206783413887024,-0.0010334758647744,-0.0269493615527593,0.729070842183717,1.0228793621063232,-0.151444673538208,-0.0860958099365234,914,93,-32767,13814
15.3,1788352239035,-0.8732394576072693,4.788732528686523,-0.0017249009106308,-0.0009636274189688,-0.9460297226905824,0.3240737318992615,0.0687637835717167,0.0029541828650958,-3.078021401404088e-05,0.0026287480723112,0.0115819834172725,0.8648723363876343,-0.0015982883051037,-0.0015645576640963,-0.8328331708908081,0.5535194873809814,0.0077342753541689,-0.015975749267971,0.873129031283147,-0.4814689755439758,-0.0925779938697815,0.6320180892944336,941,73,-32767,13291
15.4,1788352239135,0.0,1.1267606019973757,-0.0024070022627711,-0.0014740177430212,-0.9326987266540528,0.3606453537940979,0.0686825060280884,0.0024881533325397,1.7945731106760607e-05,0.0074668587185442,-0.0173948518931865,0.8311812877655029,-0.0016294904053211,-0.0017592357471585,-0.8142114877700806,0.580563485622406,0.0008573865940432,0.0300775425627183,0.4719046595998986,-1.1326537132263184,-0.5182682871818542,0.113473892211914,0,90,0,0
15.5,1788352239235,0.0,0.0,-0.0024414379149675,-0.0013740259455516,-0.9297143220901488,0.3682710230350494,0.0007468327603753,-0.0095447737392532,2.460924205828873e-06,0.0024362481199204,-0.0107515640556812,-0.0134441470727324,-0.0021364176645874,-0.001939601264894,-0.8147729635238647,0.5797730088233948,-0.0033278391280112,-0.0086579393889717,-0.0500313316353818,0.4647480845451355,-0.2996028065681457,-0.0039644241333007,0,0,0,0
15.6,1788352239335,0.9295774698257446,2.7042253017425537,-0.0025318001862615,-0.0013675952795892,-0.9303025603294371,0.3667818605899811,0.0032439760670802,0.0042770869034019,2.033533929982024e-06,0.0,0.0,0.0,-0.0026804246008396,-0.002282072789967,-0.8122752904891968,0.5832636952400208,0.0010288178394033,-0.0343549960969707,0.2492822522709198,-0.2284446358680725,0.4550098776817322,-0.4134902954101562,851,281,18620,11501
15.7,1788352239435,2.3943662643432617,3.0422534942626958,-0.0030875941738486,-0.0015203247312456,-0.9241361618041992,0.3820478618144989,0.0995876804487769,-0.0027153808046297,6.508300683137916e-05,0.0004297323175705,-0.0167606510221958,0.335729718208313,-0.00287611130625,-0.0022942991927266,-0.8041884303092957,0.5943630337715149,-0.0066391141480751,-0.0084007720629528,0.1514263926391969,-0.2141765356063842,-0.148628294467926,0.8386726379394531,776,30,21982,7838
15.8,1788352239535,3.521126747131348,0.9014084339141846,-0.0036029210314154,-0.0016808939399197,-0.9231329560279846,0.3844604194164276,0.0968460862965636,-0.0027714194004472,2.686218163405475e-06,0.0029028886929154,-0.0070778238587081,0.037376295775175,-0.0028445553034543,-0.0021240804344415,-0.8082787990570068,0.5887892246246338,-0.0222487786564098,0.0017472561573404,-0.4777868290587341,-0.1593101024627685,-0.9688092470169068,-0.1027755737304687,915,87,32767,0
15.9,1788352239635,4.253520965576172,-6.366197109222412,-0.0031321439892053,-0.001273019821383,-0.935797393321991,0.3525218963623047,0.0333123920168569,-0.0014661270607967,-6.241064314889824e-06,-0.0052664694376289,0.0092796273529529,-1.0024280548095703,-0.0026838174089789,-0.0017717499285936,-0.8356068730354309,0.5493186116218567,-0.0136703037086125,0.0139241241914938,-1.3570532780174285,-0.560712993144989,-0.946666181087494,0.6478710174560547,834,316,26959,-22828
16.0,1788352239735,5.183098793029785,-6.985915660858154,-0.0027748092543333,-0.0005628723301924,-0.9611647725105286,0.275960773229599,-0.0381054421245713,-0.0050954184674031,8.08200186141534e-06,-0.0222427081316709,0.0098341088742017,-1.7626253366470337,-0.0022956682369112,-0.0008628889918327,-0.8768401741981506,0.4807758331298828,-0.0258776105554683,0.0473013373374247,-1.9716006048298915,-0.3852604031562805,-0.0404537916183471,0.1597890853881836,575,106,24611,-18951
16.1,1788352239835,4.873239517211914,-6.901408672332764,-0.0019223040435463,-0.0002306218520971,-0.9824628829956056,0.1864484548568725,-0.0318652728558901,0.0001784199212042,-1.3956984088563065e-05,0.0009661103831604,-0.0027368378359824,-1.7709757089614868,-0.0008518816903233,-0.0003077303990721,-0.9239876866340636,0.3824210166931152,-0.0062874318349361,0.0691633371865156,-1.7536097670485729,-0.2256808280944824,-0.0359421372413635,-1.1460046768188477,687,71,24573,-18002
16.2,1788352239935,4.873239517211914,-6.901408672332764,-0.0006105535430833,-0.0001043477532221,-0.9940893650054932,0.1085630878806114,-0.0313113210288507,-0.0025456317428182,4.7843389888755225e-06,0.001003619399853,0.0221095122396945,-1.7223529815673828,-0.0004494842141866,-0.0001796577125787,-0.9513360857963562,0.3081549108028412,-0.0040576603202743,0.0089621555832447,-1.93716613948383,0.0390273928642272,0.0761197805404663,0.127781867980957,524,77,24228,-18196
16.3,1788352240035,5.295774459838867,-6.732394218444824,0.0017165271565318,-0.0011284222127869,-0.999991774559021,0.0034774797968566,-0.0346575618033526,0.0125514360197091,5.178584746701508e-05,0.0364956930279731,0.0706949830055236,-1.8246004581451416,0.0020542563870549,-0.0006710542365908,-0.9732612371444702,0.2296907007694244,0.0163388080374406,0.0310273545342032,-1.81990474851082,-0.0537981986999511,-0.0633220672607421,0.6322307586669922,321,108,20854,-18577
16.4,1788352240135,5.014084339141846,-6.704225540161133,-0.0029919997323304,0.0017417750786989,0.9967423677444458,0.0805765613913536,-0.0294120103363609,0.0113765633732503,5.819021983036577e-06,0.0676138326525688,0.0630602985620498,-1.873427391052246,0.0041086142882704,-0.0017050355672836,-0.9931398034095764,0.1168479621410369,0.0166224499193543,0.0255246686811517,-1.8176270423762408,-0.4338921308517456,0.0998377203941345,-0.2741661071777344,172,98,17328,-18439
16.5,1788352240235,6.084506988525391,-6.309859275817871,-0.0027864116709679,0.0017838603816926,0.9831453561782836,0.1827955991029739,-0.0100635927220994,0.0005370293548279,3.744353731594943e-06,-0.0197969060391187,-0.0384031906723976,-2.0070812702178955,0.0041097989305853,-0.0021062064915895,-0.9995895624160768,0.0282727647572755,0.0778907194501795,0.064232153574207,-1.8509450665235796,-0.3248735666275024,0.2263458371162414,0.4608230590820312,166,30,20012,-16017
16.6,1788352240335,5.830986022949219,-6.197183132171631,-0.0041978019289672,0.0043806890025734,0.964499831199646,0.2640137076377868,-0.0009132261298733,0.0027445022431129,6.228319496767637e-06,0.0364717580378055,0.0248024631291627,-1.841499209403992,-0.0062053641304373,0.0037835910916328,0.998455822467804,0.0550749115645885,0.0419230900454299,0.064898761718029,-1.8659050444787424,-0.3108266592025757,-0.284321665763855,-0.197178840637207,235,75,21382,-16545
16.7,1788352240435,6.11267614364624,-6.14084529876709,-0.0060660201124846,0.0068438583984971,0.9329715371131896,0.3598341643810272,0.0064580982599668,-8.06248433035433e-05,-6.907102518684504e-06,0.0443804785609245,0.0301160160452127,-1.832026124000549,-0.0063866078853607,0.0044551072642207,0.9859873652458192,0.1666385233402252,-0.0271123233585324,-0.1027151633541463,-2.1732987351209307,-1.0366309881210327,-0.4102550745010376,0.0071706771850585,225,102,21374,-17293
16.8,1788352240535,5.605633735656738,-6.02816915512085,-0.0051483055576682,0.0063154473900794,0.8957329392433167,0.4445178210735321,-0.0141350614189576,0.0013302233570919,1.193116049821452e-05,0.0272163301706314,0.0025478629395365,-1.7911370992660522,-0.0062042316421866,0.0047691483050584,0.9696179032325744,0.2444993108510971,0.010084824656326,-0.0306173154246708,-1.8859762100142596,-0.642345666885376,-0.3003636598587036,0.1692228317260742,752,103,28321,-17651
16.9,1788352240635,4.901408672332764,-6.2253522872924805,-0.0042008724994957,0.0056580509990453,0.8540387749671936,0.520161509513855,-0.0098131517166889,0.0024426618020227,-6.054014392523814e-06,0.0087806330993771,-0.0273571703583002,-1.7112537622451782,-0.0053389240056276,0.0043801618739962,0.9476417899131776,0.3192605674266815,0.0059248972666697,-0.0220449591051544,-1.6667729008275325,0.41797536611557,0.0359271764755249,-1.259572982788086,898,83,32267,-17513
17.0,1788352240735,2.4788732528686523,-6.169013977050781,-0.0042680553160607,0.0049438457936048,0.8124589920043945,0.5829817056655884,-0.0321978436853228,0.0084349124375335,-6.599073928442679e-06,-0.0118962805718183,-0.0242828447371721,-1.6457091569900513,-0.0051834871992468,0.0028063831850886,0.9141417741775512,0.4053518772125244,-0.0109417223077744,-0.0266533303905831,-1.3104125661256545,-0.9226038455963136,0.2789634466171264,-1.0370121002197266,927,96,32767,-17672
17.1,1788352240835,0.4788732528686523,-6.8450703620910645,-0.0035528182052075,0.0017708805389702,0.7685527205467224,0.6397742033004761,-0.089287924306015,0.0064496248076906,-0.0001298778788642,-0.0355224832892417,-0.0689712166786193,-1.220093846321106,-0.0036167250946164,-8.28159973025322e-05,0.8909448385238647,0.4540972411632538,-0.0375994776658347,-0.0309472380251924,-1.1473695477353218,-0.6343017816543579,0.0380575656890869,-0.3860673904418945,922,86,32767,-18967
17.2,1788352240935,0.6197183132171631,-6.788732528686523,-0.0034625278785824,-0.0002873336197808,0.7309927940368652,0.6823762059211731,-0.1145973201775974,0.0040469365466974,-2.3313584352099303e-05,-0.0175793133676052,-0.0210485700517892,-1.1006741523742676,-0.0030397567898035,-0.0013658525422215,0.8670520186424255,0.4982064664363861,-0.0101014981550843,-0.0262064799083946,-1.1955174324128113,-0.2830837368965149,0.1088724732398986,-0.1775093078613281,920,79,32767,-18380
17.3,1788352241035,-1.436619758605957,-1.94366192817688,-0.0027414050418883,-0.0011275213910266,0.6929075121879578,0.7210204005241394,-0.1136939031730217,0.0041853713350607,-1.7727462494655202e-05,0.0008622363675385,-0.0160593185573816,-1.0666147470474243,-0.0014913752675056,-0.0021858373656868,0.8383618593215942,0.5451078414916992,0.0113209687690494,-0.0457556076828557,-0.4912958415968095,2.3164374828338623,1.2216459512710571,-0.2709197998046875,16,199,0,0
17.4,1788352241135,0.0,0.0,-0.0025535207241773,-0.0012906265910714,0.6812595725059509,0.7320364117622375,-0.0072241560734533,0.0128278463195531,-1.0968262493952902e-06,-0.0033577247522771,0.0251601301133632,-0.1153173223137855,-0.00215067807585,-0.0018116040155291,0.8380597233772278,0.5455713272094727,0.0034951262052213,0.0082588039824095,0.0526041876333994,-0.0126717090606689,0.4267628788948059,-0.2251663208007812,0,0,0,0
17.5,1788352241235,2.7042253017425537,5.577464580535889,-0.002463866956532,-0.0013221696717664,0.6821543574333191,0.7312029600143433,0.0012845020524776,0.0024229645121704,-1.1688837663601052e-06,9.82913661573548e-09,0.0,0.0,-0.0011496981605887,-0.0026471568271517,0.8385729789733887,0.5447815656661987,-0.0058495971448702,-0.0802107236103743,0.031327066499485,3.6077566146850586,0.7308314442634583,0.7592191696166992,933,435,32767,24547
17.6,1788352241335,1.154929518699646,8.816901206970215,-0.0030170921236276,-0.0009626490063965,0.7056683897972107,0.7085351347923279,0.1633422698716858,0.0111349214683712,-0.0003123380090134,0.0025476119481027,0.1358860582113266,1.061937689781189,-0.0031476123258471,-0.001451713964343,0.8597785234451294,0.5106553435325623,-0.0067713856620119,0.1212398674695397,1.215930802624594,-2.0594053268432617,0.0296629667282104,0.3964910507202148,928,63,32767,23012
17.7,1788352241435,1.436619758605957,6.478873252868652,-0.0034795315004885,-0.0003607564140111,0.7457808256149292,0.6661821603775024,0.1543144894402026,0.0032213566561806,-3.899435476818805e-05,0.0039700721390545,0.0046435622498393,1.2129926681518557,-0.003686711192131,-0.0011627376079559,0.8952251076698303,0.445597380399704,-0.0102643939544971,0.0265650953508775,1.2931465149463248,-2.2539541721343994,-0.6165603399276733,1.7526969909667969,1,36,0,14332
17.8,1788352241535,-1.0985915660858154,5.85915470123291,-0.0039571458473801,-1.9394210539758205e-05,0.7779375314712524,0.6283292174339294,0.0876070591212668,-0.003987810605053,2.7987268269122708e-05,0.0019553883466869,0.009141681715846,0.95461767911911,-0.0024618925526738,-0.0011252425611019,0.91373872756958,0.4062933623790741,0.0165276972635776,-0.103098472673659,1.0043659614821,2.109981775283813,1.0624347925186155,-1.0418882369995115,939,168,-32767,18146
17.9,1788352241635,0.0,4.8450703620910645,-0.0032945794519037,0.0001915679313242,0.81119304895401,0.5847691893577576,0.1053913406762378,0.0055005515238875,-0.0001088368146553,0.0023513261694461,0.018006594851613,1.00685715675354,-0.0038094939664006,-0.0003183195367455,0.9308930039405824,0.3652720749378204,0.0040870745379384,0.0394639260939097,0.9518031023111956,-0.3374541997909546,-0.2485195398330688,1.908738136291504,936,36,-32767,11753
18.0,1788352241735,0.0,4.450704097747803,-0.0035466460976749,0.0003640463110059,0.8321666121482849,0.5545142889022827,0.0662799680665816,-0.0009155934136029,-9.118237128315804e-07,-0.0019208003068342,-0.0043934718705713,0.6654437184333801,-0.0034045670181512,-0.0004975898191332,0.94512677192688,0.3266856372356415,0.002792877392559,-0.0066686614980968,0.6761288125034277,0.6689627170562744,-0.1186559200286865,-0.53155517578125,944,145,-32767,14205
18.1,1788352241835,-0.1971831023693084,4.676056385040283,-0.0032830710988491,0.0004452591529116,0.8512265086174011,0.5247881412506104,0.0777356986728092,0.0023443575108961,-2.0891677340756038e-05,0.0015773862833157,-0.0037879957817494,0.7675865292549133,-0.0036355396732687,-0.0003868844360113,0.9558355212211608,0.2938795387744903,-0.0107354151305605,0.0200704471541347,0.7396930349580162,-0.6900873780250549,0.0633400678634643,-0.4632339477539062,934,89,-32767,13820
18.2,1788352241935,0.0,4.816901206970215,-0.0034427572973072,0.000466896337457,0.8697065114974976,0.4935570061206817,0.0799954185120111,-0.000365944662047,-1.0074660583221066e-05,-0.001251402660273,0.0003473395481705,0.8044664263725281,-0.0036091869696974,-0.0003174087032675,0.968615710735321,0.248536929488182,-0.0065742516173121,0.0036350295349457,0.7704049799927699,0.0365541577339172,-0.0352133512496948,-0.2369422912597656,928,94,-32767,13304
18.3,1788352242035,-0.2816901504993438,4.676056385040283,-0.0034834693651646,0.000686865649186,0.8880941271781921,0.4596478641033172,0.0838682135680099,0.0007954298968255,3.028097551634139e-06,0.0033999504521489,0.0018130174139514,0.7516757845878601,-0.0033014332875609,8.278805762529373e-05,0.976679027080536,0.2146795392036438,0.0152424470954324,-0.0109570488653859,0.812453020670044,0.6760849356651306,0.1453194618225097,-0.09979248046875,940,91,-32767,13639
18.4,1788352242135,-0.7042253613471985,4.704225540161133,-0.0037818225100636,0.0007676996756345,0.9067338109016418,0.4216858148574829,0.081736031844868,0.0038797673638351,-4.475295184885362e-05,-0.0136465318500995,0.0129026360809803,0.7540856003761292,-0.0040065264329314,-0.0002495273947715,0.9833925366401672,0.1814473867416381,-0.0101286426282044,0.0049860316855823,0.6800972006958261,-0.169707179069519,-0.1123589277267456,0.0592203140258789,932,94,-32767,13730
18.5,1788352242235,0.0,4.676056385040283,-0.0034748679026961,0.0007162147667258,0.921625554561615,0.3880639970302582,0.0831335876924719,0.0032074216936257,1.8562289598628453e-05,0.0006847342010587,-0.0107947364449501,0.7740053534507751,-0.0035765804350376,0.0001094983890652,0.9906914234161376,0.1360801458358764,0.0113138432319387,0.0040274239892194,0.7926606282641622,0.4934778809547424,-0.040884792804718,0.5696678161621094,918,79,-32767,13740
18.6,1788352242335,-0.2535211145877838,4.676056385040283,-0.0035926317796111,0.0009319287491962,0.9347418546676636,0.3553082644939422,0.0867966439733066,0.0017263268092784,-1.0983546137665702e-05,-0.0044114761985838,0.0061797625385224,0.7739065885543823,-0.0032760482281446,2.1469779312610623e-05,0.9948106408119202,0.1016907915472984,-0.0024800945660073,-0.0200577220525062,0.7753892727117137,0.3585672974586487,-0.0870410799980163,-0.1561479568481445,932,79,-32767,13644
18.7,1788352242435,0.0,4.788732528686523,-0.0029756617732346,0.0009126579388976,0.9489592909812928,0.3153831958770752,0.0756630785314243,0.0025129045325145,2.39029224800242e-05,0.0026749763637781,-0.0105070583522319,0.7738773226737976,-0.0027667181566357,0.0002166125923395,0.997726559638977,0.0673356354236602,0.0044770643052774,-0.0291584762228133,0.8350657645638652,-0.0786142945289611,0.1670177578926086,0.4244575500488281,923,80,-32767,13236
18.8,1788352242535,-0.2816901504993438,4.929577350616455,-0.0023192400112748,0.0008622426539659,0.9601138830184937,0.2795982956886291,0.0791664519335792,0.0034558467481814,1.4944969914349402e-05,-0.0002147183404304,-0.0079028103500604,0.7391833066940308,-0.0025647543370723,0.0004113754257559,0.9997645616531372,0.021541828289628,0.0026206881296686,0.0199597331769969,0.7716613275230746,-0.208034873008728,-0.0294162034988403,-0.4184503555297851,928,61,-32767,12857
18.9,1788352242635,-0.7605633735656738,4.732394218444824,-0.0022761987056583,0.0011358670890331,0.9703132510185242,0.2418381124734878,0.0830977524784278,0.0026938246957726,3.817783084369517e-06,0.003788286820054,-0.00289944303222,0.8244636654853821,0.0023547057062387,-0.0004707369953393,-0.999902844429016,0.0137316230684518,-0.0065616088804166,-0.0068949575172372,0.7028217216150845,-0.9253900051116944,0.1625064015388488,-0.7432928085327148,935,66,-32767,13322
19.0,1788352242735,0.0,4.591549396514893,-0.0022931511048227,0.0012014124076813,0.9782240390777588,0.2075356692075729,0.0766237727090159,0.0006611274124116,-6.317779143227767e-07,0.0013733670348301,0.0068757850676774,0.765220046043396,0.0026690205559134,-0.0005457391962409,-0.9990143179893494,0.044306892901659,-0.0009289063612344,0.0028706867243727,0.661992997110934,-0.0506255626678466,-0.0891988277435302,0.2388439178466797,934,84,-32767,13912
19.1,1788352242835,-0.2535211145877838,4.788732528686523,-0.0017297912854701,0.0012163564097136,0.9862059950828552,0.1655092090368271,0.0824032433492125,0.0043154344534343,9.156164187291082e-06,0.0011311158305034,-0.0130780851468443,0.7877247929573059,0.0017552468925714,-0.0009105456992983,-0.9964746236801147,0.0838721171021461,0.0144597520004223,-0.0289988404898924,0.8067332618430788,-0.1774302721023559,0.2099694609642028,0.3562679290771484,924,91,-32767,13334
19.2,1788352242935,-1.042253494262695,1.4647886753082275,-0.0016633421182632,0.0013897353783249,0.991891622543335,0.127067744731903,0.0813395710393004,0.0006531646431414,-3.3213108182062592e-06,-0.000486459233798,0.0032212778460234,0.7544257640838623,0.0017985114827752,-0.001131341792643,-0.9918917417526244,0.1270680874586105,0.0097979212983287,-0.0104460685610438,0.6168240143363503,-1.2881135940551758,-0.6764218807220459,0.5530595779418945,3,135,0,0
19.3,1788352243035,0.0,0.0,-0.0011925286380574,0.0013354968978092,0.9936701059341432,0.11232291162014,0.0057954952350709,-0.005088984153344,3.3581280034403137e-06,-0.001693298225291,-0.0179410818964242,0.0719367861747741,0.0015603527426719,-0.0010092472657561,-0.9916324019432068,0.1290805339813232,0.0007557739225404,0.0051290084577553,-0.0632103368853351,-0.414026141166687,0.3983548879623413,0.0046377182006835,0,0,0,0
19.4,1788352243135,-2.2253520488739014,-3.2957746982574463,-0.0012403163127601,0.0013554564211517,0.993471384048462,0.1140671670436859,-0.0039802558486394,-0.0007827415310705,4.898445539972189e-06,0.0002031911717494,-0.0012813269859179,-0.0309205390512943,0.0015186937525868,-0.0010187095031142,-0.9917438626289368,0.1282218545675277,-0.001312800395641,-0.0015398565914817,-0.0008003037613371,0.0216420888900756,-0.0989601612091064,-0.0970716476440429,529,29,-12896,-8943
19.5,1788352243235,4.450704097747803,-6.422535419464111,-0.0014690089737996,0.0012534596025943,0.9920222163200378,0.1260480731725692,-0.0731413433831418,-0.0028388153921322,3.22126979828105e-06,-0.0052890181541442,-0.0031699638348072,-0.4736835956573486,0.0018726270645856,-0.0008173342794179,-0.9944810271263124,0.1048974320292472,-0.0052542829667808,0.0168616200901233,-0.640266274482831,0.3885900378227234,-0.5613587498664856,0.3149738311767578,48,202,12933,-20523
19.6,1788352243335,2.816901445388794,-6.676056385040283,-0.0018028256017714,0.0010047678370028,0.9841029644012452,0.1775868982076645,-0.0818990514363068,-0.0001328487986811,-2.2263035454158594e-05,-0.0025125429965555,0.007303955964744,-1.3292005062103271,0.0020751543343067,-0.0004461947828531,-0.999032497406006,0.0439262799918651,0.0005773463806565,-0.0017649331739141,-1.480999578674102,-0.0928149819374084,0.4116387367248535,0.6154298782348633,922,50,32767,-16933
19.7,1788352243435,2.563380241394043,-6.14084529876709,-0.0026062298566102,0.0007999481167644,0.969316065311432,0.2458026111125946,-0.066555246610045,0.0086869178241315,-2.72000783320014e-05,-0.0033667804673314,0.0088356742635369,-1.3753854036331177,-0.0024119690060615,0.0001138942316174,0.9998409152030944,0.0176730155944824,0.0045069017275268,-0.0123116913950695,-1.3118837793323486,0.2589183449745178,0.0008814334869384,1.1641006469726562,915,91,32767,-17344
19.8,1788352243535,2.11267614364624,-6.704225540161133,-0.0029185405001044,0.0004965070402249,0.9538700580596924,0.3002052307128906,-0.0647319680369161,0.0017942526689536,4.672232258557096e-06,-0.0073508475907146,0.0071027614176273,-1.283611297607422,-0.0031944280490279,-9.553786367177965e-05,0.995384156703949,0.0959173142910003,0.0122312313023889,0.0105922181911651,-1.3612902953418402,0.1161524057388305,0.2975982427597046,-0.2791919708251953,915,155,32767,-20211
19.9,1788352243635,2.929577350616455,-6.676056385040283,-0.0033076917752623,0.0004510478465817,0.930983543395996,0.3650459349155426,-0.0721550496067133,0.00105506936422,1.3503683399874274e-05,-0.0088096717372536,0.0030727826524525,-1.40118145942688,-0.0032860022038221,-0.0006885267794132,0.987247347831726,0.1591588705778122,-0.0085982453126915,0.0006334516822034,-1.4445835010362398,0.1044926643371582,-0.0383668541908264,0.2839040756225586,928,140,32767,-19638
20.0,1788352243735,4.788732528686523,-6.591549396514893,-0.0037848833017051,0.000317278667353,0.8964397311210632,0.4431495666503906,-0.0396612625244761,-0.0027701342756718,7.07658144544852e-06,0.0055890050716698,0.0172318667173385,-1.6187748908996582,-0.0039053997024893,-0.000609079375863,0.9727465510368348,0.2318372577428817,-0.0010844179295091,0.0295238150783881,-1.7666911890332542,-0.4060272574424743,-0.078549325466156,-0.0036649703979492,811,160,29324,-19872
20.1,1788352243835,4.591549396514893,-6.788732528686523,-0.0039562932215631,0.0005320846103131,0.8539058566093445,0.5204121470451355,-0.0346531283021361,0.0021431482717733,-8.206844981787835e-06,0.0168763995170593,0.014518211595714,-1.7558133602142334,-0.0042876256629824,-0.0002757124602794,0.9429834485054016,0.3328118324279785,0.0014973950152082,0.0277374050125737,-1.6480564370670048,0.1546915769577026,0.000363290309906,0.0865612030029296,863,111,29913,-19410
20.2,1788352243935,5.211267471313477,-6.788732528686523,-0.0043633105233311,0.0008851359598338,0.810340404510498,0.5859424471855164,-0.0303872440478216,0.0048441155513684,1.0392708549638248e-05,0.0066017708741128,0.01209207624197,-1.7733324766159058,-0.0046715512871742,0.0005628680810332,0.9132617115974426,0.4073463082313537,0.0420784838637531,0.0305511371441196,-1.83284838243348,-0.0394680500030517,-0.341930627822876,0.31561279296875,744,130,26738,-19371
20.3,1788352244035,5.492957592010498,-6.901408672332764,-0.0041205929592251,0.0002270084805786,0.7457413077354431,0.666222870349884,-0.0063525509935143,-0.0034214190334799,8.594532726425388e-07,-0.0591017864644527,-0.0820562094449997,-1.941204309463501,-0.0038263220340013,-0.0014394540339708,0.8749437928199768,0.484207272529602,-0.0494503822862497,-0.0683787245646218,-1.9346656033114569,-0.4885014295578003,-0.1662383675575256,-0.4009046554565429,373,103,20341,-18851
20.4,1788352244135,5.098591327667236,-6.8450703620910645,-0.0044662915170192,0.0022269829642027,0.6797075867652893,0.7334662079811096,-0.021718717506964,0.0087875130069188,3.046342057439767e-05,0.0554213747382164,0.0449134930968284,-1.88595187664032,-0.0057846875861287,0.0043735923245549,0.8147934079170227,0.5797061920166016,0.1322864542974243,0.1353621033074126,-2.0717041485811003,0.0797981619834899,-0.1489284038543701,-1.7379331588745115,152,73,17687,-18160
20.5,1788352244235,6.619718074798584,-6.2253522872924805,-0.0043256161734461,0.0049593728035688,0.6074098944664001,0.7943612933158875,-0.007944953567795,-0.002466369601635,-1.0936555339803086e-05,0.0100907040759921,-0.0233971606940031,-1.8906960487365725,-0.0055239340290427,0.0056672031059861,0.7612836360931396,0.6483706831932068,0.1019416720709357,0.0877427030578867,-1.9622390632314035,-0.2478787302970886,-0.0992276072502136,0.1176767349243164,178,68,19482,-16749
20.6,1788352244335,6.084506988525391,-6.253520965576172,-0.0025107983965426,0.0104330163449049,0.5375823378562927,0.8431429862976074,-0.0121980958088896,0.0092007609308477,3.626716865108092e-05,0.1288192272186279,0.0698233693838119,-1.7808642387390137,-0.0039411894977092,0.0142123596742749,0.7067445516586304,0.7073150277137756,0.2999947607594342,0.1758953889648658,-1.7236640386858522,0.0539361834526062,-0.2604145407676697,0.5086498260498047,416,68,21989,-16501
20.7,1788352244435,6.422535419464111,-6.056337833404541,0.0046568708494305,0.0285202786326408,0.4643250703811645,0.8851932883262634,-0.0009546115545616,-0.0045316973416646,-4.854336120631269e-05,0.3317601680755615,0.1953906863927841,-1.6917753219604492,-0.0002686390653252,0.0347283519804477,0.629023015499115,0.7766104936599731,0.2419199127044431,0.0631126400188477,-1.801185749678569,-0.166448712348938,-0.0898577570915222,-0.7982959747314453,366,107,21722,-17538
20.8,1788352244535,6.169013977050781,-6.2253522872924805,0.0087057584896683,0.0300893932580947,0.3716441392898559,0.9278466701507568,0.0097892506830579,0.0025129693755126,2.140293572311286e-05,0.0096984440460801,-0.1887078881263733,-1.935780048370361,0.0020690858364105,0.0285083297640085,0.5591517686843872,0.8285724520683289,-0.002963980524108,-0.2149326836337127,-1.9620087673884468,-0.3201240301132202,-0.6160082817077637,2.2961740493774414,427,48,22691,-16833
20.9,1788352244635,5.577464580535889,-6.084506988525391,0.0107090063393116,0.0256106872111558,0.2835635542869568,0.958551585674286,-0.0025773894203948,0.0013040467202688,-1.8449545362312664e-06,0.0851130932569503,-0.1002481207251548,-1.763748049736023,0.0048799123615026,0.0270747356116771,0.4897851645946502,0.8714089393615723,0.0639919191583949,-0.085801147665925,-1.7333108267759452,-0.1930453777313232,-0.1818661093711853,-0.6512517929077148,558,120,27876,-17577
21.0,1788352244735,3.126760482788086,-2.563380241394043,0.0092757940292358,0.0179823376238346,0.2033816128969192,0.9788903594017028,0.0063317520361707,-0.0001088222148693,2.2393158512244435e-05,-0.1032347381114959,-0.2403906732797622,-1.8828940391540527,0.0007820148020982,0.0080378409475088,0.3884383738040924,0.9214393496513368,-0.3367528025197068,-0.4289902192782878,-1.8794043337523525,-1.947675824165344,0.7248328924179077,-0.4086055755615234,5,220,0,0
21.1,1788352244835,0.0,0.0,-0.0021207430399954,0.0007659023976884,0.1388799399137497,0.9903066754341124,-0.0417756658986793,0.023865116105896,-0.0004535048940841,-0.2027605473995208,-0.217442438006401,-0.6132354140281677,-0.0022149113938212,0.0003357594832777,0.374333918094635,0.9272913336753844,0.0093990933274558,0.0104723508582108,0.0827355741264265,0.7496742010116577,-0.6926569938659668,0.4259862899780273,8,4,0,0
21.2,1788352244935,-3.436619758605957,3.492957830429077,-0.0020624021999537,0.0009048315696418,0.1401233971118927,0.9901314377784728,-0.0025613204001909,-0.000889161607582,-1.6329965818257993e-07,-0.0006345671718008,-0.0009702612296678,0.0117677496746182,-0.0023109884932637,0.0003595883026719,0.3745024502277374,0.927223026752472,-0.0049199410958436,0.0028749850034937,-0.017210860363707,-0.4416715502738952,0.0551939606666564,0.0700931549072265,913,849,-23219,25086
21.3,1788352245035,-3.380281686782837,6.873239517211914,-0.0021484561730176,0.0011112563079223,0.1711977273225784,0.985233724117279,0.0328717292313199,0.0081754685463975,5.779496033780485e-06,0.0091077396646142,0.0065740845166146,1.139766812324524,-0.0021096421405673,0.0013931598514318,0.4326816201210022,0.9015432000160216,0.0323472380399058,0.0089187018958668,1.5541851776224946,-0.42432302236557,-0.6958064436912537,-0.3592300415039062,921,83,-32767,17849
21.4,1788352245135,-1.2676056623458862,6.197183132171631,-0.0017094034701585,0.0023690429516136,0.2361882328987121,0.9717029333114624,0.074118910748269,-0.0053941933381916,-2.5581150705631346e-05,0.0029803984798491,0.0136238886043429,1.432552456855774,-0.0024807751178741,0.001732557080686,0.4844884574413299,0.8747924566268921,-0.0158275099630838,0.0258585124805727,1.2856257518176204,0.524005651473999,-0.343036413192749,-0.4046878814697265,922,118,-32767,17790
21.5,1788352245235,0.0,5.633802890777588,-0.002375571290031,0.0028739557601511,0.2927224040031433,0.9561902284622192,0.10924923036258,0.0029611619204507,-1.7282417516908912e-05,-0.0084688775241374,0.0203812792897224,0.9726700186729432,-0.0030016750097274,0.0021521029993891,0.5237614512443542,0.8518569469451904,-0.0077100623814573,-0.0025720791202427,0.994233615564784,-0.7557098269462585,0.1096089482307434,-0.358957290649414,930,25,-32767,13445
21.6,1788352245335,-0.98591548204422,2.676056385040283,-0.0029743327759206,0.0036349389702081,0.3342561721801758,0.9424706101417542,0.0759587508838045,-0.0020150851104628,-3.552613738792874e-05,-0.0120955156162381,0.0235878210514783,0.7636135816574097,-0.0037203365936875,0.0028002224862575,0.5551067590713501,0.8317661285400391,-0.0042585440579829,-0.0011503579678686,0.6834515108613072,-0.3088096380233764,-0.1428779363632202,-0.5155735015869141,931,31,-31303,4824
21.7,1788352245435,-0.4788732528686523,0.0,-0.0030163954943418,0.0034597634803503,0.3572392165660858,0.934001624584198,0.0188361467918686,-0.0029399119457721,7.097992252784337e-06,-0.0060458751395344,-0.0102238040417432,0.3906602263450622,-0.003812626004219,0.0025570206344127,0.5746031999588013,0.8184192776679993,-0.0056890578738787,-0.0024707234502523,0.2113589411376734,-0.1315433979034423,-0.3809548616409302,0.0244855880737304,958,0,-24403,0
21.8,1788352245535,0.0,0.0,-0.0030076350085437,0.0030559359584003,0.3600393235683441,0.9329272508621216,-0.0011723002627125,-0.0032993347356866,3.1683163427734715e-06,-0.0023656396660953,-0.0126707889139652,-0.0393902733922004,-0.0038906959816813,0.0023289732635021,0.5720798969268799,0.8201854228973389,-0.0077486519229945,0.0137975776967987,-0.1446282765366121,-0.5690176486968994,0.0044516921043396,-0.1974086761474609,0,3,0,0
21.9,1788352245635,0.0,0.0,-0.0031242379918694,0.0031836607959121,0.3579594492912292,0.93372642993927,-0.0008840389313124,0.0059077175981708,2.875929723961325e-06,0.0034164614044129,-0.0050210827030241,-0.019957885146141,-0.0037414524704217,0.002302280627191,0.5721113681793213,0.8201642036437988,0.0016542776714685,0.0032418949595704,-0.0230464502558579,-0.1652416586875915,0.3540659546852112,-0.0724811553955078,0,0,0,0
22.0,1788352245735,0.0,0.0,-0.0031242379918694,0.0031836607959121,0.3579594492912292,0.93372642993927,-0.0002174142945881,0.0005880590487947,5.003580426950066e-06,0.0,0.0,0.0,-0.003727245144546,0.0022726543247699,0.5722079277038574,0.8200969099998474,0.001999942280216,-0.004966439709088,-0.0015479507008024,0.1466329097747802,-0.0033698678016662,-0.0301876068115234,0,0,0,0
22.1,1788352245835,0.0,0.0,-0.0031242379918694,0.0031836607959121,0.3579594492912292,0.93372642993927,0.0,0.0,0.0,0.0,0.0,0.0,-0.0037430189549922,0.0023034075275063,0.5721421241760254,0.8201426863670349,-0.0004502796684179,0.0023224638737886,-0.0022723882249804,-0.0251311659812927,-0.0340520739555358,-0.0051698684692382,0,0,0,0
22.2,1788352245935,0.0,0.0,-0.0031242379918694,0.0031836607959121,0.3579594492912292,0.93372642993927,0.0,0.0,0.0,0.0,0.0,0.0,-0.0037247100844979,0.0022731777280569,0.5721409320831299,0.8201437592506409,0.0009373828545862,-0.0001892097395726,0.0005969140925407,0.0029144287109375,-0.0411961674690246,-0.0033893585205078,0,0,0,0
22.3,1788352246035,0.0,0.0,-0.0031242379918694,0.0031836607959121,0.3579594492912292,0.93372642993927,0.0,0.0,0.0,0.0,0.0,0.0,-0.0036896858364343,0.0022222837433218,0.572141170501709,0.8201438784599304,-0.001014320562027,-0.0019587522741699,-0.0013684832031037,0.0268499255180358,-0.0250146389007568,-0.0069427490234375,0,0,0,0
22.4,1788352246135,0.0,0.0,-0.0031242379918694,0.0031836607959121,0.3579594492912292,0.93372642993927,0.0,0.0,0.0,0.0,0.0,0.0,-0.0036730775609612,0.0022072782739996,0.5721588730812073,0.8201315999031067,0.0006540625705504,-0.0016047854573794,0.0002715391872758,-0.0112985968589782,0.0089787244796752,0.0057010650634765,0,0,0,0
22.5,1788352246235,0.0,0.0,-0.0031242379918694,0.0031836607959121,0.3579594492912292,0.93372642993927,0.0,0.0,0.0,0.0,0.0,0.0,-0.0036859698593616,0.0021845400333404,0.5721684694290161,0.8201249241828918,0.00058455813873,-0.0005513245293333,0.0025626502887666,0.0005112290382385,0.023847758769989,-0.0078620910644531,0,0,0,0
22.6,1788352246335,0.0,0.0,-0.0030528809875249,0.0029651247896254,0.3578547239303589,0.9337676167488098,-0.0002226400315,-0.0001688490276959,-2.3356911580918898e-06,-0.0006491015083156,-0.0015478327404707,-0.0003588402178138,-0.0037269806489348,0.0021586380898952,0.5721444487571716,0.8201415538787842,-0.0012940209355996,0.0021736657452257,-0.0007877465470526,-0.0024973154067993,-0.0003936886787414,0.0092735290527343,0,0,439,-443
22.7,1788352246435,0.6760563254356384,-1.887323975563049,-0.0030790334567427,0.003030146472156,0.3572814166545868,0.9339867830276488,-0.0014490055398551,0.0017909600450577,1.0418862161618468e-08,0.0010895879240706,0.0015785130672156,-0.0238290037959814,-0.0037372922524809,0.0022414904087781,0.5695812106132507,0.821923553943634,0.0029180531533483,0.0067084407254207,-0.1930575506330415,-0.358535885810852,-0.5142284035682678,-0.1358242034912109,676,334,16547,-12289
22.8,1788352246535,2.873239517211914,-3.492957830429077,-0.0030342233367264,0.0028641503304243,0.3336033225059509,0.9427042603492736,-0.0197467493583716,0.0034701736235744,1.8874638281976496e-06,0.0041270335204899,-0.0032331976108253,-0.7713925242424011,-0.0035560233518481,0.0012410301715135,0.5294774770736694,0.8483155965805054,-0.0168366711299165,-0.0385246160734676,-1.0338667544076274,-0.127313494682312,0.2984041571617126,-0.3367595672607422,739,69,23165,-10270
22.9,1788352246635,3.183098554611206,-3.183098554611206,-0.0040150936692953,0.0001772522227838,0.2845636904239654,0.9586487412452698,-0.0091196394797329,0.0126354416119035,-1.251892466600142e-05,-0.0518793575465679,-0.0559689924120903,-1.014845371246338,-0.0047328518703579,-0.0033307503908872,0.4895412027835846,0.8719609975814819,-0.1067336311252216,-0.0946805358469424,-1.0422290458600805,-0.1589539051055908,-0.0164587497711181,0.6415328979492188,729,129,22696,-10291
23.0,1788352246735,2.3943662643432617,-2.873239517211914,-0.0053089382126927,-0.0023573006037622,0.2389067113399505,0.9710251092910768,-0.0042045613104151,0.015471340951661,-3.534608426023545e-07,0.0066438997164368,0.0038332652766257,-0.9658846259117126,-0.0049482574686408,-0.0033356044441461,0.450693279504776,0.8926589488983154,-0.013774230479869,0.0324116321995645,-0.956261584322178,-0.7295919060707092,0.3428730368614197,0.4411382675170898,91,28,0,-8565
23.1,1788352246835,-1.4647886753082275,-3.126760482788086,-0.0053575281053781,-0.0020057554356753,0.2070755511522293,0.9783082604408264,-0.0684514577066188,0.0006101027446589,-1.3923150270322722e-05,0.0115360105410218,0.0011941359844058,-0.2198079377412796,-0.0046866852790117,-0.0031907055526971,0.4351048767566681,0.9003618955612183,0.0100721011682978,0.0144118627383019,-0.175224222465754,0.2208277583122253,-0.2778430581092834,-0.1367368698120117,91,787,0,-29617
23.2,1788352246935,5.605633735656738,-6.450704097747803,-0.0052202590741217,-0.0023220321163535,0.1702333390712738,0.9853872656822203,-0.103141926478184,0.0035042008863962,4.926584161475004e-06,-0.0002937858516816,-0.0103033054620027,-1.0659421682357788,-0.004272311925888,-0.0046572238206863,0.3778879642486572,0.9258297681808472,-0.0215608553490493,-0.059790985586547,-1.5480640880323318,1.176071286201477,-0.3341277241706848,-1.190730094909668,775,49,28630,-17734
23.3,1788352247035,4.02816915512085,-6.816901206970215,-0.0049711493775248,-0.0025108919944614,0.0877735540270805,0.9961249232292176,-0.0180567914379738,0.0178131076787286,8.87221348703301e-06,0.004880741238594,0.0254566520452499,-1.8812330961227417,-0.0040574800223112,-0.0038482751697301,0.2976454198360443,0.954660177230835,0.0017103536426238,-0.0070763856264726,-1.9105943613468828,-1.393880844116211,0.2842752933502197,0.997539520263672,524,132,32767,-15276
23.4,1788352247135,4.450704097747803,-6.8450703620910645,-0.0043902201578021,-0.0029139418620616,0.000759930931963,0.9999858140945436,-0.0379231721159123,0.0195213774976836,1.7616031972770062e-05,0.0022895312868058,0.0090177664533257,-1.7568784952163696,-0.0034410841763019,-0.003540750592947,0.1959214955568313,0.9806071519851683,0.009284865166879,0.0180204453469391,-1.6630251391652258,-0.0748463869094848,0.1706363558769226,0.9221458435058594,585,73,23653,-17986
23.5,1788352247235,4.422535419464111,-6.704225540161133,-0.003562297206372,-0.0020616394467651,-0.0816626995801925,0.9966514706611632,-0.0453781435802148,0.0168660402118586,1.446281208415686e-05,0.0283610541373491,0.0326407738029956,-1.6648722887039185,-0.0022760378196835,-0.0016214465722441,0.1211986318230629,0.9926243424415588,0.0291599900821641,0.0441061018434005,-1.7595256233240275,0.0923177599906921,0.0397919416427612,0.395355224609375,647,88,26658,-18478
23.6,1788352247335,5.098591327667236,-6.788732528686523,-0.0041583506390452,-0.002441163174808,-0.1796246916055679,0.9837233424186708,-0.031325297164794,0.0155598919792784,-5.5296289338277947e-05,-0.0465269237756729,-0.0427892282605171,-1.833289623260498,-0.0034870225936174,-0.0031137410551309,0.0384643748402595,0.9992491006851196,-0.0033647430355023,0.0462577672571356,-1.7548111292451134,-0.6617905497550964,0.2214474081993103,-0.0334596633911132,396,76,22056,-17888
23.7,1788352247435,5.830986022949219,-6.169013977050781,-0.0043282257393002,-0.0028427019715309,-0.2658228874206543,0.9640079736709596,-0.0270142063329476,0.0115082743615234,8.451674101720546e-07,-0.0083326706662774,-0.0080054346472024,-1.8044862747192385,-0.0004915734753012,-0.0016829678788781,-0.0736086666584014,0.9972856640815736,0.1601118811789541,0.1624699400879376,-2.011245353961065,0.3832607865333557,0.097918152809143,-0.4270038604736328,575,65,26373,-16375
23.8,1788352247535,7.352112770080566,-6.14084529876709,0.0021587987430393,-1.6989419236779213e-05,-0.3518029451370239,0.9360715746879578,0.0110216172622447,0.0108705315099424,-2.3344509869187187e-05,0.1142938733100891,0.1140700802206993,-1.9557193517684937,0.0030816346406936,0.0014660945162177,-0.1630046069622039,0.986619472503662,0.0146646126679617,0.0508774480157333,-1.9486252643387572,-1.253268837928772,0.136181354522705,0.3703470230102539,144,81,17998,-16586
23.9,1788352247635,6.309859275817871,-5.943662166595459,0.0052463598549366,0.0004585487768054,-0.4409007430076599,0.8975404500961304,-0.0120536997681931,0.0179887617475581,1.2423971650584245e-06,0.0624317750334739,0.0267474055290222,-1.7627838850021362,0.006795709952712,0.0025878073647618,-0.2434493899345398,0.969886302947998,0.091825568142508,0.0689891806420748,-1.8001145808409575,0.2182046771049499,-0.1561611294746399,-0.1336812973022461,238,128,19865,-17975
24.0,1788352247735,6.3380279541015625,-6.394366264343262,0.0095736347138881,0.0005214801058173,-0.5290060639381409,0.8485638499259949,-0.0031855409090701,0.0077106618186149,-2.5883667015471705e-06,0.0521249882876873,-0.0152184972539544,-1.896240234375,0.0094034420326352,0.0025620311498641,-0.3245361745357513,0.9458231329917908,0.0436691609151252,-0.0426345353739232,-1.9059278343145745,-0.3523842692375183,-0.0570675134658813,-0.206329345703125,319,105,20245,-18199
24.1,1788352247835,6.535211086273193,-6.2816901206970215,0.0090317521244287,-0.0005132644437253,-0.6056312918663025,0.7956939339637756,0.0086355813072001,0.0049064117296742,3.9536207979226e-06,-0.0015851255739107,-0.0303657334297895,-1.9437785148620603,0.005764877423644,-0.0003713332116603,-0.4325604140758514,0.9015865325927734,-0.0919966480864322,-0.1834210846826532,-2.043307877841438,-0.9399336576461792,0.0524932742118835,-0.5524082183837891,320,101,20892,-17165
24.2,1788352247935,5.577464580535889,-6.056337833404541,0.005481535103172,-0.0019550947472453,-0.6740761995315552,0.7386387586593628,-0.0171482612698874,0.0099154051524614,5.301202971664933e-07,0.0097067132592201,-0.0302874688059091,-1.8318641185760496,0.005304199643433,-0.0010829390957951,-0.4981854856014251,0.8670536279678345,-0.0051382213137714,-0.0531029102927203,-1.574553040253264,-0.1044249534606933,0.1847186088562011,-1.4158191680908203,582,72,26668,-17413
24.3,1788352248035,5.830986022949219,-6.253520965576172,-0.0016563721001148,-0.0026717083528637,-0.7378629446029663,0.6749432682991028,-0.0059723416331477,0.008776938509635,-4.5369563720563846e-05,-0.1468727439641952,-0.1697645634412765,-1.876886367797852,-0.0009355945512652,-0.0034938286989927,-0.5931394696235657,0.8050916194915771,0.0065899958040519,-0.0311375875145962,-1.9203738879385488,-0.0954734683036804,0.3324047327041626,2.43850326538086,504,60,27522,-16950
24.4,1788352248135,5.802816867828369,-6.169013977050781,-0.0014428801368921,-0.0031974078156054,-0.8056808114051819,0.5923395752906799,-0.0079009129701936,0.0095998339411901,4.571712147419382e-06,0.0018356349319219,0.0105644185096025,-1.8978713750839236,-0.0001891693100333,-0.0032007759436964,-0.659079909324646,0.7520660161972046,0.0014974636957453,0.0432673747835233,-1.717057128642624,-0.0261875987052917,-0.0939977169036865,-0.1543493270874023,543,83,27446,-17027
24.5,1788352248235,5.830986022949219,-6.169013977050781,-5.965179298073053e-05,-0.0031566256657242,-0.8562644124031067,0.5165281295776367,-0.01119499848996,0.0113780045209385,8.820055163761146e-06,0.0096958484500646,0.0297753401100635,-1.8635101318359373,0.0012003509327769,-0.0033762976527214,-0.739136815071106,0.673545777797699,0.0243743735583588,-0.010237313656783,-1.871344573772406,0.1845794916152954,0.1704276800155639,0.6870698928833008,546,105,28523,-17259
24.6,1788352248335,4.450704097747803,-4.507042407989502,0.0018824015278369,-0.0035298119764775,-0.8978481292724609,0.4402871429920196,-0.0059018392816582,0.0132418976930414,-1.3528362952439764e-06,0.0296648945659399,0.0488949567079544,-1.8730674982070925,0.0002504019066691,-0.0027949959039688,-0.7941393852233887,0.6077292561531067,-0.0860323883606165,-0.100664366176817,-1.8860342221859256,-2.5331687927246094,0.971221387386322,0.2067527770996093,414,444,0,0
24.7,1788352248435,0.0,-0.9577465057373048,-0.0003957877634093,-0.0027795659843832,-0.9251955151557922,0.3794804513454437,-0.0326079292579447,0.0144497809663695,-9.18813764336834e-06,0.0171590745449066,-0.0290207266807556,-0.3823675513267517,0.0003574583679437,-0.0026714596897363,-0.8057765960693359,0.5922135710716248,-0.0037510890487384,0.0016177893858947,0.1041401246977787,0.2780434489250183,-0.9100006222724916,0.5441007614135742,3,26,0,0
24.8,1788352248535,0.0,1.8309859037399288,-0.0002254039281979,-0.0027259786147624,-0.9242659211158752,0.3817395269870758,0.0030006366625358,-0.0021947042589307,2.885996564973214e-06,0.0042407233268022,-0.0009227859554812,0.030160317197442,0.0004279632121324,-0.00267671700567,-0.8052031397819519,0.592992901802063,-0.0010119547249991,-0.0058478879289624,-0.0127936627872293,0.0905880331993103,-0.4177244305610657,0.1411752700805664,116,95,3066,6282
24.9,1788352248635,0.2253521084785461,4.02816915512085,-0.0003514314303174,-0.0028808789793401,-0.9214903712272644,0.388390302658081,0.035866899104463,0.0052770654249541,1.6559472581023148e-06,0.0061988327652215,-0.0056425798684358,0.287799060344696,0.0002608224749565,-0.0029422016814351,-0.7946285605430603,0.6070888638496399,-0.0015264098333072,0.0011591680655678,0.4782359970633321,0.3326184749603271,0.2440758347511291,-2.27457857131958,336,201,9939,14581
25.0,1788352248735,0.98591548204422,6.535211086273193,-0.0005303487414494,-0.0029177507385611,-0.9108381867408752,0.4127529859542846,0.0879044999318648,-0.0006115949583529,-3.4868583537568278e-06,-0.001814053975977,-0.0025154796894639,0.6106245517730713,0.0001367162913084,-0.0031972918659448,-0.7758020162582397,0.6309682726860046,0.0107255371066453,-0.0054487768205482,0.7786431921704483,1.121312141418457,0.0827294588088989,-0.8162746429443359,515,198,15123,20684
25.1,1788352248835,2.169013977050781,8.647887229919434,-0.0012924276525154,-0.0034175980836153,-0.8921785950660706,0.4516681134700775,0.1639623408216763,-9.60417119282288e-05,3.808666590910006e-05,0.0021975759882479,-0.0124009894207119,0.8164942860603333,-0.0004692794755101,-0.0036188466474413,-0.75223708152771,0.6588825583457947,0.000109461603396,-0.006376273498601,0.8326881249462438,0.456263780593872,0.2489899396896362,0.6747541427612305,303,136,12639,23876
25.2,1788352248935,1.6619718074798584,8.478873252868652,-0.0010863317875191,-0.0031150900758802,-0.8692867755889893,0.4942969679832458,0.1820762715895441,-0.001456793259102,-1.0608688354086523e-06,-0.0031746416352689,0.0082675414159893,1.0113998651504517,-0.0001838756725192,-0.0027563488110899,-0.7117582559585571,0.7024191617965698,-0.0133549068114111,0.0267261751318105,0.9758180709845165,-0.2847027778625488,-0.0698838829994201,-0.1238994598388671,322,87,11667,22229
25.3,1788352249035,1.7183098793029783,8.22535228729248,-0.0011034570634365,-0.0027005758602172,-0.8448464274406433,0.5350009799003601,0.173548023406985,-0.0040532178536388,-2.9594792380578037e-05,-0.0005262590711936,-0.0027352762408554,0.9424824714660645,9.385216981172562e-05,-0.0021188389509916,-0.6804612278938293,0.7327809929847717,-0.0073055258108402,0.062348877531932,0.9813974624246908,-0.3309990763664245,0.2548868656158447,0.3671646118164062,285,126,10492,22819
25.4,1788352249135,1.8591549396514893,8.309859275817871,-0.0004371986724436,-0.0020371214486658,-0.820065438747406,0.5722659826278687,0.1724088620884866,-0.0032497041352482,1.0451714648928895e-05,0.000977864023298,0.0040191104635596,0.9594033360481262,0.0001724874600768,-0.0018896721303462,-0.6483306884765625,0.7613565921783447,-0.001185866959562,0.0144967195963042,0.8497570047612393,-0.1713931560516357,0.1210054159164428,-0.1827583312988281,238,91,9845,22269
25.5,1788352249235,2.169013977050781,8.0,-0.0001615153742022,-0.0017805313691496,-0.792523980140686,0.6098381876945496,0.1781818322605958,-0.0003303156180782,-2.9785408410071645e-05,0.0009489624062553,0.0148205021396279,0.9797396063804626,0.0011910824105143,-0.0010484168305993,-0.6040323376655579,0.7969582080841064,0.00663949612814,0.029668365020212,0.9182410790501272,-0.1171925067901611,0.1609562635421753,0.022099494934082,248,85,11091,21290
25.6,1788352249335,2.760563373565674,7.380281925201416,0.0019435046706348,-0.0002896441146731,-0.7616565823554993,0.6479780077934265,0.168300981351475,0.0029251816307327,-0.0001055558011555,-0.0040757874958217,0.0581392906606197,0.8390647172927856,0.0023637050762772,0.0003685997799038,-0.574023425579071,0.818835437297821,0.0143014934354399,0.0265899631301867,0.7524866448965603,0.1954929232597351,-0.2624909281730652,1.5891714096069336,245,132,11081,21456
25.7,1788352249435,3.014084577560425,7.267605781555176,0.0051954519003629,0.0003618441987782,-0.7379639744758606,0.6748199462890625,0.1600502207473434,-0.0049161340172579,-0.0001814841873118,0.0453515835106372,0.0803611576557159,0.6942155361175537,0.0059618391096591,0.0014642616733908,-0.5464960336685181,0.8374391794204712,0.076115020946406,0.0693171996470423,0.9282011976807456,0.3324607014656067,0.4136974811553955,-0.8240823745727539,237,82,11915,19615
25.8,1788352249535,2.676056385040283,7.239436626434326,0.0094503555446863,0.0010489672422409,-0.7150070667266846,0.6990525126457214,0.1717581976136565,0.0029739854177484,-0.0002489310795166,0.0367518328130245,0.0832517966628074,0.651650071144104,0.0097933122888207,0.0034556640312075,-0.5114784240722656,0.8592334389686584,0.0187965179239914,0.0295275674799964,0.6507780516949198,-0.2690034508705139,0.2470108270645141,-0.8106489181518555,281,75,12621,19675
25.9,1788352249635,2.873239517211914,6.929577350616455,0.011173628270626,0.0019012941047549,-0.6887639164924622,0.7248971462249756,0.1713203230177968,-0.000624854115772,-0.0001721885241792,-0.0063571762293577,0.0459761321544647,0.6845592856407166,0.0110334241762757,0.0049790246412158,-0.4848995506763458,0.8744861483573914,0.0200888599100866,0.0460827095108326,0.6372248589240795,0.2351143956184387,-0.1170361042022705,0.0963897705078125,319,79,14705,18698
26.0,1788352249735,3.2676055431365967,6.647887229919434,0.0135905891656875,0.0029327603988349,-0.6650243997573853,0.7466922402381897,0.1756629605789567,-0.0023084023260389,-0.0001323725060285,0.011787069030106,0.0514484830200672,0.6225069761276245,0.0122539764270186,0.0065542878583073,-0.460380345582962,0.88761305809021,-0.0276607237777163,0.0344626475351313,0.5803260996371244,0.1618905067443847,-0.0706489086151123,-0.3605852127075195,392,47,15889,17212
26.1,1788352249835,3.521126747131348,6.873239517211914,0.0125024728477001,0.0037301783449947,-0.6469783186912537,0.7623967528343201,0.1616271026508804,0.002556541638891,6.315808708268646e-05,-0.0294494871050119,-0.0183930546045303,0.4377993941307068,0.0099817560985684,0.0064254961907863,-0.4358204901218414,0.8999552726745605,-0.0594282285051837,-0.0435004939784291,0.4704966984296463,0.1214759349822998,0.5545037984848022,-0.1966619491577148,256,84,12799,18913
26.2,1788352249935,3.3521127700805664,6.676056385040283,0.0087993163615465,0.0037725381553173,-0.6300488710403442,0.7764964699745178,0.1668216297471232,0.0079903888536916,0.0002014822067053,-0.0735221058130264,-0.0573992058634758,0.4773182272911072,0.0073299948126077,0.005552808754146,-0.4170771241188049,0.9088245630264282,-0.0042568483176313,-0.0194979465186915,0.4306225245092893,-0.4463299512863159,0.5996275544166565,-0.2517929077148437,264,69,15810,17690
26.3,1788352250035,3.1549296379089355,6.535211086273193,0.0078587355092167,0.0028431192040443,-0.6107062101364136,0.7918131351470947,0.1672439711438962,0.0097190518051062,8.652764767950929e-05,-0.0087646562606096,-0.0322093479335308,0.4714960157871246,0.0067297127097845,0.004465197212994,-0.3974630832672119,0.9175826907157898,-0.0106605984029463,-0.0233813547292869,0.4791288813239779,0.0086443424224853,0.3628345131874084,0.6256694793701172,422,90,17555,18231
26.4,1788352250135,3.6619718074798575,6.14084529876709,0.0075804870575666,0.0026777409948408,-0.5925949811935425,0.8054604530334473,0.1723102666499359,0.0041913387820389,8.93180108203387e-05,0.0018608472310006,-0.009255233220756,0.4286031723022461,0.0065730540081858,0.004226841032505,-0.3790636658668518,0.9253376126289368,0.0064596021847275,-0.0001932122467677,0.3677878227985692,-0.2483754754066467,0.1465018987655639,1.0326786041259766,508,35,21300,15250
26.5,1788352250235,3.774647951126098,5.943662166595459,0.0036967652849853,0.001789211644791,-0.5788739919662476,0.8154066205024719,0.1743638729467257,-0.0012673457466717,0.0002379327382521,-0.0828880742192268,-0.0963874831795692,0.2921267449855804,-0.0005961610004305,0.0011464832350611,-0.3624472022056579,0.9320034980773926,-0.1921431177831838,-0.1738438927883553,0.2070688790043287,-0.0676202178001403,0.1791262626647949,-0.1540079116821289,486,66,21492,15748
26.6,1788352250335,4.2816901206970215,5.464788913726807,-0.0020417445339262,0.0006410786299966,-0.5714830160140991,0.8206111192703247,0.155884888641912,0.0057687778072445,0.0001159298593855,-0.0281627103686332,-0.0391370244324207,0.1947540640830993,-0.0018815705552697,-0.000186045654118,-0.3539431989192962,0.935265064239502,0.0230505483267156,-0.0080487474135367,0.2125559072942126,0.4846448302268982,0.011170744895935,0.1277389526367187,519,83,22068,15193
26.7,1788352250435,4.873239517211914,5.549295902252197,-0.0021912064403295,-0.0002522621070966,-0.56480872631073,0.8252188563346863,0.1702688613340429,0.0048262257351129,-2.9381707934481102e-05,0.0018174129072576,-0.0124324997887015,0.1334499418735504,-0.0018899608403444,-0.0010925969108939,-0.346331238746643,0.9381096959114076,0.0252193059107429,-0.0137530543699557,0.1360334657939703,-0.1728008985519409,-0.3899047970771789,-0.5523653030395508,404,85,19200,15104
26.8,1788352250535,4.056337833404541,6.0,-0.0017455442575737,-0.0004154101479798,-0.5576710104942322,0.8300601840019226,0.1610174653491163,0.0030181513874152,-4.899370317561656e-05,0.0053484314121305,0.004039978608489,0.1819963753223419,-0.0014467164874076,-0.0008900696411728,-0.3374293148517608,0.9413493275642396,0.0103263020318564,-0.0005615075453272,0.2690145938564727,-0.0780255794525146,-0.0672587752342224,-0.037856101989746,424,84,19810,16416
26.9,1788352250635,4.3380279541015625,5.915493011474609,-0.0005223882617428,0.0001910455466713,-0.5460624694824219,0.8377442955970764,0.1644530221896293,0.0025360424177499,-0.0001533142313156,0.0208283644169569,0.0406122356653213,0.2833627760410309,-2.176966518163681e-05,0.0003043711185455,-0.324977308511734,0.9457218647003174,0.0322072605418258,0.0372992985659138,0.2923407727020455,0.3253538608551025,0.2455279231071472,-0.340494155883789,411,98,19876,16713
27.0,1788352250735,4.394366264343262,5.577464580535889,-0.0020822922233492,-0.0002606814377941,-0.5376104712486267,0.8431906700134277,0.1833311535884984,0.0045008281859767,0.0001182104857814,-0.056858442723751,-0.0511748753488063,0.1738406419754028,-0.0020292112603783,-0.0009512202814221,-0.3150008916854858,0.9490888118743896,0.0088092153504507,-0.0359258357196491,0.1527826960596476,0.0182072520256042,0.2140874862670898,0.3293056488037109,412,82,20308,15126
