time_s,timestamp_ms,wheel_vels__velocity_left,wheel_vels__velocity_right,odom__orient_x,odom__orient_y,odom__orient_z,odom__orient_w,odom__lin_x,odom__lin_y,odom__lin_z,odom__ang_x,odom__ang_y,odom__ang_z,imu__orient_x,imu__orient_y,imu__orient_z,imu__orient_w,imu__angvel_x,imu__angvel_y,imu__angvel_z,imu__acc_x,imu__acc_y,imu__acc_z,wheel_status__current_ma_left,wheel_status__current_ma_right,wheel_status__pwm_left,wheel_status__pwm_right
0.0,1788517840525,0.0,0.0,-0.0008569514611735,0.0057545201852917,-0.9582916498184204,0.2857327461242676,0.0,0.0,0.0,0.0,2.327873227514488e-09,0.0,-0.000790792517364,0.00581347476691,-0.963867485523224,0.2663175761699676,0.0004986383497747,0.0008672584200614,0.0004046281311716,-0.0117363929748535,-0.0058887004852294,0.006723403930664,0,0,0,0
0.1,1788517840625,0.0,0.0,-0.0008569514611735,0.0057545201852917,-0.9582916498184204,0.2857327461242676,0.0,0.0,0.0,0.0,2.327873227514488e-09,0.0,-0.000790792517364,0.00581347476691,-0.963867485523224,0.2663175761699676,0.0004986383497747,0.0008672584200614,0.0004046281311716,-0.0117363929748535,-0.0058887004852294,0.006723403930664,0,0,0,0
0.2,1788517840725,0.0,0.0,-0.0008569514611735,0.0057545201852917,-0.9582916498184204,0.2857327461242676,0.0,0.0,0.0,0.0,2.327873227514488e-09,0.0,-0.000790792517364,0.00581347476691,-0.963867485523224,0.2663175761699676,0.0004986383497747,0.0008672584200614,0.0004046281311716,-0.0117363929748535,-0.0058887004852294,0.006723403930664,0,0,0,0
0.3,1788517840825,0.0,0.0,-0.0008569514611735,0.0057545201852917,-0.9582916498184204,0.2857327461242676,0.0,0.0,0.0,0.0,2.327873227514488e-09,0.0,-0.000790792517364,0.00581347476691,-0.963867485523224,0.2663175761699676,0.0004986383497747,0.0008672584200614,0.0004046281311716,-0.0117363929748535,-0.0058887004852294,0.006723403930664,0,0,0,0
0.4,1788517840925,0.0,0.0,-0.0008569514611735,0.0057545201852917,-0.9582916498184204,0.2857327461242676,0.0,0.0,0.0,0.0,2.327873227514488e-09,0.0,-0.000790792517364,0.00581347476691,-0.963867485523224,0.2663175761699676,0.0004986383497747,0.0008672584200614,0.0004046281311716,-0.0117363929748535,-0.0058887004852294,0.006723403930664,0,0,0,0
0.5,1788517841025,0.0,0.0,-0.0008569514611735,0.0057545201852917,-0.9582916498184204,0.2857327461242676,0.0,0.0,0.0,0.0,2.327873227514488e-09,0.0,-0.000790792517364,0.00581347476691,-0.963867485523224,0.2663175761699676,0.0004986383497747,0.0008672584200614,0.0004046281311716,-0.0117363929748535,-0.0058887004852294,0.006723403930664,0,0,0,0
0.6,1788517841125,0.0,0.0,-0.0008569514611735,0.0057545201852917,-0.9582916498184204,0.2857327461242676,0.0,0.0,0.0,0.0,2.327873227514488e-09,0.0,-0.000790792517364,0.00581347476691,-0.963867485523224,0.2663175761699676,0.0004986383497747,0.0008672584200614,0.0004046281311716,-0.0117363929748535,-0.0058887004852294,0.006723403930664,0,0,0,0
0.7,1788517841225,0.0,0.0,-0.0008569514611735,0.0057545201852917,-0.9582916498184204,0.2857327461242676,0.0,0.0,0.0,0.0,2.327873227514488e-09,0.0,-0.000790792517364,0.00581347476691,-0.963867485523224,0.2663175761699676,0.0004986383497747,0.0008672584200614,0.0004046281311716,-0.0117363929748535,-0.0058887004852294,0.006723403930664,0,0,0,0
0.8,1788517841325,0.0,0.0,-0.0008569514611735,0.0057545201852917,-0.9582916498184204,0.2857327461242676,0.0,0.0,0.0,0.0,2.327873227514488e-09,0.0,-0.000790792517364,0.00581347476691,-0.963867485523224,0.2663175761699676,0.0004986383497747,0.0008672584200614,0.0004046281311716,-0.0117363929748535,-0.0058887004852294,0.006723403930664,0,0,0,0
0.9,1788517841425,0.0,0.0,-0.0008569514611735,0.0057545201852917,-0.9582916498184204,0.2857327461242676,0.0,0.0,0.0,0.0,2.327873227514488e-09,0.0,-0.000790792517364,0.00581347476691,-0.963867485523224,0.2663175761699676,0.0004986383497747,0.0008672584200614,0.0004046281311716,-0.0117363929748535,-0.0058887004852294,0.006723403930664,0,0,0,0
1.0,1788517841525,0.0,0.0,-0.0008569514611735,0.0057545201852917,-0.9582916498184204,0.2857327461242676,0.0,0.0,0.0,0.0,2.327873227514488e-09,0.0,-0.000790792517364,0.00581347476691,-0.963867485523224,0.2663175761699676,0.0004986383497747,0.0008672584200614,0.0004046281311716,-0.0117363929748535,-0.0058887004852294,0.006723403930664,0,0,0,0
1.1,1788517841625,0.0,0.0,-0.0008569514611735,0.0057545201852917,-0.9582916498184204,0.2857327461242676,0.0,0.0,0.0,0.0,2.327873227514488e-09,0.0,-0.000790792517364,0.00581347476691,-0.963867485523224,0.2663175761699676,0.0004986383497747,0.0008672584200614,0.0004046281311716,-0.0117363929748535,-0.0058887004852294,0.006723403930664,0,0,0,0
1.2,1788517841725,0.0,0.0,-0.0008569514611735,0.0057545201852917,-0.9582916498184204,0.2857327461242676,0.0,0.0,0.0,0.0,2.327873227514488e-09,0.0,-0.000790792517364,0.00581347476691,-0.963867485523224,0.2663175761699676,0.0004986383497747,0.0008672584200614,0.0004046281311716,-0.0117363929748535,-0.0058887004852294,0.006723403930664,0,0,0,0
1.3,1788517841825,0.0,0.0,-0.0008569514611735,0.0057545201852917,-0.9582916498184204,0.2857327461242676,0.0,0.0,0.0,0.0,2.327873227514488e-09,0.0,-0.000790792517364,0.00581347476691,-0.963867485523224,0.2663175761699676,0.0004986383497747,0.0008672584200614,0.0004046281311716,-0.0117363929748535,-0.0058887004852294,0.006723403930664,0,0,0,0
1.4,1788517841925,0.0,0.0,-0.0008569514611735,0.0057545201852917,-0.9582916498184204,0.2857327461242676,0.0,0.0,0.0,0.0,2.327873227514488e-09,0.0,-0.000790792517364,0.00581347476691,-0.963867485523224,0.2663175761699676,0.0004986383497747,0.0008672584200614,0.0004046281311716,-0.0117363929748535,-0.0058887004852294,0.006723403930664,0,0,0,0
1.5,1788517842025,0.0,0.0,-0.0008569514611735,0.0057545201852917,-0.9582916498184204,0.2857327461242676,0.0,0.0,0.0,0.0,2.327873227514488e-09,0.0,-0.000790792517364,0.00581347476691,-0.963867485523224,0.2663175761699676,0.0004986383497747,0.0008672584200614,0.0004046281311716,-0.0117363929748535,-0.0058887004852294,0.006723403930664,0,0,0,0
1.6,1788517842125,0.0,0.0,-0.0008569514611735,0.0057545201852917,-0.9582916498184204,0.2857327461242676,0.0,0.0,0.0,0.0,2.327873227514488e-09,0.0,-0.000790792517364,0.00581347476691,-0.963867485523224,0.2663175761699676,0.0004986383497747,0.0008672584200614,0.0004046281311716,-0.0117363929748535,-0.0058887004852294,0.006723403930664,0,0,0,0
1.7,1788517842225,0.0,0.0,-0.0008569514611735,0.0057545201852917,-0.9582916498184204,0.2857327461242676,0.0,0.0,0.0,0.0,2.327873227514488e-09,0.0,-0.000790792517364,0.00581347476691,-0.963867485523224,0.2663175761699676,0.0004986383497747,0.0008672584200614,0.0004046281311716,-0.0117363929748535,-0.0058887004852294,0.006723403930664,0,0,0,0
1.8,1788517842325,0.0,0.0,-0.0008569514611735,0.0057545201852917,-0.9582916498184204,0.2857327461242676,0.0,0.0,0.0,0.0,2.327873227514488e-09,0.0,-0.000790792517364,0.00581347476691,-0.963867485523224,0.2663175761699676,0.0004986383497747,0.0008672584200614,0.0004046281311716,-0.0117363929748535,-0.0058887004852294,0.006723403930664,0,0,0,0
1.9,1788517842425,0.0,0.0,-0.0008569514611735,0.0057545201852917,-0.9582916498184204,0.2857327461242676,0.0,0.0,0.0,0.0,2.327873227514488e-09,0.0,-0.000790792517364,0.00581347476691,-0.963867485523224,0.2663175761699676,0.0004986383497747,0.0008672584200614,0.0004046281311716,-0.0117363929748535,-0.0058887004852294,0.006723403930664,0,0,0,0
2.0,1788517842525,0.0,0.0,-0.0008569514611735,0.0057545201852917,-0.9582916498184204,0.2857327461242676,0.0,0.0,0.0,0.0,2.327873227514488e-09,0.0,-0.000790792517364,0.00581347476691,-0.963867485523224,0.2663175761699676,0.0004986383497747,0.0008672584200614,0.0004046281311716,-0.0117363929748535,-0.0058887004852294,0.006723403930664,0,0,0,0
2.1,1788517842625,0.0,0.0,-0.0008569514611735,0.0057545201852917,-0.9582916498184204,0.2857327461242676,0.0,0.0,0.0,0.0,2.327873227514488e-09,0.0,-0.000790792517364,0.00581347476691,-0.963867485523224,0.2663175761699676,0.0004986383497747,0.0008672584200614,0.0004046281311716,-0.0117363929748535,-0.0058887004852294,0.006723403930664,0,0,0,0
2.2,1788517842725,0.0,0.0,-0.0008569514611735,0.0057545201852917,-0.9582916498184204,0.2857327461242676,0.0,0.0,0.0,0.0,2.327873227514488e-09,0.0,-0.000790792517364,0.00581347476691,-0.963867485523224,0.2663175761699676,0.0004986383497747,0.0008672584200614,0.0004046281311716,-0.0117363929748535,-0.0058887004852294,0.006723403930664,0,0,0,0
2.3,1788517842825,0.0,0.0,-0.0008569514611735,0.0057545201852917,-0.9582916498184204,0.2857327461242676,0.0,0.0,0.0,0.0,2.327873227514488e-09,0.0,-0.000790792517364,0.00581347476691,-0.963867485523224,0.2663175761699676,0.0004986383497747,0.0008672584200614,0.0004046281311716,-0.0117363929748535,-0.0058887004852294,0.006723403930664,0,0,0,0
2.4,1788517842925,0.0,0.0,-0.0008569514611735,0.0057545201852917,-0.9582916498184204,0.2857327461242676,0.0,0.0,0.0,0.0,2.327873227514488e-09,0.0,-0.000790792517364,0.00581347476691,-0.963867485523224,0.2663175761699676,0.0004986383497747,0.0008672584200614,0.0004046281311716,-0.0117363929748535,-0.0058887004852294,0.006723403930664,0,0,0,0
2.5,1788517843025,0.0,0.0,-0.0008569514611735,0.0057545201852917,-0.9582916498184204,0.2857327461242676,0.0,0.0,0.0,0.0,2.327873227514488e-09,0.0,-0.000790792517364,0.00581347476691,-0.963867485523224,0.2663175761699676,0.0004986383497747,0.0008672584200614,0.0004046281311716,-0.0117363929748535,-0.0058887004852294,0.006723403930664,0,0,0,0
2.6,1788517843125,0.0,0.0,-0.0008569514611735,0.0057545201852917,-0.9582916498184204,0.2857327461242676,0.0,0.0,0.0,0.0,2.3273363236597792e-09,0.0,-0.000790792517364,0.00581347476691,-0.963867485523224,0.2663175761699676,0.0004986383497747,0.0008672584200614,0.0004046281311716,-0.0117363929748535,-0.0058887004852294,0.006723403930664,0,0,0,0
2.7,1788517843225,0.0,0.0,-0.0008569514611735,0.0057545201852917,-0.9582916498184204,0.2857327461242676,0.0,0.0,0.0,0.0,2.3273363236597792e-09,0.0,-0.000776071101427,0.0058155562728643,-0.9638765454292296,0.2662846148014068,-0.0005510497427434,-0.0011940863596768,-0.0004519509056485,-0.0078682303428649,-0.0131289362907409,0.0085039138793945,0,0,0,0
2.8,1788517843325,0.0,0.0,-0.0008569514611735,0.0057545201852917,-0.9582916498184204,0.2857327461242676,0.0,0.0,0.0,0.0,2.3273363236597792e-09,0.0,-0.000776071101427,0.0058155562728643,-0.9638765454292296,0.2662846148014068,-0.0005510497427434,-0.0011940863596768,-0.0004519509056485,-0.0078682303428649,-0.0131289362907409,0.0085039138793945,0,0,0,0
2.9,1788517843425,0.0,0.0,-0.0008569514611735,0.0057545201852917,-0.9582916498184204,0.2857327461242676,0.0,0.0,0.0,0.0,2.3273363236597792e-09,0.0,-0.000776071101427,0.0058155562728643,-0.9638765454292296,0.2662846148014068,-0.0005510497427434,-0.0011940863596768,-0.0004519509056485,-0.0078682303428649,-0.0131289362907409,0.0085039138793945,0,0,0,0
3.0,1788517843525,0.0,0.0,-0.0008569514611735,0.0057545201852917,-0.9582916498184204,0.2857327461242676,0.0,0.0,0.0,0.0,2.336551618853377e-09,0.0,-0.0007466962561011,0.0058367308229207,-0.9638575315475464,0.266353040933609,0.001315919197085,-0.0005916724775287,-0.0008131286348644,-0.0124784111976623,0.0015743374824523,-0.0165901184082031,0,0,0,0
3.1,1788517843625,0.0,0.0,-0.0008569514611735,0.0057545201852917,-0.9582916498184204,0.2857327461242676,0.0,0.0,0.0,0.0,2.3436192986281404e-09,0.0,-0.0007466962561011,0.0058367308229207,-0.9638575315475464,0.266353040933609,0.001315919197085,-0.0005916724775287,-0.0008131286348644,-0.0124784111976623,0.0015743374824523,-0.0165901184082031,0,0,0,0
3.2,1788517843725,0.0,0.0,-0.0008569514611735,0.0057545201852917,-0.9582916498184204,0.2857327461242676,0.0,0.0,0.0,0.0,2.3624846523517813e-09,0.0,-0.0007582325488328,0.00582773424685,-0.9638691544532776,0.2663114368915558,0.0003659798333526,-0.0016368713921803,-0.0013860159806822,-0.0147668123245239,-0.0004940032958984,0.0229253768920898,0,0,0,0
3.3,1788517843825,0.0,0.0,-0.0008569514611735,0.0057545201852917,-0.9582916498184204,0.2857327461242676,0.0,0.0,0.0,0.0,2.901879403438556e-09,0.0,-0.0007582325488328,0.00582773424685,-0.9638691544532776,0.2663114368915558,0.0003659798333526,-0.0016368713921803,-0.0013860159806822,-0.0147668123245239,-0.0004940032958984,0.0229253768920898,0,0,0,0
3.4,1788517843925,0.0,0.0,-0.0008569514611735,0.0057545201852917,-0.9582916498184204,0.2857327461242676,0.0,0.0,0.0,0.0,2.901879403438556e-09,0.0,-0.0007365932688117,0.0058180699124932,-0.9638885259628296,0.2662415206432342,0.000599410413094,-0.0001847943345356,0.0001469467408383,-0.00712251663208,0.0118480920791625,0.003265380859375,0,0,0,0
3.5,1788517844025,0.0,0.0,-0.0008569514611735,0.0057545201852917,-0.9582916498184204,0.2857327461242676,0.0,0.0,0.0,0.0,2.320999170635218e-09,0.0,-0.0007379371672868,0.0058799022808671,-0.9638941884040833,0.2662194967269897,-0.0011212864887414,-0.0002875793689365,-0.0008370048359619,-0.0266074538230896,-0.003160536289215,0.0067253112792968,0,0,0,0
3.6,1788517844125,0.0,0.0,-0.0008569514611735,0.0057545201852917,-0.9582916498184204,0.2857327461242676,0.0,0.0,0.0,0.0,2.300596602111682e-09,0.0,-0.0007436135783791,0.0058640949428081,-0.9638992547988892,0.2662014067173004,0.0008956938735204,-0.0006237166490159,-0.0012296212876567,-0.0070196390151977,-0.0052033066749572,0.0014142990112304,0,0,0,0
3.7,1788517844225,0.0,0.0,-0.0008569514611735,0.0057545201852917,-0.9582916498184204,0.2857327461242676,0.0,0.0,0.0,0.0,2.38581288058981e-09,0.0,-0.0007575610652565,0.0058613326400518,-0.9638990759849548,0.2662022411823272,0.0004825631443612,0.0004861092956889,-0.0002947649902233,-0.0018156170845031,-0.0122820734977722,-0.0201396942138671,0,0,0,0
3.8,1788517844325,0.0,0.0,-0.0008569514611735,0.0057545201852917,-0.9582916498184204,0.2857327461242676,0.0,0.0,0.0,0.0,2.3273198923590144e-09,0.0,-0.0007157837972044,0.0058479569852352,-0.9638975262641908,0.2662080824375152,-0.0009489089092667,0.001301673195045,-0.0001792563978222,-0.0030139684677124,0.0176513195037841,0.0087242126464843,0,0,0,0
3.9,1788517844425,0.0,0.0,-0.0008569514611735,0.0057545201852917,-0.9582916498184204,0.2857327461242676,0.0,0.0,0.0,0.0,2.8730067214155493e-09,0.0,-0.0007398314774036,0.0057973358780145,-0.96389240026474,0.2662280201911926,0.0007233357550196,-0.0020201993119087,-0.000709390040417,0.0052576065063476,0.020417034626007,0.0069742202758789,0,0,0,0
4.0,1788517844525,0.0,0.0,-0.0008569514611735,0.0057545201852917,-0.9582916498184204,0.2857327461242676,0.0,0.0,0.0,0.0,2.3365835932764867e-09,0.0,-0.000728627666831,0.0057578152045607,-0.963905394077301,0.2661815583705902,0.001176110418011,0.0003774225108113,-0.000174102432618,-0.0091421604156494,-0.0055655837059021,0.013986587524414,0,0,0,0
4.1,1788517844625,0.0,0.0,-0.0008569514611735,0.0057545201852917,-0.9582916498184204,0.2857327461242676,0.0,0.0,0.0,0.0,2.3365835932764867e-09,0.0,-0.0006844690069556,0.0057911099866032,-0.9639134407043456,0.2661519050598144,-0.0002884729773604,0.0009060749811181,8.767021849098268e-05,0.0028183460235595,0.0057814717292785,-0.0272150039672851,0,0,0,0
4.2,1788517844725,0.0,0.0,-0.0008569514611735,0.0057545201852917,-0.9582916498184204,0.2857327461242676,0.0,0.0,0.0,0.0,2.324757941707389e-09,0.0,-0.0006844690069556,0.0057911099866032,-0.9639134407043456,0.2661519050598144,-0.0002884729773604,0.0009060749811181,8.767021849098268e-05,0.0028183460235595,0.0057814717292785,-0.0272150039672851,0,0,0,0
4.3,1788517844825,0.0,0.0,-0.0008569514611735,0.0057545201852917,-0.9582916498184204,0.2857327461242676,0.0,0.0,0.0,0.0,2.904000595549405e-09,0.0,-0.0006844690069556,0.0057911099866032,-0.9639134407043456,0.2661519050598144,-0.0002884729773604,0.0009060749811181,8.767021849098268e-05,0.0028183460235595,0.0057814717292785,-0.0272150039672851,0,0,0,0
4.4,1788517844925,0.0,0.0,-0.0008569514611735,0.0057545201852917,-0.9582916498184204,0.2857327461242676,0.0,0.0,0.0,0.0,2.904000595549405e-09,0.0,-0.0006693033501505,0.0057623274624347,-0.9639150500297546,0.2661466598510742,0.0004057531467614,-0.0014625285471817,0.0001867996549424,0.01911461353302,-0.0074140429496765,-0.0272026062011718,0,0,0,0
4.5,1788517845025,0.0,0.0,-0.0008569514611735,0.0057545201852917,-0.9582916498184204,0.2857327461242676,0.0,0.0,0.0,0.0,2.904000595549405e-09,0.0,-0.0006746426224708,0.0057422081008553,-0.9639021158218384,0.2661939263343811,0.0004545117564326,1.215616349342048e-05,0.0005873582393434,0.0223368406295776,0.0190184116363525,0.0106449127197265,0,0,0,0
4.6,1788517845125,0.0,0.0,-0.0008569514611735,0.0057545201852917,-0.9582916498184204,0.2857327461242676,0.0,0.0,0.0,0.0,2.311155045120472e-09,0.0,-0.0006685862317681,0.0057521928101778,-0.9639058709144592,0.266180008649826,0.0003546551677922,-0.00010673853304,0.0005084736041067,-0.0008268952369689,0.0012398362159729,0.0050830841064453,0,0,0,0
4.7,1788517845225,0.0,0.0,-0.0008569514611735,0.0057545201852917,-0.9582916498184204,0.2857327461242676,0.0,0.0,0.0,0.0,2.33011632211344e-09,0.0,-0.0007452359423041,0.005731645040214,-0.9639095664024352,0.2661669552326202,-0.0001514966740596,-0.0009602554114356,-0.0008624058064842,0.0047497749328613,0.0012178421020507,0.0140876770019531,0,0,0,0
4.8,1788517845325,0.0,0.0,-0.0008569514611735,0.0057545201852917,-0.9582916498184204,0.2857327461242676,0.0,0.0,0.0,0.0,2.9080302610395847e-09,0.0,-0.0007262444123625,0.0057499418035149,-0.963911771774292,0.2661590576171875,2.454699595250141e-05,0.0004082691568797,-0.0005192349752821,0.0231054425239563,-0.0075666308403015,0.026702880859375,0,0,0,0
4.9,1788517845425,0.0,0.0,-0.0008569514611735,0.0057545201852917,-0.9582916498184204,0.2857327461242676,0.0,0.0,0.0,0.0,2.339634930237366e-09,0.0,-0.0007165586575865,0.0057145869359374,-0.9639081358909608,0.266172856092453,0.0003485402345718,-2.8495130783620788e-05,0.0009586609476427,0.0268952846527099,-0.0044946670532226,-0.0199794769287109,0,0,0,0
5.0,1788517845525,0.0,0.0,-0.0008569514611735,0.0057545201852917,-0.9582916498184204,0.2857327461242676,0.0,0.0,0.0,0.0,2.3391513170878397e-09,0.0,-0.0007165586575865,0.0057145869359374,-0.9639081358909608,0.266172856092453,0.0003485402345718,-2.8495130783620788e-05,0.0009586609476427,0.0268952846527099,-0.0044946670532226,-0.0199794769287109,0,0,0,0
5.1,1788517845625,0.0,0.0,-0.0008569514611735,0.0057545201852917,-0.9582916498184204,0.2857327461242676,0.0,0.0,0.0,0.0,2.3309649765934637e-09,0.0,-0.0007165586575865,0.0057145869359374,-0.9639081358909608,0.266172856092453,0.0003485402345718,-2.8495130783620788e-05,0.0009586609476427,0.0268952846527099,-0.0044946670532226,-0.0199794769287109,0,0,0,0
5.2,1788517845725,0.0,0.0,-0.0008569514611735,0.0057545201852917,-0.9582916498184204,0.2857327461242676,0.0,0.0,0.0,0.0,2.314871849762312e-09,0.0,-0.0007165586575865,0.0057145869359374,-0.9639081358909608,0.266172856092453,0.0003485402345718,-2.8495130783620788e-05,0.0009586609476427,0.0268952846527099,-0.0044946670532226,-0.0199794769287109,0,0,0,0
5.3,1788517845825,0.0,0.0,-0.0008569514611735,0.0057545201852917,-0.9582916498184204,0.2857327461242676,0.0,0.0,0.0,0.0,2.373673035904744e-09,0.0,-0.0007228935137391,0.0057063801214098,-0.9638676643371582,0.2663196921348572,-0.0002747739043027,0.0001346964891225,0.0001454565543483,-0.0237115621566772,0.0060228109359741,0.0139522552490234,0,0,0,0
5.4,1788517845925,0.0,0.0,-0.0008569514611735,0.0057545201852917,-0.9582916498184204,0.2857327461242676,0.0,0.0,0.0,0.0,2.3283319716682627e-09,0.0,-0.0007311534136533,0.0056685050949454,-0.9638761281967164,0.2662895321846008,0.0007545565882945,-7.402778662792063e-05,-0.000773105760569,-0.000667929649353,0.0143843293190002,0.0015182495117187,0,0,0,0
5.5,1788517846025,0.0,0.0,-0.0008569514611735,0.0057545201852917,-0.9582916498184204,0.2857327461242676,0.0,0.0,0.0,0.0,2.859105396879613e-09,0.0,-0.000754615291953,0.0056346803903579,-0.963876485824585,0.2662887573242187,0.0010306088751038,-0.0021525708432895,0.0006176593435302,-0.0049308538436889,0.0120269656181335,0.01226806640625,0,0,0,0
5.6,1788517846125,0.0,0.0,-0.0008569514611735,0.0057545201852917,-0.9582916498184204,0.2857327461242676,0.0,0.0,0.0,0.0,2.859105396879613e-09,0.0,-0.000754615291953,0.0056346803903579,-0.963876485824585,0.2662887573242187,0.0010306088751038,-0.0021525708432895,0.0006176593435302,-0.0049308538436889,0.0120269656181335,0.01226806640625,0,0,0,0
5.7,1788517846225,0.0,0.0,-0.0008569514611735,0.0057545201852917,-0.9582916498184204,0.2857327461242676,0.0,0.0,0.0,0.0,2.859105396879613e-09,0.0,-0.000754615291953,0.0056346803903579,-0.963876485824585,0.2662887573242187,0.0010306088751038,-0.0021525708432895,0.0006176593435302,-0.0049308538436889,0.0120269656181335,0.01226806640625,0,0,0,0
5.8,1788517846325,0.0,0.0,-0.0008569514611735,0.0057545201852917,-0.9582916498184204,0.2857327461242676,0.0,0.0,0.0,0.0,1.921956149786297e-09,0.0,-0.0007990188896656,0.0056716660037636,-0.9638663530349731,0.2663244605064392,-0.0013125873033978,-0.0001076185614524,-0.0013558048179624,-0.0055857896804809,0.0273429155349731,0.0123453140258789,0,0,0,0
5.9,1788517846425,0.0,0.0,-0.0008569514611735,0.0057545201852917,-0.9582916498184204,0.2857327461242676,0.0,0.0,0.0,0.0,2.957625477861825e-09,0.0,-0.0008056722581386,0.0056867655366659,-0.9638602137565612,0.2663467526435852,0.0008964813898932,-0.0011876353435652,0.0010663274077054,-0.0181957483291625,-0.0100420117378234,0.0103425979614257,0,0,0,0
6.0,1788517846525,0.0,0.0,-0.0008569514611735,0.0057545201852917,-0.9582916498184204,0.2857327461242676,0.0,0.0,0.0,0.0,2.301812962457461e-09,0.0,-0.0007940297946333,0.005665548145771,-0.9638583660125732,0.2663536667823791,0.0006389387493932,0.0001048008423576,-0.0007125149985552,-0.007278025150299,-0.0104720592498779,0.0032014846801757,0,0,0,0
6.1,1788517846625,0.0,0.0,-0.0008569514611735,0.0057545201852917,-0.9582916498184204,0.2857327461242676,0.0,0.0,0.0,0.0,1.662889048681393e-09,0.0,-0.0007940297946333,0.005665548145771,-0.9638583660125732,0.2663536667823791,0.0006389387493932,0.0001048008423576,-0.0007125149985552,-0.007278025150299,-0.0104720592498779,0.0032014846801757,0,0,0,0
6.2,1788517846725,0.0,0.0,-0.0008569514611735,0.0057545201852917,-0.9582916498184204,0.2857327461242676,0.0,0.0,0.0,0.0,1.662889048681393e-09,0.0,-0.0008368678390979,0.0056280512362718,-0.9638552665710448,0.2663655281066894,-0.0002724505517136,-0.000830637957421,0.0015233426006495,-0.0104028582572937,0.0102898478507995,0.0787115097045898,0,0,0,0
6.3,1788517846825,0.0,0.0,-0.0008569514611735,0.0057545201852917,-0.9582916498184204,0.2857327461242676,0.0,0.0,0.0,0.0,1.662889048681393e-09,0.0,-0.0008981544524431,0.0056421626359224,-0.9638550281524658,0.2663661539554596,-0.0003843465785991,-0.000520194803211,0.0010073102238857,-0.0219420194625854,-0.0049775838851928,0.006753921508789,0,0,0,0
6.4,1788517846925,0.0,0.0,-0.0008569514611735,0.0057545201852917,-0.9582916498184204,0.2857327461242676,0.0,0.0,0.0,0.0,2.339707316778572e-09,0.0,-0.0008981544524431,0.0056421626359224,-0.9638550281524658,0.2663661539554596,-0.0003843465785991,-0.000520194803211,0.0010073102238857,-0.0219420194625854,-0.0049775838851928,0.006753921508789,0,0,0,0
6.5,1788517847025,0.0,0.0,-0.0008569514611735,0.0057545201852917,-0.9582916498184204,0.2857327461242676,0.0,0.0,0.0,0.0,1.6588692641761327e-09,0.0,-0.0008981544524431,0.0056421626359224,-0.9638550281524658,0.2663661539554596,-0.0003843465785991,-0.000520194803211,0.0010073102238857,-0.0219420194625854,-0.0049775838851928,0.006753921508789,0,0,0,0
6.6,1788517847125,0.0,0.0,-0.0008569514611735,0.0057545201852917,-0.9582916498184204,0.2857327461242676,0.0,0.0,0.0,0.0,1.6588692641761327e-09,0.0,-0.0009120665490627,0.0056572929024696,-0.9638558626174928,0.2663624584674835,-0.0021743425264155,0.0012255459543294,0.0013494714429646,0.0066295266151428,-0.0189715027809143,0.0050182342529296,0,0,0,0
6.7,1788517847225,0.0,0.0,-0.0011130564380437,0.0056488113477826,-0.952974796295166,0.3029945790767669,-0.0014329733911477,0.0023687176505931,-2.569345675074776e-07,-0.0004082685627508,-0.013734427280724,0.7130284309387207,-0.0007753148674964,0.0056829806417226,-0.9619708061218262,0.2730922996997833,0.0001585428246352,0.0020004531210606,0.1415114061573389,-0.4820610284805298,0.9038150310516356,-0.0152387619018554,0,0,0,0
6.8,1788517847325,-3.4084506034851074,3.3521127700805664,-0.0016589207807555,0.0051761413924396,-0.9446025490760804,0.3281714022159576,0.0026830487191482,-0.0058510853595186,2.114199473393335e-06,0.0106307948008179,-0.0325969159603118,1.061005711555481,-0.0012086620554327,0.0051569025963544,-0.9256816506385804,0.3782665133476257,-0.0100639260123198,-0.0104402869970457,0.9084245833423288,-0.2885245680809021,-0.1960846185684204,0.1964712142944336,56,32,-10448,9345
6.9,1788517847425,-3.4084506034851074,3.3521127700805664,-0.0013513879384845,0.0050989319570362,-0.914345920085907,0.4048996269702911,0.0014550602329431,-0.0108096669275118,1.5450293793511316e-06,-0.0070631969720125,-0.014027333818376,0.9619979858398438,-0.0011055683717131,0.0051713651046156,-0.9199841022491456,0.3919200003147125,0.000828418401223,0.0014832545334974,0.9371775142349732,0.199177086353302,0.0574727654457092,0.364898681640625,56,32,-10448,9345
7.0,1788517847525,-3.014084577560425,3.4084506034851074,-0.0011996612884104,0.0049949111416935,-0.9041137099266052,0.4272611141204834,0.0072238613828289,-0.0064845121680207,-7.365975685142255e-08,0.0053339009173214,-0.0012378448154777,0.9745036959648132,-0.0005754912272095,0.0050916699692606,-0.8908990025520325,0.4541726410388946,0.0183954258262917,0.0281867395407215,1.0383488077805278,-0.1022001504898071,-0.2582334876060486,-0.2862129211425781,103,59,-11601,9220
7.1,1788517847625,-3.014084577560425,3.4084506034851074,-0.0011996612884104,0.0049949111416935,-0.9041137099266052,0.4272611141204834,0.0072238613828289,-0.0064845121680207,-7.365975685142255e-08,0.0053339009173214,-0.0012378448154777,0.9745036959648132,0.0018233591690659,0.0048042433336377,-0.8693732023239136,0.494129478931427,0.012592099852822,0.0279543964479882,1.0295288185917162,0.0373501777648925,0.1073783636093139,0.0715045928955078,103,59,-11601,9220
7.2,1788517847725,-3.4084506034851074,3.2676055431365967,0.0021134153939783,0.0051528625190258,-0.854590654373169,0.5192722678184509,0.0015304917721136,-0.0052300371465937,-8.000165868666253e-07,-0.0025549647398293,0.0366137512028217,1.0054898262023926,0.0035148533061146,0.0062495395541191,-0.8431262969970703,0.5376678705215454,-0.0207398335694011,-0.0576246688697297,1.019967626372677,0.1298651099205017,-0.1159077882766723,-1.450063705444336,79,47,-10196,9373
7.3,1788517847825,-3.4084506034851074,3.2676055431365967,0.0034628065768629,0.0064462511800229,-0.8300290703773499,0.5576720833778381,0.0034276068262294,-0.004751014944309,2.97765786815942e-06,-0.0180192235857248,-0.0326202511787414,0.9684270024299622,0.0035148533061146,0.0062495395541191,-0.8431262969970703,0.5376678705215454,-0.0207398335694011,-0.0576246688697297,1.019967626372677,0.1298651099205017,-0.1159077882766723,-1.450063705444336,79,47,-10196,9373
7.4,1788517847925,-3.1549296379089355,3.183098554611206,0.0034628065768629,0.0064462511800229,-0.8300290703773499,0.5576720833778381,0.0034276068262294,-0.004751014944309,2.97765786815942e-06,-0.0180192235857248,-0.0326202511787414,0.9684270024299622,0.0024066027253866,0.0062862923368811,-0.8042996525764465,0.5941858291625977,-0.0148755318600374,-0.0135971687975542,1.0042814671218594,-0.0012609362602233,0.0743530988693237,-0.2662782669067383,79,47,-10196,9373
7.5,1788517848025,-3.211267709732056,3.2957746982574463,0.0034628065768629,0.0064462511800229,-0.8300290703773499,0.5576720833778381,0.0034276068262294,-0.004751014944309,2.97765786815942e-06,-0.0180192235857248,-0.0326202511787414,0.9684270024299622,0.001601424999535,0.0063019711524248,-0.7440786957740784,0.6680603623390198,-0.0124240709108126,-0.008645649974235,1.0229609171562624,-0.1464645862579345,0.0942890048027038,0.5162439346313477,86,66,-10921,9273
7.6,1788517848125,-3.239436626434326,3.211267709732056,0.0014479353558272,0.0063039297237992,-0.7344683408737183,0.6786121129989624,0.0028730601188162,-0.0072829434382662,3.745456967842815e-06,-0.0137654095888137,-0.0074381474405527,0.988871693611145,0.0009867195039987,0.0065510710701346,-0.7235909700393677,0.690197229385376,-0.0243898204758713,-0.0118299886553145,0.9525499301210806,0.0136539340019226,-0.3354725837707519,0.1200056076049804,40,58,-10584,9577
7.7,1788517848225,-3.239436626434326,3.211267709732056,0.0008330319542437,0.0071140769869089,-0.6664644479751587,0.7455024123191833,0.001742153547949,-0.0091858885803508,2.859029418852632e-06,-0.0155616886913776,0.0048687905073165,1.0077813863754272,0.0009814398363232,0.0071045327931642,-0.6806554198265076,0.732568621635437,-0.0153815446274357,0.0041778552805848,1.0060838378057195,-0.0023688077926635,-0.2946130633354187,0.0681085586547851,40,58,-10584,9577
7.8,1788517848325,-3.183098554611206,3.323943614959717,0.0008330319542437,0.0071140769869089,-0.6664644479751587,0.7455024123191833,0.001742153547949,-0.0091858885803508,2.859029418852632e-06,-0.0155616886913776,0.0048687905073165,1.0077813863754272,0.0005471305921673,0.0070248860865831,-0.6545230746269226,0.7560092210769653,-0.0217117830266246,-0.0245846945287832,0.9902265088655766,-0.0281356573104858,-0.1946436166763305,0.5299949645996094,40,58,-10584,9577
7.9,1788517848425,-3.380281686782837,3.239436626434326,0.0003365951124578,0.0070500774309039,-0.6124921441078186,0.7904451489448547,0.0058171098377649,-0.0066809986293022,-2.2878079645187675e-06,-0.0074992636218667,-0.0054514398798346,1.0051788091659546,0.0005471305921673,0.0070248860865831,-0.6545230746269226,0.7560092210769653,-0.0217117830266246,-0.0245846945287832,0.9902265088655766,-0.0281356573104858,-0.1946436166763305,0.5299949645996094,59,52,-10009,9555
8.0,1788517848525,-3.183098554611206,3.183098554611206,0.0003365951124578,0.0070500774309039,-0.6124921441078186,0.7904451489448547,0.0058171098377649,-0.0066809986293022,-2.2878079645187675e-06,-0.0074992636218667,-0.0054514398798346,1.0051788091659546,-0.000100489705801,0.006300114095211,-0.5588993430137634,0.8292115330696106,0.0036330961868045,-0.0134178912300673,0.9995797133691134,-0.1797240376472473,-0.277808129787445,0.0906248092651367,71,65,-10697,9116
8.1,1788517848625,-3.183098554611206,3.183098554611206,0.0003365951124578,0.0070500774309039,-0.6124921441078186,0.7904451489448547,0.0058171098377649,-0.0066809986293022,-2.2878079645187675e-06,-0.0074992636218667,-0.0054514398798346,1.0051788091659546,-0.0001482451334595,0.0059895776212215,-0.516585111618042,0.8562148809432983,0.0072046832795574,0.0039138771095655,0.961662505789861,-0.1646777391433715,0.1665263772010803,-0.5828227996826172,91,62,-10879,9661
8.2,1788517848725,-2.8450703620910645,2.929577350616455,0.0003365951124578,0.0070500774309039,-0.6124921441078186,0.7904451489448547,0.0058171098377649,-0.0066809986293022,-2.2878079645187675e-06,-0.0074992636218667,-0.0054514398798346,1.0051788091659546,-0.0001482451334595,0.0059895776212215,-0.516585111618042,0.8562148809432983,0.0072046832795574,0.0039138771095655,0.961662505789861,-0.1646777391433715,0.1665263772010803,-0.5828227996826172,66,60,-9630,8377
8.3,1788517848825,-2.8450703620910645,2.929577350616455,-0.0006801895797252,0.0056974203325808,-0.4463175237178802,0.8948562741279602,0.0066190006470373,-0.0108766979536243,6.816778114847958e-07,-0.0078370915725827,-0.0114532960578799,0.8720882534980774,-0.0001482451334595,0.0059895776212215,-0.516585111618042,0.8562148809432983,0.0072046832795574,0.0039138771095655,0.961662505789861,-0.1646777391433715,0.1665263772010803,-0.5828227996826172,66,60,-9630,8377
8.4,1788517848925,-2.619718313217163,2.619718313217163,-0.0009466826450079,0.0057136132381856,-0.4257757067680359,0.9048101902008056,-0.0020251183973472,-0.0044846318423801,1.4186938504214232e-06,-0.0143055375665426,-0.0070383008569478,0.9172137975692748,-0.0005427924916148,0.0055492790415883,-0.3977153599262237,0.9174919128417968,0.0044031186540682,-0.0054038702605534,0.974088398725436,0.1100662350654602,-0.2551536560058594,-0.9498329162597656,54,23,-7947,7197
8.5,1788517849025,-2.619718313217163,2.619718313217163,-0.0009466826450079,0.0057136132381856,-0.4257757067680359,0.9048101902008056,-0.0020251183973472,-0.0044846318423801,1.4186938504214232e-06,-0.0143055375665426,-0.0070383008569478,0.9172137975692748,-0.0005149766802787,0.0049381190910935,-0.3679551482200622,0.9298303127288818,-0.0010543158065268,-0.0057622824492346,0.6310699232205285,-0.3159043788909912,-0.0707631111145019,0.281163215637207,54,23,-7947,7197
8.6,1788517849125,-2.619718313217163,2.619718313217163,-0.0005371322622522,0.0046153175644576,-0.3287824094295501,0.9443942904472352,0.0011356792543577,-0.0065894770776902,3.671130992806249e-07,0.0004904789384454,-0.0103531349450349,0.6444857120513916,-0.0003893384709954,0.0048639765009284,-0.3593008518218994,0.9332091212272644,0.0066461805791515,-0.002899894193812,0.6012862375884878,0.0608995556831359,-0.0639184713363647,0.3546838760375976,54,23,-7947,7197
8.7,1788517849225,-2.169013977050781,2.0281689167022705,-0.0008174978429451,0.0047059664502739,-0.3010901212692261,0.9535837769508362,0.0043086837218062,-0.0060987297148886,-1.9851127478686315e-06,-0.0091176237910985,0.0105063254013657,0.639229953289032,-0.0007396256551146,0.004600659944117,-0.3035184442996979,0.9528141617774964,-0.0019182617208692,-0.0009302529117171,0.6904384213631711,-0.0775494575500488,0.026692509651184,0.5448293685913086,54,23,-7947,7197
8.8,1788517849325,-1.7183098793029783,1.887323975563049,-0.0008060057880356,0.004727060906589,-0.2781570255756378,0.9605236649513244,0.0022142275035783,-0.0046736840585704,-3.3732102797827486e-08,-0.0028089338447898,-0.0008006428251974,0.6892248392105103,-0.0005591940134763,0.0045578479766845,-0.2659109830856323,0.9639866948127748,0.000697780566746,-0.017839384536223,0.4838865391709148,0.0641689896583557,0.2567781209945678,0.1494779586791992,82,45,-7343,5771
8.9,1788517849425,-1.7183098793029783,1.887323975563049,-0.0006026382325217,0.0046646664850413,-0.2412119060754776,0.9704610109329224,-0.0032106779867288,-0.0030534310639207,-1.7224239349880716e-06,0.0004154565394856,-0.0086458045989274,0.5434496402740479,-0.0004538437351584,0.0048869922757148,-0.2571280300617218,0.9663649201393129,-0.0013563329053122,0.020641677280514,0.569606632549529,-0.0194530487060546,0.2026682496070861,-0.0576362609863281,82,45,-7343,5771
9.0,1788517849525,-1.8309859037399288,1.887323975563049,-0.0005144200986251,0.0049452567473053,-0.2256078124046325,0.9742055535316468,0.0001871884127804,-0.0067515566515072,-1.889375691228278e-07,-0.0020847648847848,0.0105707496404647,0.6360021829605103,1.6055069863796234e-05,0.0049333730712533,-0.2133843153715133,0.9769558906555176,-0.0003690301213116,0.0071348120529219,0.5780364388671556,-0.1452991962432861,0.0273715257644653,0.120732307434082,55,53,-6314,5188
9.1,1788517849625,-1.5211267471313477,1.4929577112197876,-7.938110502436757e-05,0.0046634529717266,-0.1860839277505874,0.98252272605896,0.0042531454682598,-0.0070095910724613,1.1780937655960735e-06,-4.737730341730639e-05,-0.007590951398015,0.5593560934066772,1.6055069863796234e-05,0.0049333730712533,-0.2133843153715133,0.9769558906555176,-0.0003690301213116,0.0071348120529219,0.5780364388671556,-0.1452991962432861,0.0273715257644653,0.120732307434082,55,53,-6314,5188
9.2,1788517849725,-1.3239436149597168,1.5492957830429075,-0.000329119618982,0.0015130561077967,-0.1623447686433792,0.9867328405380248,-0.0025498552671329,-0.002328176865204,-1.7137184930924283e-06,0.006647540256381,-0.0385656990110874,0.3748961687088012,1.6055069863796234e-05,0.0049333730712533,-0.2133843153715133,0.9769558906555176,-0.0003690301213116,0.0071348120529219,0.5780364388671556,-0.1452991962432861,0.0273715257644653,0.120732307434082,133,53,-7131,4875
9.3,1788517849825,-1.7183098793029783,1.5774648189544678,-0.000329119618982,0.0015130561077967,-0.1623447686433792,0.9867328405380248,-0.0025498552671329,-0.002328176865204,-1.7137184930924283e-06,0.006647540256381,-0.0385656990110874,0.3748961687088012,-0.0003989813849329,0.0011012479662895,-0.152233213186264,0.9883438944816588,-0.0080615497869801,0.0087477524488028,0.5341813194472164,0.0444114208221435,-0.1363312005996704,0.1028299331665039,70,26,-6274,5058
9.4,1788517849925,-1.7183098793029783,1.5774648189544678,-0.000329119618982,0.0015130561077967,-0.1623447686433792,0.9867328405380248,-0.0025498552671329,-0.002328176865204,-1.7137184930924283e-06,0.006647540256381,-0.0385656990110874,0.3748961687088012,-0.0008579492568969,0.001372898928821,-0.130064457654953,0.9915041923522948,-0.0052650445943413,0.0002310309212485,0.3161531843327676,-0.0135031938552856,-0.0655332803726196,-0.0336647033691406,70,26,-6274,5058
9.5,1788517850025,-1.7183098793029783,1.5774648189544678,-0.000329119618982,0.0015130561077967,-0.1623447686433792,0.9867328405380248,-0.0025498552671329,-0.002328176865204,-1.7137184930924283e-06,0.006647540256381,-0.0385656990110874,0.3748961687088012,-0.0010180873796343,0.000949203968048,-0.1170289143919944,0.9931275844573976,-0.0035424288308458,-0.0127147177260073,0.3689222140841245,0.0282936096191406,0.2037670612335205,-9.5367431640625e-06,50,64,-5091,4555
9.6,1788517850125,-1.2394366264343262,1.0985915660858154,-0.0010460171615704,0.0010355866979807,-0.0931769087910652,0.9956485033035278,-0.0012165671844435,-0.0013207437382304,-1.908046566382054e-06,-0.0026964056305587,-0.007287292741239,0.4065746068954468,-0.0010466901585459,0.0012283725664019,-0.0923285707831382,0.9957273602485656,-0.0003793284535798,-0.0008955247212544,0.3186156998006378,-0.3570531010627746,0.0448278784751892,-0.061650276184082,50,64,-5091,4555
9.7,1788517850225,-0.9295774698257446,1.2394366264343262,-0.0010460171615704,0.0010355866979807,-0.0931769087910652,0.9956485033035278,-0.0012165671844435,-0.0013207437382304,-1.908046566382054e-06,-0.0026964056305587,-0.007287292741239,0.4065746068954468,-0.0010466901585459,0.0012283725664019,-0.0923285707831382,0.9957273602485656,-0.0003793284535798,-0.0008955247212544,0.3186156998006378,-0.3570531010627746,0.0448278784751892,-0.061650276184082,86,75,-5618,4713
9.8,1788517850325,-1.1267606019973757,1.1267606019973757,-0.0011921614641323,0.0007417306187562,-0.0453868992626667,0.9989684820175172,-4.735023495482883e-05,-0.0025567291061639,-1.9624544996728426e-07,-0.002211709273979,-0.0113118086010217,0.4326926469802856,-0.00125094037503,0.0008531073108315,-0.0556145496666431,0.9984511733055116,-0.003130961459525,0.0117067932413985,0.3643572439484558,0.1440634131431579,-0.1234549880027771,0.0368413925170898,53,55,-5073,4643
9.9,1788517850425,0.0,0.0,-0.0012651963625103,0.0008130941423587,-0.0357841998338699,0.9993584156036376,0.0019398320951792,-0.0039393388395555,1.3084281211146806e-07,-0.003296511946246,0.0022374764084815,0.3823631405830383,-0.0012866994366049,0.0010900925844907,-0.0459452234208583,0.998942494392395,-0.0021061376805955,0.0084704181484678,0.2230063657230417,0.0788618326187133,-0.2412381768226623,0.0378456115722656,84,81,-2626,2759
10.0,1788517850525,0.0,0.0,-0.0012924352195113,0.001170321367681,-0.0226131118834018,0.9997427463531494,0.000872683428104,-0.0016711860557107,-8.625701472262452e-07,0.0003862101584672,0.0013981165830045,0.0470545217394828,-0.0012592375278472,0.0011961106210947,-0.0435915403068065,0.9990479350090028,-9.563730171059912e-05,-0.0003551139617157,-0.0344257107394727,-0.0355253815650939,-0.0296059250831604,-0.0066757202148437,0,0,0,0
10.1,1788517850625,0.0,0.0,-0.001270919223316,0.0010775838745757,-0.0246558170765638,0.9996946454048156,7.246427062217601e-05,0.0002808921492108,8.949509305449174e-07,0.0002984119637403,-0.0031266512814909,-0.0416795648634433,-0.0012433463707566,0.0011229999363422,-0.0447090230882167,0.9989986419677734,0.0009785037970792,-0.0033960231396688,-0.0536121046779705,0.0887534022331237,0.0849902629852294,-0.0056476593017578,0,0,0,0
10.2,1788517850725,0.0,0.0,-0.0012709193397313,0.0010775838745757,-0.0246558114886283,0.9996946454048156,0.0,0.0,0.0,-4.8823518561391666e-09,-1.748902134224295e-09,2.2385947318070978e-07,-0.0012538312003016,0.0010880529880523,-0.0450368747115135,0.998983919620514,0.0003679712527535,-0.0014643760141575,-0.0013484642640139,0.0017221570014953,0.0221976637840271,0.0206518173217773,0,0,0,0
10.3,1788517850825,0.0,0.0,-0.0012709195725619,0.0010775838745757,-0.024655794724822,0.9996946454048156,0.0,0.0,0.0,-2.7361141130555206e-10,-1.2768531787443747e-09,2.8017808517688536e-07,-0.0012906100600957,0.0011099353432655,-0.0450432412326335,0.9989835619926452,-0.0019502998805052,0.0010450309578218,-0.000330176472778,-0.0231056213378906,-0.0489805936813354,0.0382041931152343,0,0,0,0
10.4,1788517850925,0.0,0.0,-0.0012709195725619,0.0010775838745757,-0.0246557891368865,0.9996946454048156,0.0,0.0,0.0,-2.1851150056040322e-10,-7.28371696290253e-10,2.2375577657385293e-07,-0.0012087021023035,0.0010441495105624,-0.0449862591922283,0.9989863038063048,0.0012593294681299,-0.0003210199393348,9.070575970047494e-05,0.0027311444282531,0.015916109085083,0.0134487152099609,0,0,0,0
10.5,1788517851025,0.0,0.0,-0.0012709195725619,0.0010775838745757,-0.0246557891368865,0.9996946454048156,0.0,0.0,0.0,-2.1851150056040322e-10,-7.28371696290253e-10,2.2375577657385293e-07,-0.0012284805998206,0.0010402286425232,-0.0450016222894191,0.9989855885505676,-0.0005979458292048,-0.0001088239975198,-0.0005202957933668,-0.000853419303894,0.0092138648033142,-0.0099449157714843,0,0,0,0
10.6,1788517851125,0.0,0.0,-0.0012709194561466,0.0010775839909911,-0.0246557593345642,0.9996946454048156,0.0,0.0,0.0,-2.179915831179713e-10,8.719663324718852e-10,2.232233811128026e-07,-0.0012017413973808,0.001017378643155,-0.044921513646841,0.9989892840385436,0.0001121613031961,-0.0006059412780441,-0.0001902595548998,-0.012271761894226,-0.0400359630584716,0.0400915145874023,0,0,0,0
10.7,1788517851225,0.0,0.0,-0.0012709194561466,0.0010775839909911,-0.0246557537466287,0.9996946454048156,0.0,0.0,0.0,-2.9006674839848756e-10,1.16026699359395e-09,2.2277126277003845e-07,-0.0012087300419807,0.0012882212176918,-0.0388207659125328,0.9992446899414062,-0.0014586612537356,0.0132776017835671,0.3136291246056788,-0.7698638439178467,1.0219634771347046,-0.0252408981323242,0,0,-739,739
10.8,1788517851325,-3.2957746982574463,3.2957746982574463,-0.0012856821995228,0.001063312171027,-0.0235022623091936,0.999722421169281,0.002170085160095,-0.0028966966722378,5.893927558511292e-07,-0.0006225094548426,-0.0006429767236113,0.0459998324513435,-0.0014515100046992,0.0024916781112551,6.026029586791992e-05,0.9999958276748656,-0.0164159219746869,0.0074114681788073,1.129015798810287,0.0540064573287963,-0.3015455603599548,-0.4582738876342773,38,47,-9912,9266
10.9,1788517851425,-3.2957746982574463,3.2957746982574463,-0.0012856821995228,0.001063312171027,-0.0235022623091936,0.999722421169281,0.002170085160095,-0.0028966966722378,5.893927558511292e-07,-0.0006225094548426,-0.0006429767236113,0.0459998324513435,-0.0013473704457283,0.0019706785678863,0.0398009084165096,0.9992048144340516,0.0004200962537676,-0.0044266839158964,0.9971841638496464,0.0007020831108093,-0.2378541231155395,-0.2283334732055664,63,31,-9181,8416
11.0,1788517851525,-2.929577350616455,2.7323944568634038,-0.0013884021900594,0.002043681917712,0.0721082240343093,0.997393786907196,0.0060096272895048,-0.0081068381977862,-1.2140610388750694e-06,-0.001575072761625,0.0099284220486879,0.8995122909545898,-0.0012693144381046,0.0024146270006895,0.104719303548336,0.9944981336593628,-0.0052971191760319,0.0005948873173485,0.8223706691789975,0.0523598790168762,-0.1617873311042785,-0.3014183044433594,28,25,-7344,6461
11.1,1788517851625,-2.929577350616455,2.7323944568634038,-0.0014358549378812,0.0024613735731691,0.1395433843135833,0.9902118444442748,0.0043438580996915,-0.0099780213336268,1.3189758978591738e-06,-0.0088057955726981,0.0054136174730956,0.8175134658813477,-0.0015715006738901,0.0027635106816887,0.1286077201366424,0.991690456867218,-0.0111918371157355,0.0187482559131026,0.5630361253172019,-0.0106212496757507,-0.2540082335472107,0.322972297668457,28,25,-7344,6461
11.2,1788517851725,-1.7464789152145386,1.97183096408844,-0.0018269913271069,0.0028186568524688,0.1637647598981857,0.986493706703186,0.0012881416010783,-0.0061580169682799,4.904915458542637e-07,-0.0068786875344812,0.003358160611242,0.4546997845172882,-0.0016959849745035,0.0028755525127053,0.1400540769100189,0.9901382327079772,-0.0056704188861807,0.0046016688155046,0.4619339449830705,0.0685256719589233,0.0105460882186889,0.1124858856201171,28,25,-7344,6461
11.3,1788517851825,1.5492957830429075,5.042253494262695,-0.0020907083526253,0.0025238627567887,0.1882048845291137,0.982124388217926,0.0945982110291501,-0.003355641043401,-2.2710878754876616e-05,-0.0099589433521032,0.0135507648810744,0.5668053030967712,-0.001858971081674,0.0019685290753841,0.1746075600385666,0.9846343994140624,0.0017873528165986,-0.0552129163328009,0.5774901992303569,0.8019454479217529,-0.0710179805755615,-0.0139875411987304,119,125,8988,16010
11.4,1788517851925,4.535211086273193,6.253520965576172,-0.0018352610059082,0.0020285833161324,0.2019169479608535,0.979398787021637,0.1188109497310647,-0.0012418034833216,8.495776574580088e-05,0.0047036265023052,-0.0222951527684927,0.560274600982666,-0.0016577327623963,0.0015377821400761,0.1975506693124771,0.9802900552749634,-0.003947515837831,-0.0118790374013647,0.3309217749462183,0.4102011919021606,-0.0067628026008605,0.1659822463989257,124,60,14430,16111
11.5,1788517852025,4.0,6.478873252868652,-0.0018352610059082,0.0020285833161324,0.2019169479608535,0.979398787021637,0.1188109497310647,-0.0012418034833216,8.495776574580088e-05,0.0047036265023052,-0.0222951527684927,0.560274600982666,-0.0023808162659406,0.0013760915026068,0.2074206173419952,0.9782480597496032,-0.0223045923529004,0.0060866282354656,0.2318989777735112,-0.2273709177970886,-0.116442859172821,-0.5557279586791992,56,118,11649,17484
11.6,1788517852125,4.0,6.478873252868652,-0.0025547347031533,0.0008589582866989,0.2416647225618362,0.9703561067581176,0.1666188799211469,0.0052186992414056,3.3812915538599287e-05,-0.0069282921031117,-0.0092178070917725,0.3491434752941131,-0.0022611739113926,0.0009971354156732,0.2355776876211166,0.9718524217605592,0.0116459960596187,0.012760824262594,0.3485912490310011,0.13836669921875,-0.1013829708099365,0.457158088684082,56,118,11649,17484
11.7,1788517852225,3.94366192817688,6.3380279541015625,-0.0025547347031533,0.0008589582866989,0.2416647225618362,0.9703561067581176,0.1666188799211469,0.0052186992414056,3.3812915538599287e-05,-0.0069282921031117,-0.0092178070917725,0.3491434752941131,-0.0007238686084747,0.0004676654934883,0.2499626129865646,0.96825510263443,0.0209375618959857,-0.0314475182534243,0.3452658980622256,0.0501198172569274,0.0193830132484436,-0.0922498703002929,56,118,11649,17484
11.8,1788517852325,4.816901206970215,5.323943614959717,-0.0003103064664173,0.0008843826944939,0.2742671966552734,0.9616531133651732,0.1635241445861712,0.0052601710916334,4.1886554470457455e-05,0.0241445116698741,-0.0050025559030473,0.3571890294551849,0.0004069311544299,0.0003696596249938,0.2567527294158935,0.9664770364761353,0.0529682989709333,-0.0193845952644959,0.3496782539455269,0.3018895387649536,-0.399562120437622,1.0010442733764648,149,36,16907,11775
11.9,1788517852425,5.126760482788086,4.647887229919434,0.0009410656057298,-9.652969310991466e-05,0.2785598933696747,0.960418462753296,0.167447326088721,0.0014073851364181,1.3118208901117191e-05,-0.0285715349018573,-0.0084516452625393,-0.1033241897821426,0.0010134503245353,5.703698843717575e-05,0.2565135359764099,0.9665401577949524,0.0125268281370159,0.0218221916118389,-0.1253903420104317,0.1360524296760559,0.2346550822257995,0.7318572998046875,98,61,15544,14227
12.0,1788517852525,5.492957592010498,4.676056385040283,-0.0001670520287007,-0.0001185225337394,0.2699559032917022,0.9628726840019226,0.1609381373352065,-0.0056091779581385,-2.921369660300781e-05,-0.0320818088948726,0.0144988521933555,-0.1302031725645065,-0.0002012131735682,-0.0002354830503463,0.2477514147758484,0.9688235521316528,-0.0151497909422151,-0.0088257904081108,-0.1735964405368427,-0.1538955569267273,-0.4373703002929687,-0.7182331085205078,108,52,16751,12070
12.1,1788517852625,5.633802890777588,4.478873252868652,-0.0001670520287007,-0.0001185225337394,0.2699559032917022,0.9628726840019226,0.1609381373352065,-0.0056091779581385,-2.921369660300781e-05,-0.0320818088948726,0.0144988521933555,-0.1302031725645065,-0.00128567032516,-0.0011594546958804,0.2442405372858047,0.9697131514549256,-0.0663674965296008,-0.0327286605289809,-0.1880485062468126,0.3178325891494751,0.5025539398193359,-1.243870735168457,60,64,15843,12669
12.2,1788517852725,5.183098793029785,4.816901206970215,-0.0020096737425774,-0.0009169672848656,0.2583913505077362,0.9660377502441406,0.1630332970709306,-0.0135823033334086,-0.0001952775167054,0.0024722791276872,0.0384865663945674,-0.0706512480974197,-0.00128567032516,-0.0011594546958804,0.2442405372858047,0.9697131514549256,-0.0663674965296008,-0.0327286605289809,-0.1880485062468126,0.3178325891494751,0.5025539398193359,-1.243870735168457,60,64,15843,12669
12.3,1788517852825,5.211267471313477,4.8450703620910645,-0.0016848145751282,-0.0004297085688449,0.2575207352638244,0.9662712216377258,0.1743190928124261,-0.0096597295137634,-7.17268757424456e-07,0.0,1.5146481846528559e-09,0.0,-0.0017003696411848,-0.0006686653941869,0.2375256866216659,0.971379578113556,-0.0017354699340277,-0.0337881282783994,-0.0303917229492714,0.1187012195587158,0.0213409662246704,-0.8229398727416992,73,74,15200,13446
12.4,1788517852925,5.239436626434326,5.014084339141846,-0.0016289183404296,-0.001157570281066,0.2562392354011535,0.966611385345459,0.1616996374462383,-0.0041308887193341,5.753665332310816e-05,-0.0052650161087512,-0.0282340683043003,-0.0523764975368976,-0.0024893200024962,-0.0005314629524946,0.2338937371969223,0.9722588658332824,-0.0043857486345316,0.0041342946684159,-0.0507461148997162,-0.1643668413162231,-0.1670715808868408,-0.0041656494140625,73,74,15200,13446
12.5,1788517853025,5.492957592010498,4.704225540161133,-0.0024593882262706,-0.000603734224569,0.2535642385482788,0.9673152565956116,0.1672121454967788,-0.0050689464150076,-2.15924358081817e-05,-0.0062555372714996,0.013170663267374,-0.0349974185228347,-0.0024942448362708,-0.0002434868365526,0.2319059371948242,0.9727349877357484,0.0008449202300258,0.020199922501624,-0.0777129203151092,0.0685943365097045,0.0860758423805236,-0.6972064971923828,95,55,16475,12103
12.6,1788517853125,5.436619758605957,4.422535419464111,-0.0028244098648428,-3.3387565053999424e-05,0.2468424588441848,0.969051480293274,0.1646446777750057,-0.0078439969856858,-0.0001595792586659,-0.0116332955658435,0.0360206477344036,-0.1518152207136154,-0.0026501938700675,0.0008784029632806,0.2203930765390396,0.9754071831703186,0.0163270338014787,-0.0038893903011008,-0.1801923579168644,0.1882559061050415,0.0834936499595642,-1.3649091720581057,82,56,16560,12894
12.7,1788517853225,5.436619758605957,4.422535419464111,-0.0026441235095262,0.0007353789987973,0.2394807785749435,0.9708972573280334,0.1546878643664588,-0.010936968725888,1.1633058482991414e-05,0.013651936315,-0.003776075085625,-0.1639561206102371,-0.0023810276761651,0.0004283394664525,0.2133392393589019,0.9769752621650696,0.0040568855111607,-0.0295977245185214,-0.1175013024208185,-0.0363351702690124,-0.0809661149978637,-1.880257606506348,82,56,16560,12894
12.8,1788517853325,5.436619758605957,4.422535419464111,-0.0024176659062504,0.0005353820743039,0.2321379482746124,0.9726796746253968,0.1587251300900504,-0.0104183920718413,0.0001382999453944,0.0027515962719917,-0.0149807063862681,-0.1001199930906295,-0.0024045389145612,0.000604486092925,0.2120294421911239,0.977260172367096,0.000785487893775,0.0090653843189368,-0.0674400846789086,-0.2919329404830932,0.371756911277771,-1.5130720138549805,82,56,16560,12894
12.9,1788517853425,1.4929577112197876,2.197183132171631,-0.0024137371219694,0.0010199157986789,0.2313935160636901,0.9728567600250244,0.1440045011475991,-0.0048659133222776,-3.0847354103506016e-05,0.0058368374593555,0.0235258378088474,-0.0380748771131038,-0.0022991178557276,0.0005364287644624,0.2153417021036148,0.9765359163284302,-0.0018425841253289,-0.0145619999795449,0.0941921257184146,-1.078331470489502,-0.3694063425064087,1.3344230651855469,46,9,0,4978
13.0,1788517853525,0.6197183132171631,1.7183098793029783,-0.0024137371219694,0.0010199157986789,0.2313935160636901,0.9728567600250244,0.1440045011475991,-0.0048659133222776,-3.0847354103506016e-05,0.0058368374593555,0.0235258378088474,-0.0380748771131038,-0.0022207163274288,0.0005231481045484,0.2206046879291534,0.975360631942749,0.0027190573675558,-0.0016681390360171,0.2157798663761202,-0.3236147165298462,0.2546921372413635,0.7619905471801758,112,10,-6111,1857
13.1,1788517853625,-0.9014084339141846,0.3098591566085815,-0.0024120439775288,0.0004847942618653,0.2467770725488662,0.9690691828727722,-0.0076719843547272,0.0011167882078605,2.281085783682217e-06,-0.0046292906627058,-0.0017799498746171,0.1915305703878402,-0.0022207163274288,0.0005231481045484,0.2206046879291534,0.975360631942749,0.0027190573675558,-0.0016681390360171,0.2157798663761202,-0.3236147165298462,0.2546921372413635,0.7619905471801758,68,162,-4077,5428
13.2,1788517853725,0.0,0.0,-0.0024278757628053,0.0003650247235782,0.2597821056842804,0.9656641483306884,0.0104455685297149,-0.0018365437591876,-6.861788596873109e-07,-0.0023159114643931,-0.00177855102811,0.0808687284588813,-0.0022207163274288,0.0005231481045484,0.2206046879291534,0.975360631942749,0.0027190573675558,-0.0016681390360171,0.2157798663761202,-0.3236147165298462,0.2546921372413635,0.7619905471801758,68,162,-4077,5428
13.3,1788517853825,0.0,0.0,-0.0023929460439831,0.0003036577254533,0.2581648528575897,0.966097891330719,-0.0039177158193949,-0.0002431346162797,-1.1790464435957103e-06,0.0009935254929587,-0.003301182296127,-0.0856184959411621,-0.0023664878681302,0.0003930311650037,0.236858382821083,0.971541166305542,0.0011627974392275,0.0015188936071187,-0.0252481581410897,0.3503707647323608,-0.0138275027275085,-0.0103120803833007,0,2,0,0
13.4,1788517853925,0.9577465057373048,-0.98591548204422,-0.0023709409870207,0.0004300261498428,0.2557314932346344,0.9667448401451112,0.001972836859994,-0.0028163840259975,-7.637203391854973e-07,0.0019004300702363,0.0061948089860379,-0.0367621928453445,-0.0023841308429837,0.0004505375400185,0.2348105609416961,0.972038209438324,-0.000336688196935,0.001778429533292,-0.1626964451691466,0.1492075324058532,-0.2626901268959045,-0.1738910675048828,0,2,0,0
13.5,1788517854025,0.8450704216957092,-0.7323943376541138,-0.0023454132024198,0.0002590126823633,0.2489278763532638,0.96851909160614,-0.002339435309082,0.0001808430095108,-4.22965956101462e-07,-0.0004760352021548,-0.0062481891363859,-0.2807526290416717,-0.0023050317540764,0.000376439653337,0.2180339843034744,0.9759383797645568,0.0004951901023257,0.0013616726154582,-0.2212431776522598,-0.0293675065040588,-0.141472578048706,-0.1615839004516601,136,102,5011,-4636
13.6,1788517854125,0.8169013857841492,-0.8450704216957092,-0.0023454132024198,0.0002590126823633,0.2489278763532638,0.96851909160614,-0.002339435309082,0.0001808430095108,-4.22965956101462e-07,-0.0004760352021548,-0.0062481891363859,-0.2807526290416717,-0.0021318718791007,0.0005335183814167,0.2086027860641479,0.9779979586601256,0.0060676349437644,0.0043375575353445,-0.250808920223934,0.0991734862327575,-0.0365490317344665,0.0387830734252929,136,102,5011,-4636
13.7,1788517854225,0.8169013857841492,-0.8450704216957092,-0.0023454132024198,0.0002590126823633,0.2489278763532638,0.96851909160614,-0.002339435309082,0.0001808430095108,-4.22965956101462e-07,-0.0004760352021548,-0.0062481891363859,-0.2807526290416717,-0.0021668570116162,0.0007014796137809,0.1934396028518676,0.9811095595359802,-0.0045025743257493,-0.0017441731763143,-0.3418388395881054,1.2575726509094238,0.2538039088249206,0.6916666030883789,139,253,10900,9250
13.8,1788517854325,5.323943614959717,5.267605781555176,-0.0022969492711126,0.0009231709409505,0.2082519829273224,0.9780721068382264,0.1435665096920784,-0.0037226852865255,-0.0001848444343082,-0.0038498633075505,0.0043934844434261,-0.0414455533027648,-0.0019201086834073,0.0005459934473037,0.1885630935430526,0.9820590615272522,0.0157002118786026,-0.0742368596290817,0.0034656640064763,0.98630291223526,-0.0723738074302673,4.692681312561035,107,140,15777,16466
13.9,1788517854425,5.014084339141846,5.436619758605957,-0.002440515672788,0.0015909106004983,0.2085419595241546,0.9780091047286988,0.1821010345361129,-0.0068037315554098,-4.982255348294695e-05,-0.0073715997859835,0.027337659150362,-0.0015194058651104,-0.002382269129157,0.0016049519181251,0.1877950578927993,0.9822041392326356,0.0087380567680671,-0.0176697083854008,-0.0479129017549982,0.0559624433517456,-0.1696650981903076,-2.180206298828125,47,69,13665,14799
14.0,1788517854525,4.816901206970215,5.098591327667236,-0.002412452828139,0.0015551152173429,0.2095105946063995,0.9778022170066832,0.168796798343554,-0.0014252297391568,8.116110580493032e-06,0.0023287490475922,-0.0115509880706667,0.0878259763121604,-0.0023114113137125,0.0013607516884803,0.1905197650194168,0.9816797375679016,0.0005364944995982,-0.0199528849412921,0.0879000820717802,-0.1352121233940124,0.2993781566619873,-0.2338714599609375,62,73,14068,14542
14.1,1788517854625,4.985915660858154,5.211267471313477,-0.0024621495977044,0.0018352351617068,0.2130919992923736,0.9770272970199584,0.1644198823496997,0.0022040949172092,-3.0910802887611485e-05,-0.0047171185724437,0.0061619565822184,0.0791762098670005,-0.0023981668055057,0.0019734632223844,0.1944024413824081,0.9809169769287108,0.0039943229476087,0.0074234179007172,0.0607135520716909,-0.0716964602470398,-0.517571210861206,0.3646802902221679,73,93,14314,14453
14.2,1788517854725,4.873239517211914,5.295774459838867,-0.0026112138293683,0.0021636805031448,0.2168399840593338,0.9762012958526612,0.1649521985054361,-0.0022238649890954,-2.0642517028635227e-05,0.0050843395292758,0.0102242091670632,0.0750878974795341,-0.0025567514821887,0.0024156784638762,0.1979430913925171,0.9802072644233704,0.0037287954535926,0.0168757874570256,0.0746089317757156,0.0814265012741088,0.0707811117172241,-1.316938400268555,80,68,14230,13781
14.3,1788517854825,5.070422649383545,5.098591327667236,-0.0027998338919132,0.0025905997026711,0.2185688912868499,0.9758140444755554,0.1643400994054572,-0.0061648799747688,-3.7491548511609326e-05,-0.0041677709668874,0.0079226763918995,0.0252877958118915,-0.0030335057526826,0.0027685211971402,0.1983572244644165,0.9801211953163148,-0.0075083522972002,-0.0004054128209276,-0.0228980381197803,0.079861581325531,0.1906660795211792,-0.2136039733886718,58,59,14680,14058
14.4,1788517854925,5.014084339141846,4.873239517211914,-0.002989849075675,0.0025001978501677,0.2181540727615356,0.9759065508842468,0.1612270450171838,-0.0097294338512988,3.1772267883118574e-05,0.0051592490635812,0.0030334442853927,0.0181656498461961,-0.0033013271167874,0.0030872672796249,0.1984070390462875,0.9801092743873596,-0.0377235521128595,0.0754963347932369,0.0160532319848684,-0.2399773001670837,0.3257976770401001,1.0446672439575195,61,76,14792,14420
14.5,1788517855025,5.098591327667236,5.014084339141846,-0.0033929962664842,0.0027348652947694,0.2183823585510254,0.9758535027503968,0.1614373981642982,-0.0060996493700973,-1.357233176772152e-05,0.0029283689800649,0.0039472230710089,0.012354833073914,-0.0032047210261225,0.0029449798166751,0.1989902108907699,0.9799917936325072,0.0111451539535169,0.0080194243622554,0.0274781862408514,0.086937129497528,0.2107567191123962,0.7456531524658203,74,62,14503,14219
14.6,1788517855125,5.098591327667236,5.126760482788086,-0.0033929962664842,0.0027348652947694,0.2183823585510254,0.9758535027503968,0.1672065528729546,-0.0100077776026078,4.533410408001484e-07,0.0,2.3298196705212604e-09,0.0,-0.0029461905360221,0.0027144160121679,0.1991995871067047,0.979950785636902,0.0243802218318434,0.0029964599917887,0.0302593241050979,-0.307921290397644,0.0070925951004028,1.04229736328125,77,73,14449,14200
14.7,1788517855225,5.098591327667236,5.070422649383545,-0.0026641606818884,0.0024424297735095,0.2196581363677978,0.9755702018737792,0.1649316885158445,-0.0033143760579887,2.34562337814829e-05,0.005261552054435,-0.0047109359875321,0.014771020039916,-0.0025186380371451,0.0022893575951457,0.2000387609004974,0.9797820448875428,0.0033444780333418,-0.0101421822561101,0.0122151567454392,0.1651471853256225,0.1900297403335571,-0.8758335113525391,89,74,14807,13513
14.8,1788517855325,4.8450703620910645,5.014084339141846,-0.0026501114480197,0.002330451272428,0.2198310643434524,0.9755316376686096,0.1656117899892201,-0.0007605025053446,-7.30934703858859e-07,0.0,0.0,0.0,-0.0025044064968824,0.0024128425866365,0.2009594738483429,0.9795934557914734,0.004772228193572,0.0052876357315318,0.0416679839644056,0.0861983895301818,0.0766412019729614,0.434326171875,113,73,15385,13697
14.9,1788517855425,5.492957592010498,4.563380241394043,-0.0025223058182746,0.0024326466955244,0.220880776643753,0.9752945303916932,0.1718316967153388,-0.0066759978432751,2.280254658135404e-07,9.311615478679869e-09,-9.311615478679869e-09,-5.959433906355116e-07,-0.0024265721440315,0.0029282663017511,0.1995535194873809,0.9798794984817504,0.0065124337830984,-0.010167501205517,-0.1003058501303426,-0.4598975777626037,-0.4680939316749573,0.1674413681030273,146,32,17579,12095
15.0,1788517855525,5.267605781555176,4.02816915512085,-0.002636332064867,0.0038959546945989,0.2124661207199096,0.9771571159362792,0.1599921282034412,-0.0041559895365073,-6.365958993665275e-05,0.0043937470763921,0.0283505972474813,-0.1963334679603576,-0.0025578401982784,0.0039053745567798,0.1916579604148864,0.9814506769180298,0.0031993534592965,0.0148876367570785,-0.1736926257135999,-0.4067754745483398,0.3486453294754028,0.993783950805664,77,73,15196,10968
15.1,1788517855625,4.816901206970215,3.7183098793029785,-0.0024058995768427,0.0040912143886089,0.2032533138990402,0.9791147708892822,0.1487699355400352,-0.0075681320031971,2.0565529486100923e-05,0.0038750132080167,-0.003003645222634,-0.1731863617897033,-0.002333765849471,0.004100521095097,0.1841556280851364,0.9828857779502868,0.0007934177524281,0.0035583981401413,-0.1799975325426793,-0.3947771787643432,0.2852442264556885,0.5068368911743164,48,39,13366,10166
15.2,1788517855725,4.732394218444824,3.577464818954468,-0.0028522657230496,0.004232095554471,0.1935846954584121,0.9810702800750732,0.1219874356039804,-0.0067877924105492,-1.959055839709607e-05,-0.0178861171007156,0.0037082969211041,-0.2340026348829269,-0.0027319453656673,0.0041428739205002,0.1712432652711868,0.98521625995636,-0.0067660774778264,-0.0111599367854961,-0.2520392620092432,0.0330036878585815,-0.3488718271255493,-0.3973960876464844,36,46,11835,9377
15.3,1788517855825,4.197183132171631,3.3521127700805664,-0.0029782815836369,0.0045195664279162,0.1865047812461853,0.9824391603469848,0.1222119601205721,0.0003789073485994,-3.0914957555477106e-05,-0.0056777130812406,0.0087173208594322,-0.1163428127765655,-0.0027781818062067,0.0043636849150061,0.1661293357610702,0.9860904812812804,0.004904624826689,-0.0193478171508459,-0.0920186468375754,-0.1091500520706176,-0.4836375117301941,0.6252250671386719,107,62,13851,9675
15.4,1788517855925,4.366197109222412,3.3521127700805664,-0.0033214716240763,0.006016977597028,0.1809233576059341,0.9834732413291932,0.1130672976828192,-0.0004565405239896,-7.448534743327493e-05,-0.0090166693553328,0.0758667588233947,-0.1527605056762695,-0.0032154936343431,0.0062005100771784,0.160862848162651,0.9869521260261536,-0.0036367465041072,0.1130222229088538,-0.1548367224272583,-0.9849218130111694,-0.5843132734298706,2.688566207885742,112,31,12845,8132
15.5,1788517856025,3.7183098793029785,2.985915422439575,-0.0023954974021762,0.0017760797636583,0.1749267131090164,0.984576940536499,0.1077984953389676,-0.0019743160411755,6.62639018532994e-05,0.0039151343517005,-0.0306987427175045,-0.1044707745313644,-0.0023685870692133,0.002073336392641,0.1545991003513336,0.9879723191261292,0.0081700433295123,0.011624134024188,-0.0656635064063053,0.1681304574012756,-0.0023045539855957,-0.2032766342163086,185,54,14495,8584
15.6,1788517856125,3.8309860229492183,2.985915422439575,-0.0024479017592966,0.000712378998287,0.1700072288513183,0.9854395985603333,0.1113585449084792,-8.227773308031269e-05,-1.4250460466389726e-05,-0.0092166671529412,-0.0148322312161326,-0.1326281279325485,-0.0024000005796551,0.0003855805844068,0.1493096649646759,0.9887875318527222,-0.0042993781863103,-0.0675877644762623,-0.1420226301715444,0.0545998215675354,-0.4255715608596802,0.177067756652832,172,33,14180,8444
15.7,1788517856225,3.577464818954468,2.422535181045532,-0.0024828296154737,-0.0006906542694196,0.1639002114534378,0.986473560333252,0.0943103835428008,0.0007692513646658,3.157681943375874e-05,-0.0090372720733284,-0.0217135529965162,-0.1576756685972213,-0.0025066155940294,-0.0006697475910186,0.1437689810991287,0.989607870578766,-0.0120842783854406,-0.0180795352364037,-0.1552010669849968,-0.0669853091239929,-0.5179926753044128,0.3091449737548828,151,20,13011,7171
15.8,1788517856325,3.0422534942626958,2.2253520488739014,-0.0027225650846958,-0.0013833763077855,0.155946135520935,0.987760841846466,0.0915430892678043,0.0002055533140974,1.769114023463995e-05,-0.011284970678389,-0.0061857849359512,-0.1443058848381042,-0.002794980071485,-0.0014036735519766,0.1345437467098236,0.9909027814865112,-0.0101700685896144,-0.0066076410078179,-0.1455571878627245,-0.6573905944824219,-0.237481951713562,-0.1250391006469726,118,34,11556,6137
15.9,1788517856425,2.816901445388794,4.197183132171631,-0.0026563394349068,-0.0013028101529926,0.1516510844230651,0.988429605960846,0.0901043601093498,-0.0014710614400588,-5.381424873403077e-06,0.0022359939757734,0.0007762892055325,-0.0757955387234687,-0.0027450248599052,-0.0017482507973909,0.1317171901464462,0.9912821054458618,-0.0084272784408181,-0.0322637647200038,0.0102436348127868,0.2601932883262634,0.2793202400207519,0.3841018676757812,126,219,10726,17250
16.0,1788517856525,2.450704336166382,6.957746505737305,-0.0021045804023742,-0.0040710251778364,0.1694541573524475,0.9855274558067322,0.1454533389251014,0.0059707327708274,5.741535818448156e-05,0.0055834674276411,-0.0015959431184455,0.5585573315620422,-0.0021747201681137,-0.0040968293324112,0.1500197798013687,0.9886721968650818,0.0064699324039619,0.0111920293992399,0.5853815266788966,0.4460204243659973,0.229120671749115,-0.0818557739257812,115,117,9629,19738
16.1,1788517856625,2.2253520488739014,7.97183084487915,-0.0020749885588884,-0.001554149435833,0.2063293159008026,0.9784792065620422,0.1664582183007324,-0.0007505075974722,3.570155519619865e-05,0.0086944634094834,-0.0252580661326646,0.7877708077430725,-0.0020889975130558,-0.0014311205595731,0.1955279409885406,0.9806948900222778,0.0047985002585587,0.0056601509195291,0.8365365702912726,-0.0704651474952697,0.0761496424674987,-0.7641839981079102,121,70,10179,19714
16.2,1788517856725,2.3380281925201416,7.830986022949219,-0.0022988449782133,-0.0021650842390954,0.2481967061758041,0.9687045216560364,0.1660911141514395,-0.0071884695375414,0.0001052886108768,-0.0195994917303323,0.0296084508299827,0.8539147973060608,-0.003208820708096,-0.0014243181794881,0.2325898110866546,0.9725686311721802,-0.0996548382726626,0.1438022239381157,0.7892885888115025,0.0184576511383056,0.1404774188995361,-1.4298925399780271,154,105,10047,21409
16.3,1788517856825,2.929577350616455,7.239436626434326,-0.004356637597084,-0.0015632398426532,0.2836916148662567,0.9589043855667114,0.1668882365112546,-0.0053027562889375,2.838351829648836e-05,-0.0293639134615659,0.0046087829396128,0.8285365104675293,-0.0046177981421351,-0.0016281399875879,0.2758395075798034,0.9611912369728088,-0.0163549501630145,-0.0101200819734286,0.7886780315578112,0.0371547937393188,0.0998530983924865,-0.4510135650634765,189,60,11709,19504
16.4,1788517856925,3.211267709732056,6.929577350616455,-0.005002424120903,-0.0014628909993916,0.3226027190685272,0.946520209312439,0.1722057338216998,0.0001840697948809,-4.314228531829675e-06,-0.0072826421819627,-0.0015811334596946,0.7012227773666382,-0.0050225909799337,-0.0015684021636843,0.3101004660129547,0.9506891965866088,-0.0097100986492864,-0.0146834345803211,0.6900846670950659,0.0611863136291503,0.045284628868103,0.1739253997802734,197,26,13331,17993
16.5,1788517857025,3.577464818954468,6.619718074798584,-0.0044801402837038,-0.0013879783218726,0.3496257364749908,0.9368777275085448,0.1640721689028066,3.301532647779787e-05,-6.764653321975279e-06,0.0137901017442345,0.0115616060793399,0.5528258681297302,-0.0044182930141687,-0.0012984396889805,0.3336105644702911,0.9426997303962708,0.0096426340118227,0.0115395882312204,0.5170435822037125,0.3784627318382263,0.0872808098793029,-0.0904254913330078,235,64,14679,17171
16.6,1788517857125,3.774647951126098,6.450704097747803,-0.0044934907928109,-0.0015494239050894,0.3726566135883331,0.9279571771621704,0.1629816964063293,-0.0042621102846887,-5.336973920098588e-05,0.0002485401637386,0.0184139255434274,0.4929015934467315,-0.0048583764582872,-0.001777502708137,0.3579292595386505,0.9337343573570251,-0.0352341679291526,-0.0074218918081823,0.429839555524246,0.0261399745941162,0.3619760870933532,-0.378117561340332,132,54,12108,17999
16.7,1788517857225,3.690140962600708,6.591549396514893,-0.0049634035676717,-0.0024452235084027,0.3801296353340149,0.9249166250228882,0.1766384709732658,0.006062315717984,3.879855442154448e-05,-0.0395859628915786,-0.0356102809309959,0.413537323474884,-0.0053563760593533,-0.0016367146745324,0.3779561221599579,0.9258065819740297,0.0007222296608258,-0.0012484734703021,0.3913249493532334,0.0058656930923461,0.1993955969810485,0.0234622955322265,209,80,13673,17513
16.8,1788517857325,3.88732385635376,6.450704097747803,-0.0047178412787616,-0.001476933248341,0.4138177037239074,0.9103463292121888,0.1776380668598166,-0.000283118003361,2.4369113970837508e-05,0.0076758586801588,0.0081325331702828,0.4801185131072998,-0.0048050628975033,-0.0011480068787932,0.3975891768932342,0.9175502061843872,0.005144789156221,0.0376394292610414,0.4847091332168995,-0.1974753141403198,-0.1144482493400573,0.4360542297363281,235,42,14940,15867
16.9,1788517857425,4.535211086273193,5.380281925201416,-0.0050501846708357,-0.0006624107481911,0.430558443069458,0.9025483131408693,0.1670039989379973,0.0036245904484335,4.113815406033157e-05,-0.0088144671171903,0.0062951478175818,0.3340836763381958,-0.0053755603730678,0.0002239160239696,0.4158398509025574,0.9094220399856568,0.0033784352321723,0.0524369702722751,0.2424047921124546,0.2779102921485901,-0.9198218584060668,-0.1472291946411132,250,24,17616,13298
17.0,1788517857525,4.478873252868652,5.802816867828369,-0.0057755294255912,0.0003968556411564,0.4362709522247314,0.899796724319458,0.1531615108609895,-0.0002435726793395,7.161481741515708e-05,-0.0076188370585441,-0.0216217823326587,0.0770606845617294,-0.0062444815412163,0.0007156282663345,0.4192496538162231,0.9078491926193236,-0.0294127717194237,0.0401465745010306,0.131471391226678,-0.0973986387252807,0.564349889755249,0.6800651550292969,161,107,14745,17055
17.1,1788517857625,4.253520965576172,6.02816915512085,-0.0052987202070653,-0.001811237889342,0.4477127492427826,0.8941599130630493,0.1670305129520103,0.0053764329180645,0.0001707145197367,-0.0039175576530396,-0.0761267244815826,0.3700788021087646,-0.0046001160517334,-0.0026633841916918,0.4345473349094391,0.9006332755088806,0.0156765819014691,-0.0738427154882621,0.3440128069195965,-0.0928795933723449,0.0465087890625,-0.3637371063232422,170,52,15227,15637
17.2,1788517857725,5.408450603485107,4.619718074798584,-0.0054710879921913,-0.0014898971421644,0.4608315527439117,0.887469470500946,0.1770888564650962,0.0016243102026958,-6.5137268078916414e-06,-0.0097499284893274,-0.0135702434927225,0.1536023765802383,-0.005445915274322,-0.001608888618648,0.4434625208377838,0.896274983882904,-0.0092902796074196,-0.0433939505338229,0.12185147363205,0.5775008797645569,-0.2993091344833374,-0.4718809127807617,290,54,20038,10133
17.3,1788517857825,5.070422649383545,5.042253494262695,-0.0059029906988143,-0.0017791660502552,0.4589556753635406,0.8884377479553223,0.1497362664346002,0.0046794231286215,-3.83828683177205e-05,-0.0069704391062259,0.0086060790345072,-0.056930411607027,-0.005776597186923,-0.0018643727526068,0.440895527601242,0.897537887096405,-0.0094442681373469,-0.0001716096452148,0.0069418646777774,-0.0117960572242736,-0.5479368567466736,0.3525762557983398,242,65,17943,13915
17.4,1788517857925,5.126760482788086,5.014084339141846,-0.0056903567165136,-0.0024289195425808,0.4608003199100494,0.8874822854995728,0.1667454228164161,0.0044603382812798,7.624375667061325e-05,-0.0043793809600174,-0.0269634686410427,0.081314243376255,-0.0057358564808964,-0.0024561947211623,0.44341641664505,0.8962939977645874,-0.0034038106298794,-0.0170880586966554,0.0826171464009614,-0.1172235608100891,0.144441545009613,-0.0975379943847656,272,17,19793,12505
17.5,1788517858025,5.323943614959717,4.873239517211914,-0.0054912739433348,-0.0026953313499689,0.4616384208202362,0.8870470523834229,0.1644714751385013,-0.0020986427346115,2.5864978758211084e-05,0.0062666786834597,-0.0167107563465833,0.0170401185750961,-0.0052449963986873,-0.0028560683131217,0.4432412385940552,0.8963825106620789,0.0095606383277982,-0.0241350190895129,-0.0297200918321191,0.1542912721633911,-0.6087899208068848,0.1178312301635742,286,25,19521,13039
17.6,1788517858125,5.577464580535889,4.394366264343262,-0.0054134773090481,-0.0021644958760589,0.457956314086914,0.8889555335044861,0.1613097272276951,-0.0040570649665575,-7.266550506986978e-05,0.0059457882307469,0.0266274418681859,-0.1248240992426872,-0.0054687717929482,-0.0020008711144328,0.4398037791252136,0.8980750441551208,-0.0017368081650327,0.0367429196406322,-0.1433976904534513,0.0890034437179565,0.2613405585289001,-0.4716205596923828,285,36,20395,12212
17.7,1788517858225,5.549295902252197,4.704225540161133,-0.0051617384888231,-0.0024057480040937,0.4521754682064056,0.8919107913970947,0.158906424669395,-0.0053187055570641,6.391625626321848e-05,0.0068861278705298,-0.0258253589272499,-0.1123209148645401,-0.0048670349642634,-0.0025314567610621,0.4333713054656982,0.9011988043785096,0.0172531970806901,-0.0305574099150147,-0.0741592343174361,0.0831644535064697,-0.2147391438484192,-0.1718759536743164,261,25,20271,10379
17.8,1788517858325,5.492957592010498,4.478873252868652,-0.003943424206227,-0.0041605113074183,0.4487412869930267,0.8936432600021362,0.1512772490522775,-0.0072628059027298,0.0001839039415721,8.907157462090254e-05,-0.0695885345339775,-0.0859047695994377,-0.0038387952372431,-0.0042163245379924,0.4302478730678558,0.9026928544044496,0.0077381953235067,-0.048087821301135,-0.0840639075908748,-0.0038481950759887,-0.2398921251296997,0.1619491577148437,363,17,21824,11319
17.9,1788517858425,5.464788913726807,4.3380279541015625,-0.0028114183805882,-0.0056058755144476,0.4460285604000091,0.8949967622756958,0.1567755062908908,-0.0068447683181901,0.0001248773396432,-0.0009524624911136,-0.0330918319523334,-0.0606334283947944,-0.0030697835609316,-0.0061015300452709,0.4267976582050323,0.9043213725090028,-0.0322107288999075,-0.0349523242815357,-0.1027138992786799,-0.4990865588188171,-0.1200817823410034,-0.5253877639770508,272,20,20816,10834
18.0,1788517858525,5.746479034423828,4.591549396514893,-0.0024208007380366,-0.0084784580394625,0.4410706162452698,0.8974291086196899,0.1605188142963895,-0.0088967579894756,0.0002251474597807,-0.0090683232992887,-0.0530653037130832,-0.0888234823942184,-0.0026425570249557,-0.0093558505177497,0.4211535155773163,0.906937301158905,-0.0307083764811792,-0.0492583643316771,-0.1166724405411063,-0.3072193264961242,-0.1617049574851989,-0.261357307434082,315,25,21209,11098
18.1,1788517858625,5.577464580535889,4.535211086273193,-0.0018988859374076,-0.010857431218028,0.4367040991783142,0.8995376229286194,0.1756043818099946,-0.0056785247841974,0.0001203710862281,-0.0057637449353933,-0.0492111705243587,-0.0907254070043563,-0.0019922368228435,-0.0111988270655274,0.4179366827011108,0.9084049463272096,-0.0068637736454859,-0.0546668075452438,-0.0765005809466149,0.4111093282699585,0.1671769618988037,-0.0189075469970703,310,19,21115,11577
18.2,1788517858725,5.577464580535889,4.478873252868652,-9.43560153245926e-05,-0.0151826925575733,0.4322358965873718,0.9016327261924744,0.1632498106189218,-0.0046396002910794,0.0002415481358551,-0.0047810883261263,-0.1064587384462356,-0.0969366207718849,-0.0001699198037385,-0.015748918056488,0.4134796857833862,0.9103770852088928,-0.0085501805577044,-0.1205917330505237,-0.1035614722970411,-0.0125839114189147,-0.2570587992668152,0.0358734130859375,294,18,20818,10660
18.3,1788517858825,5.97183084487915,4.478873252868652,0.0003228564746677,-0.0162488184869289,0.4288544356822967,0.9032273888587952,0.1633002368583328,-0.0061022619307103,-2.3609363017171347e-05,-5.356757901608944e-05,0.0125459553673863,-0.0713373273611068,3.100186586380005e-05,-0.0165799353271722,0.4092790782451629,0.9122586250305176,-0.0093988096470847,-0.0140300975422317,-0.1161650880248844,-0.4858516454696655,-0.2624512910842895,0.0343732833862304,324,25,22530,9690
18.4,1788517858925,6.056337833404541,4.3380279541015625,-9.81776975095272e-05,-0.0164539329707622,0.4189859926700592,0.9078435897827148,0.1798176680559335,0.000613050790551,-7.206259277097781e-05,-0.008757758885622,0.0215884689241647,-0.1917133182287216,-0.0004946496337652,-0.0164454951882362,0.398716002702713,0.9169268608093262,-0.0080637851061879,-0.0004451395948216,-0.1883388693181424,-0.516390323638916,-0.4457237124443054,-0.0510711669921875,330,25,22410,9800
18.5,1788517859025,5.915493011474609,4.366197109222412,0.0004597841762006,-0.0169657785445451,0.4109998643398285,0.9114773869514464,0.1724951993654717,-0.0001176774376114,0.000134693045682,0.001881311298348,-0.0270419456064701,-0.1765413880348205,5.555339157581329e-06,-0.0168140605092048,0.3913637697696686,0.9200825095176696,-0.004276060940051,0.0223570721018064,-0.1838317440962459,0.2156038880348205,0.0701760053634643,-0.043588638305664,323,19,22206,10207
18.6,1788517859125,5.97183084487915,4.14084529876709,-0.0001199347898364,-0.0160075351595878,0.401707112789154,0.91562819480896,0.1702652685778096,0.0011194695429392,-4.294476103777058e-06,0.0031671135220676,0.0198390111327171,-0.1987155377864837,-0.0005586147308349,-0.0158007889986038,0.382209300994873,0.9239405989646912,0.0008984279051168,0.0454877658377007,-0.1891619561378655,0.2121222615242004,0.1995206475257873,0.2848949432373047,326,17,22062,9855
18.7,1788517859225,5.77464771270752,4.309859275817871,-0.0017272988334298,-0.0158744920045137,0.3925496637821197,0.9195922017097472,0.1640317248338872,-0.0046477792628899,2.190152472990993e-05,-0.0412933230400085,0.0200628656893968,-0.2380609214305877,-0.0022848425433039,-0.0148860616609454,0.3708516061306,0.9285699725151062,0.009935969305249,0.0291034027752424,-0.144804601488136,0.2533294558525085,-0.3818538188934326,-0.7669591903686523,382,31,22912,10309
18.8,1788517859325,6.056337833404541,4.2816901206970215,-0.0015457491390407,-0.0160329639911651,0.3865264654159546,0.9221376180648804,0.1808076583125834,-0.0019232154238413,-0.0002166563745382,0.0003933843690901,-0.0048336060717701,-0.1902551651000976,-0.0017257649451494,-0.0161661617457866,0.3642247319221496,0.9311692118644714,0.0011927182062217,-0.0095214109841544,-0.2506561617617738,-0.0376121997833251,0.2060346007347107,0.1259794235229492,284,22,21631,9740
18.9,1788517859425,5.521126747131348,4.647887229919434,-0.0008551408536732,-0.0165872573852539,0.3739660978317261,0.9272936582565308,0.1830901697159812,-0.0016550369127227,9.652863753956066e-05,0.005272801965475,-0.034975241869688,-0.1349476277828216,-0.0012145647779107,-0.016604971140623,0.3545574247837066,0.9348859786987304,-0.00583076371793,-0.0208567879604593,-0.0996801126790607,-0.0084336996078491,0.0252816677093505,-0.095224380493164,268,18,20085,11154
19.0,1788517859525,5.464788913726807,4.478873252868652,-0.000209791585803,-0.0174329280853271,0.3691523671150207,0.929205358028412,0.169602932057565,-0.0060545713756019,6.427179471835522e-05,0.0072180591523647,-0.0417149327695369,-0.0900153592228889,-0.0007187025621533,-0.0170918088406324,0.3507526814937591,0.936311900615692,0.0055669075229661,-0.0417740071964843,-0.0773121200660136,0.0443922281265258,0.2062106728553772,0.0731925964355468,308,19,21039,11351
19.1,1788517859625,5.915493011474609,4.084506988525391,-0.0009121559560298,-0.0175748914480209,0.3655800521373749,0.9306135773658752,0.1601278338986542,0.0076655254077801,-2.5509995866711845e-05,-0.0150049524381756,0.015084121376276,-0.0790247395634651,-0.0012135589495301,-0.0175068695098161,0.3467934727668762,0.9377774000167848,0.0052127512000917,0.0211549649722994,-0.0529835746825197,0.3993883728981018,-0.0932613611221313,0.3485727310180664,452,20,24324,10537
19.2,1788517859725,5.915493011474609,4.084506988525391,-0.0009191525168716,-0.018043078482151,0.3595224916934967,0.9329615235328674,0.1615426726747624,-0.0016130963502602,9.95803974139481e-05,-0.0036100025754421,-0.0462767332792282,-0.1264991462230682,-0.001383988186717,-0.0180469118058681,0.338517814874649,0.9407858848571776,-0.006854473948355,0.0182971919007887,-0.1112966788696562,0.1402593851089477,-0.0653930306434631,0.2150564193725586,417,14,24212,10416
19.3,1788517859825,5.88732385635376,4.14084529876709,-0.0007727276533842,-0.0191937331110239,0.3537676930427551,0.9351360201835632,0.1780785446744233,-0.0047850669572789,0.0001322286902359,-0.0083865756168961,-0.0463202036917209,-0.1368676126003265,-0.0016701696440577,-0.0184489395469427,0.3323546051979065,0.9429726004600524,-0.0187860084528547,0.0606854391592631,-0.1659067377348524,0.2796046137809753,0.1582218408584594,0.953322410583496,524,29,25374,11114
19.4,1788517859925,6.084506988525391,4.0,-0.0008732471615076,-0.0197759456932544,0.3456387817859649,0.9381588697433472,0.1649950590464391,-0.0030956932891231,0.0001524891086392,0.0035148276947438,-0.0464940816164016,-0.1811695694923401,-0.0014729397371411,-0.0190058443695306,0.3250809013843536,0.9454941153526306,0.0048734857039342,0.0616520107845142,-0.1827721003129934,1.2077045440673828,0.4065482020378113,0.2099037170410156,471,27,24838,10874
19.5,1788517860025,6.2253522872924805,4.2816901206970215,-0.0020819273777306,-0.0181308574974536,0.3352463245391845,0.941953718662262,0.1886667302489186,-0.004860974751131,-0.0001443550257932,-0.0177066083997488,0.0261843558400869,-0.2098771929740905,-0.0024374490603804,-0.017980221658945,0.3151002526283264,0.9488849639892578,-0.0022602385882813,0.0121289677558066,-0.1912783077758254,-0.2964242696762085,-0.1180607676506042,0.0063371658325195,305,30,22259,9649
19.6,1788517860125,5.746479034423828,4.169013977050781,-0.0020694802515208,-0.0187580697238445,0.326507031917572,0.9450063705444336,0.171267242739607,0.0001857782625621,0.0001156467434918,-0.0119453612715005,-0.0207747742533683,-0.2059392929077148,-0.0025060959160327,-0.0187342353165149,0.3063462674617767,0.9517324566841124,-0.0133652005322775,-0.0027150651205702,-0.2053169175808186,-0.0961555242538452,-0.1890974044799804,-0.3606853485107422,323,15,22443,10270
19.7,1788517860225,6.619718074798584,3.6619718074798575,-0.002641508821398,-0.0183115843683481,0.3175708949565887,0.948054015636444,0.1818331835458825,-0.0005844374496204,-3.894815990703821e-05,-0.0074690352194011,0.0107209598645567,-0.185089498758316,-0.003007766790688,-0.0182506740093231,0.2982248961925506,0.9543163776397704,5.127838136858058e-05,0.009610306043658,-0.182500231139137,0.0765648484230041,-0.337563693523407,-0.0519771575927734,449,74,25292,6878
19.8,1788517860325,6.619718074798584,3.323943614959717,-0.0025076563470065,-0.0194037854671478,0.3007425367832184,0.9535046815872192,0.1660816943428941,-0.0037368468054684,2.933311290981809e-05,-0.01470229588449,-0.0162635743618011,-0.3946554660797119,-0.0028779469430446,-0.0191978253424167,0.2833252251148224,0.9588273763656616,-0.0110524868360958,-0.0170364648238671,-0.3577490433977964,0.1324410438537597,0.0028378963470458,-0.3818073272705078,433,26,25596,7278
19.9,1788517860425,6.563380241394043,4.084506988525391,-0.002827160526067,-0.0170212723314762,0.2804579734802246,0.9597111344337464,0.1799059116409517,-0.0082152419678311,-0.0003219473326811,0.018738679587841,0.0441347733139991,-0.3909484148025512,-0.0027827527374029,-0.0164395924657583,0.259143590927124,0.9656948447227478,0.0693481773616758,0.0267085496177551,-0.3514509565637458,-0.0260685086250305,-0.2925606369972229,-0.0355386734008789,344,44,23774,8288
20.0,1788517860525,6.647887229919434,3.549295663833618,-0.0027098369318991,-0.0106389252468943,0.2673096656799316,0.9635481238365172,0.1813900403749602,0.0041617785694885,-0.0002497353137511,-0.0086306007578969,0.0539483465254306,-0.3099914789199829,-0.0025551365688443,-0.0114494711160659,0.244526207447052,0.9695717096328736,0.0128793716824801,-0.0871183973676654,-0.3392372480923712,0.013537585735321,-0.6667052507400513,-0.8607769012451172,407,48,25359,6766
20.1,1788517860625,6.2816901206970215,3.1549296379089355,-0.000606516841799,-0.0202717185020446,0.2489203959703445,0.968311607837677,0.1689774042504566,-0.0064565856483442,0.0007108933206681,-0.0278656166046857,-0.2218325287103653,-0.3986697494983673,-0.0010029831901192,-0.0203252788633108,0.2271809130907058,0.973639965057373,-0.0339837851867193,-0.0598479323423021,-0.3787269420928512,0.691005289554596,-0.1999028325080871,0.2423572540283203,502,45,26059,9224
20.2,1788517860725,6.676056385040283,3.549295663833618,-0.0022969364654272,-0.017598083242774,0.2311556935310363,0.9727548956871032,0.1647026309323143,-0.0044203503514635,-0.0002285641023976,-0.0327648930251598,0.105707086622715,-0.3429495692253113,-0.0025106137618422,-0.0182722676545381,0.213096410036087,0.9768571257591248,-0.0502986755802258,0.0938032519406497,-0.3109838775053486,-0.5122866034507751,-0.1498922109603881,1.2539997100830078,428,32,25898,7745
20.3,1788517860825,6.2253522872924805,3.633802890777588,-0.0012351251207292,-0.0193725991994142,0.2163158357143402,0.9761304259300232,0.1655571608544865,-0.0058871170179358,0.0002777054480733,0.0051306835375726,-0.0769315361976623,-0.3558978140354156,-0.0017290394753217,-0.0188155323266983,0.1916073858737945,0.9812897443771362,-0.0070701113709501,0.044225507807556,-0.3300665234500407,0.5460808277130127,0.2428951859474182,0.3609075546264648,382,34,24467,10236
20.4,1788517860925,6.197183132171631,3.746478796005249,-0.0011641441378742,-0.0187678039073944,0.1999700665473938,0.9796215295791626,0.1726977540983907,-0.0022725444397983,2.3328961187018688e-05,0.0028113941662013,-0.0102583803236484,-0.2896452248096466,-0.0015002060681581,-0.0187594220042228,0.1786846816539764,0.9837263822555542,0.0006556374699046,-0.0090470458203475,-0.2925552390458817,-0.0505483150482177,-0.1608292460441589,0.1913490295410156,342,17,23836,8828
20.5,1788517861025,5.605633735656738,3.9718310832977295,-0.0010203253477811,-0.020978445187211,0.1853470802307129,0.9824486374855042,0.1737796794455903,-0.0039375876020776,0.0002261775751557,-0.0150739597156643,-0.0578728429973125,-0.2943306267261505,-0.0014462685212492,-0.020962331444025,0.1654384434223175,0.9859963059425354,-0.0188899523241064,-0.0331066189398788,-0.2898668604532951,-0.5082501173019409,0.0120654702186584,-0.8946857452392578,348,56,22467,11120
20.6,1788517861125,5.88732385635376,4.169013977050781,-0.001693581463769,-0.0169164091348648,0.1764608025550842,0.9841607809066772,0.1712861735251878,-0.0036787811473924,-0.0002192215340053,-0.0048111928626894,0.0541153997182846,-0.1736087501049041,-0.0021401196718215,-0.0164434760808944,0.1547670662403106,0.9878118634223938,-0.0080744501807965,0.0389063831778803,-0.1986967573381841,0.0607756972312927,0.0982931852340698,-0.2865810394287109,353,20,22784,9418
20.7,1788517861225,6.2816901206970215,3.774647951126098,-0.002442026278004,-0.0157872773706913,0.166445717215538,0.9859212040901184,0.1659204978561606,0.0010402689178374,-4.238810985340057e-05,-0.0134589923545718,0.0172005761414766,-0.2403008341789245,-0.0027507990598678,-0.0157326553016901,0.144024059176445,0.9894452691078186,-0.0007965891315472,0.0140407922300924,-0.2859558081142851,-0.3258174657821655,-0.2136623263359069,0.2577581405639648,394,19,24520,8561
20.8,1788517861325,6.3380279541015625,3.8309860229492183,-0.0020929030142724,-0.0166456792503595,0.1522788405418396,0.9881952404975892,0.1831216484851736,-0.0036877712677944,-3.779707744267543e-05,0.0010476984316483,-0.0007776690763421,-0.2784983217716217,-0.0024177925661206,-0.0166071783751249,0.1322308778762817,0.9910768270492554,-0.0013124469544761,-0.0089129138810278,-0.2766945013355656,-0.4111203551292419,-0.3110799789428711,0.2252826690673828,364,15,23907,8785
20.9,1788517861425,6.2816901206970215,3.8309860229492183,-0.0018345643766224,-0.0174731165170669,0.1380353718996048,0.9902715086936952,0.1812013354917922,-0.0035527607245758,-5.7340425326305984e-06,0.0006662241648882,-0.0113173779100179,-0.2891244888305664,-0.0021844543516635,-0.0176854915916919,0.1165747120976448,0.993022084236145,-0.0072141182255475,-0.0391949326400085,-0.2418565414953669,-0.2054355144500732,-0.0429072380065918,0.1185760498046875,394,28,24400,8783
21.0,1788517861525,6.3380279541015625,3.88732385635376,-0.002088360954076,-0.017930144444108,0.1232358813285827,0.9922131896018982,0.173465288013798,-0.0031064558243988,-8.754518783152459e-05,-0.0175027586519718,0.0105599630624055,-0.2985669672489166,-0.0024888571351766,-0.0179842840880155,0.1018701195716857,0.9946320056915284,-0.0244175010608834,-0.0224303906822718,-0.3130042897244241,-0.4363501071929931,-0.2965942621231079,-0.7040672302246094,352,34,23306,9317
21.1,1788517861625,5.6619720458984375,4.478873252868652,-0.0021674367599189,-0.0169823803007602,0.1128312274813652,0.9934666752815248,0.1695486525923772,0.0004384980746414,-1.866990018795836e-05,0.0008827128913253,0.0113052334636449,-0.193645104765892,-0.002706816419959,-0.0157955102622509,0.0904724225401878,0.9957700967788696,-0.0072313424087026,0.0638856904971887,-0.1143049309200466,-0.0172070264816284,-0.1780794858932495,0.1588048934936523,297,25,20560,12137
21.2,1788517861725,5.154929637908936,4.760563373565674,-0.0023724569473415,-0.0164930522441864,0.1072004064917564,0.9940977692604064,0.1723982215065155,-0.0023175076545783,5.9205674105956974e-05,0.0022949751000851,-0.0273215360939502,-0.0744010955095291,-0.0026418594643473,-0.0168272200971841,0.0867735669016838,0.9960824847221376,0.0009936327913141,-0.0364688456687273,-0.0557510478910946,-0.3591125607490539,0.277543306350708,-0.2818822860717773,269,50,19462,12924
21.3,1788517861825,4.957746505737305,5.070422649383545,-0.0021716740448027,-0.0171719435602426,0.1086848601698875,0.9939255714416504,0.1819208372470568,0.0022303657798097,4.25925098340786e-05,-0.0012758473167195,0.0018170226830989,0.0625530704855918,-0.0024499967694282,-0.0170710366219282,0.0894422084093093,0.995842695236206,0.008308551127084,0.0150580015516145,0.0856872783125806,0.0431607365608215,-0.222809612751007,0.6663093566894531,331,41,19659,13821
21.4,1788517861925,5.154929637908936,4.8450703620910645,-0.0018794338684529,-0.0183329507708549,0.1126835793256759,0.9934599995613098,0.1737399707649853,-0.0019924359986284,8.871948458480698e-05,-0.0017511589685454,-0.0279827155172824,0.0673312917351722,-0.0022085774689912,-0.0182009451091289,0.0926165506243705,0.995533049106598,-0.000629277741029,-0.0242422776868346,0.0571930371450193,0.3713138699531555,0.2605032920837402,-0.1843204498291015,343,24,20829,12486
21.5,1788517862025,5.267605781555176,4.816901206970215,-0.001853164518252,-0.0192455872893333,0.1135275289416313,0.9933466911315918,0.1684247124341324,-0.0050468318595111,0.0001277998188382,-0.0017639929428696,-0.0254589319229125,0.0027208074461668,-0.0022849813103675,-0.0194721110165119,0.0939375311136245,0.9953849911689758,-0.0039736343488604,-0.0129373412706781,0.0226688037547281,0.2055394053459167,-0.0972932577133178,0.0731325149536132,356,32,21518,12889
21.6,1788517862125,5.042253494262695,5.380281925201416,-0.0028835048433393,-0.0181738957762718,0.1157880052924156,0.9931035041809082,0.1791862778014841,0.0008331231370071,-3.281421388592421e-05,-0.0182004608213901,0.0289423018693923,0.0573747493326664,-0.0032578231766819,-0.0178043991327285,0.096966803073883,0.995123028755188,0.001579537007482,0.0335069424584156,0.1052980833360997,0.1045146584510803,-0.0669405460357666,-0.1260929107666015,323,33,19601,13703
21.7,1788517862225,4.901408672332764,5.295774459838867,-0.0025385101325809,-0.019236721098423,0.1208909004926681,0.9924761652946472,0.1860846726206866,-0.0012352723179318,0.0001163884476875,0.006535496097058,-0.0396979376673698,0.1015927642583847,-0.002974840812385,-0.0192714408040046,0.1013512760400772,0.994659662246704,-0.0050863304632769,-0.0276182973507368,0.0772029962203177,-0.425334095954895,0.4348446130752563,-0.1197595596313476,332,49,19429,13727
21.8,1788517862325,5.098591327667236,5.323943614959717,-0.0009596208110451,-0.0165370106697082,0.1281850785017013,0.9916119575500488,0.1780069876870721,-0.0044154229116383,-0.0002032071786945,0.0806359276175499,0.0059832106344401,0.188500091433525,-0.0006793243810534,-0.0178185068070888,0.1085259914398193,0.9939337372779846,0.0610500554863438,-0.137316002760639,0.0686913544895382,-0.3691225051879883,0.4414903521537781,-0.4780492782592773,311,18,20142,12168
21.9,1788517862425,5.239436626434326,5.098591327667236,-0.0008157065603882,-0.0173468273133039,0.1286320686340332,0.9915403127670288,0.1674733342617584,-0.0086870611917192,0.0003483795388579,0.0015305925626307,-0.0272544641047716,0.0148760061711072,-0.0017226412892341,-0.0194280613213777,0.1090397238731384,0.99384605884552,-0.048891366642958,-0.154655044845742,0.0196393132783258,-0.1336042284965515,-0.1734182834625244,-0.6112585067749023,317,39,19802,13627
22.0,1788517862525,5.183098793029785,5.183098793029785,-0.0012357390951365,-0.0185906495898962,0.1318547576665878,0.9910938739776612,0.1742431138158656,-0.0024375196261084,-0.0001208628677256,-0.0081055704504251,0.027952779084444,0.0314237140119075,-0.0019745752215385,-0.0188175998628139,0.1126129105687141,0.9934588074684144,-0.0252583082169205,-0.0142866045344235,0.044857659938782,0.4103162288665771,0.2801614999771118,-0.0991897583007812,300,35,19715,13249
22.1,1788517862625,5.126760482788086,4.8450703620910645,-0.001512479968369,-0.0203156322240829,0.1344206482172012,0.9907149076461792,0.1806206888648155,-0.0049969631678256,3.979829250062659e-06,-0.0047842361964285,-0.0439968444406986,0.0559740997850894,-0.0017873374745249,-0.0205060224980115,0.1148461103439331,0.9931700825691224,-0.0024439104973681,-0.0645505445092857,0.0261536146021452,-1.135756015777588,-0.2619117498397827,0.0494632720947265,250,19,19280,12429
22.2,1788517862725,5.943662166595459,4.8450703620910645,-0.0021241069771349,-0.0148858502507209,0.1360909789800644,0.9905822277069092,0.1466565384408594,-0.0012088310349555,-0.0006589340859485,1.4719710179633694e-06,0.2683951556682586,0.0325801111757755,-0.0030570160597562,-0.0146847087889909,0.1154113858938217,0.9932045340538024,-0.0317256737485555,0.0982327377436945,-0.0798728797351176,-0.3890721201896667,-0.514260470867157,-0.7879753112792969,468,60,23183,12202
22.3,1788517862825,5.633802890777588,4.535211086273193,-0.002190567785874,-0.0156298298388719,0.1321017444133758,0.9911105036735536,0.1759248445000969,-0.004590679438178,0.0001403436376138,0.0029128238093107,-0.0237280633300542,-0.1032386943697929,-0.0025268346071243,-0.0156566090881824,0.1115819364786148,0.9936286807060242,-0.003771308263581,-0.0172683413080111,-0.1120023716796509,0.2604519128799438,0.0135787725448608,-0.3781442642211914,361,17,21611,10795
22.4,1788517862925,5.267605781555176,4.901408672332764,-0.002248031552881,-0.0151224639266729,0.130075454711914,0.9913862347602844,0.1781250269446128,-0.0037984810709492,9.461447173401224e-07,0.0,-7.293245118944469e-09,0.0,-0.0028149066492915,-0.0148429963737726,0.1097881495952606,0.993840217590332,-0.0103268783281153,0.0153762499361981,-0.0005441815454363,-0.0824828743934631,0.2594177722930908,0.0393400192260742,306,27,19940,12991
22.5,1788517863025,5.126760482788086,4.788732528686523,-0.0025274029467254,-0.0159324873238801,0.1304286122322082,0.9913264513015748,0.1750354363096833,-0.0023856593238714,5.588316859767816e-05,-0.0043417592532932,-0.0366927497088909,0.0294969771057367,-0.0028734924271702,-0.0158884432166814,0.11080913990736,0.9937105774879456,-0.0003524865540354,-0.0292705781619839,0.0400164997738946,0.1013893485069274,-0.0592407584190368,-0.6124753952026367,372,34,21069,13159
22.6,1788517863125,5.211267471313477,4.647887229919434,-0.0028283782303333,-0.0157573241740465,0.1327774226665496,0.9910165667533876,0.1751218235970777,-0.0001000473287836,0.0001239664467017,-0.001232809619978,-0.0099021531641483,0.0444860830903053,-0.0031688716262578,-0.0154045522212982,0.1130861937999725,0.993460774421692,-0.003763098183007,0.0463371694104892,0.0309352002058435,-0.2030875086784362,0.5152166485786438,0.3114767074584961,323,18,20487,12308
22.7,1788517863225,5.154929637908936,4.901408672332764,-0.0028009272646158,-0.0159523468464612,0.1348956227302551,0.990727424621582,0.1746252524369786,-0.0009458889710242,6.090142809568648e-05,0.0019035877194255,-0.0156098073348402,0.040829412639141,-0.0030512949451804,-0.0159824714064598,0.1149103716015815,0.9932425618171692,0.0053971719614519,-0.0332858526817127,0.0483949058542675,0.0614868402481079,-0.3337916731834411,-0.3550958633422851,380,30,21120,12166
22.8,1788517863325,5.098591327667236,4.985915660858154,-0.0028539281338453,-0.0151123786345124,0.1361625343561172,0.9905672073364258,0.1685936859261263,-0.0008903747553024,-5.2687611806424186e-05,-0.0015641375211998,0.0420913472771644,0.0222370717674493,-0.0031609460711479,-0.0148116303607821,0.1165126040577888,0.9930737614631652,0.0082634129019539,0.0559910901077836,0.0418904675403019,0.1617852449417114,0.2390657067298889,0.0852041244506836,341,20,20707,12176
22.9,1788517863425,5.014084339141846,4.873239517211914,-0.002775156404823,-0.0145600102841854,0.137473925948143,0.9903945326805116,0.1818397730783404,-0.0014915912533907,1.4349540284803182e-05,0.0053090169094502,-0.0028432002291083,0.0179094932973384,-0.0030121365562081,-0.0149257285520434,0.1175075992941856,0.9929552674293518,0.0002193933749428,-0.0283200959497496,-0.0047353539330943,-0.5732481479644775,-0.1546703577041626,-0.3829927444458008,345,19,20725,12509
23.0,1788517863525,5.154929637908936,4.901408672332764,-0.0023584656883031,-0.0153713086619973,0.1397524923086166,0.9900643825531006,0.1729985469837087,0.0055620150494713,-0.0001329813445123,0.0041264379397034,0.003273079637438,0.0472896620631217,-0.002642617560923,-0.0148818893358111,0.1196803525090217,0.9926974177360536,0.0130051592467028,0.0216585506748774,0.0588928615103724,0.2545625567436218,0.1186273097991943,0.5269804000854492,370,26,21624,11390
23.1,1788517863625,5.492957592010498,4.507042407989502,-0.0019025634974241,-0.0155486315488815,0.1405123472213745,0.989954948425293,0.1794274655429437,-0.0014000907672063,0.0001689898190619,0.0048825070261955,-0.0162814408540725,0.0005358894704841,-0.0022787554189562,-0.0159295219928026,0.1202086955308914,0.992618203163147,0.0034619751067424,-0.0120699263115775,-0.0297865328447105,0.4965468645095825,-0.082574725151062,-0.0989418029785156,348,36,22324,10330
23.2,1788517863725,5.605633735656738,4.591549396514893,-0.0022780178114771,-0.0156913287937641,0.136618360877037,0.990496814250946,0.17732248539383,-0.0009243534054839,5.755814873795967e-05,-0.0188723448663949,0.0018938839202746,-0.0844698250293731,-0.0026587462052702,-0.0152683984488248,0.1162611991167068,0.9930977821350098,-0.0148409589561019,0.0483068610287701,-0.0933049380427418,-0.0403738021850585,0.1477192640304565,0.0662679672241211,351,20,21966,10949
23.3,1788517863825,5.690140724182129,4.478873252868652,-0.0019450443796813,-0.0153133412823081,0.1322917342185974,0.9910906553268432,0.1724191381685302,-0.0037407639631073,-2.728704190802893e-05,0.0114324046298861,-0.0121230231598019,-0.0884226933121681,-0.0023381784558296,-0.0148705756291747,0.1107807382941246,0.993730902671814,-0.0042443047971607,0.0268354126506634,-0.1044536787870605,0.0597922801971435,0.062031865119934,0.4324970245361328,396,34,22105,11522
23.4,1788517863925,5.746479034423828,4.647887229919434,-0.0020926441065967,-0.014623642899096,0.1272474080324173,0.991761028766632,0.1734325924019642,-0.0009905592319231,-0.0001864686096666,0.0041774227283895,0.0412701405584812,-0.0957464352250099,-0.0025564990937709,-0.0150418719276785,0.1064721569418907,0.9941986799240112,-0.0224787096004053,-0.0484606660519574,-0.0958540787722997,-0.4226109385490417,-0.2703245878219604,-0.8856477737426758,320,22,20917,11007
23.5,1788517864025,5.521126747131348,4.394366264343262,-0.0037328156176954,-0.0116918813437223,0.1226453334093093,0.9923746585845948,0.177947514811115,-0.0029162112939186,-0.0001665235896439,-0.0509136877954006,0.1031897366046905,-0.1207243874669075,-0.0045033311471343,-0.0088509358465671,0.1016346141695976,0.99477219581604,-0.0392199858167506,0.2871527077671628,-0.125684561139904,-0.5409072637557983,0.1387938261032104,1.9860725402832031,355,43,21354,11645
23.6,1788517864125,5.352112770080566,4.901408672332764,-0.0034464937634766,-0.0108127174898982,0.1180819123983383,0.9929390549659728,0.1702941012096706,-0.0034095889573409,0.0002514077979583,-0.0147903319448232,-0.1207783445715904,-0.1357730329036712,-0.0036486247554421,-0.0131826996803283,0.0965367704629898,0.9952355027198792,-0.0121640416240125,-0.159297459467728,-0.0995306183206243,0.0360922217369079,-0.0675504803657531,0.143467903137207,276,40,19683,13004
23.7,1788517864225,5.154929637908936,4.957746505737305,-0.0032307687215507,-0.0150221204385161,0.1161919757723808,0.9931079149246216,0.1702709413173288,-0.0008826271657605,0.0001577413692689,-0.0023104969877749,-0.0124668618664145,0.0069768265821039,-0.003579992800951,-0.0144754908978939,0.0967091396450996,0.9952009916305542,-0.0019078801253057,0.0526377174119129,0.0435302741171109,-0.0450526475906372,-0.0196818709373474,0.9972696304321288,369,49,20379,13322
23.8,1788517864325,5.267605781555176,5.042253494262695,-0.0034582316875457,-0.0150775555521249,0.1173687353730201,0.9929679036140442,0.1748383553518866,-0.0020204241860166,-2.0840289577923063e-05,-0.0055448426865041,0.0145377740263938,0.0127363111823797,-0.0037944987416267,-0.0151730822399258,0.0975407883524894,0.9951086044311525,-0.0099660947342831,0.0037114237891801,0.0121244202049191,-0.2221695780754089,0.0248163342475891,-0.1056661605834961,335,25,20453,12595
23.9,1788517864425,5.211267471313477,4.8450703620910645,-0.0031031200196594,-0.0166490208357572,0.1185562014579773,0.9928028583526612,0.1776905231310266,0.0016806009672212,0.000152810734178,0.0042299288325011,-0.0430855378508567,0.0305532217025756,-0.0034051183611154,-0.0176733769476413,0.09890978038311,0.9949336647987366,-0.006401204226327,-0.0412863382767775,0.0074742132582754,-0.2839555740356445,-0.3259100914001465,-0.5492696762084961,305,29,20333,12571
24.0,1788517864525,5.267605781555176,5.014084339141846,-0.0031690467149019,-0.0170336700975894,0.1190920174121856,0.9927319884300232,0.1760093253939491,0.0077543168765159,4.162051443536569e-07,0.0,4.2091091501106355e-08,3.7156274856897653e-07,-0.0036317268386483,-0.0169164352118968,0.0995071232318878,0.9948864579200744,-0.00728612276514,0.0039840474898459,0.023359935707946,-0.2729451656341553,-0.0754585266113281,0.0116558074951171,323,19,20723,12342
24.1,1788517864625,5.183098793029785,4.929577350616455,-0.0031068450771272,-0.0169019307941198,0.1208117306232452,0.992526650428772,0.174680957324949,-0.0028427943880699,9.3122959264096e-05,0.0050729047507047,0.002998786047101,0.0314162261784076,-0.0034423982724547,-0.0168882869184017,0.1009591147303581,0.9947413206100464,-0.0002005896099012,0.0182821410814798,0.0137004753860948,-0.1137942671775817,-0.0167816877365112,0.6573734283447266,346,24,20671,12133
24.2,1788517864725,5.211267471313477,4.873239517211914,-0.003088679164648,-0.0171170886605978,0.1209905296564102,0.9925012588500975,0.175643252292644,-0.00196985996863,2.9319734321247908e-08,0.0,1.164420115884468e-08,0.0,-0.0031825453042984,-0.0179006531834602,0.1012290641665458,0.9946969747543336,0.0102213357762713,-0.039135070464423,-0.0113269022440697,-0.0220646858215332,-0.1072697043418884,0.1121330261230468,339,19,20649,12450
24.3,1788517864825,5.267605781555176,4.8450703620910645,-0.0024817050434648,-0.0190862137824296,0.1214391887187957,0.992412269115448,0.1741107903194529,-0.0023724648034719,8.280797043582038e-06,0.0023967598099261,-0.0168362334370613,0.0050653140060603,-0.0028073964640498,-0.0193428732454776,0.1015185192227363,0.9946416020393372,0.0005274213129588,-0.037710138221572,0.0015777680367546,0.0174946784973144,-0.0216850042343139,0.0832843780517578,317,29,20394,12321
24.4,1788517864925,5.126760482788086,5.042253494262695,-0.0028452812694013,-0.0185541845858097,0.1213220506906509,0.9924356937408448,0.175070770370678,0.0018130122116579,-0.0001237667187775,-0.0152729405090212,0.0410221219062805,-0.0032514499034732,-0.003342593088746,-0.0182222854346036,0.1013660281896591,0.99467670917511,-0.0067153581276617,0.0193574654063505,-0.0016027952532922,-0.1269482970237732,-0.3108886480331421,-0.1956720352172851,323,19,20467,12019
24.5,1788517865025,5.098591327667236,4.901408672332764,-0.0028093301225453,-0.0189459510147571,0.1212050169706344,0.9924426674842834,0.1699876013829682,-0.002455170763906,0.000126895262052,0.0043587735854089,-0.025387005880475,-0.0023301616311073,-0.003171463496983,-0.0182002391666173,0.1014154404401779,0.9946726560592652,0.0028413148758784,0.049883553664597,0.0085148683116904,0.3593348860740661,0.2893396615982055,-0.0853300094604492,335,58,20102,13936
24.6,1788517865125,5.154929637908936,4.8450703620910645,-0.0026291545946151,-0.017316622659564,0.1222891807556152,0.9923399090766908,0.1771838410825029,-0.0050301994056119,-0.0001010946620568,0.0069164093583822,0.0198452025651931,0.0069983643479645,-0.0029083220288157,-0.0176165346056222,0.1024244800209999,0.9945805072784424,0.002122393391312,-0.0240796400781636,0.0041878725257829,-0.3783366084098816,-0.2422163486480713,-0.2581157684326172,313,17,20409,12476
24.7,1788517865225,5.323943614959717,4.816901206970215,-0.0021349019370973,-0.018735684454441,0.1227615252137184,0.9922570586204528,0.1697228445014258,0.0007774068128075,0.000204546314839,0.0129509661346673,-0.0450065620243549,0.013516373001039,-0.0024445950984954,-0.0197384897619485,0.1030001267790794,0.9944825172424316,0.0016867871623157,-0.0754699714221915,0.0176160329872492,-0.3485446572303772,-0.1601709127426147,-0.4197769165039062,375,66,20661,12843
24.8,1788517865325,5.211267471313477,4.732394218444824,-0.0021336409263312,-0.0201523751020431,0.1231760680675506,0.9921778440475464,0.1689076641016766,0.0023746303239915,-1.1716575538212204e-05,-0.0139033598825335,0.0064933043904602,-0.0052100028842687,-0.0024813283234834,-0.0196070000529289,0.1036635935306549,0.9944160580635072,0.0074643059775718,0.0314914338992245,0.0267884139651578,0.3731606006622314,-0.0262355208396911,0.1810283660888672,336,25,20494,12503
24.9,1788517865425,5.352112770080566,4.901408672332764,-0.0022091392893344,-0.019563402980566,0.1235681697726249,0.9921408295631408,0.1746522553513989,-0.0044268446593962,2.939206471555772e-05,-0.0047548036091029,0.0187664590775966,-0.0033159938175231,-0.0027322927489876,-0.0193584375083446,0.1036283075809478,0.9944238662719728,-0.0199089616062748,0.0348445180188454,-0.0106180863212524,-0.0921940207481384,0.1249465346336364,0.0634059906005859,349,19,20130,12223
25.0,1788517865525,5.098591327667236,4.816901206970215,-0.0022080955095589,-0.0186894182115793,0.1237214803695678,0.9921385645866394,0.1703746725135843,-0.0072586288572648,3.4117262488456686e-06,0.0035434297751635,0.0205673892050981,0.0007448180695064,-0.0026566702872514,-0.0184501707553863,0.1037083119153976,0.994433045387268,-0.0022466741556038,0.0432738811434522,-0.0111761844135325,0.0868778228759765,0.2321634292602539,0.3825244903564453,306,29,20297,12212
25.1,1788517865625,5.154929637908936,4.929577350616455,-0.0024240519851446,-0.0182549841701984,0.12374197691679,0.9921435713768004,0.1749765844894481,-0.0043430703171597,-3.0336837412954574e-05,0.0003699672815855,0.0054868576116859,0.0024004012811928,-0.0029146261513233,-0.0183873586356639,0.1037529185414314,0.994428813457489,-0.0071323629211873,-0.004592259733934,-0.0001768022449987,0.3605163097381592,0.1586902141571045,-0.1174840927124023,368,24,20296,12845
25.2,1788517865725,5.070422649383545,5.126760482788086,-0.0043882802128791,-0.0152085926383733,0.1235881075263023,0.9922073483467102,0.177017845284761,-0.0048172500794108,-0.0002181479734746,-0.0494329780340194,0.1196222007274627,-0.010168015025556,-0.0051221260800957,-0.0116749089211225,0.1042725890874862,0.9944670796394348,1.4225960372802788e-05,0.2329090733074939,0.0415955764847981,0.2645183801651001,-0.0109868645668029,0.2086095809936523,272,22,19935,12835
25.3,1788517865825,5.323943614959717,4.788732528686523,-0.0042727133259177,-0.0118644004687666,0.1252626776695251,0.9920434951782228,0.1798941886593016,-0.0101601378690426,5.425817760612158e-05,0.0100946882739663,-0.045074313879013,0.0057989694178104,-0.0048104766756296,-0.0129069862887263,0.1045011654496193,0.9944294095039368,-0.0467120510286058,-0.0978370802184872,-0.073331336935832,-0.2496678233146667,0.1920726299285888,-0.3340988159179687,308,29,19354,11727
25.4,1788517865925,5.098591327667236,4.788732528686523,-0.0046475105918943,-0.0157295130193233,0.123816855251789,0.9921694993972778,0.1703838908923599,-0.0036003135792094,0.0002329467936753,-0.0047593768686056,-0.0398471094667911,0.003778523299843,-0.0048955976963043,-0.0154796503484249,0.1040668115019798,0.9944377541542052,0.0035302813128956,0.0233022760644057,0.0217576747769914,0.2592495083808899,0.2858898043632507,0.5962667465209961,349,70,20499,13022
25.5,1788517866025,5.267605781555176,4.985915660858154,-0.0045792805030941,-0.0154749928042292,0.1252738982439041,0.9919909238815308,0.1773325294550877,-0.0017423792926836,-5.086097657387228e-06,-0.0007451716228388,0.0057304692454636,0.0333644039928913,-0.0048470646142959,-0.0157453026622533,0.1056331768631935,0.9942687749862672,0.0004147675494073,-0.0170708196611618,0.0184323103186793,-0.0757970809936523,-0.2981414794921875,0.008458137512207,322,18,20666,12510
25.6,1788517866125,5.239436626434326,4.929577350616455,-0.0044985152781009,-0.0170760825276374,0.1254589855670929,0.9919416904449464,0.1774238639696959,-0.0024556515964715,8.986632505001304e-05,-0.0081306667998433,-0.031811986118555,-0.0108517995104193,-0.004814900457859,-0.0175601169466972,0.1054731979966163,0.9942554235458374,-0.0018871614728166,-0.0369809925389339,-0.0038038861485775,0.1153815388679504,-0.0653020739555358,-0.5132656097412109,325,27,20213,12157
25.7,1788517866225,5.239436626434326,4.8450703620910645,-0.0043888837099075,-0.0180307906121015,0.1254611015319824,0.9919249415397644,0.1748594477224683,-0.0023638477022131,2.556749835675527e-05,0.0006695973570458,-0.0178993493318557,-0.0001353122788714,-0.004732571542263,-0.0177993513643741,0.1056182160973548,0.994236171245575,0.0030641385163099,0.0137619380767854,0.0110174911521525,0.1538208127021789,-0.0957961082458496,-0.3928756713867187,423,22,22522,11321
25.8,1788517866325,5.690140724182129,4.535211086273193,-0.0042557097040116,-0.0188753716647624,0.1240322887897491,0.9920895099639891,0.1716447284288363,-0.0061302828914614,2.7102646067000234e-05,-0.0004428777319844,-0.0166714861989021,-0.0558835715055465,-0.0046019228175282,-0.0188817381858825,0.103714995086193,0.9944171905517578,-0.0015396766005309,-0.0205131914773251,-0.0835736803251523,-0.2333605289459228,0.0780746340751648,-0.4026365280151367,346,18,21748,10678
25.9,1788517866425,5.492957592010498,4.507042407989502,-0.0039097676053643,-0.0185713581740856,0.1201089546084404,0.9925792813301086,0.168991325785335,-0.0028390979545804,-1.304721750077745e-05,0.0046678148210048,0.0137531412765383,-0.0923615247011184,-0.0044538360089063,-0.0181513950228691,0.0980075001716613,0.9950101971626282,-0.0117755975552544,0.017713168892856,-0.1122497489015125,-0.2973156571388244,-0.1598426103591919,-0.0057611465454101,335,16,21271,11200
26.0,1788517866525,5.577464580535889,4.478873252868652,-0.00432800501585,-0.0178410541266202,0.1140484884381294,0.993305504322052,0.1653804611883739,-0.0024151985044665,-2.125304674974021e-05,-0.0041095735505223,0.0239437855780124,-0.1012164056301117,-0.0047087464481592,-0.0175324287265539,0.09366275370121,0.9954384565353394,-0.0023394811311627,0.0502189814863783,-0.0886940909781905,-0.0061093568801879,0.1128114461898803,0.6338300704956055,336,45,21649,12201
26.1,1788517866625,5.549295902252197,4.507042407989502,-0.0043237693607807,-0.0179990716278553,0.112494058907032,0.9934799075126648,0.1747199840837348,-0.0033380808410001,-8.457837794732766e-06,-0.0016334507381543,-0.0059105302207171,-0.0626542791724205,-0.0046034911647439,-0.0183428153395652,0.0899921059608459,0.9957628846168518,0.0069288986854502,-0.0073755239007714,-0.0497770107512148,0.0072129964828491,-0.1233372092247009,0.3964405059814453,351,16,22137,11151
26.2,1788517866725,5.521126747131348,4.535211086273193,-0.0043301018886268,-0.0183697324246168,0.1063127368688583,0.994153618812561,0.1721585282730722,-0.0026217554144466,-6.055760716005641e-05,-0.0036136370617896,0.0337689146399498,-0.0830838084220886,-0.0047367643564939,-0.0180659182369709,0.0860564783215522,0.996115267276764,-0.0055288063715316,0.0452503568785106,-0.0818579580889633,-0.3008503913879394,-0.2490468025207519,0.1429071426391601,345,45,20780,12268
26.3,1788517866825,5.239436626434326,4.985915660858154,-0.0044012856669723,-0.0177636593580245,0.1041624695062637,0.994391918182373,0.1683348068449462,-0.0014851885974466,4.705761157909317e-05,0.0009723638067953,0.0055283880792558,-0.0314267240464687,-0.0049981148913502,-0.0165838543325662,0.0843807980418205,0.9962831139564514,-0.0072776421039318,0.0548835443319186,0.013758634341032,-0.3018444180488586,-0.2483268976211547,0.4651155471801758,315,24,20016,12461
26.4,1788517866925,5.042253494262695,4.704225540161133,-0.0048610377125442,-0.0180206876248121,0.1047701463103294,0.994321346282959,0.1711328505331965,-0.0025673918798586,0.0001299386493301,-0.0097988871857523,-0.0423827283084392,0.0030267033725976,-0.0051681408658623,-0.0180338304489851,0.0851605981588363,0.99619060754776,0.0032831983071486,-0.0080377789506885,0.0230011329312516,0.1782358884811401,0.281751275062561,0.1256990432739257,373,37,20596,12832
26.5,1788517867025,5.211267471313477,4.873239517211914,-0.0048176972195506,-0.0182327721267938,0.1065449565649032,0.9941290020942688,0.1742360707945238,-0.0008294194640628,-1.1494110756912163e-05,-0.001142805442214,0.0096600102260708,0.045728649944067,-0.0051924316212534,-0.0181289240717887,0.0868800580501556,0.9960403442382812,-0.0064503963624871,0.0065206151444503,0.0367107217193974,0.0644149780273437,-0.0663714408874511,-0.0863323211669921,395,20,21128,12104
26.6,1788517867125,5.183098793029785,4.985915660858154,-0.0049421032890677,-0.0174212083220481,0.1090809032320976,0.9938679337501526,0.1768168336339143,0.0005948517661222,-3.965401695198389e-05,-0.0023779445327818,0.0105531923472881,0.0475864484906196,-0.0052796555683016,-0.0173401664942502,0.0893073305487632,0.9958391785621644,0.0040679500838996,-0.0026375296299045,0.0454773633524752,-0.11410653591156,0.0404446721076965,0.4174413681030273,389,19,21769,11837
26.7,1788517867225,5.211267471313477,4.788732528686523,-0.0047539151273667,-0.0176395215094089,0.1106180250644683,0.993695080280304,0.1694018182886084,-0.002578868862764,3.233177113583143e-05,0.0052353790961205,-0.0071730543859303,0.03633638843894,-0.0051277419552206,-0.0176132172346115,0.0912802368402481,0.9956563115119934,-0.0005899722396804,-0.0092681100931573,0.0171186784240965,0.046371042728424,0.0156664848327636,-0.5337190628051758,403,22,21787,12010
26.8,1788517867325,5.211267471313477,4.957746505737305,-0.0048689791001379,-0.0170005336403846,0.1119896546006202,0.9935519695281982,0.1783558636284721,-0.0033988988990879,-1.2446828497530867e-05,-0.0024503115564584,0.0076312897726893,0.0192467216402292,-0.0051245559006929,-0.0171228274703025,0.0923348069190979,0.9955675601959229,0.0045319526465817,-0.0154558244396094,0.0192208886944747,-0.0877441763877868,0.0509475469589233,-0.0944805145263671,370,18,21609,12080
26.9,1788517867425,5.042253494262695,5.267605781555176,-0.004818296059966,-0.015947526320815,0.1139810383319854,0.9933432340621948,0.1717843557445978,0.0011190907484125,-3.042527681614289e-05,0.0002631688548717,0.0484783053398132,0.0564198605716228,-0.0048856269568204,-0.0156051199883222,0.0945827141404151,0.9953827261924744,0.0193735686506175,0.0778352190479251,0.0630003171896345,-1.0720709562301636,-0.3352817893028259,1.3120203018188477,417,22,20475,12759
27.0,1788517867525,4.929577350616455,5.098591327667236,-0.0020073764026165,-0.0215972755104303,0.1168630346655845,0.992911159992218,0.1668200110052038,-0.0009772952294101,0.0005169231750723,0.0116491289809346,-0.1117104142904281,-0.0075374715961515,-0.00198295712471,-0.0207789000123739,0.0975735187530517,0.995009422302246,0.0465716102382399,0.0676897686303956,0.0675603826374712,0.5274621248245239,-0.0462397933006286,-0.1612081527709961,434,52,22042,13069
27.1,1788517867625,5.211267471313477,5.098591327667236,-0.001611592946574,-0.0198685992509126,0.11988315731287,0.9925878643989564,0.1829991778365002,-0.0058082411689795,-0.0001762148337121,-0.0046291700564324,-0.0053905639797449,0.0474820099771022,-0.0020097540691494,-0.0198322795331478,0.0999517440795898,0.994792640209198,-0.0035270697698594,-0.0623428190389937,0.035475379389733,-0.2418830394744873,0.2707765102386474,-0.0724849700927734,305,19,20010,12417
27.2,1788517867725,5.098591327667236,4.901408672332764,-0.0017788263503462,-0.0187004432082176,0.1211021840572357,0.9924622774124146,0.1806546470885862,-0.0052643420053517,-2.4869901483452247e-05,0.0035538519732654,0.0280478596687316,0.0310393869876861,-0.0021076332777738,-0.0186536684632301,0.101237341761589,0.994685173034668,0.0072731092342294,0.0345036281934024,0.0404554709556902,0.1019728779792785,0.0216467380523681,0.4506187438964844,355,21,20171,12456
27.3,1788517867825,5.211267471313477,4.732394218444824,-0.0016326115000993,-0.0200545713305473,0.1210280805826187,0.9924451112747192,0.1706400440716898,-0.0027022520785342,0.000205471505569,0.0004003615758847,-0.0583967864513397,-0.0098942462354898,-0.001820920035243,-0.0193313788622617,0.1015902012586593,0.9946368336677552,0.0234290181062198,0.0424588020900351,0.0320614738372083,-0.6161454916000366,-0.1740555763244629,-0.463357925415039,368,41,21480,13163
27.4,1788517867925,5.380281925201416,4.985915660858154,-0.0020121252164244,-0.0154901873320341,0.1224247142672538,0.9923548102378844,0.1835920261464998,-0.0059463143437444,-0.0002379123392427,-0.0048790536820888,0.0573257952928543,0.0034778714179992,-0.0023739077150821,-0.0154348462820053,0.1022912859916687,0.9946318864822388,-0.0082488043166034,0.0196384572266492,-0.0196278991616589,-0.3276103734970093,-0.0151667594909667,0.0141735076904296,278,21,18698,12895
27.5,1788517868025,5.211267471313477,4.929577350616455,-0.0018948091892525,-0.0149285905063152,0.1223078742623329,0.9923781752586364,0.1721075499618881,-0.0025166688251339,-7.103348641939236e-05,0.0085133351385593,0.0159999933093786,0.0110612846910953,-0.0024381559342145,-0.014740121550858,0.1024402752518653,0.9946269989013672,-0.0191717782804694,0.0005609167846449,-0.0229442651411623,0.0393495559692382,0.1836593747138977,0.4547767639160156,332,55,20149,12665
