time_s,timestamp_ms,wheel_vels__velocity_left,wheel_vels__velocity_right,odom__orient_x,odom__orient_y,odom__orient_z,odom__orient_w,odom__lin_x,odom__lin_y,odom__lin_z,odom__ang_x,odom__ang_y,odom__ang_z,imu__orient_x,imu__orient_y,imu__orient_z,imu__orient_w,imu__angvel_x,imu__angvel_y,imu__angvel_z,imu__acc_x,imu__acc_y,imu__acc_z,wheel_status__current_ma_left,wheel_status__current_ma_right,wheel_status__pwm_left,wheel_status__pwm_right
0.0,1788340899993,0.0,0.0,-0.005966484081,-0.0014996123500168,0.1984317004680633,0.980095386505127,0.0,0.0,0.0,0.0,3.6875531517210894e-09,0.0,-0.0060875453054904,-0.0012863148003816,0.1988665163516998,0.9800068736076356,-0.0012600287611454,-0.0001721836073093,-0.0002182046959193,-0.0093992948532104,-0.0026065707206726,0.0220451354980468,0,0,0,0
0.1,1788340900093,0.0,0.0,-0.005966484081,-0.0014996123500168,0.1984317004680633,0.980095386505127,0.0,0.0,0.0,0.0,3.6875531517210894e-09,0.0,-0.0060875453054904,-0.0012863148003816,0.1988665163516998,0.9800068736076356,-0.0012600287611454,-0.0001721836073093,-0.0002182046959193,-0.0093992948532104,-0.0026065707206726,0.0220451354980468,0,0,0,0
0.2,1788340900193,0.0,0.0,-0.005966484081,-0.0014996123500168,0.1984317004680633,0.980095386505127,0.0,0.0,0.0,0.0,3.6875531517210894e-09,0.0,-0.0060875453054904,-0.0012863148003816,0.1988665163516998,0.9800068736076356,-0.0012600287611454,-0.0001721836073093,-0.0002182046959193,-0.0093992948532104,-0.0026065707206726,0.0220451354980468,0,0,0,0
0.3,1788340900293,0.0,0.0,-0.005966484081,-0.0014996123500168,0.1984317004680633,0.980095386505127,0.0,0.0,0.0,0.0,4.7897619204206884e-09,0.0,-0.0060972264036536,-0.0013445736840367,0.1988607794046402,0.980007827281952,-0.0005810140256694,-0.0022307568922882,5.701722847805621e-05,0.0182806849479675,-0.0020486116409301,-0.0102548599243164,0,0,0,0
0.4,1788340900393,0.0,0.0,-0.005966484081,-0.0014996123500168,0.1984317004680633,0.980095386505127,0.0,0.0,0.0,0.0,7.210006813807013e-09,0.0,-0.0060582868754863,-0.0013678036630153,0.1988479942083358,0.980010747909546,-0.0004273059750695,-0.0029128009848724,-0.001187627741142,0.0104543566703796,0.0044428706169128,0.0041084289550781,0,0,0,0
0.5,1788340900493,0.0,0.0,-0.005966484081,-0.0014996123500168,0.1984317004680633,0.980095386505127,0.0,0.0,0.0,0.0,4.901822059366623e-09,0.0,-0.006069048307836,-0.0014319913461804,0.1988602578639984,0.9800079464912416,-0.001869756019767,-0.0038485931530482,-0.0006652533923563,0.0110293626785278,-0.0040519833564758,0.004063606262207,0,0,0,0
0.6,1788340900593,0.0,0.0,-0.005966484081,-0.0014996123500168,0.1984317004680633,0.980095386505127,0.0,0.0,0.0,0.0,4.901822059366623e-09,0.0,-0.006069048307836,-0.0014319913461804,0.1988602578639984,0.9800079464912416,-0.001869756019767,-0.0038485931530482,-0.0006652533923563,0.0110293626785278,-0.0040519833564758,0.004063606262207,0,0,0,0
0.7,1788340900693,0.0,0.0,-0.005966484081,-0.0014996123500168,0.1984317004680633,0.980095386505127,0.0,0.0,0.0,0.0,4.901822059366623e-09,0.0,-0.006069048307836,-0.0014319913461804,0.1988602578639984,0.9800079464912416,-0.001869756019767,-0.0038485931530482,-0.0006652533923563,0.0110293626785278,-0.0040519833564758,0.004063606262207,0,0,0,0
0.8,1788340900793,0.0,0.0,-0.005966484081,-0.0014996123500168,0.1984317004680633,0.980095386505127,0.0,0.0,0.0,0.0,4.901822059366623e-09,0.0,-0.006069048307836,-0.0014319913461804,0.1988602578639984,0.9800079464912416,-0.001869756019767,-0.0038485931530482,-0.0006652533923563,0.0110293626785278,-0.0040519833564758,0.004063606262207,0,0,0,0
0.9,1788340900893,0.0,0.0,-0.005966484081,-0.0014996123500168,0.1984317004680633,0.980095386505127,0.0,0.0,0.0,0.0,4.787819474216803e-09,0.0,-0.0061210952699184,-0.0013760700821876,0.1988583505153656,0.9800081849098206,-0.0009353408912693,-0.0011173550617018,0.0004091027967424,0.0410192012786865,0.0076920986175537,-0.0210542678833007,0,0,0,0
1.0,1788340900993,0.0,0.0,-0.005966484081,-0.0014996123500168,0.1984317004680633,0.980095386505127,0.0,0.0,0.0,0.0,4.844096235245843e-09,0.0,-0.0061460034921765,-0.0014274790883064,0.198867917060852,0.980005979537964,-0.0009844249321976,-0.0013461290931503,-0.0001132368514301,-0.0191260576248168,0.0408251881599426,-0.0479564666748046,0,0,0,0
1.1,1788340901093,0.0,0.0,-0.005966484081,-0.0014996123500168,0.1984317004680633,0.980095386505127,0.0,0.0,0.0,0.0,4.874069592375463e-09,0.0,-0.0061356583610177,-0.0013782549649477,0.1988396793603897,0.980011820793152,0.0013388539427504,0.0002581489957821,0.0007977321219577,-0.0236753821372985,-0.0046331882476806,-0.0032548904418945,0,0,0,0
1.2,1788340901193,0.0,0.0,-0.005966484081,-0.0014996123500168,0.1984317004680633,0.980095386505127,0.0,0.0,0.0,0.0,7.236972354718318e-09,0.0,-0.0061337146908044,-0.0013686325401067,0.1988561004400253,0.980008602142334,-0.0016861153149828,-0.0022871274929761,0.0010665315354693,-0.0199058055877685,0.0060968399047851,-0.0068092346191406,0,0,0,0
1.3,1788340901293,0.0,0.0,-0.005966484081,-0.0014996123500168,0.1984317004680633,0.980095386505127,0.0,0.0,0.0,0.0,4.762346517139804e-09,0.0,-0.0061442935839295,-0.0013983258977532,0.1988998055458068,0.979999542236328,-0.0015125293107625,0.0006094739223633,0.0007881505671919,0.0046438574790954,0.0044471621513366,0.0417003631591796,0,0,0,0
1.4,1788340901393,0.0,0.0,-0.005966484081,-0.0014996123500168,0.1984317004680633,0.980095386505127,0.0,0.0,0.0,0.0,4.85141926631627e-09,0.0,-0.0061720954254269,-0.0013960767537355,0.1989097893238067,0.9799973964691162,7.477296685006492e-05,-0.0007475667714094,0.0008888707834613,-0.0148813128471374,0.0142203569412231,-0.0229520797729492,0,0,0,0
1.5,1788340901493,0.0,0.0,-0.005966484081,-0.0014996123500168,0.1984317004680633,0.980095386505127,0.0,0.0,0.0,0.0,4.780365880918681e-09,0.0,-0.0061650704592466,-0.0013856599107384,0.1988894492387771,0.9800015687942504,-0.0009539738146632,-0.0007793348296516,-0.0011454740588767,-0.0057186484336853,0.0123152732849121,-0.0373363494873046,0,0,0,0
1.6,1788340901593,0.0,0.0,-0.005966484081,-0.0014996123500168,0.1984317004680633,0.980095386505127,0.0,0.0,0.0,0.0,7.238674548659674e-09,0.0,-0.0061912573873996,-0.0013774968683719,0.1989099234342575,0.9799972772598268,-0.0008120831906592,-0.0025048529369009,0.0004451961407854,0.0250611305236816,0.0253570079803466,-0.0336713790893554,0,0,0,0
1.7,1788340901693,0.0,0.0,-0.005966484081,-0.0014996123500168,0.1984317004680633,0.980095386505127,0.0,0.0,0.0,0.0,3.605606480050482e-09,0.0,-0.0062019927427172,-0.0013767499476671,0.1988968402147293,0.979999840259552,0.00107438424189,-0.0005075531305418,-0.0005172242869914,0.0089040398597717,0.0218735933303833,-0.0085821151733398,0,0,0,0
1.8,1788340901793,0.0,0.0,-0.005966484081,-0.0014996123500168,0.1984317004680633,0.980095386505127,0.0,0.0,0.0,0.0,4.854912916130161e-09,0.0,-0.0062263729050755,-0.0013832310214638,0.1988717168569564,0.9800048470497132,-0.0010230663196289,-0.0007609677049092,-0.0009081356683295,-0.0072912573814392,-0.0206946730613708,-0.0177679061889648,0,0,0,0
1.9,1788340901893,0.0,0.0,-0.005966484081,-0.0014996123500168,0.1984317004680633,0.980095386505127,0.0,0.0,0.0,0.0,4.885059468051622e-09,0.0,-0.0062263729050755,-0.0013832310214638,0.1988717168569564,0.9800048470497132,-0.0010230663196289,-0.0007609677049092,-0.0009081356683295,-0.0072912573814392,-0.0206946730613708,-0.0177679061889648,0,0,0,0
2.0,1788340901993,0.0,0.0,-0.005966484081,-0.0014996123500168,0.1984317004680633,0.980095386505127,0.0,0.0,0.0,0.0,3.565209016898052e-09,0.0,-0.0062212031334638,-0.0013690162450075,0.1988635212182998,0.9800065159797668,0.0006411333811919,0.0028769119436144,-0.0008469486869399,-0.0106172561645507,-0.0099735260009765,-0.041111946105957,0,0,0,0
2.1,1788340902093,0.0,0.0,-0.005966484081,-0.0014996123500168,0.1984317004680633,0.980095386505127,0.0,0.0,0.0,0.0,4.719197921332352e-09,0.0,-0.0062150210142135,-0.0013809176161885,0.1988170593976974,0.9800158739089966,0.0001633270175827,0.0005596948356298,0.0001661823335435,0.0087826251983642,0.005863070487976,0.0218095779418945,0,0,0,0
2.2,1788340902193,0.0,0.0,-0.005966484081,-0.0014996123500168,0.1984317004680633,0.980095386505127,0.0,0.0,0.0,0.0,4.8495465421183326e-09,0.0,-0.0062207300215959,-0.0013968832790851,0.1987767815589904,0.9800240993499756,-0.0005957383893574,-0.0012310468791955,-0.0013743624929542,-0.0346061587333679,-0.0352311134338378,0.0108022689819335,0,0,0,0
2.3,1788340902293,0.0,0.0,-0.005966484081,-0.0014996123500168,0.1984317004680633,0.980095386505127,0.0,0.0,0.0,0.0,4.8495465421183326e-09,0.0,-0.006194494664669,-0.0014123227447271,0.1987859010696411,0.9800223112106324,-0.0001029079485785,-0.0018818779659736,0.0002161048326064,0.0171013474464416,-0.0122357010841369,-0.0124139785766601,0,0,0,0
2.4,1788340902393,0.0,0.0,-0.005966484081,-0.0014996123500168,0.1984317004680633,0.980095386505127,0.0,0.0,0.0,0.0,4.762186645024258e-09,0.0,-0.0061820680275559,-0.0014452906325459,0.1987809091806411,0.9800233840942384,0.0004321450878987,-0.0020272440241394,-0.0004342436571765,0.0379140377044677,-0.0017078518867492,0.0217609405517578,0,0,0,0
2.5,1788340902493,0.0,0.0,-0.005966484081,-0.0014996123500168,0.1984317004680633,0.980095386505127,0.0,0.0,0.0,0.0,7.289393977316649e-09,0.0,-0.0061820680275559,-0.0014452906325459,0.1987809091806411,0.9800233840942384,0.0004321450878987,-0.0020272440241394,-0.0004342436571765,0.0379140377044677,-0.0017078518867492,0.0217609405517578,0,0,0,0
2.6,1788340902593,0.0,0.0,-0.005966484081,-0.0014996123500168,0.1984317004680633,0.980095386505127,0.0,0.0,0.0,0.0,4.861774094422344e-09,0.0,-0.0061943754553794,-0.0013391254469752,0.1987814009189605,0.9800233244895936,-0.0006096192569217,0.0021216290786612,7.886583460297718e-05,0.0077173709869384,0.0431633591651916,-0.0158395767211914,0,0,0,0
2.7,1788340902693,0.0,0.0,-0.005966484081,-0.0014996123500168,0.1984317004680633,0.980095386505127,0.0,0.0,0.0,0.0,4.838760059300284e-09,0.0,-0.006203968077898,-0.0013377126306295,0.1987904161214828,0.9800214767456056,-0.0014198794666161,-0.0002281627506856,0.0002206196925476,0.0238812565803527,0.0234026312828063,0.0289878845214843,0,0,0,0
2.8,1788340902793,0.0,0.0,-0.005966484081,-0.0014996123500168,0.1984317004680633,0.980095386505127,0.0,0.0,0.0,0.0,4.838760059300284e-09,0.0,-0.006203968077898,-0.0013377126306295,0.1987904161214828,0.9800214767456056,-0.0014198794666161,-0.0002281627506856,0.0002206196925476,0.0238812565803527,0.0234026312828063,0.0289878845214843,0,0,0,0
2.9,1788340902893,0.0,0.0,-0.005966484081,-0.0014996123500168,0.1984317004680633,0.980095386505127,0.0,0.0,0.0,0.0,4.838760059300284e-09,0.0,-0.006203968077898,-0.0013377126306295,0.1987904161214828,0.9800214767456056,-0.0014198794666161,-0.0002281627506856,0.0002206196925476,0.0238812565803527,0.0234026312828063,0.0289878845214843,0,0,0,0
3.0,1788340902993,0.0,0.0,-0.005966484081,-0.0014996123500168,0.1984317004680633,0.980095386505127,0.0,0.0,0.0,0.0,4.838760059300284e-09,0.0,-0.006203968077898,-0.0013377126306295,0.1987904161214828,0.9800214767456056,-0.0014198794666161,-0.0002281627506856,0.0002206196925476,0.0238812565803527,0.0234026312828063,0.0289878845214843,0,0,0,0
3.1,1788340903093,0.0,0.0,-0.005966484081,-0.0014996123500168,0.1984317004680633,0.980095386505127,0.0,0.0,0.0,0.0,4.859915136989912e-09,0.0,-0.006236127577722,-0.0014309324324131,0.198823943734169,0.9800143837928772,-0.0015134302606028,-0.002064841180569,6.46100554667795e-05,0.0007187724113464,-0.0149132013320922,-0.0269107818603515,0,0,0,0
3.2,1788340903193,0.0,0.0,-0.005966484081,-0.0014996123500168,0.1984317004680633,0.980095386505127,0.0,0.0,0.0,0.0,7.378752275855049e-09,0.0,-0.0061995927244424,-0.0014317724853754,0.1988195478916168,0.980015516281128,0.0017681071818474,-0.0014699222501689,0.0007508493500809,-0.0245692133903503,-0.0012013316154479,-0.0394840240478515,0,0,0,0
3.3,1788340903293,0.0,0.0,-0.005966484081,-0.0014996123500168,0.1984317004680633,0.980095386505127,0.0,0.0,0.0,0.0,4.868081049380635e-09,0.0,-0.0062449695542454,-0.0013989927247166,0.1988052725791931,0.980018138885498,-0.0007993576625269,0.0002402220357029,-0.0004580629767559,-0.0237801671028137,-0.0112971067428588,-0.0233621597290039,0,0,0,0
3.4,1788340903393,0.0,0.0,-0.005966484081,-0.0014996123500168,0.1984317004680633,0.980095386505127,0.0,0.0,0.0,0.0,4.83364770431649e-09,0.0,-0.0062450617551803,-0.0013768216595053,0.1987775713205337,0.9800237417221068,0.0004562661304845,-0.0016487845967564,-0.0005371200297363,-0.00545334815979,-0.0205700993537902,0.0286931991577148,0,0,0,0
3.5,1788340903493,0.0,0.0,-0.005966484081,-0.0014996123500168,0.1984317004680633,0.980095386505127,0.0,0.0,0.0,0.0,4.848966117521058e-09,0.0,-0.0062400437891483,-0.0013803597539663,0.1988076120615005,0.9800177812576294,-0.0005087695099897,-0.0027276923655713,0.0005710134897256,0.0286363363265991,0.0172038078308105,-0.0052471160888671,0,0,0,0
3.6,1788340903593,0.0,0.0,-0.005966484081,-0.0014996123500168,0.1984317004680633,0.980095386505127,0.0,0.0,0.0,0.0,4.858027757848049e-09,0.0,-0.0062400437891483,-0.0013803597539663,0.1988076120615005,0.9800177812576294,-0.0005087695099897,-0.0027276923655713,0.0005710134897256,0.0286363363265991,0.0172038078308105,-0.0052471160888671,0,0,0,0
3.7,1788340903693,0.0,0.0,-0.005966484081,-0.0014996123500168,0.1984317004680633,0.980095386505127,0.0,0.0,0.0,0.0,4.858027757848049e-09,0.0,-0.0063035693019628,-0.0013391496613621,0.1988369077444076,0.9800113439559937,0.001271822835155,0.0013896324385547,0.0004516889930889,0.0009660124778747,0.0200993418693542,-0.0142726898193359,0,0,0,0
3.8,1788340903793,0.0,0.0,-0.005966484081,-0.0014996123500168,0.1984317004680633,0.980095386505127,0.0,0.0,0.0,0.0,4.8287871479146816e-09,0.0,-0.0063137020915746,-0.0013827141374349,0.1988575309514999,0.9800070524215698,-0.0008424210000652,0.0003148053526663,-0.0003198109995473,-0.0142682194709777,-0.0246549248695373,0.0394058227539062,0,0,0,0
3.9,1788340903893,0.0,0.0,-0.005966484081,-0.0014996123500168,0.1984317004680633,0.980095386505127,0.0,0.0,0.0,0.0,4.860919666782593e-09,0.0,-0.0063582453876733,-0.0013381922617554,0.1988647282123565,0.9800054430961608,-0.0020437792514426,0.003251056444893,8.32337216451753e-05,-0.0113515257835388,0.0355609655380249,-0.0268106460571289,0,0,0,0
4.0,1788340903993,0.0,0.0,-0.005966484081,-0.0014996123500168,0.1984317004680633,0.980095386505127,0.0,0.0,0.0,0.0,3.660019842754991e-09,0.0,-0.0063779707998037,-0.0013316916301846,0.1988385170698166,0.9800106287002563,4.043566642625986e-05,0.0022243396644172,-0.0006950152495056,-0.0040482282638549,0.0015343427658081,0.0359182357788085,0,0,0,0
4.1,1788340904093,0.0,0.0,-0.005966484081,-0.0014996123500168,0.1984317004680633,0.980095386505127,0.0,0.0,0.0,0.0,3.600957310112562e-09,0.0,-0.0063958456739783,-0.0013562133535742,0.1988212764263153,0.9800139665603638,-0.0008002175461887,0.0021954655064592,-0.0008094524753026,0.0009803771972656,0.0308430790901184,0.0019111633300781,0,0,0,0
4.2,1788340904193,0.0,0.0,-0.005966484081,-0.0014996123500168,0.1984317004680633,0.980095386505127,0.0,0.0,0.0,0.0,4.797747976681421e-09,0.0,-0.0063691055402159,-0.0013819439336657,0.1988494098186493,0.9800084233283995,-0.0002588789513427,-0.0031970542735997,-0.0002858137566993,0.0200834274291992,0.0032989978790283,0.0485095977783203,0,0,0,0
4.3,1788340904293,0.0,0.0,-0.005966484081,-0.0014996123500168,0.1984317004680633,0.980095386505127,0.0,0.0,0.0,0.0,4.834454170321578e-09,0.0,-0.0063553806394338,-0.0014470918104052,0.1988942772150039,0.979999303817749,0.0006137332737891,-0.0031186055342687,0.000417298452388,-0.018880546092987,0.005252718925476,0.0053529739379882,0,0,0,0
4.4,1788340904393,0.0,0.0,-0.005966484081,-0.0014996123500168,0.1984317004680633,0.980095386505127,0.0,0.0,0.0,0.0,3.664234693445678e-09,0.0,-0.0063350154086947,-0.0014345236122608,0.1988739520311355,0.980003535747528,0.0023178790364457,0.000481812080233,-0.0005225061795234,-0.0025226473808288,-0.0202423930168151,-0.0180912017822265,0,0,0,0
4.5,1788340904493,0.0,0.0,-0.005966484081,-0.0014996123500168,0.1984317004680633,0.980095386505127,0.0,0.0,0.0,0.0,3.664234693445678e-09,0.0,-0.0062908763065934,-0.0014945240691304,0.1989073306322097,0.979996919631958,0.0008866967607789,-0.0019190399943133,0.0009505993883039,0.0284667611122131,0.0437496900558471,-0.0052394866943359,0,0,0,0
4.6,1788340904593,0.0,0.0,-0.005966484081,-0.0014996123500168,0.1984317004680633,0.980095386505127,0.0,0.0,0.0,0.0,3.664234693445678e-09,0.0,-0.0062908763065934,-0.0014945240691304,0.1989073306322097,0.979996919631958,0.0008866967607789,-0.0019190399943133,0.0009505993883039,0.0284667611122131,0.0437496900558471,-0.0052394866943359,0,0,0,0
4.7,1788340904693,0.0,0.0,-0.005966484081,-0.0014996123500168,0.1984317004680633,0.980095386505127,0.0,0.0,0.0,0.0,4.788952345791131e-09,0.0,-0.0063437949866056,-0.0015638330951333,0.1988855749368667,0.9800010323524476,-0.0010156807319387,-0.0020557137368848,-0.0001110034182249,0.0129445195198059,0.0036406517028808,0.0143308639526367,0,0,0,0
4.8,1788340904793,0.0,0.0,-0.005966484081,-0.0014996123500168,0.1984317004680633,0.980095386505127,0.0,0.0,0.0,0.0,6.9150183357180595e-09,0.0,-0.006343076005578,-0.0014992412179708,0.1989113092422485,0.9799957871437072,-0.0002943949346552,0.0008444753779276,0.0016478799198379,0.0088253021240234,0.016010582447052,-0.0036029815673828,0,0,0,0
4.9,1788340904893,0.0,0.0,-0.005966484081,-0.0014996123500168,0.1984317004680633,0.980095386505127,0.0,0.0,0.0,0.0,3.627730116306793e-09,0.0,-0.0063618412241339,-0.0014938618987798,0.1989175677299499,0.9799944162368774,-0.0011575776776687,0.000599043666448,0.0004322456832344,6.651878356933594e-05,0.000320017337799,-0.0378007888793945,0,0,0,0
5.0,1788340904993,0.0,0.0,-0.005966484081,-0.0014996123500168,0.1984317004680633,0.980095386505127,0.0,0.0,0.0,0.0,4.890208682439834e-09,0.0,-0.0063555790111422,-0.0015102513134479,0.1989167630672454,0.9799946546554564,-0.000196369399483,0.0002104387453684,2.9976771711001523e-06,0.00502210855484,0.0107462406158447,0.0322799682617187,0,0,0,0
5.1,1788340905093,0.0,0.0,-0.005966484081,-0.0014996123500168,0.1984317004680633,0.980095386505127,0.0,0.0,0.0,0.0,4.828739186280018e-09,0.0,-0.0063555790111422,-0.0015102513134479,0.1989167630672454,0.9799946546554564,-0.000196369399483,0.0002104387453684,2.9976771711001523e-06,0.00502210855484,0.0107462406158447,0.0322799682617187,0,0,0,0
5.2,1788340905193,0.0,0.0,-0.005966484081,-0.0014996123500168,0.1984317004680633,0.980095386505127,0.0,0.0,0.0,0.0,4.926699936902423e-09,0.0,-0.0063325753435492,-0.0015085535123944,0.1989143639802932,0.9799951910972596,0.000182591587552,0.0006889612002095,-0.000100684589506,0.008608341217041,-0.0182915329933166,-0.0073604583740234,0,0,0,0
5.3,1788340905293,0.0,0.0,-0.005966484081,-0.0014996123500168,0.1984317004680633,0.980095386505127,0.0,0.0,0.0,0.0,4.926699936902423e-09,0.0,-0.00630858913064,-0.0015108985826373,0.1989077627658844,0.9799967408180236,0.0005761202063463,-0.0001756657448933,-0.0001706581092967,-0.0059084296226501,0.0117524862289428,-8.58306884765625e-05,0,0,0,0
5.4,1788340905393,0.0,0.0,-0.005966484081,-0.0014996123500168,0.1984317004680633,0.980095386505127,0.0,0.0,0.0,0.0,4.79256856422694e-09,0.0,-0.0062993504106998,-0.0016008457168936,0.1989427655935287,0.9799895882606506,-0.0011280864001621,-0.0049747698714025,0.0010479324630314,0.0013347864151,0.0155871510505676,-0.0198268890380859,0,0,0,0
5.5,1788340905493,0.0,0.0,-0.005966484081,-0.0014996123500168,0.1984317004680633,0.980095386505127,0.0,0.0,0.0,0.0,4.838877742940895e-09,0.0,-0.0063255000859498,-0.0015864158049225,0.1989510804414749,0.9799877405166626,0.0004552484219844,-0.001105564716831,0.0004433597346957,-0.0144579410552978,0.0447351932525634,-0.0107555389404296,0,0,0,0
5.6,1788340905593,0.0,0.0,-0.005966484081,-0.0014996123500168,0.1984317004680633,0.980095386505127,0.0,0.0,0.0,0.0,4.838877742940895e-09,0.0,-0.0063145123422145,-0.0015186704695224,0.1989536136388778,0.979987382888794,3.513516314501047e-05,0.0033199454815826,-0.0005105364444474,0.0173128843307495,0.002851665019989,0.0124549865722656,0,0,0,0
5.7,1788340905693,0.0,0.0,-0.005966484081,-0.0014996123500168,0.1984317004680633,0.980095386505127,0.0,0.0,0.0,0.0,4.838877742940895e-09,0.0,-0.0063318908214569,-0.0014664800837635,0.1989675760269165,0.9799844622612,-0.0013387973326935,0.0007841860003283,0.0007847049191864,0.0004346966743469,0.0119687914848327,0.0106658935546875,0,0,0,0
5.8,1788340905793,0.0,0.0,-0.005966484081,-0.0014996123500168,0.1984317004680633,0.980095386505127,0.0,0.0,0.0,0.0,5.009735737360188e-09,0.0,-0.0063408007845282,-0.0014424426481127,0.1989632993936538,0.9799853563308716,-0.0003078821717041,0.0013789976452954,0.000111686788367,-0.0116309523582458,-0.0059026479721069,0.0069789886474609,0,0,0,0
5.9,1788340905893,0.0,0.0,-0.005966484081,-0.0014996123500168,0.1984317004680633,0.980095386505127,0.0,0.0,0.0,0.0,4.848633938792091e-09,0.0,-0.0063135558739304,-0.001390978693962,0.1989805698394775,0.9799821972846984,-0.0007640849548459,-0.0005368648578945,0.0001336099289144,-0.0089049339294433,-0.0065206885337829,-0.0199851989746093,0,0,0,0
6.0,1788340905993,0.0,0.0,-0.005966484081,-0.0014996123500168,0.1984317004680633,0.980095386505127,0.0,0.0,0.0,0.0,7.028519988239168e-09,0.0,-0.0062963888049125,-0.0014126356691122,0.1989796012639999,0.9799823760986328,7.996701149705677e-05,0.0014987184983702,-0.0006347040293473,0.0265536308288574,-0.0192744135856628,-0.0361614227294921,0,0,0,0
6.1,1788340906093,0.0,0.0,-0.005966484081,-0.0014996123500168,0.1984317004680633,0.980095386505127,0.0,0.0,0.0,0.0,4.861966829139419e-09,0.0,-0.0062810471281409,-0.0014163637533783,0.1989906430244445,0.9799802303314208,-0.000607890599819,-0.0017972297870407,-0.0004553014226286,-0.0059460401535034,-0.0232655405998229,-0.0056943893432617,0,0,0,0
6.2,1788340906193,0.0,0.0,-0.005966484081,-0.0014996123500168,0.1984317004680633,0.980095386505127,0.0,0.0,0.0,0.0,4.7316270901376364e-09,0.0,-0.0062810471281409,-0.0014163637533783,0.1989906430244445,0.9799802303314208,-0.000607890599819,-0.0017972297870407,-0.0004553014226286,-0.0059460401535034,-0.0232655405998229,-0.0056943893432617,0,0,0,0
6.3,1788340906293,0.0,0.0,-0.005966484081,-0.0014996123500168,0.1984317004680633,0.980095386505127,0.0,0.0,0.0,0.0,4.7316270901376364e-09,0.0,-0.0062363622710108,-0.0014203293249011,0.1989907771348953,0.9799805283546448,0.0010743197108821,-0.0010516856723827,-0.0006462545020969,0.0009676814079284,-0.0008147358894348,0.0087566375732421,0,0,0,0
6.4,1788340906393,0.0,0.0,-0.005966484081,-0.0014996123500168,0.1984317004680633,0.980095386505127,0.0,0.0,0.0,0.0,4.7316270901376364e-09,0.0,-0.0062363622710108,-0.0014203293249011,0.1989907771348953,0.9799805283546448,0.0010743197108821,-0.0010516856723827,-0.0006462545020969,0.0009676814079284,-0.0008147358894348,0.0087566375732421,0,0,0,0
6.5,1788340906493,0.0,0.0,-0.005966484081,-0.0014996123500168,0.1984317004680633,0.980095386505127,0.0,0.0,0.0,0.0,4.7316270901376364e-09,0.0,-0.0062509877607226,-0.0013660984113812,0.1989842802286148,0.9799817800521852,0.0002237004740119,-0.0022272735226621,0.0002406577746861,0.023622453212738,0.0169373750686645,0.0629758834838867,29,55,1370,2219
6.6,1788340906593,0.0,0.0,-0.005966484081,-0.0014996123500168,0.1984317004680633,0.980095386505127,0.0,0.0,0.0,0.0,4.7316270901376364e-09,0.0,-0.0062509877607226,-0.0013660984113812,0.1989842802286148,0.9799817800521852,0.0002237004740119,-0.0022272735226621,0.0002406577746861,0.023622453212738,0.0169373750686645,0.0629758834838867,29,55,1370,2219
6.7,1788340906693,2.676056385040283,3.802816867828369,-0.0060423966497182,-0.0017215738771483,0.2063629180192947,0.9784552454948424,0.1097647816979072,0.0001362596667943,4.290736414415643e-06,0.002729153027758,-0.0057405345141887,0.2096480578184127,-0.0060672722756862,-0.0016626799479126,0.2047364264726638,0.9787969589233398,0.0055696050726205,-0.0042838315155656,0.2049254904123192,0.7851890325546265,0.019204556941986,-0.1892919540405273,155,287,10208,15390
6.8,1788340906793,2.676056385040283,3.802816867828369,-0.0062405872158706,-0.0016559861833229,0.2153297811746597,0.9765200018882751,0.1422354829220795,0.0055880601325931,1.3872752842889436e-05,-0.0055572185665369,0.0014962736750021,0.2886100709438324,-0.0060672722756862,-0.0016626799479126,0.2047364264726638,0.9787969589233398,0.0055696050726205,-0.0042838315155656,0.2049254904123192,0.7851890325546265,0.019204556941986,-0.1892919540405273,113,99,12531,15575
6.9,1788340906893,3.4084506034851074,6.309859275817871,-0.0058842240832746,-0.0010002583730965,0.2388231009244918,0.9710447788238524,0.1745629723198738,0.002915715538991,-3.4258238725540085e-05,0.0045630573295056,0.0186146534979343,0.355825126171112,-0.0057655498385429,-0.0008073272183537,0.2499524503946304,0.9682406783103944,0.0026817389517882,0.0075919617804143,0.4719341629293614,0.0394967198371887,0.2561132311820984,-0.778538703918457,49,41,10234,18687
7.0,1788340906993,3.7183098793029785,6.8450703620910645,-0.0057236072607338,-0.0010914679151028,0.2634376585483551,0.964658796787262,0.1757354429950152,0.0008135517678867,1.266496995846428e-05,-0.0027424010913819,-0.0071859434247016,0.4673991501331329,-0.0057655628770589,-0.0010962793603539,0.2682461738586426,0.9633325934410096,-0.0048980153569327,-0.0060073481523467,0.4722447305363234,0.0309700369834899,0.0530235171318054,0.4761304855346679,153,87,12086,14354
7.1,1788340907093,3.94366192817688,6.2816901206970215,-0.005725918803364,-0.0008523784927092,0.284547209739685,0.9586445093154908,0.1741974174961975,0.010423202696835,-2.50911899971277e-05,0.0044594020582735,-0.0011616114061325,0.4368983805179596,-0.0056189848110079,-0.0009524766355752,0.2909412682056427,0.9567239880561828,0.003254111451354,-0.0127022013841203,0.3440620456553238,0.2427425980567932,0.2487719058990478,-0.0293483734130859,84,41,11445,16045
7.2,1788340907193,4.11267614364624,6.422535419464111,-0.0055896211415529,-0.0006044744513928,0.2959143221378326,0.9551979899406432,0.1679639252229215,0.0084973942059854,1.6517771069153173e-05,0.0058939782902598,0.0040343482978641,0.3662709295749664,-0.0054895393550395,-0.000428874976933,0.3070980310440063,0.951662003993988,0.0018684966721795,-0.0103995653840863,0.263987967465157,-0.0320786833763122,-0.2261448502540588,0.0492029190063476,90,130,12473,15708
7.3,1788340907293,4.02816915512085,5.521126747131348,-0.0056435312144458,-0.0001946565462276,0.3005701303482055,0.953743040561676,0.1739592262145499,0.0020118826026747,-3.872797215978631e-05,0.0041206600144505,0.0243249926716089,0.3119711875915527,-0.0054593933746218,4.018191248178482e-05,0.3166922628879547,0.9485126733779908,0.0055797158922838,0.0069010291942004,0.2661098347012612,-0.1413608193397522,-0.0925953388214111,0.3064279556274414,105,58,13014,16326
7.4,1788340907393,4.2253522872924805,5.464788913726807,-0.0051469216123223,0.0001692266669124,0.3259427845478058,0.9453755021095276,0.1665668754221774,0.0045681022809486,3.07722753296664e-07,0.0101697705686092,0.0007245070883072,0.2415027618408203,-0.0050153862684965,9.937863796949388e-05,0.3285072147846222,0.9444881081581116,0.0181767285468434,-0.0101480998354324,0.2487728666302617,-0.0522465109825134,0.1492372155189514,0.4529333114624023,105,58,13014,16326
7.5,1788340907493,4.056337833404541,6.422535419464111,-0.0048870891332626,0.0001265411265194,0.331695944070816,0.943373680114746,0.173974071994704,0.0005723238370277,3.802596214919505e-05,0.009433508850634,-0.006603549234569,0.260654866695404,-0.0043808808550238,-0.0001417389139533,0.3414307832717895,0.9398967027664183,-0.001746594640774,-0.0177664391738707,0.2154104326209074,0.1489054560661316,-0.0384147763252258,0.2727718353271484,113,61,13038,13489
7.6,1788340907593,4.056337833404541,6.422535419464111,-0.0048870891332626,0.0001265411265194,0.331695944070816,0.943373680114746,0.173974071994704,0.0005723238370277,3.802596214919505e-05,0.009433508850634,-0.006603549234569,0.260654866695404,-0.0043135350570082,-0.0002100300043821,0.3465222120285034,0.9380319118499756,0.0013202804703788,-0.0045441370688314,0.2241315808874946,0.2411579489707946,0.0333960056304931,0.3863210678100586,113,61,13038,13489
7.7,1788340907693,4.14084529876709,5.830986022949219,-0.0041591674089431,0.0001901965588331,0.3593809306621551,0.9331817626953124,0.1700471170273998,0.0025334318970626,6.24392665124084e-05,0.0073486086912453,-0.0092916600406169,0.2489626854658126,-0.0041566155850887,0.0002740109339356,0.3614801168441772,0.9323704838752748,0.0028589327016458,0.0184660185229738,0.2655071640032461,0.3342160582542419,0.1848671436309814,0.4696578979492187,107,66,12412,15898
7.8,1788340907793,4.619718074798584,5.070422649383545,-0.0041591674089431,0.0001901965588331,0.3593809306621551,0.9331817626953124,0.1700471170273998,0.0025334318970626,6.24392665124084e-05,0.0073486086912453,-0.0092916600406169,0.2489626854658126,-0.0042501715943217,0.0002745743840932,0.3692452311515808,0.9293222427368164,-0.0016728577402812,-0.0086737713856596,0.1012597065125939,-0.1755430698394775,0.0235626101493835,-0.1674556732177734,117,142,12999,13094
7.9,1788340907893,4.2253522872924805,6.253520965576172,-0.0040075816214084,0.000275568687357,0.3708852529525757,0.9286701083183287,0.1762394967933786,-0.0011854577454312,5.993479841035549e-06,0.0096578700467944,-0.0049220537766814,0.1360478848218917,-0.004290048032999,0.0005346834659576,0.3772516846656799,0.926100730895996,-0.0083328358359361,0.0165533815127879,0.1854410435146951,0.078299343585968,0.306680679321289,0.978123664855957,105,215,11939,15431
8.0,1788340907993,2.7042253017425537,4.169013977050781,-0.0040780706331133,0.0003653051098808,0.3804697096347809,0.9247843027114868,0.1799423439232144,-0.0002030574683982,-4.205410357601112e-05,-0.0001789129746612,0.0006757580558769,0.2141739726066589,-0.0040360270068049,0.0002611763775348,0.3883947134017944,0.9214842319488524,-0.0021355965250017,-0.0044137160696462,0.2431956368919536,-0.8068256974220276,0.2023943066596985,0.2473211288452148,72,22,1995,7669
8.1,1788340908093,0.0,1.6619718074798584,-0.0043894033879041,0.0009220270439982,0.3982788026332855,0.9172534942626952,0.0897385003250067,-0.0018361424340537,-1.410659957564009e-05,-0.0028856105636805,0.0084802508354187,0.3005633354187011,-0.0044857822358608,0.0009206878021359,0.4028118848800659,0.9152714014053344,-0.0048389825430788,-0.0021707261426606,0.240865975169678,-0.6681475639343262,-0.2333887815475464,0.2045211791992187,2,19,1851,6883
8.2,1788340908193,2.873239517211914,4.873239517211914,-0.0043402360752224,0.000539302942343,0.4091416895389557,0.912460446357727,0.0392754635413125,-0.0019801583702256,7.89778492141454e-06,-0.0014055159408599,-0.0144228329882025,0.2279897630214691,-0.0042650746181607,0.0003248276188969,0.4117149710655212,0.91130268573761,-0.0022186300586508,-0.0229097766238117,0.2520404033165543,2.5747668743133545,0.2612281441688537,0.1208333969116211,170,415,9296,15875
8.3,1788340908293,3.8309860229492183,6.450704097747803,-0.0041996631771326,0.0008368444396182,0.422569215297699,0.9063205122947692,0.1708587897721027,-0.0006397855417079,-8.301811635006176e-06,0.0105309691280126,0.0079857753589749,0.3229284286499023,-0.0043520703911781,0.00136015471071,0.4307025671005249,0.9024823904037476,0.0059174930048144,0.0049959497430019,0.3147670140376095,-0.2567136883735657,-0.1200085282325744,0.0169286727905273,90,81,11827,12968
8.4,1788340908393,4.366197109222412,6.478873252868652,-0.0043093776330351,0.000958970747888,0.4351917505264282,0.9003269076347351,0.1895544982581642,-0.0027995577206222,2.653190153689503e-05,-0.0060788295231759,-0.0174972116947174,0.3054664731025696,-0.0042252168059349,0.0008773701265454,0.4402492344379425,0.8978652358055115,0.0026394437043187,-0.0053534010563841,0.2949499230016665,-0.0941462516784668,-0.0820270776748657,-0.6311407089233398,131,97,12204,13558
8.5,1788340908493,4.197183132171631,5.577464580535889,-0.0040622279047966,0.0011152026709169,0.4492047727108001,0.8934188485145569,0.1728766181726652,0.0024255448459489,-6.12312713115588e-06,0.0088516185060143,0.0021026981994509,0.2682862877845764,-0.004004624672234,0.0010390877723693,0.4523481130599975,0.8918319344520569,0.0050582342982643,-0.0019437150312742,0.2599187651695367,0.0014985799789428,0.1414255499839782,0.3882513046264648,87,78,12290,16168
8.6,1788340908593,4.253520965576172,5.746479034423828,-0.0040622279047966,0.0011152026709169,0.4492047727108001,0.8934188485145569,0.1728766181726652,0.0024255448459489,-6.12312713115588e-06,0.0088516185060143,0.0021026981994509,0.2682862877845764,-0.0039400625973939,0.0009625097736716,0.4605539739131927,0.8876224160194397,-0.0012029056559366,-0.0009305188284775,0.2417348667586759,0.3304826617240906,0.3933135271072387,0.4974365234375,97,61,12235,15950
8.7,1788340908693,4.2816901206970215,5.88732385635376,-0.0034730406478047,0.0003046113997697,0.470236986875534,0.8825333118438721,0.1770994591777462,8.41623134881128e-05,0.0001034110029311,0.0003828669141512,-0.0252925679087638,0.2597012817859649,-0.0035169040784239,0.0003612581640481,0.473674863576889,0.880692720413208,-0.0015375904774063,0.0111913326617106,0.2030086046404037,0.3410390019416809,-0.0490884184837341,0.0071048736572265,114,45,13971,12704
8.8,1788340908793,4.563380241394043,5.352112770080566,-0.0037479137536138,0.0002216038992628,0.4782726168632507,0.8782033920288086,0.1678914266183538,0.0008535064976845,1.809308780549276e-06,-0.0032954523339867,-0.0096001746132969,0.1381920576095581,-0.0037103192880749,7.769279181957245e-05,0.4798429906368255,0.8773465752601624,-0.0012660737010154,-0.0188109733103207,0.142091558633508,0.1047478914260864,0.2705028653144836,0.1194295883178711,115,96,13146,13346
8.9,1788340908893,4.563380241394043,5.098591327667236,-0.0036679422482848,2.097710967063904e-05,0.481215238571167,0.8765947818756104,0.1666812853685569,0.0042033101468158,1.423224979088089e-05,-0.0013604307314381,-0.009450938552618,0.1407639682292938,-0.0039465073496103,-0.000120130367577,0.487820953130722,0.8729348182678223,-0.006166453583872,0.0020877081042841,0.1466533078426865,-0.0365275740623474,0.3389568924903869,-0.7839078903198242,91,124,12799,16378
9.0,1788340908993,4.309859275817871,5.042253494262695,-0.0039258399046957,-0.000145906000398,0.4900430738925934,0.8716894388198853,0.1621329405985902,0.0044434033010137,2.157447330670315e-06,-0.0016985854599624,-0.0009300373494625,0.1404579281806945,-0.0039792014285922,0.000272549688816,0.4939879179000854,0.8694595694541931,0.0050440649179594,0.0212889813007008,0.1482192000241905,0.0276092290878295,0.0455350279808044,-0.1419715881347656,80,164,12628,13083
9.1,1788340909093,4.591549396514893,5.577464580535889,-0.004089836962521,0.0001235323725268,0.4958861470222473,0.8683779239654541,0.1715267842842024,-4.033289391432567e-05,-2.734330770249681e-05,-0.0064673605374991,0.0008584493189118,0.139109805226326,-0.0040258588269352,-0.0003296509385108,0.5027919411659241,0.8643980622291565,-0.001420497876693,-0.0146728877267357,0.2366941063143258,0.0482441782951355,0.4390659928321838,0.4900417327880859,71,134,12230,18057
9.2,1788340909193,4.422535419464111,6.647887229919434,-0.004191574640572,-2.440367825329304e-05,0.5051605105400085,0.8630151748657227,0.177991976685626,0.0042950379250622,-3.675730701561758e-05,-0.0012040807632729,0.0189485307782888,0.2505398094654083,-0.0042637549340724,-7.564201951026915e-06,0.5096780061721802,0.8603547215461731,-0.0049434981008474,2.3332301783533347e-05,0.2796035554980774,0.0340110659599304,0.2406905889511108,-0.0819005966186523,81,137,10947,13537
9.3,1788340909293,4.0,6.02816915512085,-0.0041925213299691,-0.0003415060928091,0.5184032917022705,0.855125904083252,0.1725313251431831,0.0004335153418081,-8.473754639037438e-06,-0.003294535446912,-0.0019792751409113,0.2836289405822754,-0.0042134290561079,-0.0005095545202493,0.5216769576072693,0.8531326055526733,-0.0091383012473218,-0.018746352519481,0.315720961664243,0.1112169623374939,0.3740310668945312,-0.6183156967163086,86,150,12280,13814
9.4,1788340909393,4.197183132171631,5.492957592010498,-0.0043705264106392,-0.0004272885853424,0.5242043733596802,0.8515811562538147,0.1721791440020052,0.0122654087521097,6.980476375730321e-06,-0.0088331345468759,-0.0002785317774396,0.2865292131900787,-0.0043684309348464,-0.00058766733855,0.5357775688171387,0.8443475961685181,-0.0014165291565354,-0.0016262010630864,0.2597852415745386,0.1477341055870056,0.1187470555305481,0.1476736068725586,96,104,12046,16901
9.5,1788340909493,4.197183132171631,5.7183098793029785,-0.0043453206308186,-0.0006137890741229,0.5355386137962341,0.844499409198761,0.1691526567817319,0.0077901406476124,2.087297655442944e-05,-0.0008023546542972,-0.0040982719510793,0.2808060050010681,-0.0047635519877076,-0.0001758560538291,0.546063244342804,0.837730348110199,-0.0035503731543818,-0.0107780058481592,0.2798580607249822,0.032008409500122,0.4144729971885681,0.2654857635498047,100,27,12058,16009
9.6,1788340909593,4.2253522872924805,6.563380241394043,-0.0047395294532179,-0.000153571832925,0.5409750938415527,0.8410252332687378,0.1647087904717708,0.0106729481424794,-5.617733354499841e-05,-0.004063619300723,0.0237521100789308,0.2670582830905914,-0.0047635519877076,-0.0001758560538291,0.546063244342804,0.837730348110199,-0.0035503731543818,-0.0107780058481592,0.2798580607249822,0.032008409500122,0.4144729971885681,0.2654857635498047,97,110,12014,13110
9.7,1788340909693,5.070422649383545,5.295774459838867,-0.0042038122192025,-0.0004649698967114,0.564217746257782,0.8256152272224426,0.1695010076424458,0.0031344544311603,4.484784661607676e-05,0.0084870271384716,-0.0165648981928825,0.2687557935714721,-0.0033167880028486,-0.0004733018577098,0.5699977874755859,0.8216394186019897,0.017725128277269,-0.0270088326049005,0.1795551296577492,0.178206205368042,-0.0803339481353759,-0.8320293426513672,119,63,13717,12335
9.8,1788340909793,5.070422649383545,5.295774459838867,-0.0033251966815441,-0.0004008552059531,0.5694460868835449,0.8220218420028687,0.1752642918094453,-0.0011733139787562,4.002146180780091e-05,0.0072056027129292,-0.0071603478863835,0.0394593775272369,-0.0029466599225997,-0.0003292728215456,0.5676836967468262,0.8232414722442627,0.0086386037583975,-0.0001622078872433,-0.0733430292361645,-0.1750218868255615,-0.0478814244270324,-0.0349025726318359,134,26,15205,11273
9.9,1788340909893,4.985915660858154,4.760563373565674,-0.0027240184135735,-0.0006458380958065,0.566450297832489,0.8240911960601807,0.1691661256641037,-0.0008423650017114,2.4952466351244814e-06,0.0048875384964048,-0.0118013769388198,-0.0754425674676895,-0.0026192544028162,-0.0007433034479618,0.5664733648300171,0.8240755796432495,0.0018621652246815,-0.0260842996612545,-0.0734033137951094,0.1197875142097473,-0.1423217058181762,0.063878059387207,53,153,11727,17139
10.0,1788340909993,5.126760482788086,5.267605781555176,-0.0023782739881426,-0.0002274916623719,0.5689187049865723,0.8223903775215149,0.1608451770896536,0.0031030532976154,-6.170396085160494e-07,0.0098285740241408,-0.0043461006134748,0.0615827105939388,-0.001950342208147,-0.0005536656826734,0.5694815516471863,0.8220016956329346,0.0051574740590124,-0.0261129229818205,0.0002013564047306,-0.083272635936737,-0.1302966475486755,-0.3476533889770508,98,45,14068,12787
10.1,1788340910093,4.957746505737305,4.676056385040283,-0.0023782739881426,-0.0002274916623719,0.5689187049865723,0.8223903775215149,0.1733917627383809,-0.0007053079060521,-8.184609837376162e-10,0.0,0.0,0.0,-0.0019903788343071,-0.0003972258418798,0.5691378116607666,0.8222396969795227,0.0053507573434716,-0.0060527516740349,-0.0105804708398855,-0.1054124236106872,0.0232353210449218,-0.3883829116821289,78,99,14544,15143
10.2,1788340910193,5.014084339141846,4.901408672332764,-0.0017559099942445,-0.0006829782505519,0.5688068270683289,0.8224689364433289,0.172096180188756,-0.0004948635560798,0.0001111218786219,0.0069031869061291,-0.0210661832243204,-0.0043357950635254,-0.0014434028416872,-0.0007458301261067,0.569081723690033,0.8222793340682983,0.0041179419093469,0.0189709025266284,-0.0065752245456262,-0.1189837455749511,0.1923648118972778,-0.3464107513427734,89,169,14217,14462
10.3,1788340910293,4.929577350616455,4.901408672332764,-0.0010462349746376,-0.0010979779763147,0.5696743130683899,0.8218691349029541,0.1785832905162225,-6.255683037565488e-05,3.518509355094401e-05,0.009233720600605,-0.0182424243539571,0.046740747988224,-0.000540941953659,-0.0012525953352451,0.5718440413475037,0.820361316204071,0.0124075873617745,-0.0173647596868003,0.0598860397572306,0.217469573020935,-0.2219157814979553,0.4373207092285156,100,131,13113,16339
10.4,1788340910393,4.760563373565674,5.746479034423828,-0.0005585192120634,-0.0011319629848003,0.5719478726387024,0.8202890157699585,0.1724008976284139,-0.0042301955863111,-2.3289044970816967e-05,0.0157498717308044,0.0041382210329174,0.0777864679694175,-0.0005910750478506,-0.0009776558727025,0.5728235244750977,0.8196778893470764,0.0008795451934233,0.0075940173952837,0.0232368909693164,0.1174761056900024,-0.0398055911064147,-0.3110685348510742,73,165,14152,12344
10.5,1788340910493,5.070422649383545,5.605633735656738,-0.0005876464419998,-0.0017523332498967,0.5734233260154724,0.8192571401596069,0.1762946184589098,-0.0004868664749716,7.087748949242972e-05,-0.0128787457942962,-0.0156465806066989,0.0401102490723133,-0.0005015647038817,-0.0014548599720001,0.5732148885726929,0.8194037079811096,-0.0101877300192028,-0.0225600420878861,0.0243288720123833,0.099036693572998,0.0658443570137023,0.3072004318237304,90,105,12892,12710
10.6,1788340910593,4.8450703620910645,5.323943614959717,-0.0007486442336812,-0.0016952217556536,0.574314534664154,0.8186326026916504,0.1707455169194231,-0.00052315933345,-4.482293124999748e-06,-0.0040650465525686,0.0057057477533817,0.0451755635440349,-0.0005015647038817,-0.0014548599720001,0.5732148885726929,0.8194037079811096,-0.0101877300192028,-0.0225600420878861,0.0243288720123833,0.099036693572998,0.0658443570137023,0.3072004318237304,43,178,12621,13569
10.7,1788340910693,5.042253494262695,5.323943614959717,-0.0009171382989734,-0.0028730425983667,0.5793064832687378,0.8151041865348816,0.1809845134120103,0.0007087763901214,3.3170681471758265e-05,-0.0147931389510631,-0.0083403997123241,0.0548615343868732,-0.0009555490687489,-0.0032602027058601,0.5804252624511719,0.8143064975738525,-0.018584068283684,-0.0251172946738207,0.0719391620558164,-0.0938029289245605,0.2951001524925232,-0.6367912292480469,86,25,12218,14267
10.8,1788340910793,4.647887229919434,5.042253494262695,-0.0009562195045873,-0.003780263941735,0.582353413105011,0.8129264712333679,0.1704111643322114,0.0011294234507664,5.535030949667826e-05,-0.0115015907213091,-0.0191692989319562,0.1149849370121955,-0.0011273520067334,-0.0037092417478561,0.5849615335464478,0.8110518455505371,-0.0050947634216938,0.0219679981472419,0.1654711576915071,-0.0414591431617736,-0.1376138925552368,-0.440826416015625,65,84,12090,16524
10.9,1788340910893,4.478873252868652,5.830986022949219,-0.0010751690715551,-0.0041126706637442,0.5902643799781799,0.8071988224983215,0.161315112928278,0.0060991935717233,2.1818087333784505e-05,-0.0025687580928206,-0.0119297048076987,0.1773389726877212,-0.0006883218884468,-0.004580738954246,0.5938813090324402,0.8045392632484436,0.0037678707157539,-0.027682312728009,0.1565422148665349,-0.1401444673538208,-0.0234625339508056,0.7001628875732422,74,121,12808,13890
11.0,1788340910993,4.478873252868652,5.830986022949219,-0.0008330618729814,-0.0043949461542069,0.5963402986526489,0.8027192950248718,0.1655435701369711,0.0033606669826018,-1.187846562122419e-05,0.000611487601418,0.0035266389604657,0.155068889260292,-0.0006883218884468,-0.004580738954246,0.5938813090324402,0.8045392632484436,0.0037678707157539,-0.027682312728009,0.1565422148665349,-0.1401444673538208,-0.0234625339508056,0.7001628875732422,74,121,12808,13890
11.1,1788340911093,4.478873252868652,6.0,-0.0005526877939701,-0.0045470464974641,0.6001476049423218,0.7998761534690857,0.1682297066457241,0.0014597250097649,3.602055633638089e-05,0.0019868561066687,-0.011005088686943,0.1046020537614822,-0.000191643834114,-0.0047461595386266,0.6048174500465393,0.7963499426841736,0.0037369052421238,-0.0144168622103123,0.1485098987755662,-0.1879143714904785,-0.3411551117897033,1.216170310974121,90,72,13228,13158
11.2,1788340911193,4.901408672332764,4.816901206970215,-0.0003098011948168,-0.0047110803425312,0.6032283306121826,0.7975545525550842,0.1738464994271094,0.0026895923026676,2.0506811705267955e-05,0.0045648203231394,-0.0121619505807757,0.1621531546115875,0.0001420704647898,-0.0044870777055621,0.6076529026031494,0.7941901087760925,0.013639399705466,-0.0067805869041984,0.0833436306709484,0.132318913936615,-0.2925865650177002,-0.3727941513061523,117,93,14165,14902
11.3,1788340911293,5.014084339141846,4.929577350616455,0.000216906890273,-0.0045162867754697,0.6074656248092651,0.7943331003189087,0.1765158139458761,0.0012732057409657,1.4231554302575156e-05,0.0085465982556343,-0.004276568070054,0.0567927174270153,0.0001184195280075,-0.0040945718064904,0.6094590425491333,0.7928069829940796,0.0026353456164855,-0.0172490509840319,0.0417047623273534,-0.213680624961853,-0.2371014356613159,-0.0138578414916992,94,56,13481,15086
11.4,1788340911393,4.535211086273193,5.380281925201416,0.0002844621194526,-0.0043223993852734,0.6098120808601379,0.7925342321395874,0.1706581570270065,0.0023770474337508,5.495728128499208e-05,0.0010888706892728,-0.0129592260345816,0.0437027998268604,0.0002262042835354,-0.0043175667524337,0.6109205484390259,0.791680097579956,-0.0030315662734052,0.0020267698845554,0.0534842468959254,-0.1165620684623718,-0.140820026397705,0.4464931488037109,66,164,12937,17641
11.5,1788340911493,4.507042407989502,5.690140724182129,6.413378287106752e-05,-0.0039089387282729,0.6152675151824951,0.7883086800575256,0.1771458612966757,0.0016854281159206,-2.413403434785036e-05,0.0008870590245351,0.0052045099437236,0.1521273106336593,6.21899962425232e-05,-0.0039256969466805,0.6161935329437256,0.7875850200653076,-0.0021075030098665,0.0035482103230335,0.1551805590305297,-0.0736255645751953,-0.2489178776741027,0.0922174453735351,94,74,12691,14622
11.6,1788340911593,4.507042407989502,5.690140724182129,3.5404693335294724e-05,-0.0035310578532516,0.621062695980072,0.783752977848053,0.1736947244232824,0.0007488596443822,-4.52656340940854e-07,0.0002520764246582,0.010810537263751,0.1509537249803543,-0.0003290213644504,-0.0032365676015615,0.626202404499054,0.7796537280082703,0.0041093335202946,0.0123511070050269,0.1699565256677639,-0.1693593263626098,0.3160020709037781,0.3313121795654297,94,74,12691,14622
11.7,1788340911693,3.802816867828369,6.0,-0.0007548439316451,-0.0024588457308709,0.6314208507537842,0.7754360437393188,0.1710023541540116,-0.0004397005309931,-8.53035545541731e-05,0.006126606836915,0.0323038101196289,0.1783639043569564,-0.0007871873676776,-0.0023873038589954,0.6319428086280823,0.7750110030174255,0.0054101842667209,0.0356680223505948,0.1760851208677552,0.015558898448944,-0.017132818698883,-0.2661724090576172,39,210,10675,18139
11.8,1788340911793,3.7183098793029785,6.3380279541015625,-0.0012410848867148,-0.0019010349642485,0.6366485953330994,0.7711507678031921,0.1792987118219711,0.0017044787017021,-9.152306024267616e-05,-0.000632562499959,0.0301435329020023,0.281078577041626,-0.0020957896485924,-0.0014984738081693,0.6480060815811157,0.7616308331489563,-0.0087708399248955,0.0476492414125263,0.408658413037685,-0.0332822203636169,0.0222212076187133,0.1792879104614257,55,162,11171,16479
11.9,1788340911893,4.084506988525391,5.802816867828369,-0.0022664633579552,-0.0011904102284461,0.6508188843727112,0.7592286467552185,0.171891667745576,0.004119418426953,-0.0001300102012403,-0.0029141025152057,0.041265495121479,0.4089917540550232,-0.002733121626079,-0.0007588909938931,0.6620305180549622,0.7494716048240662,-0.0084626276288595,0.0002269915265635,0.4121213743914663,0.5437070727348328,0.1641994714736938,0.0764236450195312,153,122,12622,15665
12.0,1788340911993,4.084506988525391,5.577464580535889,-0.0033131125383079,3.181351348757744e-05,0.6711161732673645,0.7413447499275208,0.1748202788986036,0.0063967867625399,-8.458729148578094e-05,0.0053202016279101,0.0198115427047014,0.2772696018218994,-0.0033320672810077,0.0001009684056043,0.6714470386505127,0.7410451769828796,0.0082010907739351,0.0303727586590618,0.2787115524285797,0.1366469264030456,0.28338623046875,0.5344209671020508,108,33,12878,16270
12.1,1788340912093,4.056337833404541,5.380281925201416,-0.0039886548183858,0.0003734140191227,0.6799467206001282,0.7332504987716675,0.1667623015345534,0.0062128712990134,-1.309175226175932e-05,-0.0076826205477118,0.0139258615672588,0.2349791973829269,-0.0043565705418586,0.0007215859368443,0.6823871731758118,0.7309775948524475,-0.0038353126076055,0.0480247871620238,0.2427072892713618,0.0821180343627929,-0.0394772887229919,-0.4025869369506836,84,65,12697,16838
12.2,1788340912193,4.394366264343262,6.169013977050781,-0.0046123620122671,0.0008601393783465,0.6842531561851501,0.7292293906211853,0.1658779036479166,0.007373082429525,-0.0001001864484647,-0.0059732324443757,0.0317380763590335,0.2444129884243011,-0.0050227046012878,0.0012726197019219,0.6887083053588867,0.7250201106071472,0.0013526521979701,0.0006578109277109,0.1475156931425696,-0.0410776138305664,-0.0697413682937622,-0.1099863052368164,76,164,11763,14600
12.3,1788340912293,4.14084529876709,5.746479034423828,-0.0051641492173075,0.0014614508254453,0.6906737685203552,0.7231466174125671,0.1623720556752593,0.0045191600881327,1.1080347568708004e-06,0.0007779105217196,0.0104238679632544,0.1905198097229004,-0.0058363145217299,0.0022345138713717,0.6964137554168701,0.7176133990287781,-0.0053331566351527,0.030651700019607,0.2509690277548828,-0.0431122779846191,0.3039011359214782,0.1252031326293945,82,73,12384,17025
12.4,1788340912393,4.535211086273193,6.02816915512085,-0.005963328294456,0.0021680118516087,0.6990334391593933,0.7150608897209167,0.1685873579864899,0.0050790109096126,-4.83542698785304e-05,-0.0083059985190629,0.0095983780920505,0.2332996129989624,-0.0059000197798013,0.0021492131054401,0.7038396596908569,0.7103311419487,0.0030746647587103,-0.0107827777801532,0.2333612176605859,-0.1469126939773559,0.086148977279663,0.0074625015258789,88,76,12895,13052
12.5,1788340912493,4.619718074798584,5.295774459838867,-0.0059066242538392,0.0022492418065667,0.7075029015541077,0.7066821455955505,0.1786124726803397,0.0012134345979486,1.2656793530566616e-06,0.0013274007942527,-0.0002300185442436,0.1952119618654251,-0.0054739005863666,0.0021889870986342,0.7112599611282349,0.7029043436050415,0.0026235366933111,-0.0206142886299655,0.1691061191741812,-0.0468086004257202,0.339573323726654,-0.5931529998779297,96,44,12774,15490
12.6,1788340912593,4.450704097747803,6.253520965576172,-0.0053284685127437,0.0019774842076003,0.7128157615661621,0.7013283371925354,0.1693626110867325,0.005966057139749,4.1539013063651774e-05,-0.0023307898081839,-0.013967216014862,0.1563207358121872,-0.0053184414282441,0.0022375639528036,0.7163078784942627,0.6977605223655701,0.0047662288966854,-0.0006119160028698,0.1710032214920158,0.1087512969970703,-0.0451621413230896,0.4095325469970703,85,112,13348,12362
12.7,1788340912693,5.098591327667236,5.380281925201416,-0.0052626556716859,0.0021304693073034,0.7184450030326843,0.6955606341362,0.1735786820250119,0.0017571063426981,-2.1203440572088597e-05,-0.0018460653955116,-0.0046210349537432,0.1640173643827438,-0.0051309596747159,0.0022430513054132,0.7226476073265076,0.6911939978599548,0.0059331359989393,0.0101671145084806,0.1637921142423894,0.6980622410774231,-0.1133407354354858,-0.0587806701660156,145,26,15676,10459
12.8,1788340912793,5.464788913726807,4.3380279541015625,-0.0050998479127883,0.0021625433582812,0.7226390242576599,0.6912034153938293,0.1779515856583912,0.0026386283627753,-1.714407202511676e-05,-0.0001218112884089,0.001632357481867,0.0624129734933376,-0.0046572592109441,0.0015998873859643,0.7219300270080566,0.691948652267456,0.0023546508852756,-0.0440925087563967,-0.1002900629962772,0.0430511236190795,-0.1433106064796447,0.0478887557983398,99,110,13879,13944
12.9,1788340912893,5.295774459838867,4.422535419464111,-0.0044752252288162,0.0014519548276439,0.7182645797729492,0.6957541704177856,0.1686741193977699,0.0016016390811033,-1.7000888890072862e-05,0.0042469222098588,0.0006803798023611,-0.1040459051728248,-0.004431152716279,0.0014440128579735,0.7177183628082275,0.6963179707527161,0.0032200446720618,-0.0082020501342141,-0.1083191432272472,-0.035713791847229,-0.1622298955917358,1.103780746459961,107,68,14395,14078
13.0,1788340912993,5.098591327667236,5.267605781555176,-0.004303777590394,0.0012658031191676,0.7167611718177795,0.6973043084144592,0.1630715361486531,-0.0074673628108197,1.127377255354764e-05,-0.0002234497660538,-0.0104620400816202,-0.0910554230213165,-0.0039779935032129,0.0008863797411322,0.7154854536056519,0.6986157894134521,0.0054506533300454,-0.0050380189435007,-0.0543028204708588,0.0339971184730529,0.2456797957420349,0.1696290969848632,66,67,14639,11555
13.1,1788340913093,5.154929637908936,5.042253494262695,-0.0039494535885751,0.0009189571719616,0.7150044441223145,0.6991081833839417,0.1780436010969882,-0.0015737026175007,1.3948777363445071e-05,0.0043439520522952,-0.0040753008797764,-0.0525149442255497,-0.003213214688003,0.0005907248705625,0.7140899300575256,0.7000463604927063,0.0146117425688993,-0.0391622758595391,-0.0445590571191554,0.004860520362854,-0.1716059446334839,0.1085929870605468,89,135,14419,12682
13.2,1788340913193,5.098591327667236,5.014084339141846,-0.0032023121602833,0.0004973679315298,0.7134919762611389,0.7006558179855347,0.1829274730298534,-0.0063650851999093,-2.013978424961717e-08,-0.0006203236989676,-0.0137553177773952,-0.0387942194938659,-0.0029201619327068,0.0003578159958124,0.7125056385993958,0.7016603350639343,0.0046846123706253,-0.0185519130521877,-0.0496790231231084,-0.022098958492279,0.2431642413139343,-0.0245342254638671,70,39,14562,12375
13.3,1788340913293,5.183098793029785,5.126760482788086,-0.0025643021799623,0.0001041705254465,0.7116082310676575,0.7025718688964844,0.1778488659343932,-0.0032291262002087,3.094222724478599e-05,0.0018880256684496,-0.0184631142765283,-0.0393449626863002,-0.0025533707812428,-0.000136406160891,0.7104453444480896,0.7037477493286133,-0.0090820310041276,0.003621582865119,-0.0488686430655441,0.4943394064903259,0.1133650541305542,1.0424728393554688,86,167,14476,12525
13.4,1788340913393,5.211267471313477,5.521126747131348,-0.0025918544270098,-0.0002314379671588,0.7095646858215332,0.7046354413032532,0.1811269604118165,-0.0023814287589306,-1.945471548695441e-06,-0.0087445816025137,0.0005433473852463,-0.0596347786486148,-0.0026294151321053,-0.0002882983535528,0.7092044949531555,0.7049979567527771,-0.0004137458455514,0.0016199682981646,-0.0473630311105708,-0.0410774946212768,0.0601540207862854,0.3267173767089844,99,96,14371,11008
13.5,1788340913493,5.295774459838867,5.239436626434326,-0.0023689037188887,-0.000474700005725,0.7080660462379456,0.7061420679092407,0.1790185800061191,-0.002967207523278,6.912279703891625e-06,0.0022834751289337,-0.0039199842140078,-0.0353257171809673,-0.0026069143787026,-8.791685104370117e-05,0.7069651484489441,0.7072436809539795,0.0067474148957338,0.0015202379016629,-0.0561120492500708,0.0918676257133483,-0.1527801752090454,-0.4298019409179687,80,39,14240,12062
13.6,1788340913593,5.267605781555176,5.323943614959717,-0.0027071975637227,-0.000215733423829,0.705622136592865,0.7085831165313721,0.182684672883996,-0.0022321847005247,-2.2820357175113045e-05,-0.0076423161663115,0.00625109532848,-0.0667576715350151,-0.0025531649589538,-0.0007475474849343,0.7050579190254211,0.709144651889801,-0.0086517008728001,-0.0111074286031998,-0.0341379100222767,-0.2872382998466491,-0.0127705335617065,0.3151979446411133,83,151,14265,11978
13.7,1788340913693,5.408450603485107,4.647887229919434,-0.0021576299332082,-0.0008672859403304,0.7031834721565247,0.7110045552253723,0.1771099461635541,-0.0034742093043067,5.4101093465024046e-05,0.0013054485898464,-0.0208434909582138,-0.0633988082408905,-0.0021395366638898,-0.0008546561002731,0.7025972604751587,0.7115840315818787,0.0009242220792555,-0.0010855245569824,-0.1119890211338433,0.3413299322128296,-0.1795318126678466,-0.0563278198242187,117,118,16220,11994
13.8,1788340913793,5.352112770080566,4.563380241394043,-0.0018576628062874,-0.0011974868830293,0.7007938027381897,0.7133604884147644,0.1816125629358305,-0.0028163165748623,9.114633614544188e-06,-0.0006621194770559,-0.018257075920701,-0.1397560536861419,-0.0017482805997133,-0.0010934947058558,0.6998921632766724,0.714245617389679,0.0028611092833879,0.0161296085165415,-0.0025298629216915,-0.1549988389015197,0.1304408907890319,0.5010509490966797,86,78,13920,14765
13.9,1788340913893,5.436619758605957,4.450704097747803,-0.0016772206872701,-0.0011067576706409,0.6995261311531067,0.7146041989326477,0.1815825557932117,-0.001786910329087,-1.4316932477555167e-05,0.0039136824198067,0.00475252000615,-0.0161883383989334,-0.0014614025130867,-0.0011644754558801,0.6987274885177612,0.7153855562210083,0.0011533231424073,0.0058515958741055,-0.0353026938457872,0.3077923655509949,-0.1449538469314575,-0.1155033111572265,103,82,14096,12493
14.0,1788340913993,5.126760482788086,4.450704097747803,-0.0018934032414108,-0.0008884909329935,0.6978720426559448,0.7162193059921265,0.1819660033422767,6.483157043321043e-07,-4.329740268610816e-05,-0.0054923631250858,0.0211069080978631,-0.0514556877315044,-0.00200458150357,-0.0009861914440989,0.696729302406311,0.7173307538032532,-0.0035699333489601,-0.0045801492179889,-0.057961683978717,0.0366981625556945,-0.4113811254501343,0.4452657699584961,92,103,14524,14601
14.1,1788340914093,4.985915660858154,4.873239517211914,-0.001948106335476,-0.0009971287799999,0.696087658405304,0.7179534435272217,0.1797973825628489,-0.0029392041210161,2.1439268354944775e-05,-0.0009071065578609,-0.003522488521412,-0.0484825670719146,-0.0022440515458583,-0.0005243858322501,0.6955006122589111,0.7185218334197998,0.0034836339850096,0.0143445310041465,-0.0287322618231827,0.0365939736366272,0.3233060836791992,-0.3061790466308594,74,42,13942,14262
14.2,1788340914193,4.985915660858154,5.408450603485107,-0.0021925445180386,-0.0006145369261503,0.6953774690628052,0.7186410427093506,0.1829280984854791,-0.0012462967898616,1.4382535333095696e-08,0.0,-4.825595034674279e-09,0.0,-0.0020342478528618,-0.0009635435417294,0.6953061819076538,0.7187101244926453,-0.0025964357976426,-0.0183467768838688,-0.0135877757389149,-0.1518798470497131,-0.3179827928543091,0.932138442993164,95,62,13937,12362
14.3,1788340914293,5.042253494262695,5.436619758605957,-0.0021690560970455,-0.0007614148780703,0.6951786279678345,0.718833327293396,0.1749764199627249,0.0009186350860734,-2.269953593025345e-09,0.0,-4.842567680185539e-09,0.0,-0.0020424798130989,-0.0006531476974487,0.6959269046783447,0.7181094288825989,0.0045329652136917,-0.0054447306842621,0.0122590060171101,0.0752240419387817,-0.1427798271179199,-0.356475830078125,84,118,14066,12127
14.4,1788340914393,5.211267471313477,5.126760482788086,-0.0023172234650701,-0.0004811635008081,0.6955981254577637,0.7184271812438965,0.1862975997019204,0.0002913767236499,3.53877040614052e-09,4.67915233457461e-05,0.0120821204036474,0.0099412528797984,-0.0025544324889779,-0.0002976357936859,0.6960448622703552,0.7179937362670898,-0.0015317109579491,0.0143005856547055,-4.760655530677636e-05,-0.1257104277610778,0.0235728025436401,0.4090795516967773,81,124,13597,13175
14.5,1788340914493,4.507042407989502,5.239436626434326,-0.0024166218936443,-0.0001386001240462,0.695885181427002,0.7181490063667297,0.1846495467702781,-0.0015770969981671,2.6867711596991008e-08,0.0052847089245915,0.0099884485825896,0.0127241630107164,-0.0023380890488624,3.286544233560562e-05,0.6966085433959961,0.7174476385116577,0.0039871722303386,-0.0052667795877171,0.0126837404370447,-0.3308467268943786,0.0527580976486206,0.6496143341064453,17,72,10006,9944
14.6,1788340914593,1.8591549396514893,4.0,-0.0028277786914259,0.0005634356057271,0.6968905329704285,0.717171847820282,0.1661959177127971,-0.002127034044503,-4.993313575944354e-05,0.0029316518921405,0.0248919650912284,0.0417820438742637,-0.0027993395924568,0.0006762305274605,0.7003531455993652,0.7137908339500427,0.0045453698568079,-0.0089890645341192,0.2220763534394265,-1.33849036693573,0.0557234287261962,0.1652135848999023,74,22,2096,6973
14.7,1788340914693,0.0,2.422535181045532,-0.0026805496308952,0.0004946893313899,0.7043126225471497,0.7098846435546875,0.0723495859762977,0.0023621037696925,1.088289273510418e-05,-0.001791791873984,-0.0104335593059659,0.2756631970405578,-0.0025103567168116,0.0005119750276207,0.7146441340446472,0.6994835734367371,0.0073924228373727,0.0020975268055635,0.4534478521700665,-0.8448854684829712,0.3404502272605896,0.1687631607055664,193,66,-7424,6515
14.8,1788340914793,-2.253521203994751,1.8028168678283687,-0.0025326660834252,0.000539272208698,0.7174869179725647,0.6965672373771667,0.0201145187389646,-0.0019092376086852,-4.674498038921155e-07,0.0033845908474177,0.0017755195731297,0.4287735819816589,-0.0024775089696049,0.0004141237586736,0.7321058511734009,0.6811862587928772,-0.0010962600807342,-0.000583020876036,0.6147729216840507,0.6214603185653687,-0.3294680714607239,0.1338729858398437,47,109,-7055,6548
14.9,1788340914893,-1.7464789152145386,1.6056338548660278,-0.0023849906865507,0.0005924057331867,0.7403396964073181,0.6722285151481628,-0.0019039477331885,-0.0038493748308733,-2.467978592528456e-07,0.0064172600395977,0.0011856415076181,0.5825204253196716,-0.0023889783769845,0.0006240308284759,0.749756932258606,0.6617088317871094,-0.0022930566255893,-0.0030497899555417,0.5429185313318426,-0.0588234663009643,-0.1189225912094116,0.0494251251220703,64,81,-5567,5182
15.0,1788340914993,-1.5774648189544678,1.211267590522766,-0.00243218569085,0.0005896791699342,0.757244884967804,0.6531262397766113,-0.0033542659646045,0.0009930327908539,-2.7016830252561335e-07,-0.0030618743039667,0.0001339087466476,0.5032297968864441,-0.0024782977998256,0.0006722928956151,0.767230749130249,0.6413660049438477,0.0020326696805705,0.0063880888601912,0.4192102299911729,-0.0544779896736145,0.0276790261268615,0.0266742706298828,120,94,-6146,6686
15.1,1788340915093,-1.6619718074798584,1.6901408433914185,-0.0024173269048333,0.0006705810083076,0.7702791690826416,0.6377018690109253,0.0003608210503769,0.00152739466585,6.608491929293889e-08,0.0017090912442654,6.963095802348107e-05,0.432671844959259,-0.0022399993613362,0.0005931202322244,0.7808391451835632,0.6247277855873108,-0.0026937176101313,-0.0077043987016238,0.4775718350242989,-0.0783562064170837,-0.0790231227874755,-0.0150976181030273,97,59,-6055,5250
15.2,1788340915193,-1.6619718074798584,1.5211267471313477,-0.0021611570846289,0.0004473285516723,0.7848619222640991,0.6196666955947876,-0.0022400242838141,0.0002334511667955,-3.843014501437577e-07,-0.0045823394320905,-0.0103409606963396,0.4771102368831634,-0.0021181805059313,0.000167972408235,0.7935494780540466,0.6085020899772644,-0.0080222844195756,-0.0050126628818976,0.448740560198841,0.2454723715782165,-0.0820805430412292,0.0283889770507812,75,129,-5855,5941
15.3,1788340915293,-1.1267606019973757,1.0140844583511353,-0.0024023365695029,0.0003876037662848,0.8054131865501404,0.5927088260650635,0.0017913424612856,-0.0012078456743472,-9.661382697279645e-08,-0.001711476361379,0.0063335872255265,0.3520917296409607,-0.0024550203233957,0.0004117889329791,0.8076187968254089,0.5896996855735779,-0.0026346455251902,0.0038302186806275,0.3054387064503668,-0.0080587267875671,0.0716685056686401,0.0089387893676757,57,144,-4956,5366
15.4,1788340915393,-1.211267590522766,1.211267590522766,-0.0024609745014458,0.000414659793023,0.8100876808166504,0.5863034725189209,2.297599184568792e-05,0.0002574088383388,1.2379277409988532e-08,-0.0012562957126647,0.0022706058807671,0.33026322722435,-0.0025059171020984,0.0004106815904378,0.8167921304702759,0.5769264698028564,-0.0012223863004428,0.0008784484534061,0.3883886386682257,0.0325516462326049,-0.068656325340271,0.0425653457641601,105,62,-5210,5385
15.5,1788340915493,-1.183098554611206,1.154929518699646,-0.0025589421857148,0.0004581182147376,0.8200632929801941,0.5722668766975403,-0.0005680571911917,0.0010848739416919,-4.524643343420096e-08,-0.0006283528055064,0.0029519808012992,0.366774320602417,-0.0025890637189149,0.0004858328029513,0.8259627819061279,0.5637184977531433,-0.0003182736927774,0.0025566029391975,0.3716574757328795,-0.040454089641571,-0.1040797233581543,0.1123886108398437,63,83,-5370,5442
15.6,1788340915593,-0.7605633735656738,0.9295774698257446,-0.0025489809922873,0.0005152813973836,0.8297624588012695,0.558110773563385,0.00092651114931,-0.0006358678534801,-9.707629690610717e-08,0.001174114877358,-0.0006516556604765,0.3588140308856964,-0.0024522868916392,0.0004508998245,0.8350199460983276,0.5502141118049622,-0.0007905446374849,-0.0049571402179307,0.3581235675709921,-0.0462167263031005,-0.0443388819694519,0.0246038436889648,134,74,-4218,3493
15.7,1788340915693,-0.7042253613471985,0.9014084339141846,-0.0023789948318153,0.0003040301962755,0.8396111130714417,0.5431826710700989,-0.0031414043376772,0.000396916609158,-5.454893989845485e-07,-0.0032823006622493,-0.0049775252118706,0.285545289516449,-0.0023474032059311,0.0002216072753071,0.8431152701377869,0.5377278327941895,-0.004101740908472,-0.0005506541968546,0.2038439312251921,-0.0554574728012084,0.0403496026992797,0.0105419158935546,85,104,-4291,4740
15.8,1788340915793,0.0,0.1408450752496719,-0.0023192376829683,0.0001559522352181,0.8452240824699402,0.5344070196151733,0.0012514344182321,0.0015389312261003,-5.8177843199257135e-08,-0.0029960973188281,-0.0032353901769965,0.2233804315328598,-0.0022995453327894,0.0001281341537833,0.8472080230712891,0.5312564373016357,-4.588629486922902e-05,-0.0003902477928262,0.0714781647490491,0.3307503461837768,-0.3005958795547485,0.1174488067626953,177,249,6086,6846
15.9,1788340915893,2.676056385040283,4.084506988525391,-0.0022542178630828,8.345412788912654e-05,0.8465955853462219,0.5322319865226746,0.0132746617801708,-0.0029163714958174,1.2379744494894489e-06,-0.000809749471955,-0.0025001259054988,-0.0004551473539322,-0.002145386300981,-4.92660328745842e-05,0.8478127121925354,0.5302914977073669,0.000282958537663,-0.0136263898516997,0.0892099989955106,1.0054419040679932,-0.0276283025741577,0.0026454925537109,174,203,11912,11081
16.0,1788340915993,4.901408672332764,5.436619758605957,-0.0022823018953204,3.72536014765501e-05,0.8481581211090088,0.529738187789917,0.1172145087862436,0.0024176014192507,2.932130619615166e-05,-0.0003660426591522,-0.0035146160516887,0.0935175195336341,-0.0026604384183883,0.0003288947045803,0.8511507511138916,0.5249144434928894,0.0027501111440328,0.0269305609663204,0.1666241834862865,0.7707515358924866,0.1470195651054382,-0.4154176712036133,160,159,14362,18314
16.1,1788340916093,4.704225540161133,5.239436626434326,-0.0024326262064278,0.0005077559035271,0.8552210330963135,0.5182575583457947,0.1910057495926258,0.002778002272829,-4.495301846774729e-06,0.0030694983433932,0.0002251460537081,0.1864678412675857,-0.0024835858494043,0.0004951218143105,0.8554490804672241,0.5178806781768799,-0.004832062462269,0.0075935740772758,0.1735698605982198,-0.0456042885780334,0.1587246656417846,-0.5457401275634766,94,47,13011,15931
16.2,1788340916193,4.985915660858154,4.985915660858154,-0.0023855024483054,0.0006984217325225,0.8573785424232483,0.5146802067756653,0.1818334626448926,0.0048581803570505,-2.7335065293482165e-06,0.0072572426870465,0.0022496690507978,0.1706444472074508,-0.0020625786855816,0.0005756793543696,0.859535276889801,0.5110719203948975,0.0033968930789002,-0.0033786882527414,0.0948521273977683,0.1190923452377319,-0.0442317724227905,0.671422004699707,100,110,13951,14320
16.3,1788340916293,4.647887229919434,5.549295902252197,-0.0016029387479647,0.0004965836415067,0.8597705960273743,0.5106777548789978,0.1886624072647314,0.0012066189362466,8.150105900169108e-05,0.0088477171957492,-0.0271750707179307,0.0825491845607757,-0.0017217136919498,0.000855934806168,0.8609113693237305,0.508751392364502,0.0034668601713563,0.0010624945669563,0.0408253200857321,-0.3395794630050659,-0.1839586496353149,0.3128681182861328,70,28,12447,14434
16.4,1788340916393,4.563380241394043,5.690140724182129,-0.0016085999086499,0.000896997982636,0.8612858057022095,0.5081176161766052,0.1808600000684841,0.0005466786491112,-6.742064218826673e-05,0.0071769258938729,0.002357895951718,0.0854109972715377,-0.0007397243753075,0.0005877735093235,0.8635838031768799,0.504204511642456,0.0072754183320573,-0.0175417085061466,0.1681383851818177,0.1549184918403625,-0.1136618852615356,0.2563018798828125,80,209,12757,14355
16.5,1788340916493,4.957746505737305,5.577464580535889,-0.0006619980558753,0.000555072329007,0.8651896119117737,0.5014441609382629,0.180399295062956,0.0024562245436642,3.0850468189833295e-05,0.00159829237964,-0.0064288126304745,0.1404489874839782,0.0001393342390656,4.323851317167282e-05,0.8672822117805481,0.4978167116641998,-0.0014013648418835,-0.0436308642379708,0.0981919890349601,0.0616393685340881,0.0684420466423034,-0.2352209091186523,106,74,13384,12135
16.6,1788340916593,4.760563373565674,4.676056385040283,2.60253218584694e-05,0.00016649630561,0.8672063946723938,0.4979488849639892,0.1763871732836149,0.0031470388318684,2.993105193982059e-05,0.0017016596393659,-0.0058064884506165,0.0494852773845195,0.0003615757450461,9.845010936260223e-06,0.8682503700256348,0.4961262941360473,0.0031085131951784,0.0159961242714579,0.0483835772609334,0.0007766485214233,-0.071143627166748,0.5939598083496094,91,76,14298,15303
16.7,1788340916693,4.450704097747803,5.85915470123291,0.0005209509981796,-0.0001903883530758,0.8682826161384583,0.4960694015026092,0.181902482466374,0.0033074057921001,2.6857446092915097e-05,-0.0031531623098999,-0.0083398474380373,0.0408997125923633,0.0006430177018046,-0.0005496637895703,0.8699178099632263,0.4931959509849548,-0.0020052958801197,0.0044534348115471,0.0660100744021133,0.0138991475105285,-0.1146154999732971,0.5991916656494141,70,85,12886,13506
16.8,1788340916793,4.535211086273193,5.436619758605957,0.0003584262449294,-0.000461408519186,0.8704988360404968,0.4921702444553375,0.17674431593966,0.0012490663919124,-3.658708807632231e-05,-0.0037395588587969,0.016327517107129,0.1056227087974548,0.0001393696293234,-0.0006244210526347,0.8728454113006592,0.487996369600296,-0.0047435796911612,-0.0047478571170586,0.1523460741187905,-0.0596832036972045,-0.3007674813270569,-0.2656087875366211,72,124,10418,17831
16.9,1788340916893,4.8450703620910645,5.85915470123291,0.0003132948186248,-0.0007873649010434,0.8770443201065063,0.4804086983203888,0.1797083525808366,0.0037811948123952,-3.630711431768771e-05,-0.0015461244620382,0.0049009751528501,0.1409865170717239,0.0003306847065687,-0.0007676184177398,0.8775299191474915,0.4795211255550384,0.0028133447269102,-0.0076001251740793,0.0526159780793708,-0.216944932937622,-0.1977946758270263,-0.2276773452758789,107,91,14128,11326
17.0,1788340916993,5.098591327667236,5.408450603485107,0.0003597920585889,-0.0009059392032213,0.8774228096008301,0.479716807603836,0.1760914775566613,5.237980431234212e-05,-1.2572550384825524e-05,-0.0033311285078525,-0.004030174575746,0.0323754586279392,0.0004640370607376,-0.0010174736380577,0.877567708492279,0.4794513881206512,0.0042139709299659,-0.0017265772123472,-0.0139080125084804,0.0694292783737182,-0.2161539793014526,-0.2650928497314453,103,156,14374,12502
17.1,1788340917093,5.211267471313477,4.760563373565674,0.0003597920585889,-0.0009059392032213,0.8774228096008301,0.479716807603836,0.1814790919338617,-0.002533907822733,1.2591927071275172e-08,0.0,0.0,0.0,0.0001149531453847,-0.0012095458805561,0.8770567178726196,0.4803851842880249,-0.0178302340147379,-0.0008707848242224,-0.0203568716126314,-0.0529221892356872,-0.0575857758522033,0.3568038940429687,79,157,13764,14783
17.2,1788340917193,5.070422649383545,5.014084339141846,0.0001498663332313,-0.0012671499280259,0.8768529891967773,0.4807569086551666,0.1803645735436651,0.0021748378997463,1.4978780664280012e-05,-0.0117170894518494,-0.00356199988164,-0.0188074596226215,-0.0003801258280873,-0.001113710924983,0.8768622279167175,0.4807404279708862,-0.0079265745583793,0.0354144808778959,-0.0106893376943136,-0.0025713443756103,-0.0825075507164001,-0.7514543533325195,91,102,14308,15539
17.3,1788340917293,4.8450703620910645,5.070422649383545,-0.000172196974745,-0.0011738940374925,0.8767366409301758,0.4809692800045013,0.1807118948432565,-0.0029635149415138,-7.903991381524329e-09,0.0,-6.054523549181566e-10,0.0,-0.0007253512740135,-0.0017172880470752,0.8773526549339294,0.4798426628112793,-0.0157294331333495,0.0133562349218603,0.0403204114032032,0.0337358117103576,-0.1314268708229065,-0.8306446075439453,73,41,13571,14760
17.4,1788340917393,4.788732528686523,5.154929637908936,-0.0010266725439578,-0.0017076198710128,0.8774746656417847,0.4796188771724701,0.1801564591243724,-0.001754515362125,-5.473802832474561e-05,-0.0250759944319725,0.020210638642311,0.0560246780514717,-0.0010411394760012,-0.0020049372687935,0.8786574006080627,0.4774473905563354,-0.0138523484580247,-0.042091849959234,0.0721944563610454,0.0477674603462219,0.0949522852897644,0.2425441741943359,56,28,13776,14436
17.5,1788340917493,4.901408672332764,4.8450703620910645,-0.0012805792503058,-0.0018568661762401,0.8790313005447388,0.4767587184906006,0.1789303964071648,0.0019066674477199,1.1999097221650425e-05,-0.0025162207894027,0.0019676284864544,0.0696969255805015,-0.0015029069036245,-0.0021186424419283,0.8799648880958557,0.4750317633152008,-0.0141092584369028,0.0207791415427539,0.0486592607818794,-0.1023180484771728,-0.0359860062599182,-0.4873914718627929,92,65,13440,15266
17.6,1788340917593,4.816901206970215,5.126760482788086,-0.0016508433036506,-0.0022555873729288,0.8803984522819519,0.4742264747619629,0.1837301473602685,0.0061742740840385,-1.1996861548454443e-05,-0.0076289195567369,0.0038840731140226,0.0479745976626873,-0.0015890467911958,-0.0023495908826589,0.8810008764266968,0.4731062352657318,0.0023020999657002,-0.0099195183149761,0.0314513406077291,0.1458839774131775,-0.0052696466445922,0.217132568359375,84,24,13829,14160
17.7,1788340917693,4.816901206970215,4.8450703620910645,-0.0023065174464136,-0.0020756088197231,0.8821622729301453,0.4709353744983673,0.1875724036202633,-0.0012381949351391,-6.677424801930767e-05,-0.004773371387273,0.0120159471407532,0.0751501247286796,-0.0022929301485419,-0.0021942658349871,0.882599949836731,0.4701141715049743,-0.0072792855577549,-0.0161838113026977,0.0538230532456107,0.0261050462722778,0.2301087975502014,0.2620534896850586,97,95,13910,15016
17.8,1788340917793,5.126760482788086,4.507042407989502,-0.0023159512784332,-0.0022909475956112,0.8828326463699341,0.4696763157844543,0.1793891975567639,0.0012284150417096,7.946313698588901e-06,-0.0080729518085718,-0.0040071592666208,0.0587559267878532,-0.0023711780086159,-0.0022263871505856,0.8838199377059937,0.4678158462047577,0.0019553180572906,0.0034584077662243,0.0439870894329761,0.2756367921829223,-0.2110427618026733,0.3763494491577148,116,61,15088,13681
17.9,1788340917893,5.098591327667236,4.929577350616455,-0.0020433557219803,-0.0021605014335364,0.8836564421653748,0.4681265950202942,0.1832404944896647,0.000293692271879,1.0081807770711484e-05,0.0105217127129435,-0.0110347475856542,0.0271173641085624,-0.0017200391739606,-0.0022176690399646,0.8838045597076416,0.467848002910614,-0.0103576419192444,-0.0214371373105509,-0.0160564762961091,0.0022132992744445,0.1277053952217102,0.3719348907470703,105,20,14241,13286
18.0,1788340917993,5.154929637908936,4.957746505737305,-0.0018373273778706,-0.0022562032099813,0.8835403919219971,0.4683458805084228,0.1811960452352258,-0.0014218407249409,2.9429447322490283e-05,0.0004893153673037,-0.0091625628992915,-0.010078702121973,-0.0019836537539958,-0.0021245628595352,0.882823646068573,0.4696955978870392,0.0062964602087757,0.0129871352866397,-0.0436858663032769,0.2596374750137329,-0.3741130828857422,-0.1452016830444336,124,123,15161,12627
18.1,1788340918093,5.154929637908936,4.478873252868652,-0.0017657184507697,-0.0020673575345426,0.882064700126648,0.4711204171180725,0.1814454042328137,0.0004316541664594,-9.79324236788165e-06,0.0091875456273555,0.0002671947877388,-0.0702079907059669,-0.001829576678574,-0.0018437663093209,0.8816038370132446,0.4719829857349396,0.0069112981199629,-0.0011807842224397,-0.0612016042858768,0.0417479872703552,0.1968951821327209,0.1315765380859375,85,130,13801,15485
18.2,1788340918193,5.154929637908936,4.901408672332764,-0.0015777469379827,-0.0019590307492762,0.8812321424484253,0.4726770222187042,0.1819734304397492,0.0021645646006795,1.831538532617118e-06,0.0024944427423179,-0.011574076488614,-0.0341440998017787,-0.001583183184266,-0.0020995140075683,0.8804436326026917,0.4741435945034027,-0.0014888978396957,0.0009589696910505,-0.0452849941930735,0.0894467234611511,0.0265657901763916,-0.3054885864257812,92,76,13592,14444
18.3,1788340918293,5.014084339141846,5.436619758605957,-0.0015565099893137,-0.0020922813564538,0.8804837465286255,0.4740692377090454,0.1808599447518391,-0.0029288725810644,-2.4352921554932604e-08,0.0,-4.814168175215627e-09,0.0,-0.0019086757674813,-0.0016534812748432,0.8811655640602112,0.4728010892868042,-0.0013266898689784,-0.0030841784635268,0.0459522173561752,-0.1869120001792907,-0.0877769589424133,0.1678686141967773,75,44,13992,12520
18.4,1788340918393,5.042253494262695,5.521126747131348,-0.001940690446645,-0.0016444399952888,0.8808119893074036,0.4734594523906708,0.1792454735444569,0.0024459520995844,-1.3294326941564591e-08,0.0,0.0,0.0,-0.0015715584158897,-0.0019191829487681,0.8815010190010071,0.4721756279468536,0.0062869912241463,-0.0123052944013068,0.0473318683469628,0.010913610458374,-0.2368473410606384,0.5339393615722656,95,102,14011,12365
18.5,1788340918493,4.929577350616455,5.295774459838867,-0.0019412951078265,-0.0017326000379398,0.8814266920089722,0.4723136126995086,0.1832877450868581,0.0016824147126333,3.4664450181709296e-08,0.0,-4.771020911675805e-09,0.0,-0.0018966244533658,-0.0017037857323884,0.8817896246910095,0.4716361165046692,-0.0026753482290168,0.0031457081329676,-0.0028421479960681,0.0730409622192382,-0.2411000728607177,0.0652189254760742,96,62,14516,12876
18.6,1788340918593,4.929577350616455,5.77464771270752,-0.0021177537273615,-0.0016810656525194,0.8815763592720032,0.4720335304737091,0.1828276072506526,-0.0004685787795582,-2.323435844204891e-05,-0.0015911905793473,0.0074593732133507,0.0132428165525197,-0.0017618052661418,-0.0019219638779759,0.8822219967842102,0.4708264470100403,0.0075718901378037,-0.0267387623950818,0.0388868389361926,-0.0838136076927185,0.1951602101325988,0.3436222076416015,57,99,13344,12355
18.7,1788340918693,4.788732528686523,5.605633735656738,-0.0016684455331414,-0.0019157303031533,0.8823525309562683,0.4705820679664612,0.1834415337655391,9.388904566408855e-05,1.864401944052367e-05,0.0024520654696971,-0.014516057446599,0.0521094538271427,-0.0016595665365457,-0.0017596771940588,0.8834145069122314,0.4685862958431244,0.0079453730248658,0.0220902471373299,0.0516792623059898,-0.075789988040924,-0.1769163012504577,-0.4025068283081054,108,53,13852,12542
18.8,1788340918793,4.816901206970215,5.436619758605957,-0.0014809321146458,-0.0020864247344434,0.883624255657196,0.4681897461414337,0.1869624375463502,-0.0014379540752037,-7.100659062439616e-06,-0.0038709274958819,-0.0048334919847548,0.0705675259232521,-0.0012737344950437,-0.0024122614413499,0.884534478187561,0.4664666950702667,-0.0068154172790913,-0.0080024680635926,0.0554141455161896,0.0206338167190551,0.2328716516494751,-0.260472297668457,74,39,13656,13052
18.9,1788340918893,5.126760482788086,5.464788913726807,-0.0011677435832098,-0.0023209224455058,0.8849618434906006,0.4656562805175781,0.175383276375718,0.0021688324658176,1.2898063999330244e-05,0.0024563625920563,5.019278250983916e-05,0.046795018017292,-0.0014077955856919,-0.001977676525712,0.8861836194992065,0.4633277654647827,-0.0035213664164516,0.0020950770831733,0.0382309476148043,0.1524239778518676,0.150460660457611,0.5944385528564453,132,111,14078,11738
19.0,1788340918993,5.126760482788086,4.873239517211914,-0.0013926100218668,-0.0019429101375862,0.8858456015586853,0.4639739096164703,0.1789256962706812,0.0020220817566374,-1.7572928016248194e-08,0.0,0.0,0.0,-0.0014848550781607,-0.0020731715485453,0.8863162994384766,0.4630732536315918,0.0041137406479258,-0.0097686537418139,0.0161476017124442,0.1451208591461181,-0.2102531194686889,-0.1054592132568359,129,133,15078,12676
19.1,1788340919093,5.267605781555176,4.591549396514893,-0.0014443373074755,-0.0020149326883256,0.8859997987747192,0.4636789858341217,0.1857750683316318,-0.0012383844148066,2.1162132461822e-08,0.0,-4.8674806407689175e-09,0.0,-0.0008976636454463,-0.0019242251291871,0.88636314868927,0.4629857838153839,0.010030443167815,-0.0100719080536884,0.0052291534244007,0.1452487707138061,0.2019278407096862,-0.4973268508911133,119,19,14725,13226
19.2,1788340919193,5.295774459838867,5.380281925201416,-0.001119616208598,-0.0016820007003843,0.8854961395263672,0.4646422564983368,0.1786506742959801,-0.0032856200687192,5.284218316373026e-05,0.0093000316992402,0.0020340743940323,-0.0567113049328327,-0.0011441726237535,-0.0018821917474269,0.8838683366775513,0.4677305817604065,0.0018264228960844,0.0106266390285677,-0.1104195365134104,0.0198554396629333,0.1678913831710815,0.0678129196166992,107,46,14528,10936
19.3,1788340919293,5.267605781555176,5.239436626434326,-0.0010650020558387,-0.0018067483324557,0.8819738626480103,0.4712935984134674,0.1838674285322372,-0.0024162579749066,2.4702783990710576e-05,0.0003322988632135,-0.0080694751814007,-0.0756684318184852,-0.0010059736669063,-0.0018356507644057,0.8822553157806396,0.4707665145397186,-0.0054226262502958,-0.0252932514636843,-0.0733863306207971,-0.0838117003440857,0.259787380695343,0.8006381988525391,86,139,14500,11895
19.4,1788340919393,5.126760482788086,4.760563373565674,-0.0009180824854411,-0.0018249278655275,0.8811438679695129,0.4728437662124634,0.1805111853922271,-0.0018975761064663,-4.420845125782643e-06,0.0022412005346268,-0.0056476457975804,-0.073866881430149,-0.000672124326229,-0.0020437641069293,0.8806374073028564,0.4737858772277832,-0.0036021849465517,-0.0165615889254825,-0.0773368384394753,-0.0807617306709289,-0.2220792174339294,-0.4207906723022461,53,146,13466,14884
19.5,1788340919493,5.211267471313477,4.535211086273193,-0.0007325657643377,-0.002115316921845,0.8801836967468262,0.4746279418468475,0.178120084086887,-0.0016968698927538,-3.4663818347418926e-05,-0.003013732843101,0.0132769076153635,-0.0147114070132374,-0.0009985547512769,-0.0020001959055662,0.8804214000701904,0.4741868078708648,0.009477790103195,0.0041999987548508,-0.0072383092757218,-0.1127024888992309,-0.3434764146804809,-0.5202713012695312,101,72,14446,14698
19.6,1788340919593,5.267605781555176,5.352112770080566,-0.0005785133689641,-0.0021637072786688,0.8796643018722534,0.4755898118019104,0.1799856021713015,-0.0021812002850536,1.2106440963913197e-05,0.0009276341297663,-0.0048072258941829,-0.0336653813719749,-0.0007115909829735,-0.0022313399240374,0.8793352246284485,0.4761976301670074,-0.005986275854508,0.0062870025229993,-0.0571689173216884,0.0222309827804565,0.1361614465713501,0.55950927734375,79,100,14435,11979
19.7,1788340919693,5.183098793029785,4.619718074798584,-0.0004873985308222,-0.0023448532447218,0.8788437247276306,0.4771037995815277,0.1804121872963534,-0.0010946328792887,5.2866971014435565e-06,-0.0006969011155888,-0.007510591764003,-0.0268496535718441,-0.0001993896439671,-0.0024747736752033,0.8785275220870972,0.4776854217052459,-0.0002895850821785,-0.0070457473227108,-0.0295412275512973,-0.0619083046913147,-0.0531357526779174,0.3054428100585937,93,120,14777,14455
19.8,1788340919793,5.521126747131348,4.591549396514893,-0.0002160485601052,-0.0023734723217785,0.8780273795127869,0.4786044061183929,0.1843568189127081,-0.0017552164044508,1.1692590421583246e-05,0.0036094563547521,-0.0030046696774661,-0.039795059710741,-0.0005056969821453,-0.0025207633152604,0.8775825500488281,0.4794188141822815,-0.0081141270139489,0.011309130090076,-0.046827410367908,-0.0949977040290832,-0.0079484581947326,-0.2350692749023437,105,37,13598,14292
19.9,1788340919893,5.183098793029785,5.380281925201416,-0.0004524408723227,-0.002668272703886,0.8772015571594238,0.4801146686077118,0.1809520493071612,-0.0014195867285005,1.3987738364979374e-06,-0.0067381598055362,-0.0017156143439933,-0.0293749812990427,-0.0007525961846113,-0.0026189517229795,0.8768166303634644,0.4808173179626465,-0.0122540602054809,0.0138110606223834,-0.0466528285763377,-0.0426173210144043,-0.0970867276191711,0.1903858184814453,78,75,14621,11598
20.0,1788340919993,5.239436626434326,4.929577350616455,-0.0009338953532278,-0.0024709878489375,0.8764467835426331,0.4814915060997009,0.1916637816041442,-0.0037862924035542,-3.424180946255232e-05,0.0005275279399938,0.010770471766591,-0.0196219086647033,-0.0012214845046401,-0.0029006339609622,0.8752973079681396,0.4835750162601471,-0.0182175335958808,0.0053462727636948,-0.0586260766051612,0.0781177282333374,0.0661082863807678,0.739192008972168,98,139,14398,12986
20.1,1788340920093,5.014084339141846,5.211267471313477,-0.0022372524254024,-0.0026722822804003,0.8745490908622742,0.4849244654178619,0.1820187138278753,-0.0012663754811638,-1.6058167810675692e-05,-0.004134340211749,0.0092814601957798,-0.019199239090085,-0.0022777831181883,-0.0026663830503821,0.8747134804725647,0.4846275746822357,0.000211365673331,0.0088499914904927,-0.0108010287691319,-0.1318591237068176,0.0445872545242309,-0.7950267791748047,95,136,13946,13269
20.2,1788340920193,5.126760482788086,4.760563373565674,-0.0022372528910636,-0.0026722827460616,0.8745490908622742,0.4849244654178619,0.1801627514200109,0.0004178641708514,1.7969736237279922e-08,-2.8455168887830954e-08,9.48505629594365e-09,0.0,-0.0023318454623222,-0.0030609350651502,0.8744152784347534,0.485163003206253,-0.0159392020477643,-0.0079769037327766,-0.0530400919308431,-0.0235576033592224,0.2692403793334961,1.6003437042236328,71,133,13810,14455
20.3,1788340920293,4.929577350616455,4.704225540161133,-0.0022704377770423,-0.0031044634524732,0.8740585446357727,0.4858054518699646,0.179653430524631,0.0002356718291531,1.905400304047722e-05,-0.0052263108082115,-0.0030900100246071,-0.0162762235850095,-0.0021004686132073,-0.0035600271075963,0.8739678859710693,0.4859662055969238,-0.0051095932492801,-0.0081607291996425,-0.0158632305660696,0.3535323739051819,0.1661816835403442,0.2786674499511719,85,80,14354,14536
20.4,1788340920393,5.267605781555176,5.295774459838867,-0.0021612648852169,-0.0033791726455092,0.8738271594047546,0.4862201511859894,0.1840896406702762,-2.055080756732065e-05,9.471500532359717e-06,-0.0016653967322781,-0.0032147869933396,-0.0104499626904726,-0.0016753170639276,-0.0036193691194057,0.8737671971321106,0.4863282144069671,-0.0066545608462252,-0.0214829570479763,-0.0256987196434456,-0.0119096040725708,-0.394123911857605,-0.3436155319213867,87,116,13647,12223
20.5,1788340920493,5.154929637908936,4.591549396514893,-0.0014834397006779,-0.0036941077560186,0.8732037544250488,0.4873390793800354,0.1806622692414652,-0.0021110240684913,0.000149956108711,0.0017503692070022,-0.0236956588923931,-0.0410937592387199,-0.0017047831788659,-0.0034606428816914,0.8731463551521301,0.4874428808689117,0.000299308638046,0.0369147604985344,-0.004234111543101,0.0479424595832824,0.2545204758644104,0.0667324066162109,103,118,14902,14029
20.6,1788340920593,5.042253494262695,4.647887229919434,-0.0015788052696734,-0.0032692130189388,0.8724570274353027,0.4886772930622101,0.1775142849645762,0.0001058870273525,-6.965449894981928e-05,0.0134722562506794,0.0123330224305391,-0.0637243911623954,-0.0012787329033017,-0.0034582503139972,0.871771514415741,0.4898988008499145,-0.002441671076697,-0.0076175727363147,-0.0775066754223729,-0.0737223029136657,-0.1973900198936462,-0.0196180343627929,75,83,14038,14875
20.7,1788340920693,4.901408672332764,4.985915660858154,-0.0012577687157317,-0.0034665267448872,0.871609091758728,0.4901877343654632,0.1824844130715805,-0.0040403991048356,-1.3166652414765184e-08,0.0,4.885019055933526e-09,0.0,-0.0012421859428286,-0.0034916782751679,0.8715742826461792,0.4902495145797729,-0.0079546530469292,-0.0024489971595682,-0.0006583977871991,-0.030844509601593,-0.2022693753242492,0.0720691680908203,58,59,13272,15042
20.8,1788340920793,4.957746505737305,5.323943614959717,-0.0012577687157317,-0.0034665267448872,0.871609091758728,0.4901877343654632,0.1767092099259865,0.0048954535889075,-8.072727897590416e-10,0.0,4.806089304310035e-09,0.0,-0.0010075308382511,-0.003135654143989,0.8720706701278687,0.4893690049648285,0.0080347530781015,0.0102745986093789,-0.0059165687692787,0.1338441371917724,0.1221694946289062,-0.7202920913696289,119,92,14407,12956
20.9,1788340920893,5.070422649383545,5.070422649383545,-0.0010957231279462,-0.0033747451379895,0.8717573881149292,0.4899249672889709,0.1834669288903026,0.0005664257170368,1.8274534517438442e-08,0.0,0.0,0.0,-0.0007270146161317,-0.0029477085918188,0.8729069828987122,0.4878773093223572,0.0154778629633197,-0.0150135227427057,0.0565574454080576,-0.1143190860748291,-0.2238012552261352,0.5496673583984375,84,25,13796,13832
21.0,1788340920993,3.436619758605957,5.183098793029785,-0.0010797237046062,-0.0027606491930782,0.8728878498077393,0.4879119396209717,0.1716148949429468,0.0054899234419946,2.704813137215416e-06,0.0036316567566245,0.0131227886304259,0.0342103205621242,-0.0012263087555766,-0.0025418354198336,0.873779296875,0.4863145649433136,-0.0002046169031348,-0.0001698458316879,0.0585412825175043,-1.376166820526123,0.4986063838005066,-0.5012683868408203,40,55,5905,10418
21.1,1788340921093,0.0,3.3521127700805664,-0.0010492430301383,-0.0028111562132835,0.8757188320159912,0.4828119874000549,0.1314240523823443,0.0030392054580773,2.396500904731812e-05,-0.0063602267764508,-0.0118827661499381,0.1993734389543533,-0.0011302521452307,-0.0029195109382271,0.881041407585144,0.4730288982391357,-0.0035725360358939,-0.0035266237049626,0.4686109111396782,-0.7940945625305176,0.0829562544822692,0.2127037048339843,5,23,0,9758
21.2,1788340921193,-2.760563373565674,3.070422649383545,-0.0010045251110568,-0.0029193013906478,0.8868111371994019,0.4621216952800751,0.0709806716941151,0.0015672693847987,8.754925390375047e-06,0.0015883030137047,-0.0066486070863902,0.5580005645751953,-0.0012247255071997,-0.0027345726266503,0.8987376689910889,0.4384764730930328,0.0116827376025855,0.0054001852567004,0.8011111038803792,-0.4164562821388244,0.2251327633857727,0.039520263671875,231,99,-12259,8186
21.3,1788340921293,-2.873239517211914,2.281690120697021,-0.0012893442763015,-0.002580305095762,0.9055958986282348,0.424131840467453,0.0100633771436946,0.0009447308338836,9.081944795740881e-08,0.0075431792065501,0.0041129672899842,0.8475689888000488,-0.0014128731563687,-0.0025506308302283,0.9162684679031372,0.4005541503429413,-0.0028754056208607,0.0051891223903399,0.952466228201601,0.1975517868995666,-0.2267476320266723,0.3061304092407226,42,109,-8454,8099
21.4,1788340921393,-2.422535181045532,2.619718313217163,-0.0013398081064224,-0.0026487163268029,0.923203945159912,0.3842988610267639,-0.0029220075569138,-0.0026096785720532,-3.6586001022919314e-07,-0.0031765678431838,-0.0063839671202003,0.8789032101631165,-0.0016622319817543,-0.0026495298370718,0.9300459623336792,0.3674301207065582,-0.0049065577948339,0.0154974719361673,0.6751249039677877,-0.0673639774322509,-0.144848346710205,-0.0207757949829101,124,65,-8861,7376
21.5,1788340921493,-2.169013977050781,2.197183132171631,-0.0019446412334218,-0.0026741039473563,0.9362562894821168,0.3513022661209106,-0.0006875407362973,0.0002844012041704,1.960455636597797e-08,-0.0055220699869096,0.0080435210838913,0.7456566691398621,-0.0021948246285319,-0.002769780345261,0.943371832370758,0.3317185044288635,-0.0070518529113873,-0.0001082968939422,0.752102814222518,0.0603553056716918,-0.3257982730865478,0.2732515335083008,47,20,-7653,6537
21.6,1788340921593,-2.1408450603485107,1.97183096408844,-0.0020212337840348,-0.0028247265145182,0.950231671333313,0.3115249276161194,0.0073852908717034,-0.0023790712114577,9.444580715722234e-07,-0.001431321259588,-0.007251139730215,0.7316741943359375,-0.0020822221413254,-0.0028056232258677,0.9502642154693604,0.311425507068634,-0.0009710187632169,-0.0015159797572164,0.6517403374690024,-0.1935809850692749,0.1000596284866333,0.0967941284179687,128,101,-7542,7462
21.7,1788340921693,-2.08450698852539,2.169013977050781,-0.0019845939241349,-0.0029670004732906,0.95939701795578,0.2820364236831665,-0.0032106698755573,-0.0017645113727548,2.573589815944607e-07,-0.0042090080678462,0.0029770783148705,0.615559458732605,-0.0021160980686545,-0.0028768731281161,0.9643101692199708,0.2647512555122375,0.0020770372332699,0.0019077448532671,0.6663794144273174,0.0789731740951538,-0.0045505166053771,0.3050861358642578,66,129,-8359,7219
21.8,1788340921793,-1.8309859037399288,1.8309859037399288,-0.0022909401450306,-0.0028854180127382,0.9679173231124878,0.2512418925762176,0.0033143768170074,0.000981809431665,-5.776630913441786e-07,-0.0028686884324997,0.0054204161278903,0.6723371148109436,-0.0022673979401588,-0.0029573924839496,0.9700317978858948,0.2429493814706802,-0.004717670292798,-0.0060849730441879,0.6120586904032613,0.0994043946266174,-0.1743637919425964,0.0673637390136718,72,91,-5957,6329
21.9,1788340921893,-1.774647831916809,1.5492957830429075,-0.0022387153003364,-0.0030657253228127,0.9739201664924622,0.2268594205379486,-0.0022988296273716,-0.0008746955547778,-1.1608414180710044e-07,-0.0030594551935791,-0.0050590485334396,0.4851707220077514,-0.0021362090483307,-0.0031467117369174,0.9757222533226012,0.2189787477254867,-0.0036796847557898,-0.0110084968888629,0.4564151246622757,0.0473372936248779,0.1240118145942688,0.1439199447631836,117,152,-7260,7068
22.0,1788340921993,-2.0281689167022705,1.774647831916809,-0.002155581023544,-0.0032349633984267,0.9796246886253356,0.2007994055747985,5.254069955321997e-05,0.0005643725661741,6.17792580910171e-08,-0.0035668555647134,-0.0025237896479666,0.5832075476646423,-0.0021664975211024,-0.003250477835536,0.9805703163146972,0.1961289644241333,-0.003020957334535,-0.0033852314057206,0.5422013008040233,0.0293084979057312,-0.0884746313095092,0.1951494216918945,68,103,-7001,6853
22.1,1788340922093,-1.436619758605957,1.7464789152145386,-0.0021248182747513,-0.0032765581272542,0.9855862855911256,0.1691285222768783,0.0019229445282733,0.0027539180654537,1.6521268241040737e-08,-0.0002701579069253,-0.0047093103639781,0.5803156495094299,-0.0021293265745043,-0.0032733026891946,0.9863110780715942,0.164849504828453,-4.67721161961898e-05,-0.0086988805820508,0.5957981393023818,0.0522012114524841,-0.0391465425491333,0.2761983871459961,95,112,-6458,7116
22.2,1788340922193,-1.4929577112197876,1.6338027715682983,-0.0020765447989106,-0.0032942588441073,0.9896683692932128,0.143322542309761,0.0020131213777878,-0.001809714559307,2.44917730579165e-08,-0.0007391819963231,-0.0007366269128397,0.4945835769176483,-0.002171590924263,-0.00319539103657,0.9915639758110046,0.1295608282089233,0.0022971306348254,0.0016785892911837,0.412831968075763,-0.0642021298408508,0.1428361535072326,-0.0573062896728515,46,34,-5713,4842
22.3,1788340922293,-1.6901408433914185,1.6056338548660278,-0.0020416504703462,-0.0031190384179353,0.9923855066299438,0.1231138035655021,-0.0019157606427303,0.002137218553157,-3.8821821804263674e-08,0.0045476802624762,-0.0087964963167905,0.4503652453422546,-0.0018654679879546,-0.0030110953375697,0.9944195747375488,0.1054381430149078,0.0024508048070127,-0.0073879030161275,0.4877521558224236,0.0088045597076416,-0.1468502283096313,0.1517620086669922,137,112,-6127,5840
22.4,1788340922393,-1.6338027715682983,1.6056338548660278,-0.0017719692550599,-0.0029721343889832,0.9949420094490052,0.1003919914364814,0.0016581129468105,-0.0017592368373037,5.6571003655824724e-08,0.0031217134092003,-0.007803380023688,0.4568995535373688,-0.0017649913206696,-0.0029604779556393,0.9951008558273317,0.0988056510686874,0.0033481939921531,-0.0078040690503327,0.4479407679899223,-0.0247752666473388,-0.0398712158203125,0.0012645721435546,91,59,-6358,5153
22.5,1788340922493,-1.1267606019973757,0.9577465057373048,-0.0016177296638488,-0.0029758193995803,0.9959396123886108,0.0899600610136985,-0.0011461221868376,0.001259443225478,-1.9412068475915845e-07,-0.0001529831351945,-0.0077107362449169,0.4330045580863952,-0.0017402023077011,-0.0030472818762063,0.9975241422653198,0.0702384635806083,-0.001212370548838,0.0056340432439108,0.3434374452772476,0.0466358065605163,-0.0894363522529602,0.0783977508544921,76,86,-4797,5213
22.6,1788340922593,-1.042253494262695,1.183098554611206,-0.0017509697936475,-0.0030616533476859,0.9976513385772704,0.0684058293700218,3.1517477257125542e-06,-0.0007993847081719,2.0459687093123688e-08,-0.0019986366387456,0.0033382545225322,0.3472314774990082,-0.001917639747262,-0.0031817946583032,0.9986735582351683,0.0513564795255661,-0.0022768625380114,0.0027515353855947,0.3297219765062382,0.0437670350074768,-0.0367060303688049,-0.0273542404174804,76,86,-4797,5213
22.7,1788340922693,-1.042253494262695,1.183098554611206,-0.0019059557234868,-0.0031787327025085,0.998579204082489,0.0531584769487381,-0.0003020696645476,0.0012691692205217,-6.909887102259922e-08,-0.0018597167218104,0.0019060363993048,0.3303126990795135,-0.0019660498946905,-0.00316256377846,0.9991014003753662,0.0422218590974807,2.9675245602950825e-05,0.0007783345512917,0.3660902778481744,-0.1236271262168884,-0.0933786034584045,0.058420181274414,45,92,-5548,5228
22.8,1788340922793,-1.1267606019973757,1.183098554611206,-0.001897248905152,-0.0032167851459234,0.9996291995048524,0.0269722957164049,-0.0001649195256795,0.0005814898227293,3.6630925220539816e-08,-0.0025476752780377,-0.0004735742986667,0.3726122677326202,-0.0018795616924762,-0.0032397592440247,0.999792754650116,0.0200107712298631,-0.0023074844749781,-0.0021693740768948,0.3862319407980412,0.0360494256019592,0.0083153843879699,-0.0541229248046875,82,67,-4969,4880
22.9,1788340922893,-1.154929518699646,0.8732394576072693,-0.0016674122307449,-0.0033256758470088,0.9999687671661376,0.0069757369346916,-7.465132422206997e-05,-0.0001417155259471,8.817940566581382e-08,-0.0026715279091149,-0.0062677166424691,0.3371053338050842,-0.0017536329105496,-0.003291361965239,0.9999117255210876,0.0127506926655769,-0.0033446543925206,-0.0079219237956284,0.3828787031815108,0.0104826688766479,-0.0724077224731445,0.1017837524414062,1,93,-2399,3694
23.0,1788340922993,0.0,0.2253521084785461,0.0015167414676398,0.0033086130861192,-0.9999929070472716,0.0009741479298099,0.0020921423883542,-0.0008828100010322,9.631395989132232e-08,0.0007995460182428,-0.0017913789488375,0.080665610730648,0.0015085944905877,0.0033109365031123,-0.9999923706054688,0.0014411769807338,-9.279531657556152e-05,-0.0006713738951911,-0.0190194322286335,-0.0795599818229675,-0.1513627767562866,0.0600337982177734,60,287,2244,6851
23.1,1788340923093,-2.366197109222412,2.366197109222412,0.00130140571855,0.0032849505078047,-0.9999687075614928,0.0070692501030862,0.0317239979613119,0.0007458396190783,5.030487886177386e-06,0.0016995099140331,-0.0083835152909159,0.2746350765228271,0.0014675492420792,0.0033438540995121,-0.9998451471328736,0.0172160863876342,-0.0029095240354532,0.0019132641644516,0.464282208768845,-0.8479015827178955,0.172602117061615,-0.0618085861206054,290,126,-11224,10249
23.2,1788340923193,-2.676056385040283,2.7042253017425537,0.0014471859904006,0.0032592781353741,-0.9991737008094788,0.0404865704476833,-0.006225301946609,0.0072693153011522,-1.2661965117276561e-07,0.0005259421886876,0.0015661631477996,0.8170488476753235,0.001487229950726,0.0031437687575817,-0.9984514713287354,0.0555210746824741,0.0071782127560978,-0.0058480910559383,0.8260199857090811,0.2020158171653747,-0.563044548034668,-0.1873073577880859,99,64,-8825,8548
23.3,1788340923293,-2.2253520488739014,2.0,0.001522462000139,0.0030998822767287,-0.998142421245575,0.0608259998261928,0.0020425984055658,-0.0014836314866001,-4.923611126167958e-07,0.0054572122171521,0.000166900048498,0.858083188533783,0.0009901346638798,0.0031726984307169,-0.9953414797782898,0.0963549390435218,-0.0025038376394609,-0.0139391370729047,0.6270741459833484,0.2611698508262634,-0.622450590133667,-0.1228179931640625,144,151,-9666,9491
23.4,1788340923393,-2.422535181045532,2.5915493965148926,0.0009316150099039,0.003054701257497,-0.99486643075943,0.1011456698179245,-0.0014800309527217,-0.0027225056941397,1.304434793181287e-07,0.0029086957219988,-0.0118741979822516,0.6814320087432861,0.0004391316324472,0.0031407885253429,-0.9910774230957032,0.1332500576972961,-0.0142453014637908,-0.016642922501119,0.8068043814617014,0.0394665598869323,-0.4824543595314026,-0.5913410186767578,88,124,-9422,8252
23.5,1788340923493,-2.507042169570923,2.7042253017425537,0.0005187012720853,0.0030396436341106,-0.9877331852912904,0.1561202108860016,0.0022199282630894,-0.0054678090690744,-5.415103908339659e-07,0.0045193773694336,-0.0020094665233045,0.7789316773414612,0.0004642270505428,0.0030629904940724,-0.98577219247818,0.1680584251880645,-0.0020767912027731,-0.0071755474879109,0.7740753198022188,0.4719149470329284,0.3494246006011963,0.1381416320800781,18,172,-895,14695
23.6,1788340923593,-0.5352112650871277,4.647887229919434,0.0005187012720853,0.0030396436341106,-0.9877331852912904,0.1561202108860016,0.0022199282630894,-0.0054678090690744,-5.415103908339659e-07,0.0045193773694336,-0.0020094665233045,0.7789316773414612,-0.0002091554924845,0.0026765437796711,-0.9804642200469972,0.1966789215803146,0.0130432939476148,-0.0262618548560235,0.8191337436088565,0.7194620370864868,0.1209155321121215,0.234537124633789,43,253,0,17605
23.7,1788340923693,3.633802890777588,6.704225540161133,-0.0004349810187704,0.0023689377121627,-0.9719873070716858,0.2350208312273025,0.1598524198155266,2.999510763882384e-05,4.536395536164409e-05,0.0092787956818938,-0.0102821951732039,0.6689673066139221,-0.0004054429009556,0.0022523226216435,-0.969061553478241,0.2468084692955017,0.0045197301000879,0.0037640009269859,0.5609078083854396,-0.4698008298873901,0.3105128407478332,0.8067026138305664,118,103,10682,20634
23.8,1788340923793,3.633802890777588,6.704225540161133,-0.0004077952471561,0.002180878072977,-0.965096950531006,0.2618833184242248,0.1873700619061098,0.004606598782236,9.672412337682688e-06,0.0033396056387573,0.0045617246069014,0.6003101468086243,-0.0005174130201339,0.0021451814100146,-0.9661173224449158,0.2580938339233398,0.0034600668515694,-0.0077784719161041,0.5585633105276406,-0.1509556174278259,-0.2133092284202575,-0.186410903930664,118,103,10682,20634
23.9,1788340923893,4.253520965576172,6.2816901206970215,-0.000176958128577,0.0022511987481266,-0.9600828886032104,0.2797065079212188,0.1865377588242422,-0.0003444153817531,1.568285957527956e-05,0.0050287782214581,-0.0072645503096282,0.2839994728565216,-0.0004052408039569,0.0022461535409092,-0.9588965177536012,0.2837468683719635,-0.0039402291585952,-0.0112526583309425,0.1778355870380605,-0.3290824890136719,-0.1796194314956665,0.2337770462036132,125,76,12691,13359
24.0,1788340923993,4.14084529876709,5.85915470123291,0.0001109330914914,0.0023845215328037,-0.9575597643852234,0.288224846124649,0.1711215250836996,0.0046576872628289,-3.541032513914585e-05,-0.0008820385555736,0.0169810261577367,0.187096893787384,0.0004610791802406,0.0024070655927062,-0.9563294053077698,0.2922807037830353,0.005486799377653,0.0212077330249718,0.2248247845785153,0.1742421984672546,-0.1341829895973205,-0.4030075073242187,89,125,12794,14990
24.1,1788340924093,3.746478796005249,5.943662166595459,0.0008321353816427,0.0023183370940387,-0.9529324769973756,0.3031725585460663,0.1758316759811284,0.0041375042655114,-2.12644319920156e-05,0.0033342717215418,0.0113995410501956,0.3094519972801208,0.0011455491185188,0.0024060746654868,-0.9515787363052368,0.307393729686737,0.0072921915869983,0.0267454816335866,0.3612608320448173,0.092440128326416,0.3605023026466369,-0.3705968856811523,71,122,11396,17567
24.2,1788340924193,4.197183132171631,5.802816867828369,0.0011342705693095,0.002498377347365,-0.9479129910469056,0.3185175359249115,0.1816275465274513,0.0044789538510287,4.1755286192193365e-06,-0.0016949395649135,-0.0089126145467162,0.3149773478507995,0.0017853723838925,0.0024820454418659,-0.9449533820152284,0.3271906971931457,0.0114710910109259,-0.0003524781947699,0.2612994518725197,0.0885497331619262,0.0724652409553527,0.2838754653930664,71,122,11396,17567
24.3,1788340924293,4.02816915512085,6.197183132171631,0.0019168148282915,0.0026289962697774,-0.9438073039054872,0.3304802179336548,0.1798328298474684,0.0040785162040565,-3.788483483765001e-05,-0.0019451787229627,0.0092138424515724,0.2635906636714935,0.0017853723838925,0.0024820454418659,-0.9449533820152284,0.3271906971931457,0.0114710910109259,-0.0003524781947699,0.2612994518725197,0.0885497331619262,0.0724652409553527,0.2838754653930664,97,49,12672,14093
24.4,1788340924393,4.3380279541015625,6.394366264343262,0.002238986082375,0.0030445670709013,-0.9388235807418824,0.3443775475025177,0.1770943263727808,0.003354103445341,-4.793512443063643e-05,-0.0053910603746771,0.0094560263678431,0.2554627656936645,0.0022587869316339,0.0030406890437006,-0.9383664727211,0.3456213176250458,0.000804063725191,0.0043320892292669,0.270558711252604,0.141322910785675,-0.1724513173103332,-1.1843891143798828,99,151,11839,13716
24.5,1788340924493,4.563380241394043,5.014084339141846,0.0019647348672151,0.0030525652691721,-0.9347619414329528,0.3552559018135071,0.1806131042082081,0.0038123260977228,5.172921245275661e-05,-0.0008545659366063,-0.0119144106283783,0.2462839782238006,0.0018494492396712,0.00289664324373,-0.9337858557701112,0.3578158617019653,0.007067643271909,-0.0199827712304397,0.2193613245084178,0.0385568737983703,-0.1898690462112426,-0.1087598800659179,109,95,13325,15991
24.6,1788340924593,4.563380241394043,5.492957592010498,0.0025582031812518,0.0029901901725679,-0.9321682453155518,0.3620040118694305,0.1767261998370667,0.0037846047557184,-1.2331680377777634e-05,0.0036842941772192,0.0092210629954934,0.1292928457260131,0.002028671093285,0.0025613885372877,-0.9311254620552064,0.3646844327449798,0.0127771389202442,-0.0466640402648982,0.1392029898714741,0.2338441014289856,-0.1002469062805175,-0.2177085876464843,71,27,13264,14268
24.7,1788340924693,4.563380241394043,6.11267614364624,0.0020637491252273,0.0026126336306333,-0.9298478364944458,0.3679292500019073,0.1782305333252354,0.0051150325122786,-9.220009925257723e-06,9.351570042781532e-05,0.0051794773899018,0.1299662888050079,0.0021296273916959,0.0024892408400774,-0.9286051988601683,0.3710548281669616,0.004484815835886,0.0035804930324022,0.1458731009188324,-0.1813438534736633,-0.1386789679527282,-0.1968355178833007,116,39,12875,15405
24.8,1788340924793,4.507042407989502,5.408450603485107,0.0021188696846365,0.0024112537503242,-0.928544819355011,0.3712063133716583,0.1823997187605078,0.0037796148894251,-4.857547178831787e-06,0.0082822674885392,-0.0012048897333443,0.148014023900032,0.0015060910955071,0.0022414987906813,-0.9256775975227356,0.3783035576343536,0.0014651069251296,-0.0048350991865118,0.1488811293017998,0.3340593576431274,0.1114894747734069,-0.4053688049316406,95,76,12944,13088
24.9,1788340924893,4.732394218444824,6.11267614364624,0.0013624939601868,0.0026469812728464,-0.9242556095123292,0.3817627727985382,0.1802160960524239,0.0038825446130394,-2.303142587956432e-05,-0.0139437234029173,0.00029863070813,0.1458461880683899,0.0010834634304046,0.0025753425434231,-0.92214035987854,0.3868453204631805,0.002429714303563,-0.0027461696087614,0.1661542659708852,0.1122353672981262,-0.2396497130393982,-0.6692991256713867,82,143,12047,13035
25.0,1788340924993,4.760563373565674,5.85915470123291,0.0011187534546479,0.0026034421753138,-0.9227430820465088,0.3854050040245056,0.1865643935735235,0.003416421546178,4.1749884314192365e-05,-0.0025942483916878,-0.010476779192686,0.1655913591384887,0.0012849867343902,0.0025582145899534,-0.9203878045082092,0.3909964561462402,0.0037455166639988,0.0024314451518734,0.1042031925436876,-0.0338347554206848,-0.283251404762268,-0.1505775451660156,119,26,13654,13035
25.1,1788340925093,4.732394218444824,4.873239517211914,0.0008844927069731,0.0026413272134959,-0.919683873653412,0.3926498293876648,0.1797059870302338,0.0025162326599897,5.289127845669631e-05,-0.0052750310860574,-0.012394081801176,0.079713225364685,0.0009942930191755,0.0026297476142644,-0.9201027154922484,0.3916670382022857,-0.0112420785900765,-0.0149344152013342,0.0451430409100427,-0.27588951587677,0.1180356740951538,0.0859785079956054,148,31,15077,13677
25.2,1788340925193,5.549295902252197,4.647887229919434,0.0001994561171159,0.0026805512607097,-0.919937551021576,0.3920556604862213,0.1902970915154845,-0.0044175760009001,-3.318404626628445e-05,-0.0078494530171155,-0.0035829986445605,-0.1082645878195762,0.0001536905765533,0.0027332436293363,-0.91982102394104,0.3923288881778717,-0.0099866446352734,-0.0186107359730837,-0.1730511986366533,-0.4500832557678222,-0.261648952960968,0.0932044982910156,63,108,15632,11453
25.3,1788340925293,5.352112770080566,4.929577350616455,-0.0002376738120801,0.002328087342903,-0.9235884547233582,0.3833782970905304,0.1792143850051987,-0.0053753628596672,5.970164771855519e-06,-0.0030118795111775,-0.0087754363194108,-0.2011207789182663,-0.0004799654707312,0.0020649060606956,-0.9262365698814392,0.3769368827342987,0.0098884270103337,-0.0058077813011148,-0.1866257618023541,0.0793848633766174,-0.3294175863265991,-0.4506082534790039,102,56,16219,10480
25.4,1788340925393,5.549295902252197,4.309859275817871,-0.000606894143857,0.0018334964988753,-0.9274266362190248,0.3740002810955047,0.1730286591321091,-0.0063648079499436,3.4377528856543e-05,0.0094671491533517,-0.0131805418059229,-0.1612221002578735,-0.0004764720797538,0.0018880944699048,-0.9271225333213806,0.3747534155845642,0.0110486132262374,-0.0038659782197904,-0.1568358421309656,0.0794611573219299,0.2139724493026733,-0.1485023498535156,72,76,15578,10795
25.5,1788340925493,5.521126747131348,4.2253522872924805,-0.0002951603382825,0.0014705969952046,-0.9303687810897828,0.3666219413280487,0.1782700111148533,-0.0045822884690434,1.0756159664388176e-05,0.0037834134418517,0.0002071013732347,-0.1709985584020614,-0.0007590958848595,0.001368991099298,-0.9323514103889464,0.3615498542785644,0.0033354740556557,-0.0065064418204079,-0.1563882949045294,0.0354506969451904,-0.2260445356369018,0.2394676208496093,80,115,15014,13691
25.6,1788340925593,5.577464580535889,5.239436626434326,-0.0004785943310707,0.0015895196702331,-0.9333314299583436,0.3590122759342193,0.1798940379195031,-0.0048163575951759,2.1555977023093683e-06,-0.0035959326196461,0.0104195205494761,-0.1642610430717468,-0.000261902809143,0.001675889827311,-0.9340541362762452,0.3571273982524872,0.0001797283737838,0.0136557625732105,-0.1476871102064242,0.1055168509483337,-0.1727950572967529,0.4804315567016601,91,99,15041,10101
25.7,1788340925693,5.577464580535889,4.901408672332764,-0.0007707013865001,0.0014580979477614,-0.936060905456543,0.3518342673778534,0.1827306567383254,-0.0028579363702881,2.136906268725307e-05,-0.0016461015911772,-0.0169609580188989,-0.1675317734479904,-0.0011969916522502,0.0012958487495779,-0.9369286298751832,0.3495164811611175,0.0006712655222331,-0.0264399332468721,-0.15960902982767,-0.1896916627883911,-0.2462800145149231,0.7635736465454102,77,105,14982,11296
25.8,1788340925793,5.239436626434326,5.154929637908936,-0.0007707013865001,0.0014580979477614,-0.936060905456543,0.3518342673778534,0.1827306567383254,-0.0028579363702881,2.136906268725307e-05,-0.0016461015911772,-0.0169609580188989,-0.1675317734479904,-0.0010159397497773,0.0010723620653152,-0.9384353160858154,0.3454520106315613,0.0085535364211516,0.0031682231888545,-0.1376654407958162,-0.0566786527633667,-0.3981571793556213,-0.7958745956420898,102,30,14559,12749
25.9,1788340925893,5.267605781555176,5.352112770080566,-0.0012568709207698,0.0010331484954804,-0.9410063028335572,0.338385134935379,0.1796171001573188,-0.002688463884067,1.90029172398004e-05,-0.000942428712733,0.0043178158812224,-0.0926493853330612,-0.0014803279191255,0.0008965656161308,-0.9412093758583068,0.3378195166587829,0.0024342901518414,-0.0205153450865364,-0.0497412368496554,-0.2254033684730529,0.2549337744712829,-0.2348823547363281,94,150,13911,12297
26.0,1788340925993,5.211267471313477,4.450704097747803,-0.0017997606191784,0.0009407480829395,-0.941625475883484,0.3366560637950897,0.1733703281193453,0.0022709806077519,4.4238346170626106e-05,-0.0086342254653573,-0.0189362131059169,-0.0599899813532829,-0.0012174444273114,0.0009270599111914,-0.941378891468048,0.3373477756977081,0.0039463294769117,0.0171608061544376,-0.0332673911624544,-0.0329464673995971,-0.1376776695251464,-0.7193584442138672,115,134,14372,15525
26.1,1788340926093,4.957746505737305,5.042253494262695,-0.0019399534212425,0.0010480482596904,-0.9424074292182922,0.3344600200653076,0.1843499630477112,8.01010468336613e-05,-3.258572425138614e-05,-0.0060529117472469,-0.0040686195716261,-0.0641774386167526,-0.0019944617524743,0.0008591804653406,-0.9420445561408995,0.3354808390140533,0.0065870972920023,0.0066550643490948,0.0487224722565099,-0.1423707604408264,0.0924107432365417,0.1974773406982422,74,148,12886,15384
26.2,1788340926193,4.816901206970215,4.957746505737305,-0.0019959150813519,0.0009134134161286,-0.9415099024772644,0.3369779884815216,0.1738389159216721,0.0010719522858344,2.10409735872266e-05,0.0005773656885139,0.00186545366887,0.0864920169115066,-0.0020853979513049,0.0009378800168633,-0.9409661889076232,0.3384928703308105,-0.0041613382828539,0.0072766969073062,0.1126172721846237,0.457845389842987,-0.016259491443634,0.5157365798950195,87,156,13517,15516
26.3,1788340926293,4.535211086273193,5.85915470123291,-0.0023060606326907,0.0009845832828432,-0.9396827220916748,0.342038094997406,0.184158575800561,0.0013557980248202,3.2892167210911087e-06,-0.0020170763600617,-0.0087040616199374,0.1378543227910995,-0.0023079765960574,0.0012228870764374,-0.9375334978103638,0.347885400056839,-0.005795876903342,0.0046409481048942,0.1824347725046487,0.1100659370422363,0.2120833992958068,-0.0244302749633789,82,91,12042,14052
26.4,1788340926393,4.591549396514893,5.802816867828369,-0.0021536122076213,0.0013628258602693,-0.936822474002838,0.3497956991195678,0.1805950287943151,0.0035467030305553,-6.778389276408986e-06,-0.0057334061712026,0.0080907382071018,0.1793189644813537,-0.0022103656083345,0.0013572620227932,-0.9352990984916688,0.3538488149642944,0.0015681895172871,-0.0041088771197415,0.196823226066725,0.3179014325141907,0.128229558467865,-0.1143131256103515,89,48,12589,13941
26.5,1788340926493,4.647887229919434,5.352112770080566,-0.0019295670790597,0.0014655541162937,-0.9333935976028442,0.358845978975296,0.1787423368939973,0.0035728826903584,-3.634013651445741e-05,-2.343334745091852e-05,0.0097595248371362,0.1643313914537429,-0.0022234395146369,0.0013513704761862,-0.9343950152397156,0.3562290668487549,0.0003236838577459,-0.0013000850001888,0.1692831427512879,-0.0055469274520874,-0.1051177978515625,-0.135411262512207,103,142,12759,15488
26.6,1788340926593,4.478873252868652,5.070422649383545,-0.0021656104363501,0.0017601277213543,-0.930689573287964,0.3657991290092468,0.1760428001406764,0.0052253074275098,2.0754941138960707e-05,-0.0045082052238285,-0.0013647291343659,0.1603713929653167,-0.0021098293364048,0.0017906902357935,-0.9301058650016784,0.3672812283039093,-0.0007738968658963,0.0148885144781607,0.19054281489011,-0.0593159198760986,-0.2185438275337219,0.0274934768676757,77,102,13366,12144
26.7,1788340926693,5.070422649383545,5.802816867828369,-0.0021117380820214,0.0015522188041359,-0.9277896285057068,0.373094379901886,0.1783398150184814,0.0055590031302719,-1.1348401153616183e-05,0.0099021969363093,0.0036199709866195,0.1624675244092941,-0.0023222994059324,0.0014499872922897,-0.9266905784606934,0.3758151531219482,0.0055283116511501,-0.007318060224042,0.1452737084038803,0.159373939037323,-0.1130468249320983,-0.0544033050537109,107,135,12937,15183
26.8,1788340926793,4.816901206970215,5.408450603485107,-0.0021117380820214,0.0015522188041359,-0.9277896285057068,0.373094379901886,0.1783398150184814,0.0055590031302719,-1.1348401153616183e-05,0.0099021969363093,0.0036199709866195,0.1624675244092941,-0.0019571408629417,0.0020102094858884,-0.9258142113685608,0.3779683709144592,-0.0056778268898444,0.0148746178886026,0.0235946047091955,-0.1423050761222839,-0.0625196695327758,-0.0258913040161132,107,135,12937,15183
26.9,1788340926893,3.0422534942626958,3.3521127700805664,-0.0021325945854187,0.001917072571814,-0.9259345531463624,0.3776729702949524,0.1779261939502185,-0.0005250434678592,-5.417272442713202e-05,-0.0056996042840182,0.0033037869725376,0.0321265645325183,-0.0020795371383428,0.0017371121793985,-0.9250240325927734,0.3798990845680237,0.0076677212751273,0.0062931301517004,0.0595917760853399,-1.8049999475479128,0.0461110472679138,0.5597238540649414,44,65,2878,6652
27.0,1788340926993,0.0,1.2957746982574463,-0.0020425668917596,0.0017014590557664,-0.9232401251792908,0.3842142522335052,0.0495633124664959,0.0012746156144608,-2.989356566878867e-06,-0.0004300134896766,0.002433359157294,0.1486791223287582,-0.0020480416715145,0.0016800751909613,-0.9222254753112792,0.3866434097290039,0.0022670308303541,-0.0030022006627584,0.1958094257765442,-0.6260277032852173,-0.0565705895423889,0.3614730834960937,0,27,-2804,3519
27.1,1788340927093,-1.0704225301742554,0.6197183132171631,-0.0021060572471469,0.0015787351876497,-0.9195166826248168,0.3930421471595764,-0.0126662786098298,0.0012779094771879,-8.858076364918736e-08,0.0008468346786685,-0.002606859896332,0.1940639913082122,-0.0021960521116852,0.0015601897612214,-0.9180333614349364,0.3964940011501312,-0.0013213831998048,-0.0048479459965276,0.1818751000540028,0.526379406452179,-0.1218644976615905,-0.1204366683959961,62,80,-4612,4164
27.2,1788340927193,-0.6478873491287231,1.0985915660858154,-0.0022123893722891,0.0014578527770936,-0.9153407216072084,0.4026715159416199,0.0032622883571665,-0.0017436656291615,-2.560429290566622e-08,0.0036679990589618,-0.0021254140883684,0.2704529464244842,-0.0022206250578165,0.0014296220615506,-0.9128875136375428,0.4082026183605194,0.001296609831221,-0.0009865882728847,0.2896213297607656,0.0635060667991638,-0.2648959755897522,0.1675739288330078,107,62,-4711,3755
27.3,1788340927293,2.929577350616455,3.492957830429077,-0.0023493506014347,0.0013506039977073,-0.9091721177101136,0.4164117276668548,0.0271203845667228,-0.0003961469048139,7.148981752300507e-06,0.001339177484624,-0.0048087043687701,0.2850931584835052,-0.0024502836167812,0.0013750130310654,-0.9072861671447754,0.4205044507980346,-0.0040510138835222,0.001144199975151,0.2938839678159481,1.631161093711853,-0.498588502407074,-0.0701799392700195,67,220,3586,9185
27.4,1788340927393,3.633802890777588,3.91549301147461,-0.0026446348056197,0.0012337742373347,-0.9051478505134584,0.4250869452953338,0.1234955353192628,-0.0013021648453268,1.7036369156023774e-05,0.0051759062334895,-0.0082152532413601,0.1569779366254806,-0.0026427097618579,0.0011669481173157,-0.9044885039329528,0.4264882504940033,0.0070234790275148,-0.0091021633145658,0.1165151564758893,1.0806504487991333,-0.0074691176414489,-0.1228141784667968,230,223,14159,15908
27.5,1788340927493,5.211267471313477,4.985915660858154,-0.0028765881434082,0.0009914976544678,-0.9041274189949036,0.4272520244121551,0.1949878805486708,0.0021656172533735,1.237403200333189e-05,5.066922767582582e-06,-0.0039601800963282,0.0202539712190628,-0.0028328159824013,0.0010230494663119,-0.9035228490829468,0.4285295009613037,0.0014665131027099,0.0055399213205294,0.0251431066126127,-0.2530052065849304,-0.1145195364952087,-0.0692634582519531,230,223,14159,15908
