time_s,timestamp_ms,wheel_vels__velocity_left,wheel_vels__velocity_right,odom__orient_x,odom__orient_y,odom__orient_z,odom__orient_w,odom__lin_x,odom__lin_y,odom__lin_z,odom__ang_x,odom__ang_y,odom__ang_z,imu__orient_x,imu__orient_y,imu__orient_z,imu__orient_w,imu__angvel_x,imu__angvel_y,imu__angvel_z,imu__acc_x,imu__acc_y,imu__acc_z,wheel_status__current_ma_left,wheel_status__current_ma_right,wheel_status__pwm_left,wheel_status__pwm_right
0.0,1788351725314,0.0,0.0,0.0003248455759603,-0.0063340398482978,0.9989328384399414,0.0457485243678092,0.0001891098256484,-0.0002168066901493,-2.9668895628449416e-06,9.444596798857674e-05,-0.000610293878708,0.002162946620956,-0.0015001604333519,0.006180889904499,-0.9904556274414062,0.1376853436231613,-0.000734980698863,-0.0009450351313958,0.0001852223056964,0.0195986628532409,0.0082240104675292,0.0025177001953125,0,0,0,0
0.1,1788351725414,0.0,0.0,0.0003248455759603,-0.0063340398482978,0.9989328384399414,0.0457485243678092,0.0001891098256484,-0.0002168066901493,-2.9668895628449416e-06,9.444596798857674e-05,-0.000610293878708,0.002162946620956,-0.0015001604333519,0.006180889904499,-0.9904556274414062,0.1376853436231613,-0.000734980698863,-0.0009450351313958,0.0001852223056964,0.0195986628532409,0.0082240104675292,0.0025177001953125,0,0,0,0
0.2,1788351725514,0.0,0.0,0.0003248455759603,-0.0063340398482978,0.9989328384399414,0.0457485243678092,0.0001891098256484,-0.0002168066901493,-2.9668895628449416e-06,9.444596798857674e-05,-0.000610293878708,0.002162946620956,-0.0015001604333519,0.006180889904499,-0.9904556274414062,0.1376853436231613,-0.000734980698863,-0.0009450351313958,0.0001852223056964,0.0195986628532409,0.0082240104675292,0.0025177001953125,0,0,0,0
0.3,1788351725614,0.0,0.0,0.0003248455759603,-0.0063340398482978,0.9989328384399414,0.0457485243678092,0.0001891098256484,-0.0002168066901493,-2.9668895628449416e-06,9.444596798857674e-05,-0.000610293878708,0.002162946620956,-0.0015001604333519,0.006180889904499,-0.9904556274414062,0.1376853436231613,-0.000734980698863,-0.0009450351313958,0.0001852223056964,0.0195986628532409,0.0082240104675292,0.0025177001953125,0,0,0,0
0.4,1788351725714,0.0,0.0,0.0003248455759603,-0.0063340398482978,0.9989328384399414,0.0457485243678092,0.0001891098256484,-0.0002168066901493,-2.9668895628449416e-06,9.444596798857674e-05,-0.000610293878708,0.002162946620956,-0.0015001604333519,0.006180889904499,-0.9904556274414062,0.1376853436231613,-0.000734980698863,-0.0009450351313958,0.0001852223056964,0.0195986628532409,0.0082240104675292,0.0025177001953125,0,0,0,0
0.5,1788351725814,0.0,0.0,0.0003248455759603,-0.0063340398482978,0.9989328384399414,0.0457485243678092,0.0001891098256484,-0.0002168066901493,-2.9668895628449416e-06,9.444596798857674e-05,-0.000610293878708,0.002162946620956,-0.0015001604333519,0.006180889904499,-0.9904556274414062,0.1376853436231613,-0.000734980698863,-0.0009450351313958,0.0001852223056964,0.0195986628532409,0.0082240104675292,0.0025177001953125,0,0,0,0
0.6,1788351725914,0.0,0.0,0.0003248455759603,-0.0063340398482978,0.9989328384399414,0.0457485243678092,0.0001891098256484,-0.0002168066901493,-2.9668895628449416e-06,9.444596798857674e-05,-0.000610293878708,0.002162946620956,-0.0015001604333519,0.006180889904499,-0.9904556274414062,0.1376853436231613,-0.000734980698863,-0.0009450351313958,0.0001852223056964,0.0195986628532409,0.0082240104675292,0.0025177001953125,0,0,0,0
0.7,1788351726014,0.0,0.0,0.0003248455759603,-0.0063340398482978,0.9989328384399414,0.0457485243678092,0.0001891098256484,-0.0002168066901493,-2.9668895628449416e-06,9.444596798857674e-05,-0.000610293878708,0.002162946620956,-0.0015001604333519,0.006180889904499,-0.9904556274414062,0.1376853436231613,-0.000734980698863,-0.0009450351313958,0.0001852223056964,0.0195986628532409,0.0082240104675292,0.0025177001953125,0,0,0,0
0.8,1788351726114,0.0,0.0,0.0003248455759603,-0.0063340398482978,0.9989328384399414,0.0457485243678092,0.0001891098256484,-0.0002168066901493,-2.9668895628449416e-06,9.444596798857674e-05,-0.000610293878708,0.002162946620956,-0.0015001604333519,0.006180889904499,-0.9904556274414062,0.1376853436231613,-0.000734980698863,-0.0009450351313958,0.0001852223056964,0.0195986628532409,0.0082240104675292,0.0025177001953125,0,0,0,0
0.9,1788351726214,0.0,0.0,0.0003248455759603,-0.0063340398482978,0.9989328384399414,0.0457485243678092,0.0001891098256484,-0.0002168066901493,-2.9668895628449416e-06,9.444596798857674e-05,-0.000610293878708,0.002162946620956,-0.0015001604333519,0.006180889904499,-0.9904556274414062,0.1376853436231613,-0.000734980698863,-0.0009450351313958,0.0001852223056964,0.0195986628532409,0.0082240104675292,0.0025177001953125,0,0,0,0
1.0,1788351726314,0.0,0.0,0.0003248455759603,-0.0063340398482978,0.9989328384399414,0.0457485243678092,0.0001891098256484,-0.0002168066901493,-2.9668895628449416e-06,9.444596798857674e-05,-0.000610293878708,0.002162946620956,-0.0015001604333519,0.006180889904499,-0.9904556274414062,0.1376853436231613,-0.000734980698863,-0.0009450351313958,0.0001852223056964,0.0195986628532409,0.0082240104675292,0.0025177001953125,0,0,0,0
1.1,1788351726414,0.0,0.0,0.0003248455759603,-0.0063340398482978,0.9989328384399414,0.0457485243678092,0.0001891098256484,-0.0002168066901493,-2.9668895628449416e-06,9.444596798857674e-05,-0.000610293878708,0.002162946620956,-0.0015001604333519,0.006180889904499,-0.9904556274414062,0.1376853436231613,-0.000734980698863,-0.0009450351313958,0.0001852223056964,0.0195986628532409,0.0082240104675292,0.0025177001953125,0,0,0,0
1.2,1788351726514,0.0,0.0,0.0003248455759603,-0.0063340398482978,0.9989328384399414,0.0457485243678092,0.0001891098256484,-0.0002168066901493,-2.9668895628449416e-06,9.444596798857674e-05,-0.000610293878708,0.002162946620956,-0.0015001604333519,0.006180889904499,-0.9904556274414062,0.1376853436231613,-0.000734980698863,-0.0009450351313958,0.0001852223056964,0.0195986628532409,0.0082240104675292,0.0025177001953125,0,0,0,0
1.3,1788351726614,0.0,0.0,0.0003248455759603,-0.0063340398482978,0.9989328384399414,0.0457485243678092,0.0001891098256484,-0.0002168066901493,-2.9668895628449416e-06,9.444596798857674e-05,-0.000610293878708,0.002162946620956,-0.0015001604333519,0.006180889904499,-0.9904556274414062,0.1376853436231613,-0.000734980698863,-0.0009450351313958,0.0001852223056964,0.0195986628532409,0.0082240104675292,0.0025177001953125,0,0,0,0
1.4,1788351726714,0.0,0.0,0.0003248455759603,-0.0063340398482978,0.9989328384399414,0.0457485243678092,0.0001891098256484,-0.0002168066901493,-2.9668895628449416e-06,9.444596798857674e-05,-0.000610293878708,0.002162946620956,-0.0015001604333519,0.006180889904499,-0.9904556274414062,0.1376853436231613,-0.000734980698863,-0.0009450351313958,0.0001852223056964,0.0195986628532409,0.0082240104675292,0.0025177001953125,0,0,0,0
1.5,1788351726814,0.0,0.0,0.0003248455759603,-0.0063340398482978,0.9989328384399414,0.0457485243678092,0.0001891098256484,-0.0002168066901493,-2.9668895628449416e-06,9.444596798857674e-05,-0.000610293878708,0.002162946620956,-0.0015001604333519,0.006180889904499,-0.9904556274414062,0.1376853436231613,-0.000734980698863,-0.0009450351313958,0.0001852223056964,0.0195986628532409,0.0082240104675292,0.0025177001953125,0,0,0,0
1.6,1788351726914,0.0,0.0,0.0003248455759603,-0.0063340398482978,0.9989328384399414,0.0457485243678092,0.0001891098256484,-0.0002168066901493,-2.9668895628449416e-06,9.444596798857674e-05,-0.000610293878708,0.002162946620956,-0.0015001604333519,0.006180889904499,-0.9904556274414062,0.1376853436231613,-0.000734980698863,-0.0009450351313958,0.0001852223056964,0.0195986628532409,0.0082240104675292,0.0025177001953125,0,0,0,0
1.7,1788351727014,0.0,0.0,0.0003248455759603,-0.0063340398482978,0.9989328384399414,0.0457485243678092,0.0001891098256484,-0.0002168066901493,-2.9668895628449416e-06,9.444596798857674e-05,-0.000610293878708,0.002162946620956,-0.0015001604333519,0.006180889904499,-0.9904556274414062,0.1376853436231613,-0.000734980698863,-0.0009450351313958,0.0001852223056964,0.0195986628532409,0.0082240104675292,0.0025177001953125,0,0,0,0
1.8,1788351727114,0.0,0.0,0.0003248455759603,-0.0063340398482978,0.9989328384399414,0.0457485243678092,0.0001891098256484,-0.0002168066901493,-2.9668895628449416e-06,9.444596798857674e-05,-0.000610293878708,0.002162946620956,-0.0015001604333519,0.006180889904499,-0.9904556274414062,0.1376853436231613,-0.000734980698863,-0.0009450351313958,0.0001852223056964,0.0195986628532409,0.0082240104675292,0.0025177001953125,0,0,0,0
1.9,1788351727214,0.0,0.0,0.0003248455759603,-0.0063340398482978,0.9989328384399414,0.0457485243678092,0.0001891098256484,-0.0002168066901493,-2.9668895628449416e-06,9.444596798857674e-05,-0.000610293878708,0.002162946620956,-0.0015001604333519,0.006180889904499,-0.9904556274414062,0.1376853436231613,-0.000734980698863,-0.0009450351313958,0.0001852223056964,0.0195986628532409,0.0082240104675292,0.0025177001953125,0,0,0,0
2.0,1788351727314,0.0,0.0,0.0003248455759603,-0.0063340398482978,0.9989328384399414,0.0457485243678092,0.0001891098256484,-0.0002168066901493,-2.9668895628449416e-06,9.444596798857674e-05,-0.000610293878708,0.002162946620956,-0.0015001604333519,0.006180889904499,-0.9904556274414062,0.1376853436231613,-0.000734980698863,-0.0009450351313958,0.0001852223056964,0.0195986628532409,0.0082240104675292,0.0025177001953125,0,0,0,0
2.1,1788351727414,0.0,0.0,0.0003248455759603,-0.0063340398482978,0.9989328384399414,0.0457485243678092,0.0001891098256484,-0.0002168066901493,-2.9668895628449416e-06,9.444596798857674e-05,-0.000610293878708,0.002162946620956,-0.0015001604333519,0.006180889904499,-0.9904556274414062,0.1376853436231613,-0.000734980698863,-0.0009450351313958,0.0001852223056964,0.0195986628532409,0.0082240104675292,0.0025177001953125,0,0,0,0
2.2,1788351727514,0.0,0.0,0.0003248455759603,-0.0063340398482978,0.9989328384399414,0.0457485243678092,0.0001891098256484,-0.0002168066901493,-2.9668895628449416e-06,9.444596798857674e-05,-0.000610293878708,0.002162946620956,-0.0015001604333519,0.006180889904499,-0.9904556274414062,0.1376853436231613,-0.000734980698863,-0.0009450351313958,0.0001852223056964,0.0195986628532409,0.0082240104675292,0.0025177001953125,0,0,0,0
2.3,1788351727614,0.0,0.0,0.0003248455759603,-0.0063340398482978,0.9989328384399414,0.0457485243678092,0.0001891098256484,-0.0002168066901493,-2.9668895628449416e-06,9.444596798857674e-05,-0.000610293878708,0.002162946620956,-0.0015001604333519,0.006180889904499,-0.9904556274414062,0.1376853436231613,-0.000734980698863,-0.0009450351313958,0.0001852223056964,0.0195986628532409,0.0082240104675292,0.0025177001953125,0,0,0,0
2.4,1788351727714,0.0,0.0,0.0003248455759603,-0.0063340398482978,0.9989328384399414,0.0457485243678092,0.0001891098256484,-0.0002168066901493,-2.9668895628449416e-06,9.444596798857674e-05,-0.000610293878708,0.002162946620956,-0.0015001604333519,0.006180889904499,-0.9904556274414062,0.1376853436231613,-0.000734980698863,-0.0009450351313958,0.0001852223056964,0.0195986628532409,0.0082240104675292,0.0025177001953125,0,0,0,0
2.5,1788351727814,0.0,0.0,0.0003248455759603,-0.0063340398482978,0.9989328384399414,0.0457485243678092,0.0001891098256484,-0.0002168066901493,-2.9668895628449416e-06,9.444596798857674e-05,-0.000610293878708,0.002162946620956,-0.0015001604333519,0.006180889904499,-0.9904556274414062,0.1376853436231613,-0.000734980698863,-0.0009450351313958,0.0001852223056964,0.0195986628532409,0.0082240104675292,0.0025177001953125,0,0,0,0
2.6,1788351727914,0.0,0.0,0.0003248455759603,-0.0063340398482978,0.9989328384399414,0.0457485243678092,0.0001891098256484,-0.0002168066901493,-2.9668895628449416e-06,9.444596798857674e-05,-0.000610293878708,0.002162946620956,-0.0015001604333519,0.006180889904499,-0.9904556274414062,0.1376853436231613,-0.000734980698863,-0.0009450351313958,0.0001852223056964,0.0195986628532409,0.0082240104675292,0.0025177001953125,0,0,0,0
2.7,1788351728014,0.0,0.0,0.0003248455759603,-0.0063340398482978,0.9989328384399414,0.0457485243678092,0.0001891098256484,-0.0002168066901493,-2.9668895628449416e-06,9.444596798857674e-05,-0.000610293878708,0.002162946620956,-0.0015001604333519,0.006180889904499,-0.9904556274414062,0.1376853436231613,-0.000734980698863,-0.0009450351313958,0.0001852223056964,0.0195986628532409,0.0082240104675292,0.0025177001953125,0,0,0,0
2.8,1788351728114,0.0,0.0,0.0003248455759603,-0.0063340398482978,0.9989328384399414,0.0457485243678092,0.0001891098256484,-0.0002168066901493,-2.9668895628449416e-06,9.444596798857674e-05,-0.000610293878708,0.002162946620956,-0.0015001604333519,0.006180889904499,-0.9904556274414062,0.1376853436231613,-0.000734980698863,-0.0009450351313958,0.0001852223056964,0.0195986628532409,0.0082240104675292,0.0025177001953125,0,0,0,0
2.9,1788351728214,0.0,0.0,0.0003248455759603,-0.0063340398482978,0.9989328384399414,0.0457485243678092,0.0001891098256484,-0.0002168066901493,-2.9668895628449416e-06,9.444596798857674e-05,-0.000610293878708,0.002162946620956,-0.0015001604333519,0.006180889904499,-0.9904556274414062,0.1376853436231613,-0.000734980698863,-0.0009450351313958,0.0001852223056964,0.0195986628532409,0.0082240104675292,0.0025177001953125,0,0,0,0
3.0,1788351728314,0.0,0.0,0.0003248455759603,-0.0063340398482978,0.9989328384399414,0.0457485243678092,0.0001891098256484,-0.0002168066901493,-2.9668895628449416e-06,9.444596798857674e-05,-0.000610293878708,0.002162946620956,-0.0015001604333519,0.006180889904499,-0.9904556274414062,0.1376853436231613,-0.000734980698863,-0.0009450351313958,0.0001852223056964,0.0195986628532409,0.0082240104675292,0.0025177001953125,0,0,0,0
3.1,1788351728414,0.0,0.0,0.0003248455759603,-0.0063340398482978,0.9989328384399414,0.0457485243678092,0.0001891098256484,-0.0002168066901493,-2.9668895628449416e-06,9.444596798857674e-05,-0.000610293878708,0.002162946620956,-0.0015001604333519,0.006180889904499,-0.9904556274414062,0.1376853436231613,-0.000734980698863,-0.0009450351313958,0.0001852223056964,0.0195986628532409,0.0082240104675292,0.0025177001953125,0,0,0,0
3.2,1788351728514,0.0,0.0,0.0003248455759603,-0.0063340398482978,0.9989328384399414,0.0457485243678092,0.0001891098256484,-0.0002168066901493,-2.9668895628449416e-06,9.444596798857674e-05,-0.000610293878708,0.002162946620956,-0.0015001604333519,0.006180889904499,-0.9904556274414062,0.1376853436231613,-0.000734980698863,-0.0009450351313958,0.0001852223056964,0.0195986628532409,0.0082240104675292,0.0025177001953125,0,0,0,0
3.3,1788351728614,0.0,0.0,0.0003248455759603,-0.0063340398482978,0.9989328384399414,0.0457485243678092,0.0001891098256484,-0.0002168066901493,-2.9668895628449416e-06,9.444596798857674e-05,-0.000610293878708,0.002162946620956,-0.0015001604333519,0.006180889904499,-0.9904556274414062,0.1376853436231613,-0.000734980698863,-0.0009450351313958,0.0001852223056964,0.0195986628532409,0.0082240104675292,0.0025177001953125,0,0,0,0
3.4,1788351728714,0.0,0.0,0.0003248455759603,-0.0063340398482978,0.9989328384399414,0.0457485243678092,0.0001891098256484,-0.0002168066901493,-2.9668895628449416e-06,9.444596798857674e-05,-0.000610293878708,0.002162946620956,-0.0015001604333519,0.006180889904499,-0.9904556274414062,0.1376853436231613,-0.000734980698863,-0.0009450351313958,0.0001852223056964,0.0195986628532409,0.0082240104675292,0.0025177001953125,0,0,0,0
3.5,1788351728814,0.0,0.0,0.0003248455759603,-0.0063340398482978,0.9989328384399414,0.0457485243678092,0.0001891098256484,-0.0002168066901493,-2.9668895628449416e-06,9.444596798857674e-05,-0.000610293878708,0.002162946620956,-0.0015001604333519,0.006180889904499,-0.9904556274414062,0.1376853436231613,-0.000734980698863,-0.0009450351313958,0.0001852223056964,0.0195986628532409,0.0082240104675292,0.0025177001953125,0,0,0,0
3.6,1788351728914,0.0,0.0,0.0003248455759603,-0.0063340398482978,0.9989328384399414,0.0457485243678092,0.0001891098256484,-0.0002168066901493,-2.9668895628449416e-06,9.444596798857674e-05,-0.000610293878708,0.002162946620956,-0.0015001604333519,0.006180889904499,-0.9904556274414062,0.1376853436231613,-0.000734980698863,-0.0009450351313958,0.0001852223056964,0.0195986628532409,0.0082240104675292,0.0025177001953125,0,0,0,0
3.7,1788351729014,0.0,0.0,0.0003248455759603,-0.0063340398482978,0.9989328384399414,0.0457485243678092,0.0001891098256484,-0.0002168066901493,-2.9668895628449416e-06,9.444596798857674e-05,-0.000610293878708,0.002162946620956,-0.0015001604333519,0.006180889904499,-0.9904556274414062,0.1376853436231613,-0.000734980698863,-0.0009450351313958,0.0001852223056964,0.0195986628532409,0.0082240104675292,0.0025177001953125,0,0,0,0
3.8,1788351729114,0.0,0.0,0.0003248455759603,-0.0063340398482978,0.9989328384399414,0.0457485243678092,0.0001891098256484,-0.0002168066901493,-2.9668895628449416e-06,9.444596798857674e-05,-0.000610293878708,0.002162946620956,-0.0015001604333519,0.006180889904499,-0.9904556274414062,0.1376853436231613,-0.000734980698863,-0.0009450351313958,0.0001852223056964,0.0195986628532409,0.0082240104675292,0.0025177001953125,0,0,0,0
3.9,1788351729214,0.0,0.0,0.0003248455759603,-0.0063340398482978,0.9989328384399414,0.0457485243678092,0.0001891098256484,-0.0002168066901493,-2.9668895628449416e-06,9.444596798857674e-05,-0.000610293878708,0.002162946620956,-0.0015001604333519,0.006180889904499,-0.9904556274414062,0.1376853436231613,-0.000734980698863,-0.0009450351313958,0.0001852223056964,0.0195986628532409,0.0082240104675292,0.0025177001953125,0,0,0,0
4.0,1788351729314,0.0,0.0,0.0003248455759603,-0.0063340398482978,0.9989328384399414,0.0457485243678092,0.0001891098256484,-0.0002168066901493,-2.9668895628449416e-06,9.444596798857674e-05,-0.000610293878708,0.002162946620956,-0.0015001604333519,0.006180889904499,-0.9904556274414062,0.1376853436231613,-0.000734980698863,-0.0009450351313958,0.0001852223056964,0.0195986628532409,0.0082240104675292,0.0025177001953125,0,0,0,0
4.1,1788351729414,0.0,0.0,0.0003248455759603,-0.0063340398482978,0.9989328384399414,0.0457485243678092,0.0001891098256484,-0.0002168066901493,-2.9668895628449416e-06,9.444596798857674e-05,-0.000610293878708,0.002162946620956,-0.0015001604333519,0.006180889904499,-0.9904556274414062,0.1376853436231613,-0.000734980698863,-0.0009450351313958,0.0001852223056964,0.0195986628532409,0.0082240104675292,0.0025177001953125,0,0,0,0
4.2,1788351729514,0.0,0.0,0.0003248455759603,-0.0063340398482978,0.9989328384399414,0.0457485243678092,0.0001891098256484,-0.0002168066901493,-2.9668895628449416e-06,9.444596798857674e-05,-0.000610293878708,0.002162946620956,-0.0015001604333519,0.006180889904499,-0.9904556274414062,0.1376853436231613,-0.000734980698863,-0.0009450351313958,0.0001852223056964,0.0195986628532409,0.0082240104675292,0.0025177001953125,0,0,0,0
4.3,1788351729614,0.0,0.0,0.0003248455759603,-0.0063340398482978,0.9989328384399414,0.0457485243678092,0.0001891098256484,-0.0002168066901493,-2.9668895628449416e-06,9.444596798857674e-05,-0.000610293878708,0.002162946620956,-0.0015001604333519,0.006180889904499,-0.9904556274414062,0.1376853436231613,-0.000734980698863,-0.0009450351313958,0.0001852223056964,0.0195986628532409,0.0082240104675292,0.0025177001953125,0,0,0,0
4.4,1788351729714,0.0,0.0,0.0003248455759603,-0.0063340398482978,0.9989328384399414,0.0457485243678092,0.0001891098256484,-0.0002168066901493,-2.9668895628449416e-06,9.444596798857674e-05,-0.000610293878708,0.002162946620956,-0.0015001604333519,0.006180889904499,-0.9904556274414062,0.1376853436231613,-0.000734980698863,-0.0009450351313958,0.0001852223056964,0.0195986628532409,0.0082240104675292,0.0025177001953125,0,0,0,0
4.5,1788351729814,0.0,0.0,0.0003248455759603,-0.0063340398482978,0.9989328384399414,0.0457485243678092,0.0001891098256484,-0.0002168066901493,-2.9668895628449416e-06,9.444596798857674e-05,-0.000610293878708,0.002162946620956,-0.0015001604333519,0.006180889904499,-0.9904556274414062,0.1376853436231613,-0.000734980698863,-0.0009450351313958,0.0001852223056964,0.0195986628532409,0.0082240104675292,0.0025177001953125,0,0,0,0
4.6,1788351729914,0.0,0.0,0.0003248455759603,-0.0063340398482978,0.9989328384399414,0.0457485243678092,0.0001891098256484,-0.0002168066901493,-2.9668895628449416e-06,9.444596798857674e-05,-0.000610293878708,0.002162946620956,-0.0015001604333519,0.006180889904499,-0.9904556274414062,0.1376853436231613,-0.000734980698863,-0.0009450351313958,0.0001852223056964,0.0195986628532409,0.0082240104675292,0.0025177001953125,0,0,0,0
4.7,1788351730014,0.0,0.0,0.0003079356683883,-0.0063846013508737,0.998932123184204,0.0457565449178218,-2.546789606147541e-05,2.88827525685068e-05,3.983014639301178e-07,-0.0010383025510236,0.0012741490500047,-0.0002756449393928,-0.0014980221167206,0.0061872582882642,-0.9904540181159972,0.1376967132091522,0.0005283853664154,-0.0014437274923265,0.0004254069181675,0.0142697095870971,0.0269942283630371,-0.0013856887817382,0,0,0,0
4.8,1788351730114,0.0,0.0,0.0002881748660001,-0.0063719199970364,0.9989314675331116,0.0457734428346157,-0.0001321529419615,0.0001511721329711,2.082114093599112e-06,-0.0006681906525045,0.0020420693326741,-0.001490564784035,-0.0014427648857235,0.006200204603374,-0.9904597997665404,0.1376546025276184,0.0009904440607658,-0.0002517837744342,-0.0005260892411813,-0.0296949744224548,0.0074548721313476,0.0084686279296875,0,0,0,0
4.9,1788351730214,0.0,0.0,0.0002682211343199,-0.0063679930754005,0.9989333152770996,0.0457333028316497,0.0001374467621559,-0.0001569069532472,-2.1528056947237165e-06,0.000119296957564,0.0007811905816197,0.0015857409453019,-0.0013978881761431,0.0062272828072309,-0.990455687046051,0.1376840621232986,-0.0011676852081184,0.0020980705248031,-0.0004985093074797,-0.0158695578575134,-0.0260596275329589,-0.0011148452758789,0,0,0,0
5.0,1788351730314,0.0,0.0,0.0002682211343199,-0.0063679930754005,0.9989333152770996,0.0457333028316497,0.0,0.0,0.0,0.0,0.0,0.0,-0.0014178585261106,0.0062376614660024,-0.990452229976654,0.1377084255218505,-0.0002247750175485,-0.0018897255583736,0.0007509614822259,-0.0055196285247802,-0.0095872282981872,-0.0012187957763671,0,0,0,0
5.1,1788351730414,0.0,0.0,0.0002499904367141,-0.0063996040262281,0.998932719230652,0.0457426123321056,-2.460704361895363e-05,2.8308165060790584e-05,3.890198131901285e-07,0.0006409682100638,9.874220995698124e-05,-0.0002811204176396,-0.0014180475845932,0.0062604742124676,-0.9904529452323914,0.137702003121376,-0.0010731583018194,-0.0006671173542441,0.000957500045769,0.0057774782180786,0.0263378620147705,-0.0097713470458984,0,0,0,0
5.2,1788351730514,0.0,0.0,0.0002125500177498,-0.006434311158955,0.998931348323822,0.0457674004137516,-0.0001142254503001,0.0001306907138239,1.7958551700577605e-06,-0.0007085324614308,0.0011756856692954,-0.0012919870205223,-0.0013838214799761,0.0062831062823534,-0.9904578328132628,0.1376654058694839,0.000270554129861,0.001579086050749,-0.0007813914075745,-0.0061535239219665,-0.0081787705421447,-0.0007514953613281,0,0,0,0
5.3,1788351730614,0.0,0.0,0.0002404342230875,-0.0064538223668932,0.9989330768585204,0.0457271039485931,0.0001390192781432,-0.0001593565732874,-2.186500363570909e-06,-0.0007167732692323,-0.0011427156860008,0.0015819204272702,-0.0013797432184219,0.0063172373920679,-0.9904546141624452,0.1376880705356598,-0.0004045044805916,0.0012242540902384,-0.0001045959915466,-0.0173125863075256,-0.0005792379379272,-0.0094032287597656,0,0,0,0
5.4,1788351730714,0.0,0.0,0.0002404342230875,-0.0064538223668932,0.9989330768585204,0.0457271039485931,0.0,0.0,0.0,0.0,0.0,0.0,-0.001401868648827,0.0063153058290481,-0.9904541373252868,0.1376913189888,-0.0001782698057283,-0.0001944096778922,-0.0009954817936923,0.0020364522933959,-0.0153460502624511,0.0105981826782226,0,0,0,0
5.5,1788351730814,0.0,0.0,0.0002404342230875,-0.0064538223668932,0.9989330768585204,0.0457271039485931,0.0,0.0,0.0,0.0,0.0,0.0,-0.0014068549498915,0.0063182646408677,-0.9904546737670898,0.1376865953207016,-2.639235231947053e-05,-0.000285311075256,6.81236696966844e-05,0.0151481032371521,0.0189957022666931,0.0161190032958984,0,0,0,0
5.6,1788351730914,0.0,0.0,0.0002404342230875,-0.0064538223668932,0.9989330768585204,0.0457271039485931,0.0,0.0,0.0,0.0,0.0,0.0,-0.001386628486216,0.0063176779076457,-0.9904541373252868,0.1376908123493194,-0.0006887619590098,-0.000625059539673,0.0009560270917072,-0.0039319992065429,0.0078703165054321,0.0166263580322265,0,0,0,0
5.7,1788351731014,0.0,0.0,0.0002080395934171,-0.0064647118560969,0.9989324808120728,0.0457388088107109,0.0,0.0,0.0,0.0,0.0,0.0,-0.001376423984766,0.0063349083065986,-0.9904543161392212,0.1376885771751403,0.0011909547956932,-0.0008256036990544,-0.0001144879310769,-0.0217642784118652,-0.033577561378479,-0.0032691955566406,0,0,0,0
5.8,1788351731114,0.0,0.0,0.0002080395934171,-0.0064647118560969,0.9989324808120728,0.0457388088107109,0.0,0.0,0.0,0.0,0.0,0.0,-0.0013751527294516,0.0063124010339379,-0.9904525876045228,0.1377023160457611,0.0004928380646575,-0.0009032003030207,-0.0005137317964131,0.0228998064994812,0.0143709778785705,0.0004558563232421,0,0,0,0
5.9,1788351731214,0.0,0.0,0.0002080395934171,-0.0064647118560969,0.9989324808120728,0.0457388088107109,0.0,0.0,0.0,0.0,0.0,0.0,-0.001336820423603,0.0063145859166979,-0.9904503226280212,0.1377192437648773,-0.0009479898205512,-0.0004881271073217,-0.000106497832673,0.0179625153541564,0.0071943998336791,0.0060815811157226,0,0,0,0
6.0,1788351731314,0.0,0.0,0.0002080395934171,-0.0064647118560969,0.9989324808120728,0.0457388088107109,0.0,0.0,0.0,0.0,0.0,0.0,-0.0013092765584588,0.0063089961186051,-0.9904503226280212,0.1377194970846176,0.0002580889671425,-0.0004604877718624,0.0013104995198126,-0.0112232565879821,-5.674362182617188e-05,-0.0225801467895507,0,0,0,0
6.1,1788351731414,0.0,0.0,0.0002080395934171,-0.0064647118560969,0.9989324808120728,0.0457388088107109,0.0,0.0,0.0,0.0,0.0,0.0,-0.0013033943250775,0.0063149398192763,-0.9904508590698242,0.137715458869934,0.0001055760131735,0.0012947360005274,-0.0001190836295961,-0.0427573919296264,0.0358598828315734,-0.0094976425170898,0,0,0,0
6.2,1788351731514,0.0,0.0,0.0002080395934171,-0.0064647118560969,0.9989324808120728,0.0457388088107109,0.0,0.0,0.0,0.0,0.0,0.0,-0.0013318555429577,0.0062989490106701,-0.9904530644416808,0.1377000212669372,-0.0001727828834699,-0.0002690761520166,-0.0013570473071362,0.0174682736396789,-0.0209506154060363,0.0082015991210937,0,0,0,0
6.3,1788351731614,0.0,0.0,0.0002080395934171,-0.0064647118560969,0.9989324808120728,0.0457388088107109,0.0,0.0,0.0,0.0,0.0,0.0,-0.0013650255277752,0.0062923235818743,-0.9904478788375854,0.1377374827861786,-0.000471491828907,-0.0002528961509028,0.000410723289059,0.0045354962348937,-0.0104701519012451,0.0022392272949218,0,0,0,0
6.4,1788351731714,0.0,0.0,0.0002080395934171,-0.0064647118560969,0.9989324808120728,0.0457388088107109,0.0,0.0,0.0,0.0,0.0,0.0,-0.0013482272624969,0.0062402635812759,-0.990449845790863,0.1377255767583847,0.0012248221762918,-0.0013557873861053,0.0013537983586609,0.0083153843879699,0.0094706416130065,0.0036659240722656,0,0,0,0
6.5,1788351731814,0.0,0.0,0.0002080395934171,-0.0064647118560969,0.9989324808120728,0.0457388088107109,0.0,0.0,0.0,0.0,0.0,0.0,-0.0013325652107596,0.0062482319772243,-0.9904486536979676,0.1377337723970413,-0.0001703984283975,0.0009338892951179,0.0009591147064453,-0.0008126497268676,-0.0213863253593444,0.0001249313354492,0,0,0,0
6.6,1788351731914,0.0,0.0,0.0002080395934171,-0.0064647118560969,0.9989324808120728,0.0457388088107109,0.0,0.0,0.0,0.0,0.0,0.0,-0.0013071335852146,0.0062677254900336,-0.9904478788375854,0.1377391964197158,-0.0005849406331784,0.001943953330798,-0.0007054954176719,0.0028334259986877,0.0113953351974487,0.0016965866088867,0,0,0,0
6.7,1788351732014,0.0,0.0,0.0002080395934171,-0.0064647118560969,0.9989324808120728,0.0457388088107109,0.0,0.0,0.0,0.0,0.0,0.0,-0.0013084467500448,0.0062396340072155,-0.9904507398605348,0.1377193182706833,-0.0002041524463386,0.0013812775554655,-0.000999306103199,0.015059471130371,0.0091944336891174,-0.014256477355957,0,0,0,0
6.8,1788351732114,0.0,0.0,0.0002080395934171,-0.0064647118560969,0.9989324808120728,0.0457388088107109,0.0,0.0,0.0,0.0,0.0,0.0,-0.0012878505513072,0.0062275063246488,-0.9904507994651794,0.1377195119857788,0.0003194752338308,-0.0005456273601334,0.0003944210450915,-0.0168501138687133,-0.0163764357566833,0.0024909973144531,0,0,0,0
6.9,1788351732214,0.0,0.0,0.0002080395934171,-0.0064647118560969,0.9989324808120728,0.0457388088107109,0.0,0.0,0.0,0.0,0.0,0.0,-0.0013140141963958,0.006187330931425,-0.9904546737670898,0.1376935094594955,0.0020002787080125,-0.0002250646857114,0.0002435275702671,-0.0049006938934326,-0.0066973567008972,-0.0329866409301757,0,0,0,0
7.0,1788351732314,0.0,0.0,0.0002080395934171,-0.0064647118560969,0.9989324808120728,0.0457388088107109,0.0,0.0,0.0,0.0,0.0,0.0,-0.0013393489643931,0.0061826538294553,-0.9904535412788392,0.1377018094062805,4.113471693625648e-06,0.0010231651747308,-0.0004659727996724,0.0160995125770568,-0.0422934889793396,0.0030689239501953,0,0,0,0
7.1,1788351732414,0.0,0.0,0.0002080395934171,-0.0064647118560969,0.9989324808120728,0.0457388088107109,0.0,0.0,0.0,0.0,0.0,0.0,-0.0013745967298746,0.0061231832951307,-0.9904472231864928,0.1377499550580978,0.0006858776485044,-0.000479110055125,0.0015374234764045,0.0176388621330261,0.0044485330581665,0.006418228149414,0,0,0,0
7.2,1788351732514,0.0,0.0,0.0002077082463074,-0.0062403180636465,0.9989370703697203,0.045670099556446,5.232173824442838e-05,-5.990871511070063e-05,-8.035833950833835e-07,0.000835308805108,0.0007271935464814,0.0006094243726693,-0.0013425126671791,0.0060949297621846,-0.990445613861084,0.137762114405632,0.0010443169187004,0.0006501805130137,0.0005986967617439,0.0243683457374572,-0.0065523982048034,-0.0080080032348632,0,0,0,0
7.3,1788351732614,0.0,0.0,0.0001648640027269,-0.0062368959188461,0.9989356994628906,0.0456997230648994,-0.0001090756083138,0.0001246490349192,1.659485847571018e-06,7.093436579452828e-05,0.0017796588363125,-0.0012294786283746,-0.0012859860435128,0.0060968082398176,-0.990450084209442,0.1377304345369339,0.0006234506729692,0.0017387756765986,-0.0002844833130897,0.009531557559967,-0.0006629824638366,0.0081758499145507,0,0,0,0
7.4,1788351732714,0.0,0.0,0.0001519684738013,-0.0062109846621751,0.9989351630210876,0.0457146391272544,-6.427189111682136e-05,7.357122800429293e-05,9.68685666232916e-07,0.0004316042759455,-0.0002713669673539,-0.000740589108318,-0.0012851068750023,0.0060784798115491,-0.9904523491859436,0.1377149820327758,0.0006706556131552,0.0007467135455868,-0.0008201939364023,0.0278657674789428,-0.0125102996826171,-0.03509521484375,0,0,0,0
7.5,1788351732814,0.0,0.0,0.0001710493233986,-0.0062025301158428,0.9989365935325624,0.0456852205097675,4.054557442867168e-05,-4.620472168184761e-05,-6.078790768759603e-07,0.0004264328454155,-0.001016502501443,0.0004514091124292,-0.0013116057962179,0.0060691777616739,-0.990448534488678,0.1377428919076919,4.0375233875170246e-05,9.763839385216516e-05,7.510392207983419e-05,0.0043901801109313,0.0255540013313293,0.0206937789916992,0,0,0,0
7.6,1788351732914,0.0,0.0,0.0001676242973189,-0.0062043671496212,0.9989359974861144,0.0456985384225845,-1.4585969074046605e-05,1.701613452515107e-05,2.2391530701338201e-07,0.0002335799654247,-0.0001636229717405,-0.0001718729909043,-0.0013034800067543,0.0060611236840486,-0.9904481768608092,0.1377458721399307,0.0003628012429414,-0.000239700182301,6.647560557344271e-05,-0.0149465799331665,0.0095613002777099,-0.0044736862182617,0,0,0,0
7.7,1788351733014,0.0,0.0,0.0001924733223859,-0.0062005310319364,0.9989364743232728,0.0456878505647182,0.0,0.0,0.0,0.0,0.0,0.0,-0.0013093799352645,0.0060856165364384,-0.9904513955116272,0.1377224028110504,-0.0004786397282614,-0.0011066786395553,0.0005878140968219,-0.0024446249008178,0.0026127099990844,-0.0169811248779296,0,0,0,0
7.8,1788351733114,0.0,0.0,0.0001924733223859,-0.0062005310319364,0.9989364743232728,0.0456878505647182,0.0,0.0,0.0,0.0,0.0,0.0,-0.0013495599851012,0.006103198044002,-0.9904484152793884,0.1377423107624054,-0.0008236220448154,0.000390470171074,0.0005994684764547,-0.0074573755264282,-0.0401151180267334,-0.0066251754760742,0,0,0,0
7.9,1788351733214,0.0,0.0,0.0002080466365441,-0.0062458524480462,0.9989363551139832,0.0456841550767421,0.0,0.0,0.0,0.0,0.0,0.0,-0.001370501704514,0.0060918629169464,-0.990447998046875,0.1377453655004501,-0.0005511305580344,0.0002223815209981,-0.0004660938346283,0.0137480497360229,-7.581710815429688e-05,-0.0089988708496093,0,0,0,0
8.0,1788351733314,0.0,0.0,0.0001968855794984,-0.0062381085008382,0.9989361763000488,0.0456894449889659,-1.5925567783196304e-05,1.82036924897054e-05,2.4307016534156014e-07,-9.33243825329555e-07,0.0012044496834278,-0.0001691466168267,-0.0013440810143947,0.0060928156599402,-0.9904477000236512,0.1377482861280441,0.0008967865713149,-0.0018970165644894,0.0013067907437931,0.0054160356521606,0.0530520677566528,-0.0072975158691406,0,0,0,0
8.1,1788351733414,0.0,0.0,0.0002022499684244,-0.0062480899505317,0.9989357590675354,0.0456974580883979,-2.8372746958580044e-05,3.1929989609925444e-05,4.247341741257257e-07,-0.0003939502639696,-0.0002334071614313,-0.0003262462560087,-0.0013647256419062,0.0060927784070372,-0.990445613861084,0.1377629190683365,0.000610849878178,-0.0020773242083593,0.0016699286056338,-0.0038986802101135,0.0326669812202453,0.0093946456909179,0,0,0,0
8.2,1788351733514,0.0,0.0,0.000234698614804,-0.0062381871975958,0.9989373087882996,0.0456652641296386,0.0,0.0,0.0,0.0,0.0,0.0,-0.0013253483921289,0.0061320373788475,-0.990447163581848,0.1377497911453247,-0.0005166791097429,0.0028950367630997,-0.0006096822094496,-0.0305097699165344,-0.0139762759208679,-0.0014619827270507,0,0,0,0
8.3,1788351733614,0.0,0.0,0.0001660544658079,-0.0062660351395606,0.9989364743232728,0.0456789061427116,0.0,0.0,0.0,0.0,0.0,0.0,-0.0013467604294419,0.0061025545001029,-0.9904462695121764,0.1377581506967544,0.00054859614538,-0.0009363895284757,-0.0008284164081793,0.0080851912498474,-0.0057908296585083,-0.0135459899902343,0,0,0,0
8.4,1788351733714,0.0,0.0,0.0001783320331014,-0.006252902559936,0.9989373087882996,0.0456628985702991,6.358829304879339e-05,-7.256043702757999e-05,-9.666076774232717e-07,6.687029235763475e-05,0.000905551307369,0.0007412228151224,-0.0013258950784802,0.0061259940266609,-0.9904444217681884,0.1377698928117752,-0.0007968784930207,-0.0003733198269273,0.0002422783598181,0.0124649405479431,0.0101471543312072,0.0169649124145507,0,0,0,0
8.5,1788351733814,0.0,0.0,0.0001454447337891,-0.0062850485555827,0.9989363551139832,0.0456790216267108,-5.588500442257407e-05,6.428080038953351e-05,8.538730065158181e-07,-0.0013216350926086,0.0012376143131405,-0.0006264423136599,-0.0012998385354876,0.0061323111876845,-0.9904436469078064,0.1377754062414169,0.0011443835750609,-0.0010164707512005,0.0017273688233074,0.0061118602752685,0.0030766129493713,0.0034170150756835,0,0,0,0
8.6,1788351733914,0.0,0.0,0.0002041098196059,-0.0062579764053225,0.9989385008811952,0.0456361472606658,0.0,0.0,0.0,0.0,0.0,0.0,-0.0013384213671088,0.0061139650642871,-0.9904432892799376,0.1377786099910736,0.00030358486651,-0.0001373477638474,-0.0008228053964066,0.0035927891731262,0.0186927914619445,0.0113325119018554,0,0,0,0
8.7,1788351734014,0.0,0.0,0.0002170743246097,-0.0062330681830644,0.9989386796951294,0.045636098831892,6.592819194865132e-07,-5.486366954228406e-07,-7.49520279507649e-09,0.0010368872899562,-0.0004808678058907,-1.213021846524498e-06,-0.0013893423601984,0.006099990569055,-0.9904391765594482,0.1378082036972046,-0.001224105194128,0.0003508216958501,-0.0001082335593925,0.0039136409759521,0.0142517685890197,0.0005426406860351,0,112,-869,3328
8.8,1788351734114,0.0,2.5915493965148926,0.0005682120099663,-0.0061657894402742,0.999091625213623,0.0421593897044658,0.0182444886131954,-0.0023367798316503,3.300769416579515e-06,0.004595071543008,-0.0146945202723145,0.1509524881839752,-0.00189970433712,0.0057958560064435,-0.9894119501113892,0.1450066119432449,0.0106179311141393,-0.0239758490534539,0.3438408558098429,0.5508860945701599,0.5671286582946777,-0.1811075210571289,0,309,-8601,14430
8.9,1788351734214,0.0,5.464788913726807,0.0026988559402525,-0.0042925868183374,0.99993896484375,0.009813230484724,0.0890070320556257,0.0018910862006305,6.930126859444434e-05,0.0752897709608078,-0.0812423974275589,0.7001147866249084,-0.003438277170062,0.0037267105653882,-0.984874188899994,0.1731970161199569,0.1042059503105141,-0.1165300106082331,0.7501969346135541,0.0342198610305786,-0.0880419015884399,0.3431940078735351,0,203,-20511,17767
9.0,1788351734314,0.0,5.042253494262695,-0.0028806189075112,0.0039296052418649,-0.9996135234832764,0.0273680761456489,0.092038236775508,0.0006404708031775,9.401469401982037e-08,-0.0052016568370163,0.013246925547719,0.7560645341873169,-0.0035887658596038,0.0032400293275713,-0.9754294753074646,0.2202588617801666,0.0092453851337774,-0.0165218552813114,0.8572636384190645,-0.076030433177948,0.0099006295204162,-0.3409328460693359,0,228,-32767,18379
9.1,1788351734414,-3.211267709732056,5.070422649383545,-0.0024829059839248,0.0036772112362086,-0.997739315032959,0.0670569986104965,0.0828928837480031,-0.0034267974069506,2.8253150187325293e-05,0.0075309067033231,0.0010138236684724,0.7837918400764465,-0.0027248114347457,0.0032222755253314,-0.966606080532074,0.25623220205307,0.007120392243389,0.0544198130769258,0.891324309018164,-1.7666394710540771,0.4012191295623779,-0.6081972122192383,214,296,-12422,18716
9.2,1788351734514,-1.8309859037399288,2.9577465057373047,-0.0021111650858074,0.0035945242270827,-0.9913269281387328,0.1313527077436447,0.0229590316868467,-0.0098377950876948,1.9652170016248558e-06,-0.0003713215410243,-0.0104602351784706,1.2215335369110107,-0.0027171177789568,0.0031863255426287,-0.9507949948310852,0.3097925782203674,-0.0018998863127511,-0.0212815530264928,1.063776411683492,0.9566198587417604,-0.9065787196159364,-0.0628643035888671,78,329,-1122,13613
9.3,1788351734614,-0.4507042169570923,0.8450704216957092,-0.0021731744054704,0.0035000131465494,-0.9880815744400024,0.1538759768009185,0.0231318087738233,-0.0064189780692478,1.7607371097408313e-06,-0.0012636519968509,0.000650160072837,0.2773765623569488,-0.0027848249301314,0.0030388217419385,-0.942887544631958,0.333085685968399,-0.0001667221086621,0.0003370280075978,0.1377139318199051,-0.2166581749916076,-0.0593206286430358,0.2352685928344726,27,270,-330,7135
9.4,1788351734714,0.0,0.0,-0.002322984393686,0.0034272915218025,-0.9878894686698914,0.155103787779808,-0.0001216991509407,0.0001352261555174,-4.156503423442665e-06,0.0015392779605463,-0.0070472587831318,-0.0266903489828109,-0.0027958741411566,0.0029391851276159,-0.9428698420524596,0.333136647939682,0.0029064620207725,0.0071105445804649,0.0002655839786769,-0.2371885776519775,0.1514751315116882,-0.0102729797363281,0,0,0,0
9.5,1788351734814,0.0,0.0,-0.0022529971320182,0.0034216409549117,-0.9879012703895568,0.1550299078226089,-0.0003443586059767,0.0003515027969702,-9.922290111047349e-07,-0.0010354524711146,0.0005233654519543,-0.0015617541503161,-0.0028068218380212,0.0029502725228667,-0.9429033398628236,0.3330414891242981,-0.0001344610339907,-0.0007319916112611,-0.0039551157574041,0.1703842878341674,-0.0404513478279113,-0.0034446716308593,0,0,0,0
9.6,1788351734914,0.0,0.0,-0.0021580278407782,0.003411941928789,-0.98790442943573,0.1550113409757614,0.0001158755258913,-9.776967014049662e-05,-1.1221900634662909e-06,0.0008016626816242,0.0030512071680277,-0.0006122083868831,-0.0028055012226104,0.0029123425483703,-0.9429054856300354,0.3330358862876892,0.001651861624793,-0.0048228242241886,-0.000660111980255,0.0749622583389282,0.0198601484298706,0.0146360397338867,0,0,0,0
9.7,1788351735014,0.0,0.0,-0.002168736886233,0.003347648307681,-0.9879038333892822,0.1550167202949524,8.217011269214678e-06,-9.222701326813226e-06,-9.538711827652425e-08,0.0013561283703893,0.0023123340215533,0.0001121079403674,-0.0027443179860711,0.0028946315869688,-0.9429006576538086,0.3330501019954681,0.0016601454845409,0.0001532634553871,0.0006035619300174,0.0382656455039978,0.0012142658233642,-0.0015945434570312,0,0,0,0
9.8,1788351735114,0.0,0.0,-0.0021546699572354,0.0033549426589161,-0.9879058599472046,0.1550035625696182,-2.8990078587045205e-05,3.275014105362775e-05,3.33973930358064e-07,3.61693964805454e-05,0.0013551764423027,-0.000319144281093,-0.002738713286817,0.0028905300423502,-0.9428975582122804,0.3330589830875397,0.0002494844708611,-0.0010006646990778,0.0020146628793459,0.0131967067718505,-0.0078873634338378,0.0019655227661132,0,0,0,0
9.9,1788351735214,0.0,0.0,-0.0021477923728525,0.0033396140206605,-0.9879009127616882,0.1550353020429611,-5.706282271237232e-06,6.66823083759053e-06,6.69783828087539e-08,0.0002354381576878,0.0005006227875128,-6.037336424924433e-05,-0.0027274191379547,0.0029033804312348,-0.942896604537964,0.3330618143081665,-0.0001262116837957,-0.0002007042930291,-0.0002902605268262,-0.0403931140899658,-0.0131117105484008,0.0019350051879882,0,0,0,0
10.0,1788351735314,0.0,0.0,-0.0021716426126658,0.0033442061394453,-0.9878973364830016,0.1550580412149429,6.136126440191999e-05,-7.056310198888137e-05,-7.114131868602674e-07,-0.0005538110272027,-2.5568979253876023e-05,0.0007077194750308,-0.0027419934049248,0.0029014628380537,-0.9428883790969848,0.3330848217010498,-0.0006553720475531,0.0006852534696725,-0.0008159737858052,0.0078194737434387,-0.0238415002822875,0.0073127746582031,0,0,0,0
10.1,1788351735414,0.0,0.0,-0.0021480852738022,0.0033576283603906,-0.9878979325294496,0.1550537347793579,7.936105566153925e-05,-9.065522263860808e-05,-9.15229276676694e-07,-0.000336898752721,0.0001858058240031,0.0009121477487497,-0.0027173180133104,0.0029153795912861,-0.9428915977478028,0.333076000213623,-0.0003032256965708,0.0003330617925252,-0.0006422508488008,-0.0113822817802429,-0.0039157271385192,-0.0213823318481445,0,0,0,0
10.2,1788351735514,0.0,0.8732394576072693,-0.0021124007180333,0.0033817833755165,-0.987902581691742,0.1550246626138687,-7.967993966147516e-06,8.720289256450211e-06,8.951876857956064e-08,-0.0002244942443212,0.002209537429735,-7.252679642988369e-05,-0.002715740352869,0.003004346974194,-0.942825436592102,0.33326256275177,-0.0045754618329806,0.0001172230686956,0.0145094255625071,0.5639812350273132,0.1754584312438964,0.0097932815551757,134,576,3684,13937
10.3,1788351735614,1.042253494262695,4.2253522872924805,-0.0017646430060267,0.0035877306945621,-0.9862571954727172,0.1651690155267715,0.0695565029213553,0.0045548458473422,-7.328219958404701e-06,-0.0028431143146008,0.0172946993261575,0.3015375733375549,-0.0023275194689631,0.003240087069571,-0.9387118220329284,0.3446797728538513,-0.0022728384661245,0.02952085747875,0.3551288825891465,0.0259180665016174,0.0204329490661621,-0.3643741607666015,67,547,4797,21879
10.4,1788351735714,1.5774648189544678,6.732394218444824,-0.0017697843722999,0.0038166383747011,-0.9810203909873962,0.1938590705394745,0.1239057758802152,0.0024944128169449,4.793473090031508e-05,-0.0074279550462961,-0.0083281127735972,0.6794164776802063,-0.0022762566804885,0.0037929089739918,-0.924702525138855,0.3806647062301636,-0.0176046977719516,0.0160171076372155,0.766973864447059,0.1988482475280761,0.1775689721107483,0.5521306991577148,85,613,5736,29407
10.5,1788351735814,1.887323975563049,8.338027954101562,-0.0017767718527466,0.0044737718999385,-0.970310628414154,0.2418142110109329,0.1706191661276722,-0.0001818381554346,3.543453233406651e-05,-0.0077221789397299,-0.0097482101991772,0.9492774605751038,-0.002655167132616,0.0041320864111185,-0.9075531959533693,0.4199085533618927,-0.0060996155659864,-0.0088061752251606,0.9854783128537814,0.0733130574226379,0.1082693934440612,-0.90106201171875,66,509,6099,31984
10.6,1788351735914,1.8309859037399288,8.14084529876709,-0.0011760498164221,0.0049762655980885,-0.9577580690383912,0.2875295281410217,0.1835408622832105,-0.0035163043446812,4.380376148434883e-05,0.0032024011015892,-0.0025909221731126,1.04078209400177,-0.0019259471446275,0.0047107841819524,-0.8865923881530762,0.4625234603881836,0.0058228349778245,0.0226233804190374,1.0606386966858596,-0.0840815901756286,0.2234029769897461,-0.1194982528686523,37,175,4173,22634
10.7,1788351736014,1.0140844583511353,5.126760482788086,-0.001339670503512,0.0047828922979533,-0.9429742693901062,0.3328286707401275,0.1471843324194085,-0.0016404481560638,6.662052716674015e-05,-9.907194908009842e-05,-0.0118449963629245,0.8754950761795044,-0.0021883202716708,0.0044647380709648,-0.866001546382904,0.5000165700912476,-0.0060418206230672,0.0049474353204739,0.8729316480859641,-0.3251871466636657,0.0754688382148742,-1.3916034698486328,53,21,3544,11686
10.8,1788351736114,0.7042253613471985,2.253521203994751,0.0003218550700694,0.0079737789928913,-0.9326428771018982,0.3607124984264374,0.0679156161886296,-0.0041277351267718,-2.7954850134206183e-05,-0.0273566339164972,0.0197475329041481,0.385728657245636,-0.0012390706688165,0.0078235259279608,-0.8500314354896545,0.5266724824905396,-0.0065307409255607,-0.0113408422306352,0.3677873413688719,-0.309843897819519,-0.0169139504432678,0.0187129974365234,64,77,1177,6596
10.9,1788351736214,0.0,0.0,9.653111919760704e-05,0.0077295368537306,-0.9282180666923524,0.3719561696052551,0.0193218945854023,-0.0038931590328921,1.4850641130358895e-07,0.0021287105046212,-0.0071806875057518,0.1797977238893509,-0.00131690595299,0.007620071992278,-0.8445147275924683,0.5354764461517334,-0.0024761767854681,0.0044413854081014,0.1280284663187856,-0.3512415885925293,-0.2728927731513977,-0.1598129272460937,0,0,0,0
11.0,1788351736314,0.0,0.0,3.377906978130341e-06,0.007641308940947,-0.9283968806266784,0.3715115189552307,-0.0009723540212122,-0.0005256397166816,4.560874216780694e-06,0.0,2.074650451433513e-09,0.0,-0.0013398677110671,0.0074838446453213,-0.8448639512062073,0.5349271297454834,0.0003809708344717,0.0021375936235765,0.0037466932174766,-0.0550445318222045,-0.0005074739456176,0.0133638381958007,0,0,0,0
11.1,1788351736414,0.0,0.0,3.377906978130341e-06,0.007641308940947,-0.9283968806266784,0.3715115189552307,0.0,0.0,0.0,0.0,1.6934484925457127e-09,0.0,-0.0013135047629475,0.0075043374672532,-0.8449051976203918,0.5348618626594543,-0.0003020152462055,0.0029942024383762,-0.0031200340411497,-0.0166842341423034,-0.0686776638031005,0.0078191757202148,0,0,0,0
11.2,1788351736514,0.0,0.0,3.377906978130341e-06,0.007641308940947,-0.9283968806266784,0.3715115189552307,0.0,0.0,0.0,0.0,2.066358639751797e-09,0.0,-0.0013242624700069,0.0074946852400898,-0.844887912273407,0.534889280796051,-0.0006548332755345,0.0005098932896744,-0.0015245998138912,0.0153643488883972,0.0066587328910827,0.0277748107910156,0,0,0,0
11.3,1788351736614,0.0,0.0,9.356718510389328e-05,0.007595564238727,-0.9284419417381288,0.3713999986648559,-0.0004128431534446,0.0004729123051928,-3.335800945885931e-07,0.0030062398873269,0.0026623043231666,-0.0047097029164433,-0.001312025822699,0.0074829068034887,-0.8448716402053833,0.5349150896072388,-0.0005435375794268,-0.0016312706393871,-0.0007383794903374,0.0298293828964233,0.0190111994743347,-0.0135011672973632,0,0,0,0
11.4,1788351736714,0.0,0.0,9.356695227324964e-05,0.007595564238727,-0.9284419417381288,0.3713999986648559,0.0,0.0,0.0,0.0,2.141171462355373e-09,0.0,-0.001255796290934,0.0074716601520776,-0.8448817729949951,0.5348992943763733,0.0020022358374454,-0.0009136320534695,0.001130638105248,0.0216573476791381,0.014626145362854,-0.0063343048095703,0,0,0,0
11.5,1788351736814,0.0,0.0,9.356695227324964e-05,0.007595564238727,-0.9284419417381288,0.3713999986648559,0.0,0.0,0.0,0.0,1.7146788433564095e-09,0.0,-0.0012716613709926,0.0074399411678314,-0.8448804616928101,0.534902036190033,-0.0001206912138127,0.000317741433882,-0.0002753882915023,-0.0130631923675537,-0.0198584794998168,-0.006443977355957,0,0,0,0
11.6,1788351736914,0.0,0.0,9.356695227324964e-05,0.007595564238727,-0.9284419417381288,0.3713999986648559,0.0,0.0,0.0,0.0,1.4455540098268214e-09,0.0,-0.0012865103781223,0.0074362056329846,-0.8448553681373596,0.5349414944648743,-0.0003023231758643,-0.0010876579983168,0.0027093672745811,0.2883960604667663,0.062811255455017,0.0100278854370117,123,206,3939,7408
11.7,1788351737014,1.774647831916809,3.239436626434326,3.5353703424334526e-05,0.0079192584380507,-0.9267024993896484,0.3757123351097107,0.0518564755085925,0.0017033232566757,3.244593347963012e-05,-0.0095976656302809,0.0009598770993761,0.1328973472118377,-0.001345126889646,0.0080352677032351,-0.8417299389839172,0.5398373603820801,-0.0331966104256858,0.0391448604945279,0.1747532473788162,0.344850480556488,0.1645828485488891,0.0104608535766601,110,298,7731,14941
11.8,1788351737114,2.873239517211914,5.830986022949219,-0.0007034288719296,0.007283023558557,-0.9212157130241394,0.3889832496643066,0.1256863221241916,0.0033860318186502,5.959664205822252e-05,0.0246818754822015,-0.047915231436491,0.3720280826091766,-0.0021998472511768,0.0067037949338555,-0.8333092927932739,0.5527620911598206,0.0358742655261365,-0.0724944335644468,0.4469593186238796,0.78221595287323,0.1896543502807617,-0.3147153854370117,168,242,11553,20062
11.9,1788351737214,3.7183098793029785,6.732394218444824,-0.0014339666813611,0.0039560538716614,-0.91221821308136,0.4096829891204834,0.1729485968069617,0.002568134272974,0.0003201613568241,0.0612974017858505,-0.0404448918998241,0.4902386367321014,-0.0028026793152093,0.0032200794667005,-0.8179114460945129,0.5753282904624939,-0.0040998381187295,-0.059613812323411,0.4156573102661977,0.2717189192771911,-0.0687180757522583,-0.3447456359863281,80,224,10331,20763
12.0,1788351737314,3.0985915660858154,6.788732528686523,-0.0014839896466583,0.0038662941660732,-0.901964545249939,0.4317902624607086,0.1665050359459361,0.004929515898841,-0.0001043723204697,0.0077367429621517,0.0048677762970328,0.457750141620636,-0.0022427001968026,0.0034102601930499,-0.8059359788894653,0.591988742351532,0.0120357583867707,-0.021385756436171,0.4535351174668019,-0.0356053709983825,0.2661188244819641,0.8701419830322266,51,305,9425,23442
12.1,1788351737414,3.8309860229492183,5.915493011474609,-0.0012024644529446,0.0039059410337358,-0.8915370106697083,0.4529294073581695,0.1584402137906236,-0.001544526518842,-1.9625195529492367e-05,0.004936630371958,0.0065229227766394,0.441284567117691,-0.0018850639462471,0.0036146212369203,-0.7933027744293213,0.6088137626647949,0.0052959230971813,0.0051056962140472,0.4112106800857608,0.2276706099510193,0.2425901293754577,-0.2362298965454101,162,421,11627,24248
12.2,1788351737514,3.6056337356567374,6.169013977050781,-0.0015339745441451,0.0034939560573548,-0.8851286172866821,0.4653306901454925,0.1602600257536617,-0.0001386191243536,1.1238504054888172e-05,0.0091134188696742,-0.0059911836870014,0.3110909163951874,-0.002080837264657,0.0032034115865826,-0.7849249243736267,0.6195791959762573,0.0074492175358883,0.0058679084994131,0.318983149601724,0.0430352091789245,0.4189485907554626,-0.5879030227661133,92,523,12360,25933
12.3,1788351737614,3.2676055431365967,6.591549396514893,-0.0014380821958184,0.0036488824989646,-0.8766899704933167,0.4810398519039154,0.1682015155769449,0.0019153620855824,4.500826945716008e-05,0.0027029316406697,0.0065431604161858,0.3657746911048889,-0.0020029945299029,0.0031722197309136,-0.7711024880409241,0.6367000937461853,0.0147132018341983,0.0134950203470755,0.3841390901366147,-0.17604660987854,0.0156459808349609,1.2825279235839844,82,472,10992,26690
12.4,1788351737714,3.774647951126098,6.3380279541015625,-0.0008221957832574,0.0036511798389256,-0.8666209578514099,0.4989531338214874,0.172365593796762,0.0059384693938871,0.000115643683678,-0.0009065840276889,0.012421790510416,0.4138667583465576,-0.0013459455221891,0.0033445255830883,-0.7589053511619568,0.6511909365653992,0.006138937947324,0.0600947764294328,0.4058132557558233,-0.1158111691474914,-0.188239574432373,0.6946983337402344,57,431,11529,24911
12.5,1788351737814,4.11267614364624,6.507042407989502,-0.0009260915685445,0.0028384395409375,-0.8556333184242249,0.517573893070221,0.1718934455824325,0.0040191951080802,4.4458200386074345e-05,0.0129992254078388,-0.0044274679385125,0.3975793123245239,-0.0013031121343374,0.00269465893507,-0.7468274831771851,0.6650111079216003,0.0167558568316623,0.0325430465947764,0.3895388384119578,-0.0290227532386779,0.0761498212814331,0.661219596862793,77,346,10325,23103
12.6,1788351737914,4.507042407989502,6.3380279541015625,-0.0010055974125862,0.0020936012733727,-0.845176100730896,0.5344827175140381,0.1829039265053361,-4.400187095837615e-05,2.573763969118388e-05,0.0128502091392874,-0.0130187543109059,0.391577661037445,-0.0016285497695207,0.002310805954039,-0.7311565279960632,0.6822039484977722,-0.0409579798683477,-0.0019040014831746,0.3124844875933006,-0.276253342628479,0.0523720979690551,0.2246179580688476,103,105,11292,17760
12.7,1788351738014,4.450704097747803,6.11267614364624,-0.0007040626369416,0.0054530818015336,-0.8383716344833374,0.5450713634490967,0.1754512262452403,0.0017074078740717,-0.0001629418834583,-0.0470550544559955,0.0416532307863235,0.2858728766441345,-0.0015941401943564,0.0050064418464899,-0.722674548625946,0.6911686062812805,0.0163726438082194,-0.0112452560618664,0.2942658852458907,-0.0358418226242065,-0.3285454511642456,0.9496240615844728,76,147,11218,18186
12.8,1788351738114,4.14084529876709,5.943662166595459,-0.000498803332448,0.004944572225213,-0.8301475644111633,0.557521641254425,0.1770498091729241,0.0033805021001233,9.850015351602172e-05,0.0546554215252399,-0.0524340942502021,0.3104338049888611,-0.0011427979916334,0.0044802129268646,-0.7119917273521423,0.7021727561950684,0.0513554272084092,-0.0275490056222399,0.3268781439074859,0.2903620600700378,0.2407184839248657,-1.089277267456055,38,168,12317,18072
12.9,1788351738214,4.02816915512085,5.6619720458984375,-0.001323843607679,0.0006728380685672,-0.8215798735618591,0.5700914859771729,0.1626469570297583,-0.0034959474705923,0.000240226312555,0.0462286211550235,-0.0593462474644184,0.2493543773889541,-0.0012257024645805,0.0005469797179102,-0.7038906812667847,0.7103071212768555,0.01271854674922,0.0081156371149004,0.2394514346431846,0.0590121150016784,0.412544310092926,-0.050999641418457,62,235,12527,19258
13.0,1788351738314,4.02816915512085,5.88732385635376,-0.0012717390200123,0.0010559576330706,-0.8159881830215454,0.5780662894248962,0.1728951312914109,0.0018389624435243,2.5802333173131137e-06,-0.0113058146089315,0.0016434420831501,0.2279586046934127,-0.0018122270703315,0.00025684107095,-0.6945355534553528,0.719456136226654,0.009096501963951,-0.0497169438710405,0.2190818175994741,0.0043351054191589,-0.0952252149581909,-0.6306266784667969,88,290,12537,20029
13.1,1788351738414,4.422535419464111,5.464788913726807,-0.001655030529946,0.0006645511602982,-0.8092164397239685,0.5875078439712524,0.1611514726154996,0.0021474022665225,5.513469406487625e-05,-0.0032464785035699,-0.0045801689848303,0.234342947602272,-0.0019207317382097,0.0001695267856121,-0.6869229674339294,0.7267277240753174,-0.0029724748558915,-0.0086736597727207,0.2207308601482604,-0.0056869983673095,-0.2311010360717773,0.7681894302368164,107,449,11360,23742
13.2,1788351738514,4.450704097747803,5.746479034423828,-0.001932134386152,0.0007310665678232,-0.8033220767974854,0.5955412983894348,0.1599063476018231,0.0021577826274133,-6.178801484988252e-06,-0.0046486086212098,0.0033355352934449,0.1909596621990203,-0.002032165415585,0.0003678351640701,-0.6805703639984131,0.7326798439025879,-0.0011240971784666,0.0085714392679127,0.2164582353024929,0.0034996271133422,0.2308419942855835,-0.4447956085205078,92,507,11173,25466
13.3,1788351738614,4.450704097747803,6.056337833404541,-0.0019920680206269,0.0014089512405917,-0.795326292514801,0.6061766743659973,0.170172816408138,0.004694824589353,-0.0001172968845188,-0.0178757328540086,0.028763486072421,0.2521266043186188,-0.002264754846692,0.0010726870968937,-0.6696236729621887,0.7426964044570923,-0.0099105012419528,0.0029103332361626,0.2544826437519903,0.0131908655166625,-0.2414931058883667,-1.0153512954711914,95,465,11146,24519
13.4,1788351738714,4.535211086273193,5.85915470123291,-0.0024479064159095,0.0015366163570433,-0.7881669998168945,0.6154547333717346,0.1695786807006855,0.0066205783150028,8.119671369728017e-06,-0.0102277025580406,-0.0031418376602232,0.2530860602855682,-0.002621529623866,0.0011544115841388,-0.6609092950820923,0.7504604458808899,-0.0026698558500634,0.0041773338318508,0.2318445496656085,0.0192340612411499,0.1972832679748535,-0.7986812591552734,51,469,10854,24701
13.5,1788351738814,4.591549396514893,6.253520965576172,-0.0029713897965848,0.0019101679790765,-0.780102014541626,0.6256422996520996,0.1743836835189851,0.0035954013374711,6.908356315622746e-05,-0.0130592547357082,-0.0111229615285992,0.2589826285839081,-0.0034566670656204,0.0010488275438547,-0.6488726139068604,0.7608885765075684,0.0041481607897921,-0.0242066802189489,0.2666419127928597,-0.0966929793357849,-0.0245718359947204,0.511937141418457,61,406,10647,23065
13.6,1788351738914,4.14084529876709,6.14084529876709,-0.0034543790388852,0.0015288626309484,-0.7706412672996521,0.637257993221283,0.1774956136747494,0.0053149036718323,5.848381503466242e-05,-0.0018730390584096,-0.0079123675823211,0.2787940502166748,-0.0035540461540222,0.0010760715231299,-0.6390151381492615,0.7691851854324341,-0.0021714328620774,0.0127802003718643,0.325804182509315,0.1207785606384277,0.1150302290916442,0.1459684371948242,41,325,11954,21984
13.7,1788351739014,4.056337833404541,5.85915470123291,-0.0027804446872323,0.0042509916238486,-0.7593757510185242,0.6506324410438538,0.1699003533239917,0.001599226256025,-0.0001133319109138,-0.0592052042484283,0.0772590041160583,0.3452924191951751,-0.0035076793283224,0.0041032396256923,-0.6268121600151062,0.7791517972946167,-0.094469094578101,0.1190016072713525,0.3619884791542647,-0.171398639678955,0.0539069771766662,1.974336624145508,50,200,12044,19416
13.8,1788351739114,3.774647951126098,6.14084529876709,-0.0030942037701606,0.0064781606197357,-0.7505450248718262,0.6607803702354431,0.1642158107591866,0.0036497766330092,7.856693839563577e-05,-0.0050613428466022,-0.0202031508088111,0.2989042103290558,-0.0042905127629637,0.0059018461033701,-0.6163151860237122,0.7874658107757568,-0.0201872933430051,-0.0013238021616707,0.3063315471055047,0.443936824798584,0.4342808723449707,-1.6342735290527344,139,196,13606,19370
13.9,1788351739214,4.253520965576172,6.084506988525391,-0.0025864774361252,0.0057982956059277,-0.7393667101860046,0.673272967338562,0.1788340395242779,0.003390813078092,7.305276389443178e-05,0.0306709837168455,-0.031566422432661,0.3107644915580749,-0.0037659918889403,0.0056328615173697,-0.6041263937950134,0.7968596816062927,0.0105285827644745,-0.0236128172105418,0.2849104469060273,-0.3913806676864624,0.028958261013031,0.4783248901367187,123,78,11802,16668
14.0,1788351739314,4.901408672332764,5.436619758605957,-0.0028392230160534,0.0028745678719133,-0.731960117816925,0.6813355684280396,0.1570408726165209,0.0056687552419836,2.442590929736354e-05,-0.0067270123399794,-0.01504497975111,0.1915030926465988,-0.0030982587486505,0.002385769970715,-0.5939353108406067,0.8045033812522888,0.0035751110298131,0.0127265092281288,0.1420004156649854,0.3408846855163574,-0.1637603044509887,0.5332794189453125,75,221,12142,17948
14.1,1788351739414,4.619718074798584,5.6619720458984375,-0.0024925230536609,0.0035029076971113,-0.7268363237380981,0.6867972612380981,0.1674036386480056,0.0032705947458381,-6.715733696049682e-06,-0.0061878622509539,-0.0143223144114017,0.156919777393341,-0.0030685905367136,0.0030106361955404,-0.5892974138259888,0.8079047203063965,-0.0123975090003866,-0.033677292593869,0.1805423801201409,-0.1244122385978698,0.1554045677185058,0.5699100494384766,36,230,12775,18389
14.2,1788351739514,4.253520965576172,5.070422649383545,-0.0017304583452641,0.0039658169262111,-0.7225801348686218,0.6912736296653748,0.156040720779238,0.0030394928813744,4.422146712263555e-05,0.0029201672878116,-0.0032836156897246,0.1122530177235603,-0.0025852983817458,0.0032181479036808,-0.5828027129173279,0.8126032948493958,0.0106128893067569,-0.0204643057486903,0.106230102230941,0.0293503999710083,0.0774462819099426,-1.2802362442016602,137,470,14317,22923
14.3,1788351739614,5.014084339141846,5.408450603485107,-0.0015058927237987,0.003635152708739,-0.7193225026130676,0.6946651339530945,0.1678988125403263,-0.0018439617739179,-6.30657410395101e-05,0.0120046539232134,0.0170785170048475,0.1136772260069847,-0.0021417615935206,0.0032042656093835,-0.5795115232467651,0.8149548768997192,0.0016186940546023,-0.0075226888917102,0.0933282026210665,-0.1404322981834411,0.0393702387809753,0.9233980178833008,88,527,11488,24201
14.4,1788351739714,4.02816915512085,5.915493011474609,-0.001485050888732,0.003117413027212,-0.7131618857383728,0.7009908556938171,0.171571905655696,0.0054719788759081,-5.824174974233804e-05,-0.0028377389535307,0.0048065949231386,0.2019934058189392,-0.0020343530923128,0.0027638357132673,-0.5732418298721313,0.8193790316581726,0.0020998797016092,0.0040091443742746,0.2014796451011479,0.0416023135185241,-0.1622987985610962,-0.8785829544067383,57,523,12313,25962
14.5,1788351739814,4.0,6.14084529876709,-0.0019738913979381,0.0024269227869808,-0.7047832608222961,0.7094157934188843,0.1661303921636363,0.0038660304211994,1.4822660798121916e-05,0.0072239129804074,-0.0091515751555562,0.2559487223625183,-0.0022165812551975,0.0022219056263566,-0.5606154799461365,0.8280704021453857,0.0085919666796767,0.0041051650922592,0.3051686108604295,-0.0295222997665405,0.1521799564361572,-0.1342496871948242,46,484,12429,24979
14.6,1788351739914,4.02816915512085,6.14084529876709,-0.0013854526914656,0.0028536836616694,-0.6950114369392395,0.718991756439209,0.164570056643016,0.0029613577630934,-2.5229308390251106e-05,0.0027548824436962,0.0169902667403221,0.2858260571956634,-0.00189028121531,0.0023989556357264,-0.5495113730430603,0.8354806303977966,0.0082093785347796,-0.0025246512085656,0.2995314937059533,-0.0419531464576721,0.1674099564552307,-0.4754743576049804,80,395,12430,23724
14.7,1788351740014,4.901408672332764,6.450704097747803,-0.0018133529229089,0.0018065910553559,-0.6841786503791809,0.7293099164962769,0.1717968636518557,0.0055139467082098,0.0001255160540639,0.007088225800544,-0.0301859136670827,0.2989656329154968,-0.0021378714591264,0.0013690833002328,-0.5382000803947449,0.84281325340271,0.0057330851785644,-0.013109720143781,0.3460918828845161,0.3037834763526916,0.097439706325531,-0.44683837890625,69,141,11687,18221
14.8,1788351740114,4.450704097747803,5.380281925201416,-0.0021525418851524,0.0020242952741682,-0.6730567812919617,0.7395849227905273,0.1757656177263037,-0.0016609007639915,-4.743082665247173e-05,-0.0375587120652198,0.022361995652318,0.2368039190769195,-0.0026674587279558,0.0026087267324328,-0.5253130197525024,0.8509008884429932,-0.0724667368655996,0.0523816277809788,0.1476554467388648,0.0770256519317627,0.0127199292182922,0.393533706665039,66,265,13430,18885
14.9,1788351740214,5.464788913726807,5.042253494262695,-0.0029303790070116,0.0036277705803513,-0.6693257093429565,0.7429544925689697,0.169771920878291,-0.0004435553531181,5.824493954822933e-05,-0.0041155680082738,-0.0241294745355844,0.0573194660246372,-0.0035444134846329,0.0030306726694107,-0.5221640467643738,0.8528323769569397,-0.0113839173467001,-0.0193604394556069,0.0305823521421877,0.3951432108879089,-0.032438039779663,0.1637229919433593,124,255,13148,17339
15.0,1788351740314,5.183098793029785,5.183098793029785,-0.0027523729950189,0.0028641165699809,-0.6664504408836365,0.7455387115478516,0.174949478366551,-0.0002406271471988,6.000740009931148e-05,0.0368822179734706,-0.0234197452664375,0.0993958190083503,-0.0026949811726808,0.0014101322740316,-0.5186376571655273,0.8549887537956238,0.0714348393796917,-0.0366577738049304,0.01650875590842,-0.0665764808654785,0.0253140330314636,-0.03759765625,159,104,14008,14722
15.1,1788351740414,5.014084339141846,4.788732528686523,-0.0023801522329449,-0.0008904138230718,-0.6667632460594177,0.7452653050422668,0.1576308955360041,-0.0090368584965088,0.0001130244625229,0.0248632654547691,-0.0393178798258304,-0.0308196265250444,-0.0021986095234751,-0.0014711478725075,-0.5194507241249084,0.8544963002204895,0.0029087987219869,-0.051599962605849,-0.0691234978437821,-0.1421220898628235,0.1442683935165405,-0.1737575531005859,108,220,14395,16366
15.2,1788351740514,5.042253494262695,4.985915660858154,-0.0023453789763152,-0.0004937479970976,-0.667870283126831,0.744273841381073,0.1702489794891907,-0.0033372715949408,1.530099547913887e-06,-0.0059101791121065,0.0132943857461214,-0.0137483328580856,-0.0021937806159257,-0.0015675984323024,-0.520747721195221,0.853706419467926,0.0246227563655662,-0.0375319173546421,-0.0207867677687895,-0.0737016797065734,-0.1085573434829711,-0.0809745788574218,103,246,13187,18248
15.3,1788351740614,4.591549396514893,4.901408672332764,-0.0022947266697883,-0.0011398183414712,-0.6676637530326843,0.7444584965705872,0.1720236368885768,-0.002764550129111,7.783785765993888e-05,0.0047858646139502,0.0042240289039909,0.0246688872575759,-0.0022442145273089,-0.0015857992693781,-0.5203551054000854,0.8539455533027649,-0.003037949841106,0.0178254070398745,-0.0018490195668098,-0.0547801852226257,-0.0182823538780212,0.0018863677978515,83,341,14647,19807
15.4,1788351740714,4.647887229919434,4.8450703620910645,-0.0030477028340101,-0.0017491275211796,-0.6684569120407104,0.7437426447868347,0.1595865117026209,-0.000910008602773,2.399155036592537e-05,-0.0002132337685907,-0.0121065154671669,0.0007677439134567,-0.002619968727231,-0.0021522818133234,-0.5212626457214355,0.8533896207809448,-0.0066784560666344,-0.0053231423382719,-0.0075918853221278,0.0126324295997619,-0.0795069336891174,0.2389163970947265,92,531,14416,23775
15.5,1788351740814,4.535211086273193,5.042253494262695,-0.0029082652181386,-0.0017757355235517,-0.66764897108078,0.7444684505462646,0.1679938506949237,0.0006641914622283,9.907856856980149e-05,0.0008513113716617,0.0014319957699626,0.0227859169244766,-0.0026020398363471,-0.0023367246612906,-0.5195589661598206,0.8544275164604187,0.0020536761047653,-0.0187983581336621,0.0665529815622783,-0.0066350698471069,0.2487754225730896,1.0031061172485352,86,526,14835,24012
15.6,1788351740914,4.8450703620910645,5.211267471313477,-0.0032751022372394,-0.0013540718937292,-0.6663530468940735,0.7456279397010803,0.1737352081120668,0.0006518539294494,9.884097844335324e-05,-0.0125335594639182,-0.0151227172464132,0.0267590228468179,-0.0028675096109509,-0.0020289001986384,-0.5182737708091736,0.855207622051239,0.006382986619865,0.0098969302227773,0.0525348420296738,-0.1223071813583374,-0.0709841847419738,-0.1957569122314453,43,519,13680,24112
15.7,1788351741014,5.295774459838867,5.380281925201416,-0.0034401279408484,-0.0016237251693382,-0.6638935208320618,0.7478174567222595,0.1705076368870174,-0.002870568345997,2.955476708008101e-05,0.0066147833131253,-0.0101791815832257,0.0713943690061569,-0.0030851569026708,-0.0022254819050431,-0.5159335136413574,0.8566201329231262,0.0035703176609133,-0.0100178409904183,0.0878361963608202,0.2126277685165405,0.0023047924041748,0.8137950897216797,96,460,12251,23035
15.8,1788351741114,4.760563373565674,5.408450603485107,-0.0041621541604399,-0.0021067683119326,-0.661522626876831,0.7499107122421265,0.1709023434598057,0.0004470022056365,1.930540060092669e-05,-0.0048382147215306,-0.022374102845788,0.075080469250679,-0.0037588682025671,-0.0029147416353225,-0.5132355690002441,0.8582346439361572,-0.0025165651711292,-0.0319242194153453,0.073658680155326,-0.0238504409790039,0.1367388367652893,-0.3151464462280273,94,451,14080,22150
15.9,1788351741214,5.070422649383545,5.042253494262695,-0.0040747188031673,-0.0024396011140197,-0.659537136554718,0.7516569495201111,0.1756566691437297,0.0001201213367968,-2.865140516995333e-05,0.0063698389567434,-0.013286423869431,0.0341455340385437,-0.0037535475566983,-0.003474436700344,-0.5110304355621338,0.85954749584198,0.0008467383352631,-0.0700754715140975,-0.0212158072337071,0.1249154210090637,-0.1793551445007324,-0.2782964706420898,90,310,15403,19639
16.0,1788351741314,5.239436626434326,5.126760482788086,-0.0041248621419072,-0.0019293645163998,-0.6582618951797485,0.752775251865387,0.1826762522948946,-0.0025312593759996,4.6826780228109055e-06,-0.0148724475875496,0.00165581330657,0.0341718420386314,-0.0038963388651609,-0.0027629304677248,-0.5095202922821045,0.8604453802108765,-0.0306885510116385,-0.0062216152295099,0.0148248217629769,-0.32048100233078,-0.1951027512550354,-0.8730764389038086,113,134,14397,15236
16.1,1788351741414,4.985915660858154,5.042253494262695,-0.0046982141211628,0.0010606470750644,-0.660036563873291,0.7512180209159851,0.1710715011938936,0.0045942991204877,-0.0001346455036323,-0.023128455504775,0.0251602996140718,-0.0283382050693035,-0.0049402974545955,-0.0001837471500039,-0.5114794969558716,0.8592813014984131,0.0136311773746,-0.0430893381356905,0.0013770909965152,0.0621640086174011,-0.0138346552848815,0.648707389831543,103,282,14362,18106
16.2,1788351741514,5.352112770080566,5.295774459838867,-0.0051932642236351,0.000655390555039,-0.6575282216072083,0.7534117102622986,0.1849543845453047,0.0012122795989007,6.744238733700247e-05,0.0206999201327562,-0.0449043735861778,0.1243000626564025,-0.0052697155624628,-0.0010651294142007,-0.5077085494995117,0.8615121841430664,0.0360380147349177,-0.0726657946618746,0.1181202640843391,-0.1942715048789978,0.123488962650299,-0.139409065246582,80,79,14678,15737
16.3,1788351741614,5.042253494262695,5.098591327667236,-0.0047550592571496,-0.0035629647318273,-0.6558552980422974,0.7548632621765137,0.1731793187019182,0.0015623773767427,0.0001967117431717,0.0873276442289352,-0.0719910115003585,0.0189702156931161,-0.0036555798724293,-0.0042170388624072,-0.5066347122192383,0.86214280128479,0.0486896239872213,-0.0088704171847704,0.0236435878217525,-0.1596836447715759,0.0568411350250244,0.2450008392333984,31,133,14066,15283
16.4,1788351741714,5.295774459838867,5.014084339141846,-0.0041653206571936,-0.0030299550853669,-0.6562227010726929,0.7545496821403503,0.1672497509907159,-0.0003994568386506,-1.123158910239616e-05,-0.0072898175567388,0.0115897385403513,-0.021974703297019,-0.0035791639238595,-0.0035074213519692,-0.5076583623886108,0.8615439534187317,-0.0146858739085663,0.0131971422306877,-0.0386930312393362,-0.0784660577774047,0.0447215437889099,-0.540034294128418,114,217,13515,16873
16.5,1788351741814,5.014084339141846,4.8450703620910645,-0.0041221999563276,-0.0029641529545187,-0.6573821306228638,0.7535402774810791,0.1646480118221081,-0.0023764971161194,-2.5142547883101623e-05,0.0052316505461931,0.0067136730067431,-0.0110941110178828,-0.0031889118254184,-0.0031801471486687,-0.508838415145874,0.8608503341674805,0.0016251571373681,0.0387525952360812,-0.0165183985096452,0.0979442000389099,-0.0431860089302063,-0.5241260528564453,120,278,14425,18452
16.6,1788351741914,4.760563373565674,4.619718074798584,-0.0034658194053918,-0.0022163121029734,-0.6591336727142334,0.7520145177841187,0.1597891431853343,-0.0050710471768833,-1.7739377379814295e-05,-0.0034663877449929,0.0003098953457083,-0.0428517870604991,-0.0030782809481024,-0.0028618015348911,-0.5110222697257996,0.8595572113990784,-0.0034453093578354,-0.0154604944057634,-0.059985148438653,0.1165932416915893,0.0180462002754211,0.5536375045776367,97,522,15344,22130
16.7,1788351742014,4.985915660858154,4.929577350616455,-0.0030679195187985,-0.0018704073736444,-0.6608978509902954,0.7504671812057495,0.1713211562794458,-0.0022265583965809,-5.086562078562081e-05,0.003157319035381,0.0103543289005756,-0.0298230666667222,-0.0025802012532949,-0.002452946268022,-0.5126874446868896,0.8585678935050964,-0.0097360987610649,-0.0008673315357217,-0.0132582329381215,0.2632455229759216,0.1814343929290771,-0.1889724731445312,57,527,14523,23326
16.8,1788351742114,4.647887229919434,5.549295902252197,-0.0019508387194946,-0.0007391675608232,-0.6603156328201294,0.7509852647781372,0.1732871256930475,-0.001476399390084,-0.0001044195932107,-0.0024691876024007,0.0602193102240562,0.0472259260714054,-0.0018150471150875,-0.0011613415554165,-0.510769784450531,0.859714925289154,-0.0001156220605257,0.0095263901992186,0.1099882997970434,0.0564286112785339,0.2330662012100219,-2.327030658721924,58,575,12200,25637
16.9,1788351742214,4.309859275817871,5.746479034423828,-0.0009490816737525,0.0002273193385917,-0.6539533138275146,0.7565343379974365,0.1669777464208167,0.0006554788662414,-9.527066835240866e-05,0.0063003273680806,0.0162186529487371,0.1770185679197311,-0.0009752539917826,3.389082849025726e-05,-0.5044084191322327,0.8634646534919739,0.0052409807705781,0.0077468025480749,0.1791020143217471,0.098609447479248,0.3102182745933532,0.4049654006958008,73,527,13452,24961
17.0,1788351742314,4.732394218444824,5.690140724182129,-0.0002423599362373,0.0014839462237432,-0.6469250917434692,0.7625520825386047,0.1620846812098255,0.0025676561961811,-3.6304708352319255e-05,-0.0095271626487374,0.0321024693548679,0.2014505267143249,-0.0004401709884405,0.0016145156696438,-0.4964545667171478,0.8680610656738281,-0.0130974174732638,0.0617700231651235,0.2003980186017064,0.0557581186294555,-0.1603115797042846,-0.6451539993286133,48,469,12195,23869
17.1,1788351742414,4.676056385040283,5.7183098793029785,4.5727938413620006e-07,0.0022236502263695,-0.6402546763420105,0.7681595683097839,0.171325085517717,0.0035199651973841,-9.344841593483822e-06,-0.0084454519674181,0.0193382073193788,0.1614162176847458,-0.0005072252824902,0.0019263196736574,-0.4873075783252716,0.873228132724762,0.0023318272710137,-0.0086244945451998,0.1651176334938813,0.3714224100112915,0.0770782232284545,-0.6516246795654297,47,446,12089,23599
17.2,1788351742514,4.704225540161133,5.7183098793029785,0.0006528720259666,0.0038996820803731,-0.6297714114189148,0.7767704725265503,0.1774140013305814,0.004698981785349,-7.32813224480574e-05,-0.0217131581157445,0.0525770671665668,0.2656061053276062,-7.462315261363983e-05,0.0040414771065115,-0.4768933951854706,0.878951907157898,-0.04342070877654,0.1035871017657436,0.2480829787355856,-0.5294332504272461,-0.1952224969863891,0.9586963653564452,48,178,12193,17984
17.3,1788351742614,4.3380279541015625,5.492957592010498,0.0009079158771783,0.0081593096256256,-0.6238116025924683,0.7815316319465637,0.1732037399915755,0.0023404407969342,-0.0001816896496972,-0.0090777473524212,0.0347943678498268,0.1480058580636978,-0.0007032062858343,0.008444545790553,-0.4687410891056061,0.8832949995994568,-0.0179258090262094,0.0013208699012079,0.1770340129246958,0.2244371175765991,0.3250762224197387,-0.7774286270141602,66,245,13412,19415
17.4,1788351742714,5.267605781555176,5.436619758605957,0.0009590850677341,0.0079961474984884,-0.616478681564331,0.7873304486274719,0.1819480520373622,0.0024032725943395,0.0001067524120036,0.0303609427064657,-0.0355129837989807,0.2151087075471878,-0.0004561264067888,0.0081188222393393,-0.4611549973487854,0.8872823119163513,0.0044766839802092,0.016209521391679,0.0965126001442382,-0.2654259204864502,-0.091167151927948,0.670720100402832,87,83,12768,15182
17.5,1788351742814,5.014084339141846,5.126760482788086,0.0013389090308919,0.004122563637793,-0.6144635677337646,0.7889333367347717,0.1613101254926587,-0.0063506882635978,0.0002560225573852,0.0542500577867031,-0.0614010170102119,0.0437303371727466,0.0003894958645105,0.0039910664781928,-0.4595840573310852,0.8881252408027649,0.0076951215538984,-0.0190781179413258,0.0391288392151079,0.0318695306777954,0.0572375655174255,-0.5024881362915039,105,186,13281,16309
17.6,1788351742914,5.154929637908936,5.014084339141846,0.0009041242301464,0.003521311096847,-0.6134796738624573,0.7897021770477295,0.1654429059302276,0.0011362515651041,9.87821199633674e-05,0.0023686105851083,-0.0150412768125534,0.0136565016582608,0.0002713203430175,0.0033016679808497,-0.4579995274543762,0.8889462351799011,0.0152640460311239,-0.0129406524533966,0.0014567654234304,0.1444325447082519,-0.3415194153785705,-0.049138069152832,141,199,14047,16600
17.7,1788351743014,4.591549396514893,4.929577350616455,0.0008234075503423,0.003155009355396,-0.6135852932929993,0.7896217703819275,0.1656354483821539,-0.0035111037154762,3.403354257458267e-05,0.0065174368210136,-0.0067297704517841,-0.0293653924018144,5.525723099708557e-05,0.0034622885286808,-0.4593565464019775,0.8882452249526978,-0.0141312218476682,0.0198981650399276,-0.0253144643382802,-0.0849466919898986,0.176891803741455,0.8824901580810547,69,291,14569,18969
17.8,1788351743114,4.253520965576172,5.183098793029785,0.0005156961269676,0.0034132171422243,-0.6149516701698303,0.7885572910308838,0.1494469203638986,-0.0030937357169414,-1.1666752835111082e-05,-0.0005646181525662,0.0030724795069545,-0.0139234522357583,-0.0002765599638223,0.0028596092015504,-0.460472822189331,0.8876691460609436,0.0087790073750053,-0.0430783460590209,-0.001945931393018,0.269952654838562,-0.0167006254196167,0.185154914855957,23,545,11680,24193
17.9,1788351743214,5.098591327667236,4.985915660858154,0.0005216498393565,0.0027312401216477,-0.6120893955230713,0.790783703327179,0.1697755095509366,0.0003593105542949,-5.85070096840031e-05,0.0090696839615702,0.0107891103252768,0.0970633774995803,-0.0002390593290328,0.0023269969969987,-0.4555257558822632,0.890219509601593,-0.0044640031296616,-0.0284480847311638,0.0901185116743248,-0.5541000962257385,-0.263548195362091,-0.3258600234985351,50,488,14123,22789
18.0,1788351743314,5.154929637908936,4.816901206970215,-0.0002457824884913,0.0021179225295782,-0.6111371517181396,0.7915217876434326,0.1566429169403226,-0.0046385065326036,7.035375061379665e-05,-0.0120298424735665,-0.0181792881339788,-0.007847735658288,-0.0005612364038825,0.0019462779164314,-0.4559398293495178,0.890008270740509,0.0117151333654331,0.0021243719155304,0.0192340526905457,-0.0211696028709411,-0.0831491351127624,-0.46356201171875,57,657,13748,25701
18.1,1788351743414,5.295774459838867,5.126760482788086,-0.000942911254242,0.0015556325670331,-0.6118543744087219,0.7909682989120483,0.1656048119176681,-0.0010182175902704,-1.0111792282270745e-05,0.0005867577856406,0.0016280800336971,-0.0188554301857948,-0.000968674197793,0.0011540157720446,-0.4568415284156799,0.8895468711853027,0.0115725429198694,-0.0080344994241507,0.0108925375746543,0.202011227607727,0.2778523564338684,-0.4428491592407226,112,673,13435,25873
18.2,1788351743514,5.549295902252197,5.126760482788086,-0.0004751068772748,0.0016667171148583,-0.6114550828933716,0.791277289390564,0.173956966730579,0.0004192878275097,4.212259955809121e-06,0.0057052816264331,0.0305013507604599,-0.0021590783726423,-0.0007336381822824,0.0014783209189772,-0.4564653933048248,0.8897396326065063,0.0095187991726709,0.0238336215107663,-0.006319479130487,-0.034165620803833,-0.169773519039154,-1.466029167175293,104,508,13737,23442
18.3,1788351743614,5.492957592010498,4.760563373565674,-0.0007760993903502,0.0010245502926409,-0.6130980253219604,0.7900057435035706,0.1612025932333673,-0.0017419160457535,0.0001373314263041,0.0035520619712769,-0.02117670327425,-0.0528824739158153,-0.0008744662627577,0.0007268078625202,-0.4595958292484283,0.8881274461746216,0.0089485999868855,-0.0081021755357808,-0.0890424624622373,0.2845693826675415,-0.2297529578208923,1.3807172775268557,137,616,13838,24824
18.4,1788351743714,5.295774459838867,5.97183084487915,-0.0010596392676234,0.0003599483170546,-0.6144611835479736,0.7889463305473328,0.176350594894421,-0.0027762867440516,-3.105977481241979e-06,0.0067850137129426,-0.0228110253810882,0.0237061455845832,-0.0011707441881299,0.000440314412117,-0.4579102098941803,0.8889976143836975,-0.0112652063820014,0.0109391095696002,0.1769149818700673,0.1287198066711425,0.5357308387756348,-1.2738122940063477,50,233,14416,18852
18.5,1788351743814,5.183098793029785,4.985915660858154,-0.0019297840772196,0.0037289094179868,-0.6124749183654785,0.7904788255691528,0.1734086551174883,-0.0019214557238257,-0.000155696250889,-0.057690218091011,0.039275761693716,-0.0469251424074173,-0.0026201773434877,0.0033699963241815,-0.4576976597309112,0.8890976905822754,-0.0235174920914239,0.0163885233123468,-0.0542423709936884,-0.0867654681205749,-0.1371228694915771,-0.3432321548461914,49,233,14559,17122
18.6,1788351743914,5.352112770080566,5.323943614959717,-0.0023623728193342,0.0044106417335569,-0.6132963299751282,0.7898370623588562,0.1677154195648012,0.0019640885419643,-4.082586064992995e-05,-0.0220938622951507,0.0098764086142182,0.0158121641725301,-0.003201744519174,0.0039595551788806,-0.4583642780780792,0.8887497782707214,-0.0157648245892647,-0.0015395909785134,0.0440419540561164,0.2113658189773559,-0.1132052540779113,-1.5535335540771484,45,155,14594,16075
18.7,1788351744014,5.521126747131348,4.788732528686523,-0.0018564721103757,0.0040292227640748,-0.6121693253517151,0.7907143235206604,0.1871453004126779,-0.0038773754675147,-1.556233754031299e-06,0.0258365347981452,0.0001014555527945,0.0585681349039077,-0.0020183697342872,-0.0007445067167282,-0.458494484424591,0.8886946439743042,0.1043467290995561,-0.1528684257456099,-0.0498935216984536,-0.1123427748680114,-0.1717549562454223,-1.6220626831054688,76,174,13326,15536
18.8,1788351744114,5.521126747131348,4.957746505737305,-0.0019807498902082,-0.000151740561705,-0.6151367425918579,0.7884179949760437,0.155418645105523,0.0016252388875991,-2.864088106309048e-07,-0.0045720222406089,0.002595274709165,-0.0818255618214607,-0.0019441088661551,-0.000834871083498,-0.460793524980545,0.8875049352645874,0.0024161934691944,-0.0034391230127447,-0.0587959410901601,0.0431563258171081,-0.3577724099159241,1.1448869705200195,78,172,13571,16127
18.9,1788351744214,5.577464580535889,4.788732528686523,-0.0020526181906461,-0.0007199206156656,-0.6169021725654602,0.7870368361473083,0.1743029710312237,-0.0010447846708589,6.362217825831986e-05,0.0075922366231679,-0.0120026106014847,-0.0601919591426849,-0.0018558790907263,-0.0010472228750586,-0.462452083826065,0.8866416811943054,0.0044862620083636,-0.010233271730909,-0.0614427132939603,-0.2262670397758484,0.087348997592926,-0.3115224838256836,79,215,13300,16672
19.0,1788351744314,5.549295902252197,4.450704097747803,-0.0020992595236748,-0.0002752714208327,-0.6203556656837463,0.7843177914619446,0.1710114435120649,-0.0006640855352694,-3.938785870166545e-05,-0.0136008355766534,0.0253168754279613,-0.1326986700296402,-0.0020386092364788,-0.0006975568830966,-0.4679883420467376,0.88373202085495,-0.0009938806064999,-0.000398572317149,-0.1360167420669382,-0.1608781814575195,-0.3470664024353027,0.3461008071899414,66,381,13481,19794
19.1,1788351744414,5.633802890777588,4.591549396514893,-0.0018638831097632,-0.0003376589738763,-0.625095009803772,0.7805463671684265,0.1639071456289296,-0.001757503871091,-2.7846476936958715e-05,-0.0017664139159023,0.0096042016521096,-0.1169444844126701,-0.0016016261652112,-0.0006341962143778,-0.472548097372055,0.8813031911849976,0.0131871173785247,0.0091342094792228,-0.1109770905386473,0.0985833406448364,-0.1211970448493957,-0.4387216567993164,81,510,13329,22216
19.2,1788351744514,4.901408672332764,4.901408672332764,-0.0019396911375224,-0.0009415650274604,-0.628642201423645,0.7776916027069092,0.1640110393971758,-0.0044981934524939,2.512766008196853e-05,0.0051048728637397,-0.0072383577935397,-0.0711873695254325,-0.0017862198874354,-0.0014701737090945,-0.4756320416927337,0.8796412944793701,0.0013807404632374,-0.0298469203472458,-0.0548505592304485,0.0182297229766845,0.1366362571716308,1.420426368713379,57,496,15738,22096
19.3,1788351744614,5.183098793029785,4.788732528686523,-0.0021619938779622,-0.0003080775495618,-0.6319913268089294,0.7749724388122559,0.163466541086686,-0.0054685393206887,1.0660305746943508e-05,-0.0051831589080393,0.0040669119916856,-0.0780524387955665,-0.0019952002912759,-0.0007294146344065,-0.4800523817539215,0.8772372603416443,0.0088670349213568,-0.0031617420370481,-0.0533380929929219,-0.2860979437828064,0.3398841619491577,-0.2299451828002929,44,540,14557,23953
19.4,1788351744714,5.211267471313477,5.154929637908936,-0.0023468397557735,-0.0004652771167457,-0.6340722441673279,0.7732701301574707,0.161883036914491,-0.0039945554414568,5.0435072388793846e-05,-0.0020557274110615,-0.0197772122919559,-0.0446419119834899,-0.0020261080935597,-0.0006678933277726,-0.4819771349430084,0.8761811852455139,0.0066175582200798,0.0169509819895113,-0.005634520717184,0.1466593146324157,-0.0350832939147949,0.2089042663574218,127,543,14584,23384
19.5,1788351744814,5.633802890777588,4.647887229919434,-0.0016199087258428,0.0005219011218287,-0.633975625038147,0.7733511328697205,0.1705564804359821,-0.0029472640009537,-0.0001330680424396,-0.00025729459594,0.0248830001801252,-0.0078629832714796,-0.0016628289595246,0.0002231895923614,-0.4820910096168518,0.8761195540428162,0.001364442495627,-0.0084026606184569,-0.0151251098462833,-0.1623256206512451,0.0794582962989807,-0.0656166076660156,77,568,13224,24198
19.6,1788351744914,3.436619758605957,4.0,-0.0007081788498908,0.0011572893708944,-0.6355182528495789,0.772084653377533,0.1572741266015712,-0.0012828230860955,-4.553993124393614e-05,0.0116198183968663,0.0267528239637613,-0.0727512314915657,-0.0008980520069599,0.0007323892787098,-0.4842765629291534,0.8749141693115234,0.0095167963450209,-0.0157310602189197,-0.0515339208930593,-1.223015069961548,0.2402064800262451,1.1461496353149414,103,506,5775,19999
19.7,1788351745014,0.7042253613471985,3.859154939651489,-0.0001170323230326,0.0010696923127397,-0.6273928284645081,0.7787021398544312,0.0873366912715266,0.0020883285296261,-1.8664559822407272e-05,0.0080618346109986,0.0144340749830007,0.3381002843379974,-0.000289256684482,0.0010540578514337,-0.4733372628688812,0.8808806538581848,0.0040645727720981,0.0145098060770315,0.4652369348805335,-0.8499279022216797,0.6846446394920349,-0.7384929656982422,51,147,0,11966
19.8,1788351745114,-1.4647886753082275,1.94366192817688,-0.0002757475012913,0.0024907742626965,-0.60903000831604,0.7931432723999023,0.0372087552591665,-0.0080431579975553,-5.651067332458229e-07,-0.0301428493112325,0.0236731488257646,0.496672511100769,-0.0007673809304833,0.002594175748527,-0.4522180259227752,0.8919034004211426,-0.0372673505377919,0.0451790270330514,0.474130480064002,-1.2062032222747805,0.1450053453445434,0.3197765350341797,186,192,-9291,8400
19.9,1788351745214,-2.309859037399292,1.887323975563049,-0.0009256928460672,0.0038397226016968,-0.5851526856422424,0.810913622379303,-0.009029704082868,-0.002744681349873,4.557125706160965e-06,-0.0291679613292217,0.013093477115035,0.6411011219024658,-0.0018000425770878,0.0040223821997642,-0.4190570116043091,0.9079493284225464,-0.0249820219160947,0.0229307243603405,0.6121107892122347,0.2202600836753845,0.0036872625350952,0.0649795532226562,49,282,-6084,9690
20.0,1788351745314,-1.8591549396514893,1.8309859037399288,-0.001425486174412,0.0044189468026161,-0.5584145784378052,0.8295490145683289,0.0062646398826776,-0.0014561493524074,3.4228275119032493e-06,-0.0089687164872884,-0.0089611541479825,0.5639258027076721,-0.0022096689790487,0.004093992523849,-0.3953061401844024,0.918537735939026,-0.0027041551514367,-0.0065513979530299,0.5601068300750403,-0.2379275560379028,0.0265020132064819,-0.0212926864624023,95,245,-6747,9860
20.1,1788351745414,-1.5492957830429075,1.408450722694397,-0.0017138865077868,0.0040977355092763,-0.5373889207839966,0.8433228135108948,0.0039927026197561,-0.0074212239637001,2.801590031401474e-06,-0.0055672009475529,-0.0102754738181829,0.4568183422088623,-0.0024343794211745,0.0037151901051402,-0.3740983605384826,0.9273784160614014,-0.008687929159191,-0.0149030282339226,0.4266583063223776,0.1593011021614074,-0.0721852779388427,-0.0645580291748046,54,263,-5895,8976
20.2,1788351745514,-1.6056338548660278,1.8591549396514893,-0.0020647824276238,0.004696087911725,-0.5182576775550842,0.8552091121673584,0.0058109901447364,-0.0033537101070827,1.179153481884707e-06,-0.0145027078688144,-0.0004148398875258,0.5248766541481018,-0.0029536765068769,0.0042165648192167,-0.3456839621067047,0.9383368492126464,-0.0042509963603405,-0.0062046035004538,0.6180590393829541,0.0917385816574096,-0.0139486789703369,-0.1182126998901367,110,74,-5902,6304
20.3,1788351745614,-1.5211267471313477,1.5211267471313477,-0.0020684865303337,0.0044103027321398,-0.4955820143222809,0.8685474991798401,0.0046521913148029,-0.0041600063029736,2.0856708003933945e-06,0.007111978251487,-0.0107867717742919,0.4743058979511261,-0.0027726059779524,0.0038933241739869,-0.3244977593421936,0.9458743333816528,0.0067990524963554,-0.0031700734611227,0.4549125765840349,-0.1681197881698608,0.0473654270172119,-0.0355710983276367,101,111,-6075,6075
20.4,1788351745714,-1.154929518699646,0.98591548204422,-0.0021343263797461,0.003759367391467,-0.4745597243309021,0.8802127242088318,-0.0067945054165628,-0.002219297648199,-3.0676032547417283e-06,-0.0015091596869751,-0.0127377342432737,0.4106052815914154,-0.0027865329757332,0.0033073080703616,-0.305849939584732,0.952069878578186,-0.0037211503406874,-0.0153799368115176,0.374581971594041,0.1959239840507507,-0.1528295874595642,-0.0037031173706054,43,152,-4697,5934
20.5,1788351745814,-1.042253494262695,1.183098554611206,-0.0023058864753693,0.0030751242302358,-0.4598060846328735,0.8880110383033752,0.0046285313609,-0.0017652259586409,-8.56855435481695e-07,0.0038436381146311,-0.0086476011201739,0.3224996924400329,-0.0027199769392609,0.0025209886953234,-0.286758154630661,0.9579958319664,0.0107421114439322,-0.0068670445487845,0.3017693459444951,0.0571957230567932,-0.0950639247894287,0.1184577941894531,59,116,-5083,5818
20.6,1788351745914,-1.183098554611206,1.211267590522766,-0.0018003890290856,0.0021534441038966,-0.4467259049415588,0.8946664333343506,0.0011951867449738,-0.000632304990485,-1.1563012469888664e-07,0.0252304747700691,-0.0248638018965721,0.3380727767944336,-0.0019851867109537,0.0015232684090733,-0.2721135318279266,0.962261974811554,0.0251364500331815,-0.0216577984720476,0.3731344527756055,-0.2081230282783508,0.0364601016044616,-0.0107040405273437,103,100,-5043,5837
20.7,1788351746014,-1.211267590522766,0.98591548204422,-0.0014931594487279,0.0009176771272905,-0.4293962717056274,0.9031144976615906,-0.0024649758017183,-0.003505716325972,-2.295730528309815e-06,0.0083640972152352,-0.0122771393507719,0.3672227561473846,-0.0016176179051399,0.0005857674404978,-0.2556119859218597,0.9667779803276062,0.0080943241053358,-0.01245806234872,0.3925449006022721,0.1107605695724487,-0.1285330057144165,0.1254510879516601,89,202,-4703,6463
20.8,1788351746114,-0.7323943376541138,0.7323943376541138,-0.0014062412083148,0.0005108163459226,-0.4176242351531982,0.9086186289787292,0.003058684798334,-0.0040669929435992,-3.666210673548836e-06,0.0039342758245766,-0.0041858474723994,0.2205780744552612,-0.0014547491446137,0.0003301119431853,-0.2419621348381042,0.9702845811843872,1.808620975737422e-05,0.0055473571531172,0.1668094742578811,-0.1927893161773681,0.0971201658248901,0.0828208923339843,55,300,-4274,6449
20.9,1788351746214,0.0,0.0,-0.0012837839312851,0.0003683345858007,-0.4083008766174316,0.9128463864326476,-0.0017290075295771,-0.0042590851950643,-9.431392184736182e-07,0.0030842903070151,-0.0026366552338004,0.1614323258399963,-0.0013611940667033,5.538947880268097e-05,-0.2344935238361358,0.9721167087554932,-0.001810571201867,-0.0051823926402268,0.05180534555648,0.5551998615264893,-0.2974086403846741,0.0587081909179687,58,86,3031,3244
21.0,1788351746314,3.492957830429077,3.6056337356567374,-0.0015244773821905,0.0003871807421091,-0.4103900492191314,0.911908745765686,0.0708470725033861,0.0011096297644971,1.8992327100708812e-06,-0.0040571368299424,0.000751910614781,-0.0568172261118888,-0.0015303753316402,0.0003009317442774,-0.2370635867118835,0.9714929461479188,-0.0033145341590177,0.0171321768065258,-0.0479296237486281,0.756648600101471,0.0863879919052124,-0.1270513534545898,149,367,9913,13974
21.1,1788351746414,4.985915660858154,5.521126747131348,-0.001200019614771,0.0002368655696045,-0.4085091054439544,0.912753403186798,0.1521159080583527,-0.0010478084745289,2.3471255808704263e-05,0.0087016187608242,0.0016282913275063,0.0636004284024238,-0.00091253221035,0.0004747379571199,-0.2339037954807281,0.9722592234611512,0.0103867269229456,0.0506186817077935,0.0568137726306991,0.3119892477989197,0.0531781315803527,0.1421394348144531,90,207,15400,17998
21.2,1788351746514,4.760563373565674,4.816901206970215,-0.0009602861246094,-0.0002347183180972,-0.4075092673301697,0.9132005572319032,0.168392768168687,-0.0030462563640426,5.384675527459672e-06,0.0090725449845194,-0.0231341514736413,-0.0096233002841472,-0.0009995466098189,-0.0001736972481012,-0.2341332286596298,0.9722040295600892,-0.0143143190510654,0.0037701204904653,-0.0450533638297224,-0.0543704032897949,0.3967715501785278,-0.5881071090698242,101,340,14335,19786
21.3,1788351746614,4.732394218444824,5.183098793029785,-0.0009300390956923,-0.0009750843746587,-0.4091267883777618,0.9124764800071716,0.1562590482424126,-0.0001559723823634,6.685270032169755e-05,0.0198317151516675,-0.0354106202721595,-0.0372340865433216,-0.0007360270246863,-0.0011287275701761,-0.2353500872850418,0.971909761428833,0.0161146112474495,-0.0356997169900871,-0.0279082419765988,0.2413796782493591,0.1736682057380676,-1.3213424682617188,34,559,12139,24172
21.4,1788351746714,4.366197109222412,5.605633735656738,-0.0008716057054698,-0.0016951827565208,-0.4067652523517608,0.9135308265686036,0.1683113336991677,-0.0015605010631828,5.589789015775651e-05,0.0088727483525872,-0.0309501402080059,0.0794221460819244,-0.0005015013739466,-0.0020118970423936,-0.2312008738517761,0.9729039072990416,0.0070577378078163,-0.0119233951129521,0.1103706209205351,-0.2773280143737793,0.0857707262039184,-1.1240863800048828,93,489,13217,23876
21.5,1788351746814,4.929577350616455,5.492957592010498,-0.0011662867618724,-0.0019309141207486,-0.4014060795307159,0.9158974289894104,0.1677059076620213,0.0008663216735844,2.670354610528748e-05,-0.0020366651006042,-0.0157629754394292,0.1223967745900154,-0.0007938276976346,-0.0024656876921653,-0.2256476879119873,0.9742055535316468,0.00523492415138,-0.0313356776415351,0.151079259229748,-0.1242660880088806,0.2244205474853515,0.236001968383789,58,613,11189,25769
21.6,1788351746914,4.2253522872924805,5.633802890777588,-0.0015265138354152,-0.0026877343188971,-0.394742339849472,0.918786644935608,0.1663042551317512,0.0023139779338568,-1.2833463565261138e-05,-0.0001727308845147,-0.0137592898681759,0.1497602313756942,-0.0010838732123374,-0.0029688226059079,-0.2190887033939361,0.9756998419761658,-0.0038275500551641,-0.0281943766841953,0.1675169201673669,0.20065838098526,0.216507613658905,0.5756034851074219,75,597,13814,26209
21.7,1788351747014,4.732394218444824,5.521126747131348,-0.0022352747619152,-0.0033182518091052,-0.3857444524765014,0.9225969910621644,0.177835927251366,-0.001121953437155,-9.391411956035687e-06,-0.0006626662216149,-0.0101123647764325,0.1712125092744827,-0.0015607578679919,-0.0035770637914538,-0.2089709639549255,0.9779140949249268,0.0005723397529757,0.0098273195564128,0.1537378110987239,0.0382576584815979,-0.0098784565925598,-0.0607528686523437,84,546,12122,25499
21.8,1788351747114,4.676056385040283,5.802816867828369,-0.0022794008255004,-0.0034421286545693,-0.3787984549999237,0.9254699945449828,0.1648692589284542,0.0038419929041053,-3.72520677899309e-05,-0.0005864999839104,0.0129944887012243,0.1721757650375366,-0.001645321957767,-0.0035187285393476,-0.2010156959295272,0.9795804023742676,-0.0070772893609624,0.0220036376856174,0.2069883392083627,0.2601470947265625,0.3289121985435486,-0.2412376403808593,74,542,14602,23864
21.9,1788351747214,4.309859275817871,5.802816867828369,-0.0032195597887039,-0.001442891662009,-0.3682538866996765,0.929718554019928,0.1891211305779973,0.0009203453439762,-0.0001352534799051,-0.0592239387333393,0.0659665092825889,0.2542590200901031,-0.0034369220957159,-0.001414087601006,-0.1908420473337173,0.9816136956214904,-0.1008629509720965,0.0773484509994775,0.238414185309678,-0.1621192097663879,0.2280247807502746,-0.1196355819702148,57,268,13433,19249
22.0,1788351747314,3.549295663833618,7.070422649383545,-0.0045978389680385,0.0011685667559504,-0.358627587556839,0.9334686398506165,0.1711412439718288,0.0040959230501154,6.77458929312722e-05,-0.0108628645539283,0.0166043546050786,0.2412073463201522,-0.0050984974950551,0.0008914768695831,-0.1746741533279419,0.9846127033233644,-0.0304532972069148,0.0317359960495634,0.4869857108254801,-0.4311054944992065,0.3540999889373779,-0.5323638916015625,15,221,8958,21517
22.1,1788351747414,3.859154939651489,5.915493011474609,-0.0031132483854889,-0.0027083437889814,-0.3316102623939514,0.943407416343689,0.1610645694538243,0.0044285600293515,6.487475726041254e-05,0.0874785035848617,-0.0817486345767974,0.4864789545536041,-0.0024879900738596,-0.0042939493432641,-0.1514147371053695,0.9884577989578248,0.098058832822289,-0.1932197264040011,0.3896213400292851,0.4443760514259338,-0.0876519680023193,1.0313434600830078,128,203,11109,20376
22.2,1788351747514,4.0,5.88732385635376,-0.0030430597253143,-0.0029949368909001,-0.3183256089687347,0.9479718208312988,0.1701607167527763,0.0033927932704151,7.04693125320744e-05,0.0066595585085451,-0.015783354640007,0.2798666059970855,-0.0024780286476016,-0.0032678572461009,-0.1381348669528961,0.9904049038887024,-0.0063285038889789,0.0142569211945009,0.2742424231619967,-0.0648468732833862,0.3074660301208496,0.4141616821289062,109,174,13299,19127
22.3,1788351747614,4.3380279541015625,5.492957592010498,-0.0032358332537114,-0.0021350269671529,-0.3079284429550171,0.9514015913009644,0.1706912360533623,0.001962004298006,-9.69889684092573e-06,-0.0150272147729992,-0.0056494413875043,0.1936199814081192,-0.0028427951037883,-0.0014462834224104,-0.1257880926132202,0.9920520186424256,-0.0121603800738871,0.0818534360115345,0.1867512005912189,-0.1875226497650146,0.3390429019927978,-0.7498407363891602,112,293,11805,21074
22.4,1788351747714,4.507042407989502,5.577464580535889,-0.0034030661918222,-0.0010107927955687,-0.2981022894382477,0.9545273184776306,0.1645240657070455,0.0006458267929639,1.0328573693564984e-05,-0.0036724417004734,-0.0093635022640228,0.1945975869894027,-0.0032475404441356,-0.0014809602871537,-0.1173761263489723,0.9930811524391174,-0.0139822723936812,0.005467073748674,0.1877766051831836,0.2498526573181152,0.3136066198348999,-1.6908912658691406,77,522,11236,24696
22.5,1788351747814,4.676056385040283,5.6619720458984375,-0.0034463093616068,-0.0010096741607412,-0.2875404357910156,0.957761824131012,0.1723034443512726,-0.0007627250073372,-2.118786838279632e-05,0.0037923331838101,-0.0087673319503664,0.2357088774442672,-0.0031727375462651,-0.0016808304935693,-0.1082801893353462,0.9941139817237854,0.0085852484925099,-0.0452325514250442,0.193173565868569,-0.0230237245559692,0.3367642760276794,-0.8126211166381836,125,445,12660,23811
22.6,1788351747914,4.676056385040283,5.352112770080566,-0.0036365236155688,-0.0004669452318921,-0.2827468514442444,0.9591876864433287,0.1614319817906705,0.0018637195330964,-3.261543113146264e-06,-0.0039087980985641,0.0030929110944271,0.0968502610921859,-0.0034973649308085,-0.0010351948440074,-0.102509431540966,0.9947254061698914,-0.0047491216131932,0.0156866504025674,0.1059312826002233,-0.1831571459770202,0.044809877872467,-0.8673124313354492,90,640,13637,26850
22.7,1788351748014,4.422535419464111,5.85915470123291,-0.0037502641789615,-0.0003542778431437,-0.2767224311828613,0.960942566394806,0.16591723936109,0.0013083827632,5.112103737061463e-06,0.0055167530663311,0.0108666233718395,0.1385862231254577,-0.0035576419904828,-0.0006735110655426,-0.094148926436901,0.9955515265464784,0.0014008907345328,0.037824083531805,0.2044328283016426,-0.0844625234603881,0.2106155157089233,0.4317073822021484,90,555,13435,25957
22.8,1788351748114,5.295774459838867,5.267605781555176,-0.0033603098709136,0.0005961317801848,-0.2675291001796722,0.9635437726974488,0.1764575971309165,0.0003820122805117,-6.569189056951725e-05,0.0033284085802733,0.0197756402194499,0.1534645408391952,-0.003409749828279,3.625452518463135e-05,-0.0866078361868858,0.9962366819381714,0.0012265404040227,0.0091862574864967,0.1401224526067992,-0.2551832199096679,-0.1619468927383422,1.544255256652832,132,511,13766,23640
22.9,1788351748214,4.8450703620910645,5.295774459838867,-0.0034816227853298,0.0002714158035814,-0.2677144408226013,0.9634919762611388,0.1647511311815577,0.0014088532633035,1.1880786792123913e-05,-0.0034431661479175,0.0021414109505712,-0.051712792366743,-0.0035434179008007,-0.00071616563946,-0.0870461612939834,0.9961977005004884,-0.0017530570875033,-0.0213975606082573,-0.0489390648297351,0.2510933876037597,-0.0176260471343994,0.4024953842163086,112,597,14047,25549
23.0,1788351748314,4.619718074798584,5.6619720458984375,-0.0041391956619918,0.0012062264140695,-0.2616762220859527,0.9651460647583008,0.1947589519082063,0.0004811298141703,-1.6394275170142974e-05,-0.0498341731727123,0.0366057083010673,0.1962513476610183,-0.0052101528272032,0.0014844974502921,-0.0793042257428169,0.9968358278274536,-0.0984539308294156,0.0939913692672624,0.1381065512399473,-0.1138532757759094,-0.0386791825294494,0.2911806106567383,78,200,14529,18887
23.1,1788351748414,4.901408672332764,5.6619720458984375,-0.0057296487502753,0.0027994776610285,-0.2563459873199463,0.9665639996528624,0.1810538434229094,-0.000591105124293,5.884001755326096e-05,-0.010141153819859,-0.0130638750270009,0.1270244568586349,-0.0063679693266749,0.0022532967850565,-0.0739946961402893,0.9972358345985411,-0.0276528043365079,0.0456115115813943,0.1673367945381346,0.0062960982322692,0.1650150418281555,-0.5934839248657227,37,252,11033,19445
23.2,1788351748514,4.197183132171631,5.521126747131348,-0.0047236466780304,0.0026869010180234,-0.2444358617067337,0.9696502685546876,0.1679544041737285,0.0052911555114134,0.0001007498083417,0.0365099497139453,-0.0151303624734282,0.2329601645469665,-0.0034728962928056,7.744971662759781e-05,-0.0601594857871532,0.9981827139854432,0.1183637546563967,-0.1112832535649322,0.1799285380273668,0.0672048926353454,-0.0495074391365051,0.9609174728393556,87,174,13804,17682
23.3,1788351748614,4.8450703620910645,5.239436626434326,-0.0034528914839029,-1.0558811482042074e-05,-0.2355168461799621,0.9718641638755798,0.1586775203842616,0.0048055470334935,0.0001194103085697,-0.0078399162739515,-0.0236368402838706,0.1689560115337371,-0.0034046648070216,-0.0006312383338809,-0.052726462483406,0.9986029863357544,-0.008284963424078,0.0144687987975399,0.1632937625291876,0.4973005652427673,-0.4289160966873169,1.7378044128417969,191,196,13967,17393
23.4,1788351748714,5.126760482788086,5.042253494262695,-0.0034631812013685,0.0004212591738905,-0.2331106811761856,0.9724439978599548,0.1630911372411574,0.0017612843171464,-9.687281995020202e-07,0.0074444501660764,-0.0019835522398352,0.0144459391012787,-0.0033294605091214,-0.000267282128334,-0.051033865660429,0.9986913204193116,0.0173953969378714,0.0061909469321679,0.0280111999809719,-0.0513312220573425,0.1210399866104126,-0.9461488723754884,98,211,15110,17088
23.5,1788351748814,5.211267471313477,4.478873252868652,-0.0036278888583183,6.549415411427617e-05,-0.2329144328832626,0.9724904894828796,0.1633533526150678,-0.0039787184629227,-8.910637784076731e-07,9.736830897111304e-09,0.0,0.0,-0.0037243152037262,-0.0006183888763189,-0.052363995462656,0.9986209273338318,0.0006111709642374,0.0052646164834252,-0.0613546523168428,0.0145903229713439,-0.1708190441131591,0.179326057434082,94,460,13931,21413
23.6,1788351748914,5.098591327667236,5.211267471313477,-0.0035703429020941,0.0003853314265143,-0.2359019368886947,0.9717702269554138,0.1678238112245829,-0.0010033754249051,-8.479122168684019e-05,0.0042246999219059,0.0217346493154764,-0.0521860085427761,-0.0035576820373535,-0.0004862928763031,-0.0540127977728843,0.9985337853431702,0.007228148502358,-0.011087330472472,0.0154407994190676,-0.0798160433769226,0.1380680799484253,0.3704481124877929,122,461,13093,22672
23.7,1788351749014,4.647887229919434,4.760563373565674,-0.0034814057871699,0.0006220013019628,-0.236415684223175,0.9716455936431884,0.1637367411132908,-0.00367094557875,-3.64816723893043e-06,0.0024798903614282,0.028411628678441,-0.0280375890433788,-0.0035163229331374,0.0001152176409959,-0.0548693910241127,0.99848735332489,-0.0072035729141398,0.0179820919265378,-0.0411183035340503,0.018379807472229,0.0930261015892028,-0.3498830795288086,96,656,14437,26147
23.8,1788351749114,4.873239517211914,4.873239517211914,-0.0035671365913003,0.0004250983765814,-0.2366509735584259,0.9715880155563354,0.1554892430864668,-0.0037306316969645,-1.365610039484822e-06,-2.431050472040397e-09,1.9448403776323172e-08,-1.4225117865862558e-06,-0.003402424044907,-4.180707037448883e-05,-0.0551009587943553,0.9984750151634216,0.0119321893960716,0.0046150657934178,-0.0100472422790107,0.3407450318336487,0.0440633296966552,-1.109663963317871,60,698,14977,26491
23.9,1788351749214,4.985915660858154,5.267605781555176,-0.0032857805490493,-5.814101314172149e-05,-0.2386922985315323,0.9710896611213684,0.1739746246161711,-0.0037616269317131,9.921068854717488e-05,0.0057808891870081,-0.0332597121596336,-0.0293237157166004,-0.0033661220222711,-0.0005537243559956,-0.0565772168338298,0.9983924031257628,-0.0084653414161628,0.0004585120231485,0.0402717833210563,0.1168093681335449,0.1405500769615173,-0.7107477188110352,42,616,14359,26012
24.0,1788351749314,5.211267471313477,4.507042407989502,-0.0034614845644682,-4.309852374717593e-05,-0.2377719730138778,0.9713148474693298,0.1725143434992753,-0.0040908693068772,-1.252474242283368e-06,0.0070278118364512,0.0016273341607302,-0.0088308919221162,-0.0034603774547576,-0.0007969047874212,-0.0559154637157917,0.998429238796234,0.0061950281210623,0.0114759444875183,-0.0064437693180364,0.0705205202102661,0.1121087074279785,-0.202524185180664,86,609,16864,23795
24.1,1788351749414,5.605633735656738,4.535211086273193,-0.0034738504327833,-3.3112941309809685e-05,-0.2456077635288238,0.9693630337715148,0.1647924151183221,-0.0025064050693636,2.0832760881330987e-05,-0.0012821725104004,-0.000871998432558,-0.2031944543123245,-0.0033718775957822,-0.0002674264833331,-0.0658577233552932,0.9978232979774476,0.0005694536097333,0.04172765737732,-0.1822065457050848,0.2328672409057617,0.33256596326828,0.1967983245849609,62,758,13287,26526
24.2,1788351749514,1.0704225301742554,0.5633803009986877,-0.0031861844472587,7.553421892225742e-05,-0.248305395245552,0.9686766266822816,0.1656040148697481,-0.0005653084962457,1.679152404510714e-05,0.0088610472157597,-0.005172770936042,-0.0068818326108157,-0.0032530752941966,-0.0001841243356466,-0.0669935122132301,0.997748076915741,-0.0034512408635037,0.0318942481427323,0.0023299636963063,-2.834412097930908,-0.2778626084327698,-1.4814844131469729,185,72,0,0
24.3,1788351749614,5.464788913726807,-5.77464771270752,-0.0030641192570328,-0.0001720288419164,-0.2525968849658966,0.967566728591919,-0.0225122260480945,-0.0007645630408772,-6.340815686602229e-06,0.0133959827944636,-0.0150515940040349,-0.1363145411014557,-0.0028042960911989,-0.0007517635822296,-0.0733553916215896,0.997301697731018,0.0298662071646049,-0.0139832546848649,-0.2690451324893503,0.7500581741333008,-1.0400779247283936,-0.0633955001831054,348,362,21388,-22358
24.4,1788351749714,6.366197109222412,-5.605633735656738,-0.0035801341291517,3.6440673284232616e-05,-0.3278817236423492,0.944711983203888,0.0113784750835643,0.014833821858966,-9.077201388727898e-06,-0.0144616886973381,0.0240506585687398,-2.0009922981262207,-0.0035684974864125,-0.0005679447203874,-0.1726679801940918,0.9849734306335448,-0.0089966888095927,0.0073171549010573,-1.955008287716387,-0.5170078277587891,-0.0254402160644531,0.258549690246582,81,423,17787,-24684
24.5,1788351749814,6.478873252868652,-6.14084529876709,-0.0034846691414713,0.0001433629076927,-0.4244993925094604,0.905421495437622,-0.0087744694895567,0.0234698606291794,4.982974090518683e-06,0.0015303991967812,0.0108100026845932,-1.8714338541030884,-0.0034516425803303,-0.0004993807524442,-0.2563014626502991,0.9665905833244324,0.0002353117312539,0.0032561276602746,-1.8797160649808824,-0.1137805581092834,-0.0569446086883544,2.566573143005371,91,416,15700,-25140
24.6,1788351749914,6.394366264343262,-6.0,-0.003334111534059,0.0005413008620962,-0.499052882194519,0.866564929485321,9.061111531670888e-05,0.0147857886826702,-5.138548156114512e-06,-0.0088280858471989,0.0209236275404691,-1.8122304677963257,-0.0033632647246122,-3.615580499172211e-05,-0.336505651473999,0.9416754245758056,-0.0057640360295918,0.024818054662306,-1.8403087178026345,-0.1933739185333252,-0.1461365222930908,-0.2068653106689453,114,516,16130,-26780
24.7,1788351750014,6.2253522872924805,-6.169013977050781,-0.0029751281253993,0.0006669063004665,-0.5751914978027344,0.818013072013855,-0.0069817363251712,0.0139304777864812,-8.481528677064616e-06,0.0074049504473805,-0.0052748364396393,-1.8002725839614868,-0.0032135546207427,6.444379687309265e-05,-0.4375723600387573,0.8991775512695312,-0.0026984209377937,0.0004736592810411,-1.8809069959752311,0.3091835975646972,0.0743730664253234,0.952326774597168,117,598,16762,-28183
24.8,1788351750114,6.676056385040283,-6.309859275817871,-0.002875126665458,0.0013150279410183,-0.6454682946205139,0.7637805342674255,-0.0074886942383873,0.0128696494365803,-2.2258427413571293e-06,-0.007622695993632,0.0108094960451126,-1.86511504650116,-0.0031177327036857,0.0005997493863105,-0.5112223029136658,0.8594426512718201,0.0020472066908292,0.0191144768462881,-1.948655533345261,-0.0427221655845642,-0.014047622680664,0.2281560897827148,99,610,15638,-28773
24.9,1788351750214,6.478873252868652,-7.014084339141846,-0.0029595219530165,0.0015381569974124,-0.7274187803268433,0.6861857175827026,-0.0218354252414695,0.0157954341420784,2.073295534171542e-05,-0.003337763948366,0.0270732343196868,-1.9658048152923584,-0.0028521912172436,0.0009088860824704,-0.5864535570144653,0.8099773526191711,-0.0087244759113407,0.054653805490185,-2.0336893829579297,0.3261827826499939,0.4065731763839721,1.1147994995117188,118,215,16035,-21964
25.0,1788351750314,6.535211086273193,-6.563380241394043,-0.0021601016633212,0.0057029724121093,-0.7579470872879028,0.6522875428199768,-0.0185397312092541,0.0160259354778392,-5.83937127461403e-06,-0.1119798198342323,0.15826116502285,-2.0144848823547363,-0.003246558830142,0.0039729150012135,-0.6565865874290466,0.7542332410812378,0.0689195580531814,-0.0748976642207609,-2.2816868261227268,-0.273857831954956,-0.4514745473861694,-0.3763141632080078,98,145,15729,-19390
25.1,1788351750414,6.563380241394043,-6.422535419464111,-0.0012162642087787,0.0056943278759717,-0.8429492115974426,0.5379616022109985,-0.015854685392299,0.0215479968713171,2.346691222529891e-06,-0.0108227478340268,0.0338247790932655,-1.9175876379013064,-0.0021771695464849,0.0052427444607019,-0.7408735752105713,0.6716206073760986,0.0118853251343744,0.03032957158478,-1.94118458892886,-0.3449469804763794,-0.2531136870384216,-0.5769004821777344,93,90,15599,-17783
25.2,1788351750514,4.957746505737305,-4.8450703620910645,-0.0004469447303563,0.0058730505406856,-0.894616425037384,0.446796178817749,-0.0111614058625331,0.0135502847910942,6.144755795237017e-06,-0.0150150703266263,0.0483971238136291,-1.86463463306427,-0.0015390869230031,0.0058577824383974,-0.7956077456474304,0.6057819128036499,-0.0124008689944053,0.0602350820949189,-1.7714106965777896,-0.3297528028488159,-0.0590448379516601,-0.1255102157592773,53,22,14525,-11120
25.3,1788351750614,4.450704097747803,-2.197183132171631,-0.0013841998297721,0.0022471840493381,-0.9265620112419128,0.376132607460022,0.0056378288389255,0.0177923788695993,4.019454723114002e-05,0.0761581361293792,-0.0601107366383075,-1.2895760536193848,-0.0020092679187655,0.001611765474081,-0.8463878631591797,0.5325608849525452,0.0286796040439176,-0.0323572655133612,-1.0787005742754283,0.1870006322860717,0.4504194259643554,-1.6242046356201172,32,110,12245,-2373
25.4,1788351750714,2.5915493965148926,0.0,-0.0016414024867117,0.0018895263783633,-0.9388307332992554,0.3443697690963745,0.0502705486179229,0.0026001037126236,7.408746570726175e-06,8.247882942669094e-05,0.0030380508396774,-0.6005176305770874,-0.0019557112827897,0.0015611099079251,-0.8620715141296387,0.5067806243896484,-0.004291166341195,0.0179876849379919,-0.4862251680463953,-0.4940312504768371,-0.1062192916870117,1.806502342224121,32,66,5548,3219
25.5,1788351750814,0.4225352108478546,2.197183132171631,-0.001244323211722,0.0022717136889696,-0.9422349333763124,0.3349426388740539,0.0293729448787443,0.0049501594617642,1.1223245930925754e-06,-0.0072781066410243,0.0050379536114633,0.0067901713773608,-0.0015956712886691,0.0021047182381153,-0.8648210167884827,0.5020734667778015,-0.0162877399302757,0.023786184399722,0.1654269273735341,-0.5920225381851196,0.3908573985099792,0.6402683258056641,32,256,0,11469
25.6,1788351750914,-1.6338027715682983,4.422535419464111,-0.0002236971631646,0.0051208781078457,-0.9313533306121826,0.3640806376934051,0.0457230610418559,-0.000323780282786,-4.212110421438613e-05,-0.0471116825938224,0.0415825136005878,0.7708867192268372,-0.0013223541900515,0.0049224197864532,-0.8443917036056519,0.5357021689414978,-0.0093273068324249,-0.020777040239036,1.013711604067333,-0.4120943546295166,0.4213190674781799,0.3029861450195312,217,179,-8607,14542
25.7,1788351751014,-1.774647831916809,4.507042407989502,-0.0004161639371886,0.005779034923762,-0.9122564792633056,0.4095787107944488,0.0450394563257575,-0.0091087270973246,-1.4102087084841226e-06,-0.01780148409307,0.0072392928414046,0.9829909801483154,-0.0015305681154131,0.005428341217339,-0.8192183375358582,0.5734541416168213,0.0013442362604187,-0.0099325623680243,0.9624265064046312,-0.3370553255081177,0.0310152769088745,-0.1738576889038086,161,115,-8988,13696
25.8,1788351751114,-1.97183096408844,4.394366264343262,-0.001343963900581,0.004949705209583,-0.8919100165367126,0.4521837830543518,0.0397888924382677,-0.0037643415056516,1.0777641026333569e-05,-0.003269171109423,-0.0184043515473604,0.9922106862068176,-0.002254675142467,0.0046249600127339,-0.7859569191932678,0.6182599067687988,-0.0026410811355176,-0.0104971167941244,1.044710309041569,-0.2375448346138,-0.1317816972732544,0.8243045806884766,74,99,-8120,13135
25.9,1788351751214,-1.436619758605957,4.507042407989502,-0.0012692366726696,0.0054092276841402,-0.8688464164733887,0.4950505495071411,0.0390426676305184,-0.0066386619235874,2.980484696008125e-06,-0.0075400853529572,-0.0031416944693773,0.936846137046814,-0.0022431509569287,0.005041267722845,-0.7587487101554871,0.651360034942627,-0.003097501735508,-0.0057321278714463,0.8915716371118881,0.2196762561798095,-0.1476215720176696,-0.147216796875,7,230,-1941,17660
26.0,1788351751314,0.0,7.211267471313477,-0.0011775488965213,0.0052291085012257,-0.8454955220222473,0.5339556336402893,0.1155130526331673,0.0027924037047081,4.6600259537130606e-07,0.0023095344658941,0.005504336208105,0.946890652179718,-0.0020232638344168,0.0046920049935579,-0.7303775548934937,0.6830246448516846,0.0281827042762955,0.0050278632334072,0.8934386414815665,0.3647093176841736,-0.2821249365806579,-1.0815458297729492,2,111,0,19719
26.1,1788351751414,1.436619758605957,7.577464580535889,-0.0018364763818681,0.0027248398400843,-0.816470205783844,0.5773781538009644,0.1210234408006371,-0.0138860260201255,-4.247134216163404e-05,-0.0333808921277523,0.0126885520294308,0.913155198097229,-0.0034588435664772,0.0033280989155173,-0.690636932849884,0.7231857776641846,-0.0995014228442121,-0.0034838017425048,0.8994540150180631,2.1106443405151367,0.8344647884368896,0.4915800094604492,212,625,8176,31220
26.2,1788351751514,1.7464789152145386,8.14084529876709,-0.002137140603736,0.0022269380278885,-0.7906167507171631,0.6123035550117493,0.2033068090046815,0.0024699109984867,0.0001657125267562,0.125831127166748,-0.1210982128977775,1.0043160915374756,-0.0028678504750132,0.0011458471417427,-0.6589340567588806,0.7521944642066956,0.0510409237168515,-0.1313422938030878,0.9639171064335396,-0.0573910474777221,-0.0940400958061218,-1.3759737014770508,47,482,6603,31417
26.3,1788351751614,1.887323975563049,6.197183132171631,-0.0021775318309664,0.0026193077210336,-0.7645471096038818,0.644558846950531,0.1523343355578677,-0.0036842239615502,8.46023937916123e-05,-0.0102170426398515,-0.0155005753040313,0.75140380859375,-0.0026353113353252,0.0022198418155312,-0.6315556168556213,0.7753229737281799,-0.0071801643683537,0.018252890927382,0.8004997128196747,-0.2531659007072449,-0.3362600207328796,-2.3124027252197266,21,771,5741,32767
26.4,1788351751714,1.887323975563049,4.816901206970215,-0.0019127784762531,0.0028170144651085,-0.7452582716941833,0.6667671799659729,0.1116131193025055,-0.0047802609135269,-2.0326517287657748e-05,-0.005089343059808,0.0071714892983436,0.5542105436325073,-0.0026272125542163,0.0021922253072261,-0.6045244336128235,0.7965791821479797,-0.0033890408081376,-0.0232014570963671,0.5237594874207848,0.2672237157821655,-0.0512078404426574,-0.1939191818237304,54,883,5761,32767
26.5,1788351751814,1.7183098793029783,4.929577350616455,-0.0016568452119827,0.0030559131409972,-0.7274436950683594,0.6861585974693298,0.112948046646473,0.0013116458831105,-4.658631394285641e-05,0.001365459524095,0.0121111022308468,0.4569723010063171,-0.002202782779932,0.0026025557890534,-0.5876666903495789,0.8090960383415222,0.0054784665074866,-0.0053965415237952,0.4464706171148396,0.0627539157867431,0.0980263948440551,-0.3696250915527344,59,879,6612,32767
26.6,1788351751914,-2.760563373565674,0.0,-0.0016364480834454,0.0027922512963414,-0.7181882262229919,0.695841372013092,0.0227708125838437,0.0003103551802673,-3.642910590190738e-07,-0.000118008130812,-0.0023191533982753,0.0687884166836738,-0.0020770169794559,0.002526469528675,-0.5789746642112732,0.8153389692306519,-0.0024427884030723,0.0128611555666564,-0.0193900995576029,-2.188713312149048,-0.0349531173706054,-0.1282072067260742,100,157,-7981,-8302
26.7,1788351752014,-7.323943614959717,1.774647831916809,-0.0018613906577229,0.0025437988806515,-0.6985577940940857,0.7155467867851257,-0.0898655985064507,0.003668494502015,2.223142532585466e-05,0.0001941259542945,-0.0036028893664479,0.8656942844390869,-0.0021899528801441,0.0022446392104029,-0.5571022629737854,0.8304380774497986,0.0033699485309843,-0.0088738941175933,0.9492546044687789,-0.7256099581718445,0.2856701612472534,0.2520303726196289,61,915,-16999,32767
26.8,1788351752114,-6.535211086273193,4.02816915512085,-0.0016538401832804,0.0023251755628734,-0.6452483534812927,0.7639675140380859,-0.0483577965086224,-0.0076233066052151,-1.138450970636039e-05,0.0059829633682966,-0.0153381563723087,1.536151885986328,-0.0020233429968357,0.0018676547333598,-0.4809384346008301,0.8767499923706055,0.0053915128404004,-0.0060829959397433,1.6265389440003477,-0.0945795774459838,0.2364317178726196,-0.3963079452514648,101,819,-20544,27815
26.9,1788351752214,-6.957746505737305,4.704225540161133,-0.0026897648349404,0.0025138375349342,-0.5702236890792847,0.8214812874794006,-0.0254282704311502,-0.0119647389835413,-7.482117188606565e-07,-0.0408772826194763,-0.0157753843814134,1.7904025316238403,-0.0031041242182254,0.0019795531406998,-0.4103789329528808,0.9119076132774352,-0.0438731998065457,-0.0170856086104242,1.8037859536603973,0.1128045916557312,-0.0582724809646606,0.0808382034301757,80,790,-18467,27375
27.0,1788351752314,-6.619718074798584,5.352112770080566,-0.0034813822712749,0.0051904306747019,-0.4986008107662201,0.8668091893196106,-0.0040147522276055,-0.0095526258137911,9.631598964882777e-08,-0.0149559471756219,-0.0266344267874956,1.8740054368972776,-0.0042459676042199,0.0044259643182158,-0.3317104279994964,0.9433613419532776,0.002224939702897,-0.0283588201018968,1.8329894525277544,-0.4760406017303467,-0.1426798701286316,1.474574089050293,116,402,-19479,21709
27.1,1788351752414,-7.126760482788086,5.352112770080566,-0.003970646765083,0.0045287464745342,-0.4138977229595184,0.9103033542633056,-0.013061132392753,-0.0193466558979624,-3.030640875428482e-05,0.0123918065801262,-0.046469546854496,1.8619606494903564,-0.0049657272174954,0.0037992354482412,-0.2223774790763855,0.9749405980110168,-0.0263190999116591,0.009279006969103,1.859424580309947,-0.1192072033882141,-0.2893767356872558,-1.3563117980957031,84,202,-17576,16547
