time_s,timestamp_ms,wheel_vels__velocity_left,wheel_vels__velocity_right,odom__orient_x,odom__orient_y,odom__orient_z,odom__orient_w,odom__lin_x,odom__lin_y,odom__lin_z,odom__ang_x,odom__ang_y,odom__ang_z,imu__orient_x,imu__orient_y,imu__orient_z,imu__orient_w,imu__angvel_x,imu__angvel_y,imu__angvel_z,imu__acc_x,imu__acc_y,imu__acc_z,wheel_status__current_ma_left,wheel_status__current_ma_right,wheel_status__pwm_left,wheel_status__pwm_right
0.0,1788519898491,0.0,0.0,-0.0037467691581696,-0.0018183168722316,0.6009228825569153,0.7992962002754211,0.0,0.0,0.0,0.0,0.0,0.0,-0.0028916606679558,0.0028572045266628,-0.5499040484428406,0.8352179527282715,0.0006297120531422,-0.00029383621335,-4.5560913708202656e-05,0.011499285697937,0.0086000561714172,0.0061454772949218,0,0,0,0
0.1,1788519898591,0.0,0.0,-0.0037467691581696,-0.0018183168722316,0.6009228825569153,0.7992962002754211,0.0,0.0,0.0,0.0,0.0,0.0,-0.0028916606679558,0.0028572045266628,-0.5499040484428406,0.8352179527282715,0.0006297120531422,-0.00029383621335,-4.5560913708202656e-05,0.011499285697937,0.0086000561714172,0.0061454772949218,0,0,0,0
0.2,1788519898691,0.0,0.0,-0.0037467691581696,-0.0018183168722316,0.6009228825569153,0.7992962002754211,0.0,0.0,0.0,0.0,0.0,0.0,-0.0028916606679558,0.0028572045266628,-0.5499040484428406,0.8352179527282715,0.0006297120531422,-0.00029383621335,-4.5560913708202656e-05,0.011499285697937,0.0086000561714172,0.0061454772949218,0,0,0,0
0.3,1788519898791,0.0,0.0,-0.0037467691581696,-0.0018183168722316,0.6009228825569153,0.7992962002754211,0.0,0.0,0.0,0.0,0.0,0.0,-0.0028916606679558,0.0028572045266628,-0.5499040484428406,0.8352179527282715,0.0006297120531422,-0.00029383621335,-4.5560913708202656e-05,0.011499285697937,0.0086000561714172,0.0061454772949218,0,0,0,0
0.4,1788519898891,0.0,0.0,-0.0037467691581696,-0.0018183168722316,0.6009228825569153,0.7992962002754211,0.0,0.0,0.0,0.0,0.0,0.0,-0.0028916606679558,0.0028572045266628,-0.5499040484428406,0.8352179527282715,0.0006297120531422,-0.00029383621335,-4.5560913708202656e-05,0.011499285697937,0.0086000561714172,0.0061454772949218,0,0,0,0
0.5,1788519898991,0.0,0.0,-0.0037467691581696,-0.0018183168722316,0.6009228825569153,0.7992962002754211,0.0,0.0,0.0,0.0,0.0,0.0,-0.0028916606679558,0.0028572045266628,-0.5499040484428406,0.8352179527282715,0.0006297120531422,-0.00029383621335,-4.5560913708202656e-05,0.011499285697937,0.0086000561714172,0.0061454772949218,0,0,0,0
0.6,1788519899091,0.0,0.0,-0.0037467691581696,-0.0018183168722316,0.6009228825569153,0.7992962002754211,0.0,0.0,0.0,0.0,0.0,0.0,-0.0028916606679558,0.0028572045266628,-0.5499040484428406,0.8352179527282715,0.0006297120531422,-0.00029383621335,-4.5560913708202656e-05,0.011499285697937,0.0086000561714172,0.0061454772949218,0,0,0,0
0.7,1788519899191,0.0,0.0,-0.0037467691581696,-0.0018183168722316,0.6009228825569153,0.7992962002754211,0.0,0.0,0.0,0.0,0.0,0.0,-0.0028916606679558,0.0028572045266628,-0.5499040484428406,0.8352179527282715,0.0006297120531422,-0.00029383621335,-4.5560913708202656e-05,0.011499285697937,0.0086000561714172,0.0061454772949218,0,0,0,0
0.8,1788519899291,0.0,0.0,-0.0037467691581696,-0.0018183168722316,0.6009228825569153,0.7992962002754211,0.0,0.0,0.0,0.0,0.0,0.0,-0.0028916606679558,0.0028572045266628,-0.5499040484428406,0.8352179527282715,0.0006297120531422,-0.00029383621335,-4.5560913708202656e-05,0.011499285697937,0.0086000561714172,0.0061454772949218,0,0,0,0
0.9,1788519899391,0.0,0.0,-0.0037467691581696,-0.0018183168722316,0.6009228825569153,0.7992962002754211,0.0,0.0,0.0,0.0,0.0,0.0,-0.0028916606679558,0.0028572045266628,-0.5499040484428406,0.8352179527282715,0.0006297120531422,-0.00029383621335,-4.5560913708202656e-05,0.011499285697937,0.0086000561714172,0.0061454772949218,0,0,0,0
1.0,1788519899491,0.0,0.0,-0.0037467691581696,-0.0018183168722316,0.6009228825569153,0.7992962002754211,0.0,0.0,0.0,0.0,0.0,0.0,-0.0028916606679558,0.0028572045266628,-0.5499040484428406,0.8352179527282715,0.0006297120531422,-0.00029383621335,-4.5560913708202656e-05,0.011499285697937,0.0086000561714172,0.0061454772949218,0,0,0,0
1.1,1788519899591,0.0,0.0,-0.0037467691581696,-0.0018183168722316,0.6009228825569153,0.7992962002754211,0.0,0.0,0.0,0.0,0.0,0.0,-0.0028916606679558,0.0028572045266628,-0.5499040484428406,0.8352179527282715,0.0006297120531422,-0.00029383621335,-4.5560913708202656e-05,0.011499285697937,0.0086000561714172,0.0061454772949218,0,0,0,0
1.2,1788519899691,0.0,0.0,-0.0037467691581696,-0.0018183168722316,0.6009228825569153,0.7992962002754211,0.0,0.0,0.0,0.0,0.0,0.0,-0.0028916606679558,0.0028572045266628,-0.5499040484428406,0.8352179527282715,0.0006297120531422,-0.00029383621335,-4.5560913708202656e-05,0.011499285697937,0.0086000561714172,0.0061454772949218,0,0,0,0
1.3,1788519899791,0.0,0.0,-0.0037467691581696,-0.0018183168722316,0.6009228825569153,0.7992962002754211,0.0,0.0,0.0,0.0,0.0,0.0,-0.0028916606679558,0.0028572045266628,-0.5499040484428406,0.8352179527282715,0.0006297120531422,-0.00029383621335,-4.5560913708202656e-05,0.011499285697937,0.0086000561714172,0.0061454772949218,0,0,0,0
1.4,1788519899891,0.0,0.0,-0.0037467691581696,-0.0018183168722316,0.6009228825569153,0.7992962002754211,0.0,0.0,0.0,0.0,0.0,0.0,-0.0028916606679558,0.0028572045266628,-0.5499040484428406,0.8352179527282715,0.0006297120531422,-0.00029383621335,-4.5560913708202656e-05,0.011499285697937,0.0086000561714172,0.0061454772949218,0,0,0,0
1.5,1788519899991,0.0,0.0,-0.0037467691581696,-0.0018183168722316,0.6009228825569153,0.7992962002754211,0.0,0.0,0.0,0.0,0.0,0.0,-0.0028916606679558,0.0028572045266628,-0.5499040484428406,0.8352179527282715,0.0006297120531422,-0.00029383621335,-4.5560913708202656e-05,0.011499285697937,0.0086000561714172,0.0061454772949218,0,0,0,0
1.6,1788519900091,0.0,0.0,-0.0037467691581696,-0.0018183168722316,0.6009228825569153,0.7992962002754211,0.0,0.0,0.0,0.0,0.0,0.0,-0.0028916606679558,0.0028572045266628,-0.5499040484428406,0.8352179527282715,0.0006297120531422,-0.00029383621335,-4.5560913708202656e-05,0.011499285697937,0.0086000561714172,0.0061454772949218,0,0,0,0
1.7,1788519900191,0.0,0.0,-0.0037467691581696,-0.0018183168722316,0.6009228825569153,0.7992962002754211,0.0,0.0,0.0,0.0,0.0,0.0,-0.0028916606679558,0.0028572045266628,-0.5499040484428406,0.8352179527282715,0.0006297120531422,-0.00029383621335,-4.5560913708202656e-05,0.011499285697937,0.0086000561714172,0.0061454772949218,0,0,0,0
1.8,1788519900291,0.0,0.0,-0.0037467691581696,-0.0018183168722316,0.6009228825569153,0.7992962002754211,0.0,0.0,0.0,0.0,0.0,0.0,-0.0028916606679558,0.0028572045266628,-0.5499040484428406,0.8352179527282715,0.0006297120531422,-0.00029383621335,-4.5560913708202656e-05,0.011499285697937,0.0086000561714172,0.0061454772949218,0,0,0,0
1.9,1788519900391,0.0,0.0,-0.0037467691581696,-0.0018183168722316,0.6009228825569153,0.7992962002754211,0.0,0.0,0.0,0.0,0.0,0.0,-0.0028916606679558,0.0028572045266628,-0.5499040484428406,0.8352179527282715,0.0006297120531422,-0.00029383621335,-4.5560913708202656e-05,0.011499285697937,0.0086000561714172,0.0061454772949218,0,0,0,0
2.0,1788519900491,0.0,0.0,-0.0037467691581696,-0.0018183168722316,0.6009228825569153,0.7992962002754211,0.0,0.0,0.0,0.0,0.0,0.0,-0.0028916606679558,0.0028572045266628,-0.5499040484428406,0.8352179527282715,0.0006297120531422,-0.00029383621335,-4.5560913708202656e-05,0.011499285697937,0.0086000561714172,0.0061454772949218,0,0,0,0
2.1,1788519900591,0.0,0.0,-0.0037467691581696,-0.0018183168722316,0.6009228825569153,0.7992962002754211,0.0,0.0,0.0,0.0,0.0,0.0,-0.0028916606679558,0.0028572045266628,-0.5499040484428406,0.8352179527282715,0.0006297120531422,-0.00029383621335,-4.5560913708202656e-05,0.011499285697937,0.0086000561714172,0.0061454772949218,0,0,0,0
2.2,1788519900691,0.0,0.0,-0.0037467691581696,-0.0018183168722316,0.6009228825569153,0.7992962002754211,0.0,0.0,0.0,0.0,0.0,0.0,-0.0028916606679558,0.0028572045266628,-0.5499040484428406,0.8352179527282715,0.0006297120531422,-0.00029383621335,-4.5560913708202656e-05,0.011499285697937,0.0086000561714172,0.0061454772949218,0,0,0,0
2.3,1788519900791,0.0,0.0,-0.0037467691581696,-0.0018183168722316,0.6009228825569153,0.7992962002754211,0.0,0.0,0.0,0.0,0.0,0.0,-0.0028916606679558,0.0028572045266628,-0.5499040484428406,0.8352179527282715,0.0006297120531422,-0.00029383621335,-4.5560913708202656e-05,0.011499285697937,0.0086000561714172,0.0061454772949218,0,0,0,0
2.4,1788519900891,0.0,0.0,-0.0037467691581696,-0.0018183168722316,0.6009228825569153,0.7992962002754211,0.0,0.0,0.0,0.0,0.0,0.0,-0.0028916606679558,0.0028572045266628,-0.5499040484428406,0.8352179527282715,0.0006297120531422,-0.00029383621335,-4.5560913708202656e-05,0.011499285697937,0.0086000561714172,0.0061454772949218,0,0,0,0
2.5,1788519900991,0.0,0.0,-0.0037467691581696,-0.0018183168722316,0.6009228825569153,0.7992962002754211,0.0,0.0,0.0,0.0,0.0,0.0,-0.0028916606679558,0.0028572045266628,-0.5499040484428406,0.8352179527282715,0.0006297120531422,-0.00029383621335,-4.5560913708202656e-05,0.011499285697937,0.0086000561714172,0.0061454772949218,0,0,0,0
2.6,1788519901091,0.0,0.0,-0.0037467691581696,-0.0018183168722316,0.6009228825569153,0.7992962002754211,0.0,0.0,0.0,0.0,0.0,0.0,-0.0028916606679558,0.0028572045266628,-0.5499040484428406,0.8352179527282715,0.0006297120531422,-0.00029383621335,-4.5560913708202656e-05,0.011499285697937,0.0086000561714172,0.0061454772949218,0,0,0,0
2.7,1788519901191,0.0,0.0,-0.0037467691581696,-0.0018183168722316,0.6009228825569153,0.7992962002754211,0.0,0.0,0.0,0.0,0.0,0.0,-0.0028916606679558,0.0028572045266628,-0.5499040484428406,0.8352179527282715,0.0006297120531422,-0.00029383621335,-4.5560913708202656e-05,0.011499285697937,0.0086000561714172,0.0061454772949218,0,0,0,0
2.8,1788519901291,0.0,0.0,-0.0037467691581696,-0.0018183168722316,0.6009228825569153,0.7992962002754211,0.0,0.0,0.0,0.0,0.0,0.0,-0.0028916606679558,0.0028572045266628,-0.5499040484428406,0.8352179527282715,0.0006297120531422,-0.00029383621335,-4.5560913708202656e-05,0.011499285697937,0.0086000561714172,0.0061454772949218,0,0,0,0
2.9,1788519901391,0.0,0.0,-0.0037467691581696,-0.0018183168722316,0.6009228825569153,0.7992962002754211,0.0,0.0,0.0,0.0,0.0,0.0,-0.0028916606679558,0.0028572045266628,-0.5499040484428406,0.8352179527282715,0.0006297120531422,-0.00029383621335,-4.5560913708202656e-05,0.011499285697937,0.0086000561714172,0.0061454772949218,0,0,0,0
3.0,1788519901491,0.0,0.0,-0.0037467691581696,-0.0018183168722316,0.6009228825569153,0.7992962002754211,0.0,0.0,0.0,0.0,0.0,0.0,-0.0028916606679558,0.0028572045266628,-0.5499040484428406,0.8352179527282715,0.0006297120531422,-0.00029383621335,-4.5560913708202656e-05,0.011499285697937,0.0086000561714172,0.0061454772949218,0,0,0,0
3.1,1788519901591,0.0,0.0,-0.0037467691581696,-0.0018183168722316,0.6009228825569153,0.7992962002754211,0.0,0.0,0.0,0.0,0.0,0.0,-0.0028916606679558,0.0028572045266628,-0.5499040484428406,0.8352179527282715,0.0006297120531422,-0.00029383621335,-4.5560913708202656e-05,0.011499285697937,0.0086000561714172,0.0061454772949218,0,0,0,0
3.2,1788519901691,0.0,0.0,-0.0037467691581696,-0.0018183168722316,0.6009228825569153,0.7992962002754211,0.0,0.0,0.0,0.0,0.0,0.0,-0.0028916606679558,0.0028572045266628,-0.5499040484428406,0.8352179527282715,0.0006297120531422,-0.00029383621335,-4.5560913708202656e-05,0.011499285697937,0.0086000561714172,0.0061454772949218,0,0,0,0
3.3,1788519901791,0.0,0.0,-0.0037467691581696,-0.0018183168722316,0.6009228825569153,0.7992962002754211,0.0,0.0,0.0,0.0,0.0,0.0,-0.0028916606679558,0.0028572045266628,-0.5499040484428406,0.8352179527282715,0.0006297120531422,-0.00029383621335,-4.5560913708202656e-05,0.011499285697937,0.0086000561714172,0.0061454772949218,0,0,0,0
3.4,1788519901891,0.0,0.0,-0.0037467691581696,-0.0018183168722316,0.6009228825569153,0.7992962002754211,0.0,0.0,0.0,0.0,0.0,0.0,-0.0028916606679558,0.0028572045266628,-0.5499040484428406,0.8352179527282715,0.0006297120531422,-0.00029383621335,-4.5560913708202656e-05,0.011499285697937,0.0086000561714172,0.0061454772949218,0,0,0,0
3.5,1788519901991,0.0,0.0,-0.0037467691581696,-0.0018183168722316,0.6009228825569153,0.7992962002754211,0.0,0.0,0.0,0.0,0.0,0.0,-0.0028916606679558,0.0028572045266628,-0.5499040484428406,0.8352179527282715,0.0006297120531422,-0.00029383621335,-4.5560913708202656e-05,0.011499285697937,0.0086000561714172,0.0061454772949218,0,0,0,0
3.6,1788519902091,0.0,0.0,-0.0037467691581696,-0.0018183168722316,0.6009228825569153,0.7992962002754211,0.0,0.0,0.0,0.0,0.0,0.0,-0.0028916606679558,0.0028572045266628,-0.5499040484428406,0.8352179527282715,0.0006297120531422,-0.00029383621335,-4.5560913708202656e-05,0.011499285697937,0.0086000561714172,0.0061454772949218,0,0,0,0
3.7,1788519902191,0.0,0.0,-0.0037467691581696,-0.0018183168722316,0.6009228825569153,0.7992962002754211,0.0,0.0,0.0,0.0,0.0,0.0,-0.0028916606679558,0.0028572045266628,-0.5499040484428406,0.8352179527282715,0.0006297120531422,-0.00029383621335,-4.5560913708202656e-05,0.011499285697937,0.0086000561714172,0.0061454772949218,0,0,0,0
3.8,1788519902291,0.0,0.0,-0.0037467691581696,-0.0018183168722316,0.6009228825569153,0.7992962002754211,0.0,0.0,0.0,0.0,0.0,0.0,-0.0028916606679558,0.0028572045266628,-0.5499040484428406,0.8352179527282715,0.0006297120531422,-0.00029383621335,-4.5560913708202656e-05,0.011499285697937,0.0086000561714172,0.0061454772949218,0,0,0,0
3.9,1788519902391,0.0,0.0,-0.0037467691581696,-0.0018183168722316,0.6009228825569153,0.7992962002754211,0.0,0.0,0.0,0.0,0.0,0.0,-0.0028916606679558,0.0028572045266628,-0.5499040484428406,0.8352179527282715,0.0006297120531422,-0.00029383621335,-4.5560913708202656e-05,0.011499285697937,0.0086000561714172,0.0061454772949218,0,0,0,0
4.0,1788519902491,0.0,0.0,-0.0037467691581696,-0.0018183168722316,0.6009228825569153,0.7992962002754211,0.0,0.0,0.0,0.0,0.0,0.0,-0.0028916606679558,0.0028572045266628,-0.5499040484428406,0.8352179527282715,0.0006297120531422,-0.00029383621335,-4.5560913708202656e-05,0.011499285697937,0.0086000561714172,0.0061454772949218,0,0,0,0
4.1,1788519902591,0.0,0.0,-0.0037467691581696,-0.0018183168722316,0.6009228825569153,0.7992962002754211,0.0,0.0,0.0,0.0,0.0,0.0,-0.0028716959059238,0.0028761532157659,-0.5499076247215271,0.8352155685424805,-0.0005666654035198,-0.0008286444615905,0.0003412333761192,0.006715178489685,0.0282514095306396,0.0026254653930664,0,0,0,0
4.2,1788519902691,0.0,0.0,-0.0037467691581696,-0.0018183168722316,0.6009228825569153,0.7992962002754211,0.0,0.0,0.0,0.0,0.0,0.0,-0.0028711389750242,0.0029016304761171,-0.5499376654624939,0.8351956605911255,-0.0003263473105154,0.000910257350696,-0.0005146434740526,0.0088244080543518,-0.0148375630378723,0.0347852706909179,0,0,0,0
4.3,1788519902791,0.0,0.0,-0.0037467691581696,-0.0018183168722316,0.6009228825569153,0.7992962002754211,0.0,0.0,0.0,0.0,0.0,0.0,-0.0028697177767753,0.0028961105272173,-0.5499550104141235,0.8351843357086182,2.3123512302835345e-05,-0.0007993778243256,-0.0015749197237505,0.003482162952423,-0.0058174729347229,0.0078620910644531,0,0,0,0
4.4,1788519902891,0.0,0.0,-0.0037467691581696,-0.0018183168722316,0.6009228825569153,0.7992962002754211,0.0,0.0,0.0,0.0,0.0,0.0,-0.0028376830741763,0.0029115574434399,-0.5499445796012878,0.8351913094520569,0.0001839520422354,-0.0002908800698878,-0.0001820581877872,0.0113102793693542,0.0046462416648864,-0.0010366439819335,0,0,0,0
4.5,1788519902991,0.0,0.0,-0.0037467691581696,-0.0018183168722316,0.6009228825569153,0.7992962002754211,0.0,0.0,0.0,0.0,0.0,0.0,-0.0028390157967805,0.0029452191665768,-0.5499911904335022,0.835160493850708,0.0003555764747815,0.0006286066511211,-0.0001787319624957,-0.0133054256439208,-0.0057432651519775,0.0006132125854492,0,0,0,0
4.6,1788519903091,0.0,0.0,-0.0037467691581696,-0.0018183168722316,0.6009228825569153,0.7992962002754211,0.0,0.0,0.0,0.0,0.0,0.0,-0.0028572771698236,0.0029267091304063,-0.5499826073646545,0.8351661562919617,-5.030808018394327e-05,-3.2906533965466216e-05,0.0017169429817905,-0.0102099180221557,-0.0074357390403747,0.0006256103515625,0,0,0,0
4.7,1788519903191,0.0,0.0,-0.0037467691581696,-0.0018183168722316,0.6009228825569153,0.7992962002754211,0.0,0.0,0.0,0.0,0.0,0.0,-0.0028459271416068,0.0029141809791326,-0.5500164031982422,0.8351438641548157,6.0516481640124425e-06,0.0005757141275642,-3.848966724720573e-06,0.0094913244247436,-0.0113136172294616,-0.006484031677246,0,0,0,0
4.8,1788519903291,0.0,0.0,-0.0037467691581696,-0.0018183168722316,0.6009228825569153,0.7992962002754211,0.0,0.0,0.0,0.0,0.0,0.0,-0.0028291456401348,0.0029096417129039,-0.5500591397285461,0.8351158499717712,0.0005517946814114,-0.0008146568341419,-0.0023284586353405,0.0096005797386169,0.00095134973526,-0.0082244873046875,0,0,0,0
4.9,1788519903391,0.0,0.0,-0.0037467691581696,-0.0018183168722316,0.6009228825569153,0.7992962002754211,0.0,0.0,0.0,0.0,0.0,0.0,-0.0028403522446751,0.0028887959197163,-0.5500757694244385,0.8351048827171326,-3.709045178061533e-05,-0.0010753095453736,-0.0001939499127937,-0.0053057074546813,-0.0153168439865112,0.0078134536743164,0,0,0,0
5.0,1788519903491,0.0,0.0,-0.0037467691581696,-0.0018183168722316,0.6009228825569153,0.7992962002754211,0.0,0.0,0.0,0.0,0.0,0.0,-0.002819356508553,0.0028881467878818,-0.5500654578208923,0.8351118564605713,0.0006785507912622,0.0011265242379543,0.0002511678375618,0.0056145191192626,-0.0211201906204223,0.0240020751953125,0,0,0,0
5.1,1788519903591,0.0,0.0,-0.0037467691581696,-0.0018183168722316,0.6009228825569153,0.7992962002754211,0.0,0.0,0.0,0.0,0.0,0.0,-0.002819356508553,0.0028881467878818,-0.5500654578208923,0.8351118564605713,0.0006785507912622,0.0011265242379543,0.0002511678375618,0.0056145191192626,-0.0211201906204223,0.0240020751953125,0,0,0,0
5.2,1788519903691,0.0,0.0,-0.0037467691581696,-0.0018183168722316,0.6009228825569153,0.7992962002754211,0.0,0.0,0.0,0.0,0.0,0.0,-0.0027994625270366,0.0028660241514444,-0.5500488877296448,0.8351229429244995,-0.0005218948124384,5.669485123677659e-05,0.0005181057946962,0.0109967589378356,-0.0143371224403381,-0.0100727081298828,0,0,0,0
5.3,1788519903791,0.0,0.0,-0.0037467691581696,-0.0018183168722316,0.6009228825569153,0.7992962002754211,0.0,0.0,0.0,0.0,0.0,0.0,-0.0027677807956933,0.00288971606642,-0.5500199198722839,0.8351418972015381,0.0007175847334495,0.0021997312461141,0.0012644678872199,-0.0062577128410339,-0.0038332343101501,-0.0047130584716796,0,0,0,0
5.4,1788519903891,0.0,0.0,-0.0037467691581696,-0.0018183168722316,0.6009228825569153,0.7992962002754211,0.0,0.0,0.0,0.0,0.0,0.0,-0.0027502439916133,0.0028346413746476,-0.5500313639640808,0.8351346254348755,0.0001643247138702,-0.0011872963846323,0.0007060421773434,0.0002369880676269,-0.0064707994461059,-0.0118789672851562,0,0,0,0
5.5,1788519903991,0.0,0.0,-0.0037467691581696,-0.0018183168722316,0.6009228825569153,0.7992962002754211,0.0,0.0,0.0,0.0,0.0,0.0,-0.0027861399576067,0.0027644550427794,-0.5500755906105042,0.8351057171821594,0.0003546220855247,-0.0022342665662456,-0.0011702846268844,0.0112872719764709,-0.0155885219573974,-0.0172500610351562,0,0,0,0
5.6,1788519904091,0.0,0.0,-0.0037467691581696,-0.0018183168722316,0.6009228825569153,0.7992962002754211,0.0,0.0,0.0,0.0,0.0,0.0,-0.0027968939393758,0.0027630077674984,-0.5500644445419312,0.8351129293441772,-0.0005309193465764,-0.000464824872828,0.0008572360604642,0.0111547708511352,-0.0028449892997741,-0.0189895629882812,0,0,0,0
5.7,1788519904191,0.0,0.0,-0.0037467691581696,-0.0018183168722316,0.6009228825569153,0.7992962002754211,0.0,0.0,0.0,0.0,0.0,0.0,-0.0027968939393758,0.0027630077674984,-0.5500644445419312,0.8351129293441772,-0.0005309193465764,-0.000464824872828,0.0008572360604642,0.0111547708511352,-0.0028449892997741,-0.0189895629882812,0,0,0,0
5.8,1788519904291,0.0,0.0,-0.0037467691581696,-0.0018183168722316,0.6009228825569153,0.7992962002754211,0.0,0.0,0.0,0.0,0.0,0.0,-0.0027607474476099,0.0027677053585648,-0.5500400066375732,0.8351291418075562,0.0005278490468465,0.0002261204533555,3.446577219535946e-05,-0.0082436203956604,-0.021436870098114,0.0041990280151367,0,0,0,0
5.9,1788519904391,0.0,0.0,-0.0037467691581696,-0.0018183168722316,0.6009228825569153,0.7992962002754211,0.0,0.0,0.0,0.0,0.0,0.0,-0.0027212500572204,0.0027440674602985,-0.5500878691673279,0.8350979089736938,6.271027761975778e-05,0.0012412525106181,0.0008165081378921,-0.0152918696403503,-0.025827407836914,-0.0191974639892578,0,0,0,0
6.0,1788519904491,0.0,0.0,-0.0037467691581696,-0.0018183168722316,0.6009228825569153,0.7992962002754211,0.0,0.0,0.0,0.0,0.0,0.0,-0.0027063563466072,0.0027609467506408,-0.5501670241355896,0.8350456357002258,0.0012248066741197,-0.0004725679126738,-0.0005266820777698,-0.0095027685165405,0.0064277648925781,-0.0118331909179687,0,0,0,0
6.1,1788519904591,0.0,0.0,-0.0037467691581696,-0.0018183168722316,0.6009228825569153,0.7992962002754211,0.0,0.0,0.0,0.0,0.0,0.0,-0.0027270223945379,0.0027649328112602,-0.5501874685287476,0.8350321650505066,0.0001519246945738,-0.0007756979774842,-0.0003443238149149,-0.0061560273170471,-0.0094324946403503,0.0078840255737304,0,0,0,0
6.2,1788519904691,0.0,0.0,-0.0037467691581696,-0.0018183168722316,0.6009228825569153,0.7992962002754211,0.0,0.0,0.0,0.0,0.0,0.0,-0.0027302112430334,0.0027290740981698,-0.5501817464828491,0.8350360989570618,-1.715894128694801e-05,-0.000986643969764,-0.00018508770609,0.0076488256454467,-0.0079128146171569,-0.004612922668457,0,0,0,0
6.3,1788519904791,0.0,0.0,-0.0037467691581696,-0.0018183168722316,0.6009228825569153,0.7992962002754211,0.0,0.0,0.0,0.0,0.0,0.0,-0.0027099633589386,0.002740797586739,-0.5502057671546936,0.8350203037261963,-0.0004779664504805,-3.2407718595756965e-05,0.0002182593405544,-0.0026918649673461,-0.0152693390846252,-0.0100669860839843,0,0,0,0
6.4,1788519904891,0.0,0.0,-0.0037467691581696,-0.0018183168722316,0.6009228825569153,0.7992962002754211,0.0,0.0,0.0,0.0,0.0,0.0,-0.0026999665424227,0.0027557173743844,-0.5501552224159241,0.835053563117981,0.0001513985652716,0.0004083270369524,0.0010722090129259,-0.0077966451644897,-0.0135393738746643,0.0078887939453125,0,0,0,0
6.5,1788519904991,0.0,0.0,-0.0037467691581696,-0.0018183168722316,0.6009228825569153,0.7992962002754211,0.0,0.0,0.0,0.0,0.0,0.0,-0.002689030021429,0.0027931304648518,-0.5502001047134399,0.8350239396095276,-2.004308016641869e-05,0.0023863538364655,-0.0011645680821033,-0.0159845352172851,-0.0222258567810058,-0.0065469741821289,0,0,0,0
6.6,1788519905091,0.0,0.0,-0.0037467691581696,-0.0018183168722316,0.6009228825569153,0.7992962002754211,0.0,0.0,0.0,0.0,0.0,0.0,-0.0026931520551443,0.0027802418917417,-0.5501919984817505,0.8350291848182678,-0.0003742266000363,-0.0006516801453144,0.0001687558201305,-0.0054922699928283,-0.0097466707229614,0.0007352828979492,0,0,0,0
6.7,1788519905191,0.0,0.0,-0.0037467691581696,-0.0018183168722316,0.6009228825569153,0.7992962002754211,0.0,0.0,0.0,0.0,0.0,0.0,-0.0026757242158055,0.0027932133525609,-0.5502188205718994,0.8350114822387695,0.0003159440690927,0.0002249085249162,-0.0009992806439426,0.0074409246444702,-0.0350691676139831,0.0096654891967773,0,0,0,0
6.8,1788519905291,0.0,0.0,-0.0037467691581696,-0.0018183168722316,0.6009228825569153,0.7992962002754211,0.0,0.0,0.0,0.0,0.0,0.0,-0.0026829494163393,0.0027556242421269,-0.5502147078514099,0.8350144028663635,0.0003617062249177,-0.0003136604668297,-0.000339901614469,-0.0183326005935668,-0.008344829082489,-0.0047016143798828,0,0,739,-76
6.9,1788519905391,2.197183132171631,0.0,-0.0033464226871728,-0.0016245015431195,0.5998739004135132,0.8000859022140503,0.0017428024759461,0.0024332284616246,1.178989868495225e-06,0.0175305940210819,-0.0032173201907426,-0.05261005833745,-0.0024895947426557,0.0027491683140397,-0.5586135983467102,0.8294197916984558,-0.0003094259524507,0.0148958963890843,-0.4029823451834321,0.4320716857910156,-0.3581693172454834,-0.0382938385009765,249,99,13713,-2803
7.0,1788519905491,5.7183098793029785,-0.7323943376541138,-0.0032244520261883,-0.0008074840297922,0.5784794688224792,0.815690279006958,0.0571992642568902,0.0010039527452817,-1.396776328092187e-06,0.0177139788866043,0.014723977074027,-0.5883966684341431,-0.0022713551297783,0.0026207109913229,-0.5836505889892578,0.8119974732398987,-0.0181722248541113,-0.0226268884080184,-0.831357987727555,0.8063082695007324,-0.3297486305236816,-0.1658649444580078,203,32,19624,0
7.1,1788519905591,6.563380241394043,0.0,-0.0031895879656076,-0.0012383668217808,0.5607696771621704,0.8279647827148438,0.0687624880479067,-0.0003954105356477,2.0943963864267005e-05,-0.0078595913946628,-0.0122439209371805,-0.8660916090011597,-0.0026480108499526,0.0023449389263987,-0.6140689253807068,0.7892444729804993,-0.0114241252989836,-0.0240411446174296,-0.96882623461212,0.7766159176826477,-0.3631556034088135,-0.8935184478759766,165,0,22423,0
7.2,1788519905691,7.408450603485107,0.0,-0.0038122171536087,-0.0017633431125432,0.502720832824707,0.8644386529922485,0.1213665450948795,0.0026441989796367,-6.361578136728539e-05,-0.0023741000331938,0.0351657532155513,-1.0158672332763672,-0.0027431882917881,0.002727098762989,-0.6532287001609802,0.7571507692337036,0.0148769762493379,0.0058649009592047,-1.150639919720242,0.1976662874221801,-0.1246348619461059,-0.128091812133789,107,76,21757,2038
7.3,1788519905791,7.802816867828369,0.5633803009986877,-0.0030789333395659,0.0004198084352537,0.4434738755226135,0.896281898021698,0.1278701844048492,1.1173316772330864e-05,-0.0001232699549401,0.0349398665130138,0.0297805909067392,-1.1510939598083496,-3.276113420724869e-05,0.0033376757055521,-0.7029865384101868,0.7111952900886536,0.0274883763504402,0.0392100847488603,-1.042568332267615,0.5396372675895691,0.0218716263771057,0.8078727722167969,65,103,21075,5522
7.4,1788519905891,6.478873252868652,1.0704225301742554,-0.0035671964287757,0.0015655412571504,0.3989703357219696,0.9169555306434632,0.1370947300880732,0.0042813205436232,4.435716704916191e-06,-0.0050005540251731,0.0210691839456558,-1.0876575708389282,0.0002126581966876,0.0038529345765709,-0.739820659160614,0.6727930903434753,0.0027438893850559,-0.0036941429350449,-1.0136526323760635,-1.0990265607833862,0.175994336605072,-0.9588403701782228,9,27,13941,2386
7.5,1788519905991,4.309859275817871,0.5070422291755676,-0.0037376955151557,0.0021812925115227,0.3597497344017029,0.9330388307571412,0.0905946681193514,0.0026171428991785,-3.4238015850180544e-06,0.0021831458434462,0.0091439476236701,-0.7323451042175293,0.000644919462502,0.0040976619347929,-0.7557061314582825,0.6548976898193359,0.0012818605508055,-0.0115114290358145,-0.6659750197817144,-0.6887298822402954,0.3709899187088012,-0.0707263946533203,34,15,8864,2911
7.6,1788519906091,2.5352113246917725,0.0,-0.0036700533237308,0.0021140626631677,0.340910941362381,0.94008606672287,0.0391077440040952,0.0080119125216851,2.922127251561621e-06,0.0004014768637716,-0.0088250897824764,-0.3412615656852722,0.0008366983383893,0.0043294420465826,-0.7719030976295471,0.6357249021530151,-0.0052791653170338,0.0179666047924244,-0.2595521369283204,-0.3119619488716125,0.079591691493988,-0.1906270980834961,9,131,5000,3616
7.7,1788519906191,0.0,0.0,-0.0036958460696041,0.0021458477713167,0.3374104797840118,0.94134783744812,0.0206564973099244,0.0021899481899243,-1.589357016615519e-06,-5.549066554522142e-05,0.0019636086653918,-0.1495560109615326,0.0006861863657832,0.0041820220649242,-0.7723530530929565,0.6351792812347412,-0.0039677645259265,-0.0028637285321427,0.0185491768001053,-0.0205878019332885,-0.2250515222549438,-0.002044677734375,0,0,0,0
7.8,1788519906291,0.0,0.0,-0.0036958460696041,0.0021458477713167,0.3374104797840118,0.94134783744812,0.0206564973099244,0.0021899481899243,-1.589357016615519e-06,-5.549066554522142e-05,0.0019636086653918,-0.1495560109615326,0.0006835684180259,0.0042054802179336,-0.771817147731781,0.635830283164978,-0.001025405481857,-0.0004869405788532,0.0099333546584614,0.0529335737228393,-0.1568663120269775,0.0937576293945312,0,0,0,0
7.9,1788519906391,0.0,0.0,-0.0037189056165516,0.0021009815391153,0.3382419347763061,0.9410495162010192,-0.0018540481835847,0.0009825323857944,-5.125153391895601e-07,2.5792523672407697e-08,3.7516397100034744e-08,-2.401049414402223e-06,0.0006714528426527,0.00419597979635,-0.7717174291610718,0.6359514594078064,-0.0004297666203822,-0.0004366855155893,7.893845935495308e-05,-0.0133269429206848,-0.0270834565162658,-0.0173501968383789,0,0,0,0
8.0,1788519906491,0.0,0.0,-0.0037189056165516,0.0021009815391153,0.3382419347763061,0.9410495162010192,0.0,0.0,0.0,0.0,0.0,0.0,0.0006798692047595,0.0041785556823015,-0.7717021703720093,0.6359700560569763,0.0012493501940719,-0.0003105672982432,0.001608857051476,-0.0010158419609069,0.026262879371643,0.0224428176879882,0,0,0,0
8.1,1788519906591,0.0,0.0,-0.0037189056165516,0.0021009815391153,0.3382419347763061,0.9410495162010192,0.0,0.0,0.0,0.0,0.0,0.0,0.0006936369463801,0.0041631078347563,-0.7717104554176331,0.6359599828720093,-0.000621420827609,-0.000920663948867,0.0009627522566078,0.0224344730377197,-0.0099806189537048,0.0026369094848632,0,0,0,0
8.2,1788519906691,0.0,0.0,-0.0037189056165516,0.0021009815391153,0.3382419347763061,0.9410495162010192,0.0,0.0,0.0,0.0,0.0,0.0,0.0006988989189267,0.0041746459901332,-0.7716924548149109,0.6359818577766418,-3.788054468249245e-05,-0.000311143589957,0.0015634105605807,0.0226437449455261,-0.0224610567092895,0.0061769485473632,0,0,0,0
8.3,1788519906791,0.0,0.0,-0.0037189056165516,0.0021009815391153,0.3382419347763061,0.9410495162010192,0.0,0.0,0.0,0.0,0.0,0.0,0.0006730714812874,0.004121626727283,-0.7716535329818726,0.6360294818878174,0.0010736330385699,0.0004001143693952,0.0016153976982518,-0.0162084102630615,-0.0284151434898376,0.0257349014282226,0,0,0,0
8.4,1788519906891,1.8028168678283687,0.0,-0.0037189056165516,0.0021009815391153,0.3382419347763061,0.9410495162010192,0.0,0.0,0.0,0.0,0.0,0.0,0.0006580743938684,0.0040637701749801,-0.7719305753707886,0.6356936097145081,0.0022600436106342,-0.0053314951929625,-0.0268038249885836,1.649795651435852,-0.292919397354126,-0.0183782577514648,169,78,8930,2216
8.5,1788519906991,3.6056337356567374,0.0,-0.0037189056165516,0.0021009815391153,0.3382419347763061,0.9410495162010192,0.0008179044202255,-0.0003901682165399,-4.679692827401112e-07,0.0,0.0,0.0,0.000608223490417,0.0040744710713624,-0.7784951329231262,0.6276372075080872,0.0026874884994633,-0.0019454948843737,-0.4244781374134029,0.4616370797157287,-0.3075125813484192,-0.4870376586914062,170,175,13383,4533
8.6,1788519907091,5.380281925201416,0.8732394576072693,-0.0036715171299874,0.0020395608153194,0.3310632109642029,0.9435991644859314,0.0431186149707886,-0.0018762308449819,8.206504102049573e-06,0.0019385708728805,-0.0021030211355537,-0.3052278757095337,0.000608223490417,0.0040744710713624,-0.7784951329231262,0.6276372075080872,0.0026874884994633,-0.0019454948843737,-0.4244781374134029,0.4616370797157287,-0.3075125813484192,-0.4870376586914062,170,175,13383,4533
8.7,1788519907191,5.380281925201416,0.8732394576072693,-0.0036715171299874,0.0020395608153194,0.3310632109642029,0.9435991644859314,0.0431186149707886,-0.0018762308449819,8.206504102049573e-06,0.0019385708728805,-0.0021030211355537,-0.3052278757095337,0.000608223490417,0.0040744710713624,-0.7784951329231262,0.6276372075080872,0.0026874884994633,-0.0019454948843737,-0.4244781374134029,0.4616370797157287,-0.3075125813484192,-0.4870376586914062,84,60,18601,4493
8.8,1788519907291,7.746479034423828,0.9014084339141846,-0.0036715171299874,0.0020395608153194,0.3310632109642029,0.9435991644859314,0.0431186149707886,-0.0018762308449819,8.206504102049573e-06,0.0019385708728805,-0.0021030211355537,-0.3052278757095337,0.000608223490417,0.0040744710713624,-0.7784951329231262,0.6276372075080872,0.0026874884994633,-0.0019454948843737,-0.4244781374134029,0.4616370797157287,-0.3075125813484192,-0.4870376586914062,84,60,18601,4493
8.9,1788519907391,7.323943614959717,0.8450704216957092,-0.0035923398099839,0.0041681937873363,0.1615239530801773,0.9868534207344056,0.1229815484185318,0.0022402037598362,-0.0001576723344146,0.0469273440539836,0.0542752556502819,-1.001738667488098,0.0016983682289719,0.0045655164867639,-0.8799347877502441,0.4750696420669555,-0.0262622485512434,-0.0814189127612823,-0.9504714199692608,0.1245587468147277,-0.2442092895507812,1.801852226257324,105,49,22343,3805
9.0,1788519907491,6.8450703620910645,1.94366192817688,-0.002982540987432,0.0032537262886762,0.1226022616028785,0.9924460649490356,0.1282649512571061,0.0037077962791986,-0.0001669209477893,0.0318066366016864,-0.0149416197091341,-0.9657410979270936,-0.0009337263181805,0.0034617409110069,-0.901658535003662,0.4324339926242828,-0.0012738370599527,-0.1310123439113392,-0.9290833270066432,1.224403977394104,0.0675194263458252,1.3194456100463867,42,251,18934,12777
9.1,1788519907591,6.14084529876709,3.9718310832977295,-0.0038385088555514,-0.0003252596070524,0.0826706662774086,0.9965694546699524,0.1688748384687221,-0.0036985054635239,5.32462113914406e-05,-0.0168656166642904,-0.0650520324707031,-0.5496211051940918,-0.0014014318585395,0.0036440249532461,-0.9112908840179444,0.411744624376297,-0.0055316594839576,-0.054223901467052,-0.4840942961162657,-0.2216878533363342,0.0883304476737976,0.668452262878418,23,148,16418,13054
9.2,1788519907691,6.2816901206970215,4.14084529876709,-0.00629119342193,0.0018800713587552,0.0678791254758834,0.9976720213890076,0.1631231797188401,0.00168322959391,-0.0001450297934429,-0.038259319961071,0.0574373863637447,-0.3114304542541504,-0.0003191130235791,0.0054271146655082,-0.9184482097625732,0.395503968000412,0.0660935767481342,-0.0277607714272586,-0.2344663525046526,0.1960275769233703,0.0110684037208557,0.3484907150268554,73,31,17659,11164
9.3,1788519907791,6.14084529876709,3.802816867828369,-0.0041659255512058,0.0006615294842049,0.0515011474490165,0.9986640214920044,0.181251227752534,0.0029876441791814,0.0002101878950403,0.0175975263118743,-0.0180562119930982,-0.2995923459529876,-0.0007812054827809,0.0031766947358846,-0.925716519355774,0.3782040774822235,0.0556624339242316,-0.0325730454372856,-0.348185518150976,-0.2528791427612304,0.0607386231422424,0.7292108535766602,80,66,18421,11057
9.4,1788519907891,6.309859275817871,3.436619758605957,-0.0040605524554848,0.0010858115274459,0.0342425256967544,0.9994046688079834,0.1523679033637414,-0.0043064073551834,3.3247012486563895e-05,-0.0134868463501334,0.0187231358140707,-0.38945472240448,8.052308112382889e-05,0.0047486815601587,-0.9335251450538636,0.3584804534912109,-0.012114085626192,0.0214534263313227,-0.4591182747478607,0.3549008965492248,-0.0150180459022521,-0.5885715484619141,77,147,17968,12834
9.5,1788519907991,6.253520965576172,3.859154939651489,-0.0049809585325419,0.0014619611902162,0.014502384699881,0.9998813271522522,0.1710001451106096,-0.0032470545692401,-2.514700476192198e-05,-0.0213296562433242,-0.0060393884778022,-0.3464167714118957,-0.0004313616082072,0.0052509112283587,-0.9372774362564088,0.3485445082187652,-0.0298803878914424,-0.0272765529852281,-0.3809601200141795,0.0208306312561035,-0.2390610575675964,0.7077007293701172,74,92,18071,11729
9.6,1788519908091,6.2816901206970215,3.774647951126098,-0.0053717987611889,0.0016215281793847,-0.0016346742631867,0.9999828934669496,0.168509631724913,-0.0024936837915996,-2.6269690311582973e-06,-0.0070734438486397,0.0092252092435956,-0.3541435003280639,2.9033981263637543e-05,0.0058797877281904,-0.9450856447219848,0.3267698884010315,-0.0045196683900081,0.0412996793547336,-0.3456896618487991,-0.0841221213340759,-0.0758202075958252,-0.8762035369873047,91,73,18058,11950
9.7,1788519908191,5.77464771270752,3.94366192817688,-0.0055900365114212,0.0023944959975779,-0.0194904785603284,0.9997915625572203,0.161560708698977,0.0021005325654948,-5.4660569668121445e-06,-0.0027092760428786,0.0186957586556673,-0.3583126366138458,0.0008119065314531,0.0059930207207798,-0.950069546699524,0.3119798004627228,0.0119579685552905,0.0298248152437941,-0.3037818808869633,-0.2734178304672241,-0.1458495259284973,0.3332471847534179,61,68,16251,12249
9.8,1788519908291,5.492957592010498,3.746478796005249,-0.0045481473207473,0.0036809635348618,-0.0336230210959911,0.9994174242019652,0.1528698132347066,-0.000632962435355,5.806558082297393e-06,0.0329997576773166,0.0302567705512046,-0.1948039680719375,0.0008667493239045,0.0053500914946198,-0.9529691934585572,0.3030186593532562,-0.0005673048396704,-0.0696918663269578,-0.1967654878829012,-0.2573708891868591,-0.0928803086280822,0.7232255935668945,67,49,15952,11341
9.9,1788519908391,5.323943614959717,3.577464818954468,-0.0043733119964599,0.0033838939853012,-0.0461909733712673,0.998917281627655,0.1510249623531448,-0.0015593455044384,7.360103875368536e-05,0.0153134809806942,-0.0043091946281492,-0.2614619731903076,0.0019398424774408,0.0053919618949294,-0.9564703702926636,0.2917733192443847,0.0070012377351571,0.0503219583964748,-0.2529774441733791,0.4180474281311035,0.4970272779464721,-1.4644098281860352,83,88,16264,11729
10.0,1788519908491,5.492957592010498,2.4788732528686523,-0.0046721962280571,0.0025977212935686,-0.0585829503834247,0.998268187046051,0.1499849664635626,-0.001683101743954,5.362774565794595e-06,0.0010188422165811,-0.0174870677292346,-0.281014084815979,0.0010588178411126,0.0053078141063451,-0.960540533065796,0.2780873477458954,0.0033534636821083,0.0121857659163619,-0.3080997411713276,0.229050874710083,0.2071382999420166,1.4145231246948242,40,25,14369,4612
10.1,1788519908591,5.070422649383545,2.0,-0.0047121746465563,0.0022913555148988,-0.0793336704373359,0.9968342781066896,0.1210023681883541,-0.0036249463364949,-1.1678946118972135e-05,0.0103642614558339,0.008784482255578,-0.4779397547245025,0.0001803589984774,0.0052209440618753,-0.9660782217979432,0.2581968903541565,-0.0070873219085907,-0.026733129078365,-0.506100180645058,-0.4115951061248779,0.0813768506050109,1.0412187576293943,48,13,14368,4824
10.2,1788519908691,4.507042407989502,1.6901408433914185,-0.004970634356141,0.0028102013748139,-0.1056220605969429,0.9943900108337402,0.1052291694473385,0.0012452972342653,8.098797387488911e-06,-0.010436987504363,0.0266645532101392,-0.4984713196754455,0.0010429807007312,0.005840616300702,-0.9740368127822876,0.2263119220733642,-0.0081673710760584,0.0056034605468415,-0.4622640277819156,-0.1830910444259643,0.0566638708114624,0.4979381561279297,67,71,14198,7400
10.3,1788519908791,4.704225540161133,2.2253520488739014,-0.005052410531789,0.0030735202599316,-0.1295463740825653,0.9915556907653807,0.1105768384235891,0.0008856011450632,-8.132483612533227e-06,0.007176099345088,0.0105212237685918,-0.3954231142997741,0.0009537264704704,0.0058282455429434,-0.9789280891418456,0.2041197121143341,-0.0076551669831558,-0.0007761689709459,-0.3163937643436642,0.1459507942199707,-0.1513440608978271,0.6871061325073242,41,92,13512,8041
10.4,1788519908891,4.478873252868652,2.309859037399292,-0.005335300695151,0.0026493286713957,-0.1439326256513595,0.9895694851875304,0.1119207861505171,-0.0010484760311916,2.5267192073187308e-05,-0.0067644705995917,-0.0102394260466098,-0.3248511552810669,0.0003934064880013,0.0059978561475872,-0.982045590877533,0.1885483860969543,-0.0077784901278571,-0.0070404883962756,-0.3925666347901695,0.1160111427307128,0.1523147225379943,-1.3413200378417969,75,84,14265,7059
10.5,1788519908991,4.169013977050781,2.0,-0.0055047059431672,0.0023852582089602,-0.1531329602003097,0.9881874322891236,0.1174573655023328,-0.0005970979201107,2.3545315336529104e-05,-0.0045036235824227,-0.0093148816376924,-0.3720798790454864,0.0007774280384182,0.0062364228069782,-0.98454087972641,0.1750420778989792,-5.07648091498238e-06,0.0055009752014279,-0.4575402512987139,-0.3531875014305115,-0.1219120025634765,0.6851186752319336,54,66,12091,5260
10.6,1788519909091,3.436619758605957,1.6901408433914185,-0.00552917458117,0.0025106030516326,-0.1848719418048858,0.982743799686432,0.0876760611740862,-0.0026781621826287,-4.323109091558029e-06,0.0006129699177108,-0.0002689934917725,-0.3272110521793365,0.0005819583311676,0.0060616582632064,-0.9883512258529664,0.1520686447620391,0.000971948672552,0.0053172428850357,-0.3259559114475925,-0.2920265197753906,-0.2821362614631653,-0.1289377212524414,51,94,10743,6709
10.7,1788519909191,3.7183098793029785,1.8591549396514893,-0.0055535873398184,0.0026409323327243,-0.1990679800510406,0.979966402053833,0.0895080305927868,0.003626176193169,-1.206981120816904e-05,-0.0023673991672694,0.00817780662328,-0.2603499889373779,0.0004376806318759,0.006103073246777,-0.9902929663658142,0.1388616412878036,-0.0013777526800499,-0.0064194018176931,-0.272908417464569,-0.1363705992698669,-0.3899328112602234,0.6831569671630859,44,64,10192,6437
10.8,1788519909291,3.492957830429077,1.8028168678283687,-0.0056207915768027,0.0023815431632101,-0.2102969288825988,0.9776184558868408,0.0898857078873619,0.0040930750510697,1.2864290639872384e-05,-0.0012281464878469,-0.0045230202376842,-0.2558269500732422,0.0004172027111053,0.0060603078454732,-0.9917978644371032,0.1276724636554718,0.0045502612502525,0.005604904403791,-0.2312345867908486,0.0410087704658508,-0.0532342195510864,0.3656339645385742,76,50,10985,6356
10.9,1788519909391,2.3943662643432617,3.2676055431365967,-0.0053484919480979,0.0031748400069773,-0.2226893901824951,0.9748696088790894,0.0900652261425594,0.0042353654752435,-2.4434761913663315e-05,-0.0007479258347302,0.0183967351913452,-0.2626856863498688,0.0015700561925768,0.0060582384467124,-0.9932569861412048,0.1157650426030159,0.0059564566008345,0.017564180988143,-0.0833728448256479,0.247421383857727,0.4367906451225281,-0.1289710998535156,7,215,6373,13685
11.0,1788519909491,1.0704225301742554,5.154929637908936,-0.0049107577651739,0.0039813686162233,-0.2177719622850418,0.9759791493415833,0.1033044350612038,0.0059784850281513,-2.686652632793688e-05,0.0037219494115561,0.0124865230172872,0.2738158702850342,0.0034467941150069,0.0062101287767291,-0.9909728765487672,0.1338747888803482,-0.0062070976041914,0.0872686009877935,0.6354213584907745,0.0905801653861999,0.2974898815155029,-0.1301794052124023,37,110,3186,15456
11.1,1788519909591,0.9577465057373048,5.323943614959717,-0.0048017906956374,0.0061829602345824,-0.1867561936378479,0.9823750853538512,0.1170542144809021,-0.0067202548575541,-7.798989393960984e-06,-0.012331960722804,-0.0564366914331913,0.626511812210083,0.0031400891020894,0.0065265111625194,-0.9872211813926696,0.1591913700103759,-0.0090425352980543,-0.1371544171146798,0.6413932368200456,0.3275046348571777,0.7779891490936279,-3.038614273071289,58,94,4822,15222
11.2,1788519909691,1.211267590522766,5.464788913726807,-0.0062617706134915,0.0073328274302184,-0.1507702469825744,0.9885217547416688,0.126027684281244,-0.0091839089052666,1.8989837086435325e-05,-0.0725669786334037,0.0278289522975683,0.8642560243606567,0.0061997212469577,0.0100088696926832,-0.9797770977020264,0.1997458040714264,-0.1382126406167066,0.1416077700743168,0.8664397615549517,0.2278102040290832,-0.4854490756988525,0.4233036041259765,105,26,5245,13565
11.3,1788519909791,1.2394366264343262,3.774647951126098,-0.0051426035352051,0.0051007689908146,-0.1152693852782249,0.9933078289031982,0.1131280909277952,-0.0104317154649089,0.0002939642369968,0.0783341154456138,-0.1027196496725082,0.6912546753883362,0.0025136284530162,0.0063016470521688,-0.9705148935317992,0.2409456521272659,0.0084274116892666,-0.0361514560740443,0.5758290076729106,0.1623902916908264,-0.3183869123458862,-0.5994844436645508,103,14,6984,10128
11.4,1788519909891,1.5211267471313477,3.690140962600708,-0.0049522165209054,0.0044138268567621,-0.0914885848760604,0.9957840442657472,0.086549458156308,-0.005576912638654,1.4554999535358608e-05,0.0034964638762176,-0.0040382100269198,0.309382677078247,0.0022349003702402,0.0061419615522027,-0.9674196243286132,0.2530938386917114,-0.005156646594481,-0.0185444671009921,0.2294307283291413,-0.037890076637268,0.3492882847785949,0.1729412078857422,29,121,5969,12217
11.5,1788519909991,0.8732394576072693,3.6619718074798575,-0.0052135162986814,0.0045278714969754,-0.0762075409293174,0.9970680475234984,0.0928756579447343,-0.00241291197741,-3.5681690133684413e-06,-0.0048443651758134,0.0097014652565121,0.369885504245758,0.002685478888452,0.006539138033986,-0.9627217054367064,0.2704013884067535,-0.0070582555439707,0.0141038304392534,0.4231983611456391,-0.2325201630592346,-0.1577035188674926,-0.5214710235595703,2,35,3420,10511
11.6,1788519910091,1.4929577112197876,3.126760482788086,-0.0051565854810178,0.0050087831914424,-0.0588514916598796,0.998240888118744,0.0791181514005291,-0.0060459199594301,-3.126735172568863e-06,0.0012167628156021,0.0054597510024905,0.3644331991672516,0.0032099056988954,0.0065931500867009,-0.9586005806922911,0.2846596539020538,0.0010563889776681,0.0163018107842707,0.2093460254463377,-0.098031997680664,-0.3056615591049194,0.1646537780761718,56,53,6428,9581
11.7,1788519910191,1.0985915660858154,2.7323944568634038,-0.004942622501403,0.0049345935694873,-0.0468428842723369,0.9988778233528136,0.0787830407072286,-0.0022564934087441,9.026389586830737e-06,0.0028488065581768,-0.008480254560709,0.252685010433197,0.0031741922721266,0.0065203197300434,-0.955260932445526,0.2956756353378296,-0.0098473726996974,0.0158021251073759,0.1982498372422485,-0.1584099531173706,-0.5139480829238892,0.0341796875,63,44,4484,8361
11.8,1788519910291,1.042253494262695,2.5352113246917725,-0.0050481664948165,0.005380246322602,-0.0345639288425445,0.9993752241134644,0.0581121678708853,-0.0061460728402476,-1.0411554233138146e-05,-0.0006186654209159,0.0068876319564878,0.2435035407543182,0.003721828572452,0.0066160364076495,-0.9502015113830566,0.3115438818931579,0.0052301578617034,0.0114854098399067,0.3264621479003954,0.2429544329643249,-0.3509588241577148,0.2378416061401367,108,123,4659,9817
11.9,1788519910391,0.6760563254356384,2.873239517211914,-0.0046792919747531,0.0040680794045329,-0.0201983973383903,0.9997767806053162,0.0659735730198955,-0.0034311432532681,4.927530612991374e-05,0.012372818775475,-0.0672336667776107,0.2845619916915893,0.0012840880081057,0.0053217764943838,-0.9459803700447084,0.3241779208183288,0.0021635150219418,-0.0540576080452536,0.3023307570115808,0.1000294685363769,0.1751055121421814,0.4744405746459961,105,93,5116,8976
12.0,1788519910491,2.2253520488739014,2.3380281925201416,-0.0043715541251003,0.0024032336659729,-0.0074179735966026,0.9999600052833556,0.0679610819584605,0.0034351421548698,2.1948949031976717e-05,0.0090893190354108,-0.0260327104479074,0.2500588893890381,0.0001149661839008,0.0045836670324206,-0.9430896043777466,0.3325072228908539,0.0024509977467817,-0.0416871781040788,0.0907570615848039,0.8338515758514404,-0.1569631099700927,-0.278146743774414,149,98,9260,9080
12.1,1788519910591,1.3239436149597168,0.9295774698257446,-0.0042786980047822,0.0017009337898343,-0.0049372520297765,0.9999772310256958,0.0748915338239896,-0.0032666896692809,3.72941450924896e-05,0.0036799455992877,-0.0284441504627466,0.0989262089133262,-0.0003535766154527,0.0033721141517162,-0.9429031014442444,0.3330499231815338,0.0366119875332813,-0.0138622721608816,0.0692960387292793,-1.328687310218811,0.0090723037719726,0.0579099655151367,14,91,3181,0
12.2,1788519910691,1.0140844583511353,0.0,-0.0032824652735143,0.0003158655308652,-0.0060389968566596,0.9999763369560242,0.0113475443951981,-0.0025751626409762,8.261040649470822e-06,0.0085247587412595,-0.0213578883558511,-0.0461261570453643,-0.001097566448152,0.0030635083094239,-0.9441611766815186,0.3294677734375,0.0001088247467551,-0.0139205704330194,-0.0910488209502995,0.8197544813156128,-0.149696946144104,0.0253915786743164,153,0,6553,0
12.3,1788519910791,0.9295774698257446,0.0,-0.0033325655385851,1.8992323020938784e-06,-0.0155273955315351,0.9998738765716552,0.0166174549046212,0.0008912484565776,1.253949941107173e-06,0.0024433583021163,-0.0008345427340827,-0.1703964620828628,-0.0011589834466576,0.0031264433637261,-0.9471023678779602,0.3209143877029419,0.0009295781339403,-0.001422664825439,-0.0554498144548143,0.0874790549278259,-0.0780442953109741,0.01171875,183,0,4720,0
12.4,1788519910891,0.8450704216957092,0.0,-0.0033023613505065,-8.178835560102016e-05,-0.0191770009696483,0.9998106956481934,0.0083476023790892,0.0009127074189361,1.3727367291611177e-06,0.0022504061926156,-0.0012142733903601,-0.1146104931831359,-0.0010602120310068,0.0030584717169404,-0.9488032460212708,0.3158511519432068,0.0021566187862919,0.0185225110922036,-0.1355915628568631,-0.1981338858604431,0.093160331249237,-0.146881103515625,81,0,5123,0
12.5,1788519910991,0.8450704216957092,0.0,-0.0031252468470484,-0.0001433051947969,-0.0272485148161649,0.9996238350868224,0.0147203498980428,0.0001474809130016,2.7880270697577765e-06,0.0033924428280442,-0.0041065537370741,-0.1399821043014526,-0.0012381160631775,0.0028734169900417,-0.9505748748779296,0.3104797899723053,0.0012878348897378,0.0009593818975674,-0.1480058412950015,-0.0030856728553771,-0.0523611307144165,0.1533308029174804,91,0,4648,0
12.6,1788519911091,0.9014084339141846,0.0,-0.0033247307874262,-0.0001360463211312,-0.0340894721448421,0.999413251876831,0.0176655659535466,0.0011863011353349,1.7401283099651311e-06,-0.0056877993047237,-0.0009709150763228,-0.1536229848861694,-0.0015191482380032,0.0031216647475957,-0.953597366809845,0.301064670085907,-0.0048954676793047,-0.0083531775631314,-0.1656433267153837,-0.1363070011138916,-0.0672048926353454,0.0413665771484375,50,0,4140,0
12.7,1788519911191,0.7605633735656738,0.0,-0.0034470611717551,-0.0004365198255982,-0.0405015498399734,0.9991734623908995,0.012213527541391,0.0004381296239211,3.233011713245309e-07,3.662885137600824e-05,-0.0022712294012308,-0.1058313995599746,-0.0015212083235383,0.003148446790874,-0.9550575613975524,0.2963996529579162,-0.0013951254302428,0.0041839643097755,-0.1054525472734534,0.0052058100700378,-0.088454782962799,0.0796165466308593,121,0,4723,0
12.8,1788519911291,0.8169013857841492,0.0,-0.0034339828416705,-0.000395655457396,-0.0455662123858928,0.9989553093910216,0.014380301860701,7.42189624539821e-05,-3.276538424547547e-07,0.0020744178909808,0.0006076432182453,-0.1130691394209861,-0.0014779875054955,0.0030537182465195,-0.9568153619766236,0.290676474571228,0.001791698242482,0.0012983461374554,-0.1273954637535225,-0.0095410943031311,0.0044190883636474,0.1356163024902343,76,0,4769,0
12.9,1788519911391,0.9577465057373048,0.0,-0.0033809628803282,-0.0004358190926723,-0.0519946292042732,0.998641550540924,0.0141039791212541,-3.598368623297424e-05,1.886563161995064e-06,-0.0002376540360273,-0.0026659776922315,-0.1317042559385299,-0.0015770904719829,0.0030772639438509,-0.9586268663406372,0.2846446335315704,-0.0028265498798959,-0.0008383775250997,-0.1426139767121492,-0.0663733482360839,0.0511996150016784,-0.090733528137207,87,0,4486,0
13.0,1788519911491,0.8732394576072693,0.0,-0.0034748008474707,-0.0005395783809944,-0.0600224547088146,0.9981907606124878,0.0150223233984824,0.0014389478089316,7.325446489324478e-07,-0.0012040435103699,-0.0009722209069877,-0.1384517252445221,-0.0016415426507592,0.0031104572117328,-0.9605751037597656,0.2779983878135681,-0.0006717004983791,0.0034476710171944,-0.1296816623796051,0.0034303665161132,-0.0261638760566711,-0.0944318771362304,92,0,4304,0
13.1,1788519911591,0.7605633735656738,0.0,-0.0034640145022422,-0.0004835426807403,-0.0632278397679328,0.997992992401123,0.0144487297763816,0.0006025081271926,-7.866143058574674e-07,0.0001991684839595,0.0027004366274923,-0.128256618976593,-0.0015740105882287,0.0031245620921254,-0.9619361758232116,0.2732517123222351,-0.0006209019997285,0.0018600138524181,-0.1251710160072354,0.0849700570106506,-0.0034799575805664,0.0437192916870117,147,0,4825,0
13.2,1788519911691,0.9014084339141846,0.0,-0.0034014326520264,-0.0003446330083534,-0.0720783174037933,0.9973931312561036,0.0160121066427273,-0.0006829456328306,7.616433238640786e-08,0.0013340442674234,0.001277619972825,-0.1345495283603668,-0.0015217550098896,0.0030878912657499,-0.9641926288604736,0.2651805281639099,-0.0015676529597361,-0.0019111214403898,-0.1238724230577575,0.0139062404632568,0.0020653009414672,-0.0223350524902343,55,0,3676,369
13.3,1788519911791,1.0985915660858154,0.6760563254356384,-0.0034768301993608,-0.0003736370126716,-0.0769107565283775,0.99703186750412,0.0124673827811905,-0.0013149935481344,1.268032182604186e-06,-0.0024584750644862,0.0007046483224257,-0.0672564283013343,-0.0017722090706229,0.0029465015977621,-0.9641296863555908,0.2654095590114593,0.0066750192466084,-0.0157776946393482,0.1200478476978505,0.2485458254814148,0.2012980580329895,0.1124677658081054,21,62,3420,4250
13.4,1788519911891,1.0985915660858154,0.8169013857841492,-0.0033777968492358,-0.0006546434015035,-0.0748365074396133,0.9971898794174194,0.0218774664353257,0.002907709317753,6.216205998920641e-07,0.0001370467798551,-0.000266824994469,0.0149892568588256,-0.0019446788355708,0.0030313404276967,-0.9642302989959716,0.2650415301322937,-0.0028835417752686,-0.0062180092449403,-0.0656513584963704,0.104040503501892,0.112411618232727,0.0594005584716796,11,102,3471,4593
13.5,1788519911991,0.8732394576072693,1.0140844583511353,-0.003588575636968,-0.0006671271985396,-0.0762857273221015,0.997079372406006,0.0313441697329992,-0.0014647073491288,2.582462376906329e-06,-0.0084149707108736,-0.0009351045591756,-0.0580775178968906,-0.0016994783654808,0.0033550160005688,-0.964736819267273,0.2631896138191223,-0.0051318857608587,0.0067288447512602,-0.0438218006329415,-0.3316872715950012,-0.0893815755844116,0.0727882385253906,55,75,3831,4437
13.6,1788519912091,-0.2535211145877838,0.8732394576072693,-0.0038359779864549,-0.0002160233270842,-0.0750945731997489,0.997169017791748,0.0202954443310729,-0.0001470173550194,-8.57822893997963e-06,-0.0088822934776544,0.0159917585551738,0.0976883992552757,-0.0015127379447221,0.0035095065832138,-0.9636388421058656,0.267180860042572,0.0015843923093428,-0.0014311398127456,0.1081990694462585,-0.1705974340438842,0.0978001356124877,0.0293560028076171,74,73,-5335,3979
13.7,1788519912191,-1.0985915660858154,0.8732394576072693,-0.0039008620660752,-0.0002983179874718,-0.0681852549314498,0.997664988040924,0.0077526219699507,1.7696508128106175e-05,-2.0726474613306385e-07,-0.0038084429688751,-0.0013239687541499,0.1577469557523727,-0.0016241744160652,0.0036096340045332,-0.9601691961288452,0.2793914973735809,-0.0031839938523779,0.001325255707709,0.250036032775601,0.1810703873634338,-0.0645937919616699,-0.0254554748535156,79,61,-3742,4348
13.8,1788519912291,-0.7042253613471985,0.7323943376541138,-0.0040033617988228,-0.0002305893140146,-0.0549228526651859,0.9984825253486632,0.0011086659380847,-0.0027928364397086,4.914769803604309e-08,-0.0021984176710247,0.0001640876580495,0.2454846948385238,-0.0015883576124906,0.0037031173706054,-0.958169162273407,0.2861741185188293,-0.0045945826830527,0.0008893357140373,0.2066742803922119,0.0910618901252746,-0.055921733379364,0.0083122253417968,96,145,-5394,5067
13.9,1788519912391,-0.8732394576072693,1.0140844583511353,-0.003975489642471,1.5923011233098805e-05,-0.0430247820913791,0.999066174030304,0.0010076415690834,-0.0016654175693393,3.958529367507961e-07,0.0016755677061155,0.0029391502030193,0.2391268610954284,-0.0013232259079813,0.0037229526787996,-0.9535779356956482,0.3011204302310943,0.0010120712543332,-0.0031467272807509,0.2346060967176667,-0.0086140632629394,0.0956769585609436,0.0102720260620117,131,75,-5227,4243
14.0,1788519912491,0.5070422291755676,-0.3098591566085815,-0.0039232540875673,-1.129083102568984e-07,-0.0313751772046089,0.9994999766349792,-0.0019977501798564,-0.0024843355007276,2.7851427148171124e-07,0.0007267278851941,-0.0032133199274539,0.2730017006397247,-0.0013046059757471,0.0037142178043723,-0.9501150846481324,0.3118748366832733,-0.001228088607905,0.0045200708805904,0.2071094206182874,0.2461693882942199,-0.2203330397605896,-0.0743618011474609,53,7,3381,0
14.1,1788519912591,0.9014084339141846,-0.8169013857841492,-0.0039341445080935,-3.374825610080734e-05,-0.0261769648641347,0.9996495842933656,0.0022938203481287,-0.005885149252989,8.096102160858562e-07,-0.0003684927069116,-0.0021671350114047,0.2073345184326172,-0.0014064842835068,0.0036728577688336,-0.9498242735862732,0.3127591907978058,0.0006417715800637,-0.0097113409802042,0.0797113187352596,0.5287864208221436,-0.3434585928916931,0.1275348663330078,40,95,4745,-4651
14.2,1788519912691,1.5492957830429075,-0.9577465057373048,-0.0039341445080935,-3.374825610080734e-05,-0.0261769648641347,0.9996495842933656,0.0022938203481287,-0.005885149252989,8.096102160858562e-07,-0.0003684927069116,-0.0021671350114047,0.2073345184326172,-0.0016606394201517,0.0038007907569408,-0.957192599773407,0.2894221842288971,0.0019912007971778,-0.002349075466769,-0.2414103830690414,0.4283526539802551,-0.1684457659721374,-0.028390884399414,27,98,3848,-4030
14.3,1788519912791,1.6619718074798584,-0.8450704216957092,-0.0041226935572922,-0.0004350841627456,-0.052841693162918,0.9985942840576172,0.0002776542912301,0.0031608143849496,-1.224869386134118e-06,0.0024983566254377,-0.0043232114985585,-0.2580886781215668,-0.0017855484038591,0.0035357205197215,-0.9603447318077089,0.2787871956825256,0.0081784221766689,-0.0035666075927586,-0.2705085299590005,0.4912724494934082,0.1156928539276123,0.1185712814331054,125,53,8930,-4017
14.4,1788519912891,2.08450698852539,0.0,-0.0038914878387004,-0.0001974453334696,-0.0809235051274299,0.9967126846313475,0.0476596320824656,-0.0013081802756331,-6.550405169994415e-06,-0.0040967711247503,0.01480442751199,-0.6169692873954773,-0.0003998409956693,0.0037850476801395,-0.9695157408714294,0.2449996918439865,0.0055663850474106,0.0519521101639208,-0.5330411990261479,-1.233808994293213,0.5258090496063232,0.2437353134155273,24,2,3989,0
14.5,1788519912991,2.366197109222412,-1.0140844583511353,-0.0038284717593342,0.0014734673313796,-0.1032298356294632,0.9946489930152892,0.0208183935814492,0.0044940885032192,-1.2184268048120162e-05,-0.0050511737354099,0.0187259726226329,-0.2178656160831451,9.19746235013008e-05,0.0040536755695939,-0.9710580706596376,0.2388094067573547,-0.00731555608135,0.0185850228123387,-0.1617406776568532,0.0533958077430725,-0.1682411432266235,-0.1756486892700195,148,116,9461,-4139
14.6,1788519913091,1.4647886753082275,0.0,-0.0047714342363178,0.0009698768262751,-0.1213588714599609,0.9925967454910278,0.0350959474124611,-0.0001415265400247,-7.983279748334357e-06,-0.0235144458711147,-0.0229977611452341,-0.4864872395992279,-0.0004336182028055,0.0046254657208919,-0.9759864211082458,0.2177817523479461,0.0136280740761345,-0.0118571933408561,-0.3478927024650382,-0.3511412143707275,0.6373251080513,-0.1452178955078125,1,0,4277,0
14.7,1788519913191,1.6056338548660278,0.0,-0.0044137071818113,0.0010549465660005,-0.127862200140953,0.9917815327644348,0.0146421809968026,0.0020903880131394,-3.354415306577616e-06,0.0023376238532364,0.0021006665192544,-0.109406366944313,-0.0003091813996434,0.0042718667536973,-0.9779694676399232,0.2087041139602661,0.0124750077481939,0.0001624322345218,-0.2563488720726386,-0.1533520817756652,0.1974758505821228,0.2363443374633789,78,0,7227,0
14.8,1788519913291,1.5774648189544678,0.0,-0.0040431744419038,0.001045614015311,-0.1395358145236969,0.9902082085609436,0.0235487818310505,0.0022646223409567,3.4679236207746454e-07,0.004092379938811,-0.0066373436711728,-0.2632802128791809,-0.0004762560129165,0.0040025897324085,-0.9802626967430116,0.1976584047079086,0.0063629639538782,-0.0085834918160162,-0.2270383714301626,-0.0021600127220153,0.0171769261360168,0.2075109481811523,115,0,6786,0
14.9,1788519913391,1.94366192817688,0.0,-0.0037709705065935,0.0008245021454058,-0.1511566042900085,0.9885022640228271,0.0237145509839973,0.0028073977712711,-8.172136840634352e-08,0.0052019297145307,-0.0017377921612933,-0.2396230101585388,-0.0008878884837031,0.0036028288304805,-0.9827957153320312,0.1846586018800735,0.0057505250561431,-0.0195024535917484,-0.2459445231293563,0.2266517281532287,-0.146676480770111,0.127023696899414,133,0,8420,0
15.0,1788519913491,2.0281689167022705,0.0,-0.0034382420126348,0.0005411607562564,-0.166434571146965,0.986046314239502,0.0345030570322507,0.0001817816675257,-6.625414152350565e-06,0.0076170968823134,0.0072308774106204,-0.3128305077552795,-0.0007806494832038,0.0032849218696355,-0.9853270053863524,0.1706435680389404,0.006981321165452,-0.0079730432647794,-0.31980346905137,-0.177922785282135,0.2612465023994446,0.2257318496704101,73,0,7595,0
15.1,1788519913591,1.97183096408844,0.0,-0.0032195360399782,0.0003753894125111,-0.1818094700574875,0.9833284020423888,0.0290684685031724,0.0014140901013137,-1.0763778941034621e-07,0.0041582491248846,0.0056708473712205,-0.3080602884292602,-0.0009068977087736,0.0032143741846084,-0.986103653907776,0.1660976260900497,0.0030230257480466,-0.0076755467720217,-0.2933584006124954,-0.0161770582199096,0.0173044800758361,0.3439722061157226,65,0,7604,0
15.2,1788519913691,2.169013977050781,0.4225352108478546,-0.003170488635078,0.0003085756616201,-0.195757657289505,0.9806471467018129,0.0338822386160052,-0.001462662195275,2.3268676007628445e-07,0.0010116822086274,0.0003059224691241,-0.3149147033691406,-0.0007697315886616,0.0030213734135031,-0.9898251295089722,0.1422550678253173,0.0047978264350577,-0.0006607509822644,-0.2336544753746217,-0.0552581548690795,0.1654630303382873,-0.0381641387939453,95,126,7772,5589
15.3,1788519913791,1.7464789152145386,0.0,-0.0032576075755059,0.000260694330791,-0.2070468515157699,0.978325605392456,0.0467164313113154,0.0007023745233854,8.085253730724053e-06,-0.0047566057182848,-0.0047287158668041,-0.2138366252183914,-0.0011081658303737,0.0032049911096692,-0.9913126826286316,0.1314830332994461,-0.0053676782621967,-0.0157231229847248,-0.2129927231435526,0.0382289886474609,0.0581538081169128,0.0372772216796875,75,92,6868,4097
15.4,1788519913891,1.1267606019973757,0.0,-0.0033892733044922,-6.532145198434591e-05,-0.2191568166017532,0.9756837487220764,0.030665876153679,0.0025134173728954,-1.4355567816305285e-06,0.000926841981709,-0.0034841313026845,-0.2425604313611984,-0.0012665297836065,0.0030858414247632,-0.9929391741752625,0.1185775771737098,0.003395120595332,-0.0053501381566744,-0.1909473055464396,-0.1779282093048095,0.129652738571167,0.0402450561523437,44,0,5160,0
15.5,1788519913991,1.0704225301742554,0.0,-0.0032556743826717,-8.118205005303025e-05,-0.2260350883007049,0.974113702774048,0.0102108014848149,0.0011184269994381,-3.443574172612192e-07,0.0019577513448894,0.0015115159330889,-0.1030856668949127,-0.0010473616421222,0.0030205501243472,-0.9935739040374756,0.113140270113945,0.0017438700518888,0.0086849528178032,-0.1552736313647409,-0.0644476413726806,-0.0606555938720703,0.0075855255126953,134,0,5730,0
15.6,1788519914091,1.2957746982574463,0.0,-0.0031732858624309,-1.611659536138177e-05,-0.2337920218706131,0.9722813963890076,0.0214625109689004,0.0006900223705335,1.809582705258788e-06,0.0003470891097094,0.0001326734200119,-0.2017021179199218,-0.0009736167266964,0.0029958151280879,-0.9945234060287476,0.1044667214155197,-0.0003499089543795,0.0057992609322763,-0.1846945468120016,-0.0098688006401062,0.0623669624328613,0.0442571640014648,65,0,5103,0
15.7,1788519914191,1.2676056623458862,0.0,-0.0031571215949952,4.176562651991844e-05,-0.2433769106864929,0.969926655292511,0.0220835364916026,0.0029238892043644,4.379053153671264e-07,4.063986852997914e-05,-0.0032296027056872,-0.1991302818059921,-0.0010306220501661,0.0029826164245605,-0.9955781698226928,0.0938836559653282,-0.0007932204023455,0.004138322682792,-0.1700794243228384,0.0892316699028015,0.004884123802185,-0.0237922668457031,77,157,5192,6151
15.8,1788519914291,0.98591548204422,-0.3661971688270569,-0.0032458051573485,-9.045819751918316e-06,-0.2516822814941406,0.9678044319152832,0.0273700875312384,0.000343596955408,-5.340813470556944e-07,-0.0026492497418075,-0.0014280979521572,-0.1269173473119735,-0.0008214656263589,0.003037329763174,-0.9959877133369446,0.0894341692328453,0.0003176556730607,0.0165067104461158,0.0118665048239478,-0.5205487608909607,0.1461668014526367,-0.1552085876464843,23,74,3607,-3459
15.9,1788519914391,0.9014084339141846,0.0,-0.0031167247798293,0.000148699095007,-0.257529616355896,0.9662653207778932,0.0014855487173291,0.0008641503611975,1.1873673793093523e-06,0.0025751139037311,-0.0005295291775837,-0.2150393277406692,-0.0009461576119065,0.0028858073055744,-0.9968400597572328,0.0793775618076324,0.005788708923368,-0.000186198729176,-0.262535498158342,0.4524601697921753,0.217968463897705,0.0253791809082031,58,236,4421,7486
16.0,1788519914491,0.9014084339141846,2.929577350616455,-0.0031171422451734,0.0001220821868628,-0.2629812359809875,0.96479594707489,0.0344219570204482,0.0027644967443662,-1.7307539701710855e-06,-0.0023138672113418,0.0019103052327409,0.011340900324285,-0.0008676368743181,0.003079661168158,-0.9966865181922911,0.081275850534439,-0.006587496139572,0.0066045612651584,0.2247959589672808,0.1916363835334777,0.1923974156379699,0.1498565673828125,0,78,347,9425
16.1,1788519914591,-0.1690140813589096,1.9154930114746092,-0.0031691440381109,0.0003543169877957,-0.2490313649177551,0.9684901237487792,0.0682253022852092,-0.0030848582465069,-5.9591472296365e-06,-5.003756450605579e-05,0.0068858959712088,0.3255859017372131,-0.0006948010995984,0.003119682893157,-0.9953781366348268,0.0959802940487861,-0.0017038576137529,0.0030975336688817,0.3568421270001805,-1.4247989654541016,0.2964465618133545,-0.0992794036865234,222,6,-6585,5917
16.2,1788519914691,-0.7887324094772339,0.6197183132171631,-0.003236194839701,0.0002297309110872,-0.230348065495491,0.9731029272079468,-0.0046049335410963,-0.0057961858273867,4.2560142695019646e-07,-0.0002615206176415,-0.0013420943869277,0.3161063492298126,-0.000948317348957,0.0031257113441824,-0.9932594299316406,0.1158671528100967,-0.0007781689400904,-0.0030049989355447,0.1753593031963908,0.2753838300704956,0.0164749026298522,0.0471038818359375,31,43,-3583,2843
16.3,1788519914791,-0.8732394576072693,1.183098554611206,-0.0033124131150543,0.0001835259026847,-0.2209681123495102,0.9752753376960754,-0.0006559184124835,-0.0030021026620782,-6.251550620749391e-07,-0.0020693072583526,-0.0002091577334795,0.2028669118881225,-0.0009185960516333,0.0031747771427035,-0.992483377456665,0.1223350167274475,-0.0003795249611204,0.0030774051936599,0.2551790943796363,-0.2988265752792358,0.0061152577400207,0.1756629943847656,90,145,-4447,3809
16.4,1788519914891,-0.8732394576072693,0.5633803009986877,-0.0033639518078416,0.0002733255678322,-0.2100103795528412,0.9776933193206788,0.0007801271385162,-0.0030527471196992,1.2568979299707686e-06,-0.0008032902842387,0.0015052687376737,0.2395088672637939,-0.0008162045851349,0.0033256793394684,-0.9906013011932372,0.1367386877536773,-0.0007186034298287,0.0062696592415071,0.2498483602827715,-0.0702011585235595,0.0545710921287536,-0.0045537948608398,52,151,-4221,4303
16.5,1788519914991,-0.6478873491287231,0.9577465057373048,-0.0034719265531748,0.000441550364485,-0.1978678554296493,0.9802224040031432,-0.0010388233790787,-0.0023874159806637,-1.7837118267305413e-07,-0.0028216235805302,0.0004540538066066,0.25709068775177,-0.0007529100403189,0.0034189652651548,-0.989513099193573,0.1444005817174911,-0.0013315592157382,0.0003655069928362,0.2660686917437109,0.2208256125450134,-0.0426796078681945,0.0304346084594726,0,190,1354,10138
16.6,1788519915091,2.8450703620910645,5.070422649383545,-0.0037540714256465,0.0004691539506893,-0.1765568703413009,0.984283208847046,0.0695938767494277,0.0036733546580801,1.2976285938074304e-05,-0.0060912040062248,-0.0042593101970851,0.4556688666343689,-0.0008185971528291,0.0038184588775038,-0.9853273630142212,0.1706305891275406,-0.0070644452492132,0.0007229333050772,0.315952947571495,0.9741466641426086,-0.5351089835166931,-0.1227836608886718,200,224,13165,19188
16.7,1788519915191,4.169013977050781,6.8450703620910645,-0.0039089214988052,0.0011956410016864,-0.1598320603370666,0.9871357083320618,0.1632167355678393,0.0098229381649102,-1.1361200806867267e-05,-0.0073301149532198,0.0163752064108848,0.3558143973350525,-0.0007238537073135,0.0041354270651936,-0.9820528030395508,0.1885595768690109,-0.0096314881997313,-0.038182997099724,0.4018565255678361,0.0198814272880554,-0.3492613434791565,-0.228555679321289,29,55,12304,17679
16.8,1788519915291,3.774647951126098,6.2816901206970215,-0.0044576283544301,0.0015983807388693,-0.1424508392810821,0.9897905588150024,0.1723746856589422,0.0133565809399398,-3.5598661115001536e-05,-0.0137665588408708,0.0181973297148942,0.3835418820381164,0.0003532031551003,0.0048622200265526,-0.9786831736564636,0.2053183913230896,-0.0016643729354594,0.0196978364727615,0.349222793156225,-0.4237671494483948,0.2929676175117492,1.3832874298095703,49,62,11452,17814
16.9,1788519915391,4.394366264343262,6.197183132171631,-0.0052028652280569,0.0024263351224362,-0.1244457736611366,0.992209792137146,0.162209162343586,0.0031372636978849,4.517728746493622e-06,-0.0346904546022415,0.0209885463118553,0.3554240465164184,0.0013289777562022,0.0064364839345216,-0.9747700691223145,0.223114937543869,0.0358305968765294,-0.0432326805677712,0.2249563995623018,-0.4944565296173095,-0.7964434027671814,-0.0583314895629882,64,68,13037,16634
17.0,1788519915491,5.070422649383545,5.014084339141846,-0.0037422808818519,0.0017350689740851,-0.1097477823495864,0.9939509630203248,0.174640772876416,-0.0023938284654696,0.0003638342438782,0.0828610360622406,-0.0623003914952278,0.358525276184082,0.0006832685321569,0.0042121019214391,-0.9719858169555664,0.2350011169910431,0.002401139949471,0.0010593694320925,0.1369014468409414,-0.0899944901466369,-0.6032589673995972,-0.8570528030395508,103,19,16080,13209
17.1,1788519915591,5.211267471313477,4.957746505737305,-0.0034522854257375,0.0030406056903302,-0.105994664132595,0.994356095790863,0.1609514684360752,-0.0069439989062776,-8.763433996010216e-07,0.006841754540801,0.0259912423789501,-0.0204347390681505,0.0009263465180993,0.0042275236919522,-0.97166907787323,0.2363058626651764,0.0025728594842079,0.015003278082124,0.0859446067212411,0.2470002770423889,-0.4516292810440063,-1.246501922607422,55,53,15200,14589
17.2,1788519915691,5.098591327667236,4.788732528686523,-0.0032205597963184,0.0028370923828333,-0.1089147105813026,0.9940418601036072,0.1729203956391015,-0.0017673457864658,3.760689179262073e-05,0.0105669442564249,-0.0796972066164016,-0.0372838787734508,0.0011840090155601,0.0041701942682266,-0.9727164506912231,0.23195680975914,0.0023265651371338,0.059023878388072,-0.0384619342019962,0.2409495115280151,-0.2696033716201782,1.532827377319336,82,42,15840,13898
17.3,1788519915791,5.295774459838867,4.929577350616455,-0.0034365158062428,0.0022594525944441,-0.1120378971099853,0.9936954379081726,0.1800310759203524,-0.0014436012942262,5.27568002709564e-05,0.0042878575623035,-0.0365715026855468,-0.0865193158388137,0.000919266603887,0.0039832778275012,-0.9733221530914308,0.2294065356254577,0.009187153497653,-0.0687302763442859,-0.0815764815303088,-0.0094410181045532,0.3585186004638672,1.543339729309082,81,110,15846,14784
17.4,1788519915891,5.211267471313477,4.8450703620910645,-0.0037004938349127,0.0023120820987969,-0.115524835884571,0.9932950139045716,0.1761847215898248,0.0015696622147801,3.43997555000735e-05,-0.0004963224055245,-0.0085369441658258,-0.0466504730284214,0.0010808408260345,0.0045547736808657,-0.9746459126472472,0.2237040102481842,0.0012675538572337,0.0003639486250055,-0.0753328812712553,-0.1581707596778869,-0.4100969433784485,1.000666618347168,43,83,14520,15512
17.5,1788519915991,5.211267471313477,4.873239517211914,-0.0038883443921804,0.0036518671549856,-0.1183305904269218,0.9929599165916444,0.1724429333347943,0.0010432191894888,-0.0001478863018743,-0.0023725647479295,0.0431882739067077,-0.0310580283403396,0.0021774023771286,0.0051152221858501,-0.9748796820640564,0.2226627171039581,-0.0137128320349187,0.0055779113464578,-0.0442317127944022,0.2604514360427856,0.1382187008857727,-0.2668085098266601,59,85,15451,15053
17.6,1788519916091,5.295774459838867,4.957746505737305,-0.004233730956912,0.0038932752795517,-0.1210483834147453,0.9926300048828124,0.1739252883711788,-0.0041868443887488,-6.465301679580527e-06,-0.0059916679747402,-0.0024619274772703,-0.0678381845355033,0.0021066823974251,0.0054447455331683,-0.97556871175766,0.2196172624826431,-0.0105975986877651,-0.0085857462120828,-0.0648992760392064,-0.2429434657096862,-0.359561026096344,1.8465642929077148,46,82,15225,14583
17.7,1788519916191,4.760563373565674,5.154929637908936,-0.004182537086308,0.0041592204943299,-0.1225211098790168,0.992448389530182,0.1712939512787789,-0.0021900156506699,-5.142935894693757e-05,0.0066316248849034,0.0149701414629817,-0.0091015631332993,0.0028667068108916,0.0052540190517902,-0.975727081298828,0.2189083099365234,-0.0044261492396763,0.0108691124456298,0.0010953950029697,-0.0524023175239563,0.06337571144104,0.0063533782958984,44,140,14172,16391
17.8,1788519916291,4.873239517211914,5.126760482788086,-0.0039912341162562,0.0046195946633815,-0.1223989352583885,0.992462158203125,0.1623388191418885,0.0043046972723052,-6.272838464262633e-05,0.0051283347420394,0.0184989813715219,0.0048452778719365,0.0030406769365072,0.0050973631441593,-0.9752393364906312,0.2210724651813507,-0.0100539202263111,0.0138192415925547,0.0624736078525951,0.0223194360733032,0.1769179701805114,-1.4061651229858398,68,81,14539,15841
17.9,1788519916391,4.901408672332764,5.211267471313477,-0.0038068864960223,0.0055170650593936,-0.1186354011297226,0.9929152727127076,0.1737339377247946,0.0051515281785001,0.0001161404243728,0.0119079919531941,0.0249240137636661,0.0615695342421531,0.0046765878796577,0.0049127666279673,-0.9740244150161744,0.2263414114713668,0.0174167052753226,0.038893122339103,0.1225195774528506,0.4238216876983642,-0.0636407136917114,0.1665382385253906,73,62,14694,15165
18.0,1788519916491,4.985915660858154,5.323943614959717,-0.0029475367628037,0.0062893778085708,-0.1144720613956451,0.9934021830558776,0.1759372944265076,0.0082268985594128,-5.9961341892819534e-05,0.003874726826325,0.0137999393045902,0.0427557043731212,0.0048523033037781,0.00465614721179,-0.9734057188034058,0.228989377617836,0.0037861309210358,-0.0278839359205298,0.0636273431107311,-0.0307862162590026,0.3712701797485351,0.4281253814697265,85,85,14871,15199
18.1,1788519916591,4.591549396514893,5.521126747131348,-0.002917040605098,0.0058321645483374,-0.1111803650856018,0.9937788248062134,0.1730096550999027,0.0024294011870312,6.977542380102395e-05,-0.0058214087039232,-0.0208258032798767,0.0671907886862754,0.005476675927639,0.0061512254178524,-0.9729188680648804,0.2310002148151397,-0.051696898555923,0.0443486012815276,0.0496535496833035,0.0020930171012878,0.5827658176422119,0.1061277389526367,75,193,13519,17639
18.2,1788519916691,4.8450703620910645,5.6619720458984375,-0.003150193253532,0.0059783640317618,-0.1040551885962486,0.9945485591888428,0.1802915754912393,0.0051833058604895,0.0001364889179227,0.0556013546884059,-0.0761144682765007,0.1876423805952072,0.0056641353294253,0.0053876936435699,-0.9703500866889954,0.2415771782398224,-0.0149343453156274,0.0918638495723234,0.2098255049513621,0.2842742204666137,0.4015178084373474,-0.9531726837158204,48,37,13715,15531
18.3,1788519916791,4.788732528686523,5.154929637908936,-0.0032543949782848,0.0080066630616784,-0.096207782626152,0.9953237771987916,0.1703381243036133,0.0009387405671088,-5.63515272344995e-05,-0.0051833600737154,0.0405139923095703,0.1201587915420532,0.006729650311172,0.0058903023600578,-0.9690195918083192,0.2468221485614776,-0.006424477613321,0.0197605728296795,0.133959084819397,-0.1236833333969116,0.019363522529602,0.6799592971801758,83,44,14706,14983
18.4,1788519916891,4.8450703620910645,5.408450603485107,-0.0035874585155397,0.007899235934019,-0.0930353328585624,0.9956250190734864,0.1694242690802719,-0.0016258989796074,1.3889712708183103e-05,-0.0159188397228717,-0.0206942036747932,0.0269153323024511,0.0059315571561455,0.0058312825858592,-0.968628466129303,0.2483740448951721,0.0100327453200142,-0.0259724112433896,0.0218780995725084,0.1404135227203369,-0.00237238407135,0.0378580093383789,63,76,15051,15009
18.5,1788519916991,5.070422649383545,5.070422649383545,-0.0035629181656986,0.0072950734756886,-0.0924838185310363,0.9956810474395752,0.1788793309132939,0.0054847324208961,2.3637411321375625e-05,0.0013189016608521,-0.0068580703809857,0.0150086414068937,0.0046341866254806,0.0054175136610865,-0.96835196018219,0.2494871020317077,0.0053275129866571,-0.0597579566253449,0.0331153061292506,-0.0264599323272705,-0.0240150690078735,0.0888862609863281,68,53,14711,15169
18.6,1788519917091,4.873239517211914,5.126760482788086,-0.0035368963144719,0.0064341989345848,-0.0905195921659469,0.9958676099777222,0.1688303206317332,0.0047457539018468,-4.542851420787445e-07,-0.0007162155234254,0.0062881461344659,0.0353346057236194,0.0046064015477895,0.0056744683533906,-0.96765798330307,0.2521598935127258,-0.0160997463739636,-0.0170596067455381,0.1000744387823832,0.3617002964019775,0.1234838962554931,-0.5571689605712891,60,85,14630,15767
18.7,1788519917191,5.239436626434326,5.070422649383545,-0.0039194677956402,0.0059553412720561,-0.0880314856767654,0.9960922002792358,0.173500928608747,-0.0016600369861382,6.534189710769105e-05,-0.0069385319948196,-0.0126707609742879,0.0361245572566986,0.0043233931064605,0.0062898593023419,-0.9673191905021667,0.2534469068050384,-0.0152424202303874,0.0171165434098829,0.0202870794893012,-0.1602060198783874,-0.0367789268493652,-1.2336206436157229,87,72,14371,15091
18.8,1788519917291,5.042253494262695,5.295774459838867,-0.004407939966768,0.0066902060061693,-0.0866306647658348,0.9962083101272584,0.185787577412965,0.0049013311888811,-4.8025905600031314e-05,-0.0001262706355191,0.0277968179434537,0.0191033501178026,0.002736547961831,0.0059454822912812,-0.9671110510826112,0.2542701065540313,0.0111444316473728,-0.2614077157474159,-0.0024999917059391,-0.0532345175743103,-0.3644859790802002,-5.01732873916626,50,67,14040,15514
18.9,1788519917391,4.901408672332764,5.183098793029785,-0.0045391665771603,0.0044632791541516,-0.0852981284260749,0.9963350892066956,0.1665024524581976,0.0013529988737088,0.0003817295044697,0.0102041056379675,-0.0621838197112083,0.05281513184309,0.001332439482212,0.0059019140899181,-0.9665681719779968,0.2563382685184479,0.0183544741438553,-0.066646560255756,0.012898602874506,-0.3348640203475952,-0.1168295741081237,-0.0961771011352539,53,74,14634,15901
19.0,1788519917491,4.929577350616455,5.211267471313477,-0.0051941475830972,0.002130769426003,-0.0833687484264373,0.9965029954910278,0.1748748499515756,-0.0025646144087979,0.0001610838060379,0.0042529162019491,-0.0423585101962089,0.0400342643260955,0.0004335297271609,0.0058287652209401,-0.9659449458122252,0.2586817145347595,-0.010374292210363,0.0081961226277619,0.0832909963871568,0.3791820406913757,0.0566940307617187,-1.7752790451049805,54,89,14284,15932
19.1,1788519917591,4.985915660858154,5.408450603485107,-0.0057626273483037,0.0012019197456538,-0.0804732963442802,0.996739387512207,0.1823999456352296,0.0035160249346996,-5.789556215792493e-07,-0.0099157840013504,-0.0170291885733604,0.0404604524374008,-0.0002940464764833,0.0058045359328389,-0.9657192826271056,0.2595238387584686,-0.0108884745067368,-0.0465060417130364,0.0565400343461767,0.0476518273353576,-0.128058910369873,0.6455039978027344,68,64,14085,14933
19.2,1788519917691,4.788732528686523,5.154929637908936,-0.0059207626618444,0.0017392855370417,-0.0785989686846733,0.9968872666358948,0.1814895493013709,0.0020586555433642,-4.196693958958418e-05,0.0020161953289061,0.0234920643270015,0.0591970533132553,0.0001559210941195,0.0062896562740206,-0.9645044207572936,0.2639920115470886,0.0023754952578633,0.0249125213237378,0.0742251176266399,0.1588854789733886,-0.1045876741409301,-1.205678939819336,69,69,14762,15537
19.3,1788519917791,5.042253494262695,5.183098793029785,-0.0057703400962054,0.0028413692489266,-0.0748263821005821,0.9971758127212524,0.1847881072224064,-0.0001602248903902,-0.0001167631995589,0.0035347787197679,0.0240162704139947,0.0864986032247543,0.00202526897192,0.0083873532712459,-0.963939905166626,0.2659803330898285,-0.0951735079904834,0.1082287569345401,-0.0004809423944799,0.2931053042411804,0.1857562065124511,0.914109230041504,79,141,14830,16651
19.4,1788519917891,4.901408672332764,5.521126747131348,-0.0058596320450305,0.003104310715571,-0.0719226971268653,0.9973881840705872,0.1869886562261341,0.0029837585620243,6.59582453733021e-05,0.0598317794501781,-0.0627811774611473,0.0882724672555923,0.0015437519177794,0.0073975026607513,-0.9634475708007812,0.2677902281284332,0.0959831674636838,-0.082952913993101,0.1111843075934503,-0.1512619853019714,-0.2297703623771667,-0.5117263793945312,61,26,14359,14229
19.5,1788519917991,3.2676055431365967,4.563380241394043,-0.00592095637694,0.0036027058959007,-0.0695691481232643,0.997553050518036,0.1730688086604344,-0.0038364984359988,0.0002088575231671,-0.0040932823903858,0.0189467407763004,0.0935490727424621,0.0018562152981758,0.00775957852602,-0.962605118751526,0.2707909643650055,-0.0109821915712634,0.0430766271969955,0.0910767324595506,-1.4926646947860718,0.1653757691383361,0.9240341186523438,67,83,3446,13871
19.6,1788519918091,0.0,3.94366192817688,-0.0074151642620563,0.0042566866613924,-0.0541901141405105,0.9984940886497498,0.0962446927298542,0.0124466040052858,-1.693457991348579e-05,-0.021315611898899,0.0034549641422927,0.4803289771080017,0.0013228869065642,0.0085576670244336,-0.9529502987861632,0.3030029237270355,-0.0057448502243769,-0.0012911935715607,0.5805192850503674,-0.288831353187561,0.2463863492012024,-0.1514644622802734,103,59,-5393,10957
19.7,1788519918191,-3.1549296379089355,3.239436626434326,-0.0075894673354923,0.0040341042913496,-0.0234978813678026,0.9996869564056396,0.0563319938444652,0.004969115587014,-2.4811075090001307e-06,-0.002665551379323,-0.0049987905658781,0.6388036012649536,0.0012559415772557,0.008219514042139,-0.9431219696998596,0.3323431611061096,0.0086825935625449,-0.0272019528758846,0.8371685852289319,-0.7318280339241028,0.0652546286582946,0.3917713165283203,239,46,-13999,9770
19.8,1788519918291,-3.492957830429077,3.211267709732056,-0.0068519748747348,0.0035776400472968,0.0318216867744922,0.999463677406311,-0.0047401032717632,0.0039848360618182,-3.633074995260385e-07,0.0102043393999338,-0.0141217354685068,1.0923339128494265,0.0012392671778798,0.0077144633978605,-0.9239827394485474,0.3823544979095459,-0.0042135669863591,0.0052868066964875,1.030530743986562,0.0408957004547119,-0.0987070202827453,-0.9527435302734376,27,49,-10914,9768
19.9,1788519918391,-3.211267709732056,3.070422649383545,-0.0069178557023406,0.0026892689056694,0.0809152498841285,0.9966934323310852,-0.0097367558204603,0.0036050828669384,-6.488596172255103e-06,-0.0072568217292428,-0.0391586273908615,0.941465139389038,9.091198444366456e-05,0.0073565244674682,-0.9025148153305054,0.4305958449840545,0.0003895296300589,0.0014320268740121,0.908355922254501,0.0232502818107604,0.3232209682464599,0.117584228515625,51,110,-11102,10689
20.0,1788519918491,-3.239436626434326,3.211267709732056,-0.0068880594335496,0.0020267113577574,0.1254263520240783,0.9920769333839417,0.0002688270641738,0.003758747779378,-8.988764730815381e-07,-0.0062219575047492,-0.035869050770998,1.0122641324996948,-0.0009567132219672,0.0068010361865162,-0.8823477625846863,0.4705479443073272,0.0037542794291622,-0.0417024787839898,0.973779210496576,-0.1427103877067566,0.1342619657516479,0.7931537628173828,82,86,-10647,10307
20.1,1788519918591,-3.211267709732056,3.323943614959717,-0.0066952817142009,0.0012885171454399,0.1504723280668258,0.988590657711029,0.0026095727916019,-0.0074926106132832,2.198465849233342e-06,0.0009167858515866,-0.0353860408067703,0.970265805721283,-0.0017594508826732,0.0065950416028499,-0.8604452610015869,0.5094971060752869,-0.0117751174090241,-0.0278404379725573,0.9796359512677976,-0.1428893804550171,-0.2541311979293823,0.601161003112793,53,90,-10694,10101
20.2,1788519918691,-3.2676055431365967,3.2676055431365967,-0.0068983929231762,5.491275805979967e-05,0.227431371808052,0.9737696051597596,0.00024865627235,0.0054527999320458,-3.29875508070308e-06,-0.0066274758428335,-0.0296553019434213,0.9890668392181396,-0.0023982403799891,0.0064295269548892,-0.836922824382782,0.5472779273986816,-0.0037318380125543,-0.0207507532137572,0.9689670204902724,-0.1212700605392456,-0.4877039790153503,-0.0930004119873046,54,64,-10399,10345
20.3,1788519918791,-3.2676055431365967,3.323943614959717,-0.0070685688406229,-0.0004856336163356,0.2752441763877868,0.9613482356071472,0.0002125930171276,0.0046185677513296,-2.28075464501135e-06,-0.0132812932133674,-0.0113959815353155,0.9815108180046082,-0.0028969347476959,0.0063829757273197,-0.8059542775154114,0.5919362306594849,0.0011776691429554,-0.0089923152708054,1.0655205147005555,-0.2387754321098327,-0.1588158011436462,-0.2232179641723632,69,95,-10517,10621
20.4,1788519918891,-3.2676055431365967,3.183098554611206,-0.0065955435857176,-0.0007176907965913,0.3179639875888824,0.9480795860290528,-0.0014290735088535,0.0078509087627624,7.552410926825909e-07,0.0052054882980883,-0.0102669326588511,0.9919151663780212,-0.0025462824851274,0.0060884999111294,-0.7689601182937622,0.6392627954483032,0.0045438481471929,0.002611980988148,1.018899644405906,-0.0033373832702636,0.330973207950592,-0.5201959609985352,73,99,-10683,10825
20.5,1788519918991,-3.323943614959717,3.183098554611206,-0.0066989655606448,-8.777854964137077e-05,0.3646013140678406,0.931139588356018,-0.0005852358192179,0.0030349481820074,-7.498394021278183e-07,-0.0022719190455973,0.0058770775794982,0.9791066646575928,-0.0026582907885313,0.0059862453490495,-0.7433517575263977,0.6688686013221741,-0.0029488307013986,-0.0227116572685911,0.964480224481026,-0.1597532033920288,0.0508684515953063,-0.0658521652221679,67,97,-10304,10767
20.6,1788519919091,-3.0985915660858154,3.239436626434326,-0.0067301942035555,-0.0005421207752078,0.4152693450450897,0.9096734523773192,0.0004394255944214,0.0027632698588182,-1.433628344143838e-06,-0.0096461363136768,-0.0128559106960892,1.0056976079940796,-0.0031160516664385,0.0057368092238903,-0.701404869556427,0.7127332091331482,0.0046766909512744,-0.0330963883720207,1.1044041077484053,0.2810655236244201,0.5051706433296204,-0.3889102935791015,101,101,-11013,10516
20.7,1788519919191,-3.239436626434326,3.2957746982574463,-0.0065748132765293,-0.0008724627550691,0.4599108695983886,0.8879403471946716,0.0023452131490997,0.0023178935625845,-5.217766387448358e-07,-0.0035520743113011,-0.005357626825571,0.9734123945236206,-0.0034079598262906,0.0054928185418248,-0.6688817143440247,0.743340790271759,-0.0040700278304247,-0.0275333521192048,1.075616776589263,-0.2616389989852905,0.2853494882583618,0.4591512680053711,82,58,-10700,10358
20.8,1788519919291,-3.2676055431365967,3.4084506034851074,-0.0062531675212085,-0.0015697844792157,0.5000913143157959,0.8659487366676331,0.0017858151793525,0.0013815620724209,1.300646465703791e-06,-0.0042895367369055,-0.016624441370368,0.992649495601654,-0.0040600458160042,0.0049427831545472,-0.634799063205719,0.7726507782936096,-0.0078444279618457,-0.0477926563600576,0.9390943685201408,-0.2328577637672424,0.2275900244712829,-0.0151138305664062,69,79,-10511,9727
20.9,1788519919391,-3.239436626434326,3.239436626434326,-0.004338261205703,-0.0026583562139421,0.5430601239204407,0.8396784067153931,0.0096205742815431,0.0027256488619656,8.054667194899671e-06,0.041513804346323,-0.057093646377325,1.0130510330200195,-0.0042065866291522,0.0018973695114254,-0.5936880707740784,0.8046820759773254,0.03628370548913,-0.0826468965717701,1.116097334797006,-0.1241780519485473,0.1547868251800537,0.5382099151611328,44,37,-10469,9491
21.0,1788519919491,-3.3521127700805664,3.126760482788086,-0.0036209484096616,-0.0024867292959243,0.5879900455474854,0.8088562488555908,-0.002714283159027,0.002588767448703,1.6868415256832336e-06,0.004591342061758,0.0154331000521779,0.9114251732826232,-0.0034195343032479,0.002719784155488,-0.5465498566627502,0.8374152183532715,0.0001861865365231,0.0167734112590454,1.031551846822856,0.1676518321037292,0.0355408191680908,-0.0484933853149414,84,65,-11178,10071
21.1,1788519919591,-3.239436626434326,3.0422534942626958,-0.0053044892847537,-0.0020475201308727,0.6251309514045715,0.7804991602897644,-0.0096298267632238,-0.0029778106765349,8.952231565497626e-06,-0.0447568520903587,0.0407570153474807,0.9116265773773192,-0.0038633281365036,0.0047985762357711,-0.5193153619766235,0.8545604348182678,-0.0634635661847253,0.0542564742368941,0.9116584265373248,0.0654840469360351,0.2698996663093567,0.0671014785766601,75,147,-10761,11691
21.2,1788519919691,-2.8450703620910645,3.211267709732056,-0.0065054660663008,-0.0019245576113462,0.6597026586532593,0.7514960765838623,0.0055048477297186,0.0015332054499562,1.5192479937153855e-06,0.0153634715825319,-0.0157096181064844,1.0374221801757812,-0.0012683132663369,0.0065404418855905,-0.4663828015327453,0.8845579624176025,0.0944770183248654,0.1599100684121246,1.0277315607748227,-0.0857889056205749,-0.5378581881523132,0.0828027725219726,48,18,-9625,7253
21.3,1788519919791,-2.7887322902679443,2.5352113246917725,-0.0051089199259877,0.0001614275388419,0.6916596293449402,0.7222055196762085,-0.0009990967680816,-0.0012474931880022,-2.396218922929216e-05,0.0144219016656279,-0.0862139463424682,0.7466455101966858,-0.0011824630200862,0.0049368273466825,-0.4237539768218994,0.9057630896568298,0.0161350419628843,-0.0130644327372754,0.849838516159884,0.3033092021942138,0.0491808056831359,-1.1399621963500977,92,138,-10823,10305
21.4,1788519919891,-2.7323944568634038,2.6478872299194336,-0.0045223021879792,0.0002533395309001,0.7243672609329224,0.6893993616104126,0.0002317219607531,-0.0009639747209752,-2.709172290669373e-06,0.0072020832449197,-0.0163931231945753,0.8618434071540833,-0.0013231886550784,0.0046030068770051,-0.3885760009288788,0.9214043021202089,-0.0085858018506957,0.0068789177423241,0.8864497684803276,0.1851943731307983,-0.4386055469512939,0.9535293579101562,64,78,-8338,7815
21.5,1788519919991,-2.450704336166382,2.507042169570923,-0.0047090733423829,0.000237034400925,0.7385350465774536,0.6741986870765686,-0.0011819931666709,0.0016067663931918,-1.1142136713785289e-06,-0.0085238283500075,0.0025555128231644,0.8318763971328735,-0.0012622084468603,0.0044397441670298,-0.3616669476032257,0.9322959780693054,-0.0069647144331582,-0.0230742700164541,0.7382694338666745,-0.1635814309120178,0.205575942993164,-0.8090982437133789,98,84,-9587,8438
21.6,1788519920091,-2.507042169570923,2.7042253017425537,-0.004742176271975,2.3979460820555687e-05,0.7737551331520081,0.6334670186042786,-0.0069336685474401,0.0035853771238819,-2.629224059497423e-07,-0.0102359531447291,-0.003936503548175,0.8033438920974731,-0.0015224860981106,0.0045875459909439,-0.3244393169879913,0.9458942413330078,0.001077062812191,0.006982365405574,0.6977904003705512,0.0971736311912536,-0.1661738753318786,-0.5652284622192383,72,41,-8274,7329
21.7,1788519920191,-2.197183132171631,2.1408450603485107,-0.0047941957600414,3.447593189775944e-05,0.7967685461044312,0.6042655110359192,-0.0008772386966711,0.0023793285669992,-1.777894844445929e-07,-0.0055104591883718,-0.0027426772285252,0.7492815852165222,-0.0016330732032656,0.0048612281680107,-0.2841679155826568,0.9587607979774476,-0.0087449918204094,0.0304131137070802,0.623140425139066,-0.07495778799057,-0.1417403221130371,0.1202669143676757,99,47,-8163,7515
21.8,1788519920291,-2.309859037399292,2.2253520488739014,-0.0049776998348534,9.23436600714922e-05,0.8162153959274292,0.5777263045310974,0.0011272492891724,-0.0012022106714046,-1.2196793122155177e-06,0.0002269016840727,-0.0055419630371034,0.6575775146484375,-0.0016551157459616,0.0047198235988616,-0.2546912133693695,0.9670094847679138,-0.0070019301204554,-0.0015723088593024,0.6922637751489283,-0.027764618396759,-0.1143458485603332,-0.2350521087646484,74,59,-7435,7304
21.9,1788519920391,-1.8028168678283687,1.8591549396514893,-0.0049055032432079,-0.0001223229337483,0.8370726704597473,0.5470696687698364,-0.0025525186276189,-0.0005805947902987,3.5466317541768745e-08,-0.0044397106394171,-0.0029721062164753,0.6503427028656006,-0.0018830522894859,0.0045883674174547,-0.2186495661735534,0.9757909178733826,-0.0084144760022379,-0.0010985921158295,0.5436361401183948,0.0558058023452758,0.075698971748352,0.0247430801391601,53,76,-6812,6270
22.0,1788519920491,-1.8591549396514893,1.8591549396514893,-0.0052369479089975,-0.0003306579310446,0.8504855036735535,0.5259724259376526,-0.0036760347760644,0.0022637605721204,7.879853815869254e-07,-0.0142955686897039,0.0075433873571455,0.5341111421585083,-0.0024359310045838,0.0050385920330882,-0.1947483718395233,0.9808372259140016,-0.0175702596611212,0.0044404036786419,0.5512539803870624,0.1021315455436706,-0.074792206287384,0.2686452865600586,49,81,-6879,7184
22.1,1788519920591,-1.8309859037399288,1.8591549396514893,-0.0052705383859574,-0.0008565131574869,0.8645640015602112,0.5024943351745605,0.0002325045689187,0.0004157134549062,-1.083501449726248e-06,-0.0059303138405084,-0.0171842165291309,0.5571245551109314,-0.002552930265665,0.0048657851293683,-0.1865620911121368,0.9824278354644777,-0.0079513061428978,-0.0144898894574836,0.5510856881781935,-0.0878088474273681,0.0607860684394836,-0.1555156707763672,64,104,-6538,7093
22.2,1788519920691,-0.8732394576072693,0.8169013857841492,-0.0051801106892526,-0.0012185537489131,0.8801382780075073,0.4746876060962677,-0.0026109345493336,0.000497813957462,-1.09204734877244e-06,-0.0080423494800925,-0.00939083378762,0.5742575526237488,-0.0029327040538191,0.0047286096960306,-0.1426874548196792,0.989752233028412,-0.0063897936833468,0.0156805834979075,0.4677889672362713,0.3319728970527649,-0.4260677099227905,-0.2311525344848632,1,14,0,0
22.3,1788519920791,1.5774648189544678,-1.6338027715682983,-0.0054044988937675,-0.001191817689687,0.8831267952919006,0.4691016972064972,0.0078940548647057,-0.0060542887901162,-1.2766486913548244e-07,-0.0025978477206081,0.0011722820345312,-0.150865688920021,-0.0028523607179522,0.0045552160590887,-0.147619217634201,0.9890296459197998,0.0116051511813231,-0.0104944804345974,-0.3366620683566694,0.4178257584571838,-0.1156478524208068,-0.1217250823974609,178,229,10588,-10609
22.4,1788519920891,3.4084506034851074,-3.549295663833618,-0.0051721283234655,-0.0008913578931242,0.868281364440918,0.4960443079471588,0.0022863506928843,-0.0043505922541845,-1.3842863431611825e-06,0.0108344964683055,0.0132110230624675,-0.9073629975318908,-0.0021392786875367,0.005017789080739,-0.2017560601234436,0.9794206023216248,0.0217906886389644,0.0284920764892508,-1.1283625391389256,-0.2557456493377685,0.082853615283966,0.8514690399169922,85,76,11793,-11240
22.5,1788519920991,3.1549296379089355,-3.380281686782837,-0.0053601372055709,-0.0003547167871147,0.8540623784065247,0.5201429128646851,-0.0006577596260284,-0.0019987329047185,3.516579112144087e-06,0.0189948994666337,0.0205548834055662,-1.0963869094848633,-0.0016566775739192,0.0045253243297338,-0.2329738587141037,0.9724711179733276,0.0151303767718191,-0.001531166729512,-0.9663340802335856,0.0690334439277648,0.4240772128105163,-0.350931167602539,70,68,11086,-10021
22.6,1788519921091,3.211267709732056,-3.4084506034851074,-0.0049536619335412,0.0001546523999422,0.8117852210998535,0.5839350819587708,0.0016976080428238,-0.004774001833908,-1.5528189959139898e-06,0.0077285696752369,0.0060964999720454,-1.0136793851852417,-0.0015160692855715,0.0044493908062577,-0.2956523299217224,0.9552841186523438,0.0073183455987757,-0.0138976180070998,-0.9940336494975288,-0.0552378296852111,0.0221891999244689,0.0042572021484375,104,63,10906,-9907
22.7,1788519921191,3.126760482788086,-3.211267709732056,-0.0047762645408511,0.0002566508483141,0.7782247066497803,0.6279675960540771,-0.0018221300442994,-0.0041681085979521,-7.686517748544071e-07,0.0094551350921392,0.0071641509421169,-0.9971872568130492,-0.0014341389760375,0.0042786682024598,-0.3433280885219574,0.9392046928405762,0.0066274871560997,-0.0179402695764349,-0.9944535778110009,-0.2095135450363159,-0.4506735205650329,0.3644027709960937,67,75,10869,-10506
22.8,1788519921291,3.183098554611206,-3.211267709732056,-0.0045591373927891,0.0005466395523399,0.7493659853935242,0.6621401309967041,-0.00355908069249,-0.0042453291382079,-2.6266229593243144e-06,0.0169878881424665,0.008104134351015,-0.9833941459655762,-0.0011132676154375,0.0046339556574821,-0.3988696932792663,0.9169952869415284,0.005797395454466,0.0171133913346236,-1.1222279075323616,-0.193259596824646,-0.2414288520812988,-0.4572553634643554,66,92,10620,-10507
22.9,1788519921391,3.323943614959717,-3.070422649383545,-0.0047885938547551,0.0008357861079275,0.715859055519104,0.6982278823852539,0.0013421957718189,-0.0079657761466555,-1.9977278612059227e-06,0.0125083867460489,0.0167378187179565,-0.9941246509552002,-0.0012932624667882,0.005191727541387,-0.4400584101676941,0.8979532122612,-0.0136080535034854,-0.0057099308431674,-1.0490206865671323,-0.147022008895874,-0.4913849830627441,-1.1172332763671875,57,136,10121,-11191
23.0,1788519921491,3.521126747131348,-2.985915422439575,-0.0060293721035122,0.0009690979495644,0.678725004196167,0.7343671321868896,0.001192107277517,-0.0017577267549636,-1.0966202500735028e-06,-0.0043587046675384,0.0348282121121883,-1.025608777999878,-0.0023886617273092,0.007119458168745,-0.4797873198986053,0.8773526549339294,-0.0843038409865239,0.0271173040028181,-0.9390869244383928,-1.036682367324829,0.4376806020736694,-0.5709218978881836,10,186,8928,-12243
23.1,1788519921591,2.985915422439575,-3.6056337356567374,-0.007583119906485,-0.0009517737198621,0.6437445282936096,0.7652023434638977,-0.0193496984255175,-0.0001882349166343,-5.458446699132624e-06,-0.0015473449602723,-0.0123005378991365,-0.7835215926170349,-0.0032469984143972,0.0059626353904604,-0.5123952031135559,0.8587229251861572,0.0527372399691055,-0.0496468973534368,-0.9272085108264722,0.6907051205635071,-0.4490925669670105,-0.8527536392211914,42,204,9769,-12863
23.2,1788519921691,3.9718310832977295,-2.5352113246917725,-0.0044303005561232,-0.0010131814051419,0.6059311032295227,0.7955041527748108,-0.015982441031213,-4.1816429230077805e-05,-1.1598404551083574e-05,0.0265730135142803,-0.0542420968413353,-1.087204098701477,-0.0027627423405647,0.0034155640751123,-0.5534027218818665,0.8329022526741028,-0.0019093925353157,-0.0361801496827513,-0.9993275882125632,1.0041099786758425,0.3051724433898926,0.4429855346679687,151,8,13964,-6605
23.3,1788519921791,3.8309860229492183,-2.197183132171631,-0.0038336261641234,-0.0021776617504656,0.5667980313301086,0.8238450288772583,0.0477861074272989,-0.0096683066723191,1.0966087561877902e-05,-0.0084447292611002,-0.0206685252487659,-0.9552278518676758,-0.0030906097963452,0.0028162095695734,-0.6028146147727966,0.797870397567749,0.0124493821082067,8.544453824187421e-05,-0.9200615040757176,-0.2456696033477783,0.1472412943840026,0.7117080688476562,80,58,11058,-6641
23.4,1788519921891,4.2253522872924805,-2.0,-0.004009329713881,-0.0021144389174878,0.5322343707084656,0.8465848565101624,0.0289739668963528,0.0022418365938231,-2.012436144817293e-06,-0.0132546853274106,0.0046450546942651,-0.7712492346763611,-0.003458590246737,0.0036592436954379,-0.629497230052948,0.7769864797592163,-0.0231081777787775,0.0263787151000583,-0.7399257119649236,-0.0737000703811645,-0.3923307657241821,-0.3853740692138672,188,141,15090,-8731
23.5,1788519921991,4.704225540161133,-2.366197109222412,-0.0056833126582205,-0.0018415412632748,0.4902353584766388,0.8715696334838867,0.0426316941533044,-0.0066294272042798,-2.5412732078805925e-05,-0.017141293734312,0.0321742929518222,-1.0271871089935305,-0.003641027957201,0.0047378279268741,-0.6520051956176758,0.7581909894943237,-0.0204185833281217,0.0459481514812962,-1.1403646297806758,-0.1866829991340637,-0.4541772007942199,0.8173599243164062,75,74,13515,-7245
23.6,1788519922091,5.014084339141846,-1.8591549396514893,-0.0059560118243098,-0.0017451652092859,0.4463062584400177,0.8948587775230408,0.0554722591826358,-0.0019046185518136,-2.3646419440958847e-05,0.0070566446520388,0.0240363199263811,-1.0980879068374634,-0.0032508391886949,0.0052852900698781,-0.699863851070404,0.7142494320869446,0.0093820416642417,0.0418730325065895,-1.052361943838001,0.2837394475936889,-0.0150296688079833,-1.167032241821289,41,19,14576,-5096
23.7,1788519922191,6.0,-0.5633803009986877,-0.0066325152292847,-0.0007425039075314,0.4017314910888672,0.9157332181930542,0.0641181361558885,-0.0015734535856879,-1.3520188874091456e-05,-0.0063947234302759,0.0207600723952054,-0.9682361483573914,-0.0030788797885179,0.006230117753148,-0.7434567809104919,0.6687479615211487,-0.0090215165739069,0.0213561504421392,-1.02307496780729,1.4104067087173462,-0.2852467894554138,-0.4141473770141601,196,27,21818,0
23.8,1788519922291,8.36619758605957,1.6056338548660278,-0.0068588200956583,-0.0007012083660811,0.3548895716667175,0.9348827600479126,0.1132359012148387,-0.0082697303773923,-8.81249807087991e-06,0.0048890709877014,0.010526685975492,-1.06075119972229,-0.0032624714076519,0.0057565728202462,-0.7735632658004761,0.6336845755577087,0.0137638599070773,-0.0129871419439358,-1.0054833965906207,0.964191198348999,0.0017067790031433,-1.966756820678711,135,142,25830,8440
23.9,1788519922391,7.943662166595459,2.197183132171631,-0.0064312876202166,-0.0006683534011244,0.3041463196277618,0.9526033401489258,0.1932594437569249,-0.0046221684403779,-1.0124546682972628e-05,0.0082059241831302,-0.0029938693623989,-0.9797285795211792,-0.0023075509816408,0.0058598816394805,-0.8060265183448792,0.5918459296226501,0.0159379351151709,0.0261908707368779,-0.8034496023525188,-0.1056426167488098,-0.1305473446846008,-1.9990200996398928,74,39,24414,5946
24.0,1788519922491,7.577464580535889,2.507042169570923,-0.0062226676382124,-0.0002447813749313,0.2642118632793426,0.9644445180892944,0.1797308118968264,-0.0061959523342984,2.675701662896789e-05,0.0023108541499823,2.854568447219208e-05,-0.9067552089691162,-0.0021996013820171,0.0057424046099185,-0.8296893239021301,0.5581916570663452,0.0115158910011538,0.0060662096514982,-0.9294501215502616,-0.0924199223518371,-0.2543860077857971,0.5258569717407227,55,61,21551,7997
24.1,1788519922591,6.760563373565674,2.6478872299194336,-0.0060688857920467,-2.8034322895109653e-05,0.2416011095046997,0.9703567028045654,0.1721152058999178,-0.0041794148223013,-6.2316612668349855e-06,0.0092303687706589,0.0121034961193799,-0.9107202291488647,-0.0023277541622519,0.0048031834885478,-0.8426144123077393,0.5384910106658936,0.0151180014095108,-0.0389932431793477,-0.7252071905348502,-0.0468584299087524,0.1819011569023132,-0.9539775848388672,11,36,14908,7918
24.2,1788519922691,2.985915422439575,2.4788732528686523,-0.0046036322601139,-0.0018284828402101,0.1968263685703277,0.9804258346557616,0.1275890799963155,0.0057781201571224,-3.301769968533625e-05,0.008682245388627,-0.0022389316000044,-0.4334349036216736,-0.0016651321202516,0.0033802837133407,-0.85945725440979,0.5111938118934631,0.0541680990422415,0.0442564358215275,-0.2258615088293712,-0.2988029718399048,0.0928941369056701,-1.0813055038452148,8,116,7320,9916
24.3,1788519922791,0.8732394576072693,2.8450703620910645,-0.0035671852529048,9.03162290342152e-05,0.1893517971038818,0.981902837753296,0.0884057390262075,0.0068049574503408,-7.895203005135425e-05,0.0007174885831773,0.0305338092148304,-0.0262215193361043,-0.0007697688415646,0.004784638993442,-0.8599252104759216,0.51039719581604,-0.0543645412871735,0.0441962529241288,0.0872642550405328,-0.5643999576568604,0.0089510083198547,0.1744585037231445,12,173,0,11632
24.4,1788519922891,-1.2957746982574463,3.380281686782837,-0.0055936640128493,0.0016972468001767,0.2035259157419204,0.9790520668029784,0.059240273599938,0.0014347801780512,-1.4429635854506474e-05,-0.0030376529321074,0.0092832203954458,0.4775843024253845,-0.0004492430016398,0.0053660692647099,-0.8501237034797668,0.5265554189682007,0.0250533847114615,-0.0348032736649128,0.547337345139438,-0.205622136592865,-0.0401405096054077,-0.0360898971557617,166,40,-10034,9503
24.5,1788519922991,-3.183098554611206,3.2676055431365967,-0.0036329755093902,0.000258479558397,0.2388076186180114,0.971060037612915,0.0182234975871334,0.001912516956614,5.6601650392594855e-06,0.0108985230326652,-0.0144435493275523,0.8362777829170227,-0.0013958364725112,0.0037552425637841,-0.8224968314170837,0.5687556862831116,-0.0261728845208165,-0.0141273649207983,1.08402986732023,-0.532281756401062,-0.3741712570190429,-0.0443649291992187,231,39,-13683,9565
24.6,1788519923091,-3.2957746982574463,3.183098554611206,-0.0044790394604206,-0.0011671745451167,0.2876457870006561,0.9577257633209229,-0.0227951741451732,0.0040988557853906,-1.1895165044882724e-05,-0.025889640673995,-0.0298903919756412,1.0403876304626465,-0.0034032287076115,0.0040488503873348,-0.7912272214889526,0.6114994287490845,-0.0270887812226492,-0.0213267092764059,1.0886097026178183,0.0478084683418273,-0.4398868083953857,-0.0921697616577148,46,84,-10633,10364
24.7,1788519923191,-3.070422649383545,3.070422649383545,-0.0051256124861538,-0.0016895348671823,0.3416630625724792,0.9398070573806764,-0.0001628796791575,-0.0012455080759165,1.3740966298109731e-06,-0.0027533252723515,0.0014858525246381,0.9959483742713928,-0.0028083007782697,0.0043852319940924,-0.7609214782714844,0.6488230228424072,0.0147350173368542,0.025649499797445,0.8710685030509552,-0.9131057262420654,0.069367229938507,-0.051218032836914,90,104,-10895,10764
24.8,1788519923291,-3.211267709732056,3.183098554611206,-0.0050568114966154,-0.0014704407658427,0.3811491727828979,0.9244985580444336,-0.0018003738148073,0.002977107189076,8.126686505612253e-08,-0.001872410881333,-0.0196713283658027,1.002816677093506,-0.0026918975636363,0.0043065985664725,-0.721019446849823,0.69289630651474,-0.0028836564338168,0.0319553332275289,1.0884080510289569,-0.4110875129699707,0.3240485191345215,0.0112781524658203,94,90,-11154,10518
24.9,1788519923391,-3.239436626434326,3.211267709732056,-0.0047993068583309,-0.0016128401039168,0.4272170066833496,0.90413498878479,-0.0013890255954948,0.0040443694582825,-1.3184604767068104e-06,-0.005197197664529,-0.0206260252743959,1.0103706121444702,-0.0029613738879561,0.0035823136568069,-0.6893729567527771,0.724391758441925,0.0128573141984063,-0.0020499843262289,0.9899399108118632,-0.2564561367034912,0.3446184396743774,-0.9884109497070312,66,72,-10846,10207
25.0,1788519923491,-3.2676055431365967,3.211267709732056,-0.0045375130139291,-0.0017688032239675,0.475549966096878,0.8796752691268921,-0.0026243182431486,0.0024873315305368,-1.578809475562897e-06,-0.0081295361742377,-0.0076574431732296,0.9843695163726808,-0.0030188579112291,0.0040281889960169,-0.6532073020935059,0.75716233253479,-0.0049135944602792,0.0167276552513565,0.9810682559557742,-0.1040138602256774,0.4532517790794372,-0.6388349533081055,69,86,-10618,10598
25.1,1788519923591,-3.2676055431365967,3.323943614959717,-0.004638007376343,-0.0021161020267754,0.5179323554039001,0.8554064035415649,-0.0047254360622733,0.0041240966454402,-2.5891893571896456e-06,-0.0052914740517735,-0.0246967617422342,0.9788342118263244,-0.0032612374052405,0.0039121136069297,-0.6459089517593384,0.7633975148200989,-0.0108958443760494,-0.0262947204380757,0.8636525193605122,-0.2985957860946655,0.1354260444641113,0.6629848480224609,63,104,-10952,10484
25.2,1788519923691,-3.239436626434326,3.2676055431365967,-0.0046220230869948,-0.0024239297490566,0.5562925934791565,0.8309701085090637,-0.0011761491406613,0.0063505025624635,-2.0624669474423547e-06,-0.0053565991111099,-0.0128850918263196,0.9950062036514282,-0.003842101432383,0.0034133996814489,-0.58229660987854,0.8129602074623108,0.0042231785315897,-0.0082771118543293,0.9409457014153906,-0.0971973538398742,0.1818009614944458,-0.1028528213500976,58,78,-10522,10237
25.3,1788519923791,-3.1549296379089355,3.211267709732056,-0.0045522735454142,-0.0027493757661432,0.5963204503059387,0.8027288913726807,-0.0072423585618185,0.0082499134147922,-1.436934205864364e-08,-0.0049315434880554,-0.0054105049930512,0.98238343000412,-0.0037391474470496,0.0039238259196281,-0.5298169255256653,0.8480947613716125,-0.0087032735145379,0.0028828622124232,0.887679626668609,-0.2949557900428772,0.2277474999427795,-0.1304903030395507,82,82,-10849,10548
25.4,1788519923891,-3.0985915660858154,3.070422649383545,-0.0047876797616481,-0.0024699883069843,0.6394162178039551,0.7688419818878174,-0.0031188997490989,-0.0009053888380578,5.161024110753873e-07,-0.0051251747645437,-0.0123078497126698,0.9929713010787964,-0.0042752856388688,0.0038274424150586,-0.4877156317234039,0.8729836344718933,-0.0203013113255415,-0.0083831724404489,0.9307172474554618,-0.1363212466239929,-0.0754519701004028,0.5622873306274414,9,28,-8756,8813
25.5,1788519923991,-2.816901445388794,2.8450703620910645,-0.005044724792242,-0.002734619192779,0.6574483513832092,0.7534778118133545,-0.0017315151175482,0.0035869492300115,-5.942696582123186e-07,-0.0162742622196674,-0.0067168804816901,0.9738238453865052,-0.0044982032850384,0.0032141329720616,-0.4645227789878845,0.885543942451477,0.0098528633763628,-0.0296419180306417,0.8625262609257224,-0.0273535847663879,0.3317798972129822,0.1046686172485351,68,80,-9692,9449
25.6,1788519924091,-2.873239517211914,2.929577350616455,-0.0040531135164201,-0.0039734169840812,0.7024630904197693,0.7116975784301758,-1.0931490527755998e-05,0.0016519699214993,-1.2933171580583756e-06,-0.0095826126635074,-0.0320188887417316,0.9280718564987184,-0.0051240511238574,0.0024296659976243,-0.4290049970149994,0.9032843112945556,-0.0037833154966376,-0.0334040017971342,0.9151619632150756,0.271216332912445,-0.3423407077789306,0.295414924621582,73,87,-9412,9740
25.7,1788519924191,-2.5352113246917725,2.563380241394043,-0.0040414053946733,-0.0043473257683217,0.7326645255088806,0.6805640459060669,-0.004186904455548,0.0083251061473289,-1.7896758903383102e-06,-0.0102896280586719,-0.0092815896496176,0.8688756823539734,-0.0054804757237434,0.0022735754027962,-0.3891456723213196,0.92115718126297,-0.003645126506547,-0.0242754651272181,0.8238203802083688,0.180160105228424,-0.5353872179985046,0.014052391052246,51,86,-8520,8688
25.8,1788519924291,-2.507042169570923,2.563380241394043,-0.00369876739569,-0.0049437251873314,0.7592386603355408,0.6507830023765564,0.0026315667105867,0.0043278771295795,-1.914595442392941e-07,-0.0125822024419903,-0.0121645852923393,0.7428397536277771,-0.0060546109452843,0.0011484688147902,-0.3346959054470062,0.942306101322174,0.0039931348371127,-0.0224742234254673,0.7950995989648874,0.1037250161170959,0.2730392813682556,0.7033452987670898,60,79,-8610,8639
25.9,1788519924391,-2.1408450603485107,2.309859037399292,-0.0032457264605909,-0.0054705077782273,0.7863830327987671,0.6177064180374146,0.0034732300562492,0.0013371631244684,-7.48602430148246e-07,-0.0070802653208374,-0.0051648188382387,0.7735954523086548,-0.0065216487273573,0.0010175788775086,-0.3024426996707916,0.953144669532776,-0.0047251117483647,-0.0188650084917337,0.6840709513076122,0.1109214425086975,0.2052727937698364,-0.3816852569580078,29,43,-7533,7093
26.0,1788519924491,-1.8028168678283687,1.887323975563049,-0.0035156866069883,-0.0056657763198018,0.805695652961731,0.5922921299934387,0.001728791603006,0.0018489046574692,-9.584514726995285e-07,-0.0029317936860024,0.0055897291749715,0.6877644062042236,-0.0065558534115552,0.0014925962314009,-0.2711015045642853,0.962527334690094,-0.0053033435785185,-0.0050357706576243,0.5719068715371174,0.0615313053131103,0.0120031237602233,-0.0863933563232421,11,37,-6314,6142
26.1,1788519924591,-1.9154930114746092,1.9154930114746092,-0.0038929702714085,-0.0058408756740391,0.8226597905158997,0.5684905648231506,-0.0004090085424843,0.0012670144301273,4.2398218980939844e-07,-0.0110876113176345,0.0002280329936183,0.5529556274414062,-0.0067623509094119,0.001763223670423,-0.2553007900714874,0.9668365120887756,-0.0031832688790215,0.0019731035292259,0.4999705676924675,0.1801180243492126,-0.0732268691062927,0.1005849838256836,51,75,-6225,6043
26.2,1788519924691,-1.8028168678283687,1.887323975563049,-0.0043025305494666,-0.0044052107259631,0.8378399610519409,0.5458811521530151,0.005099076784553,0.0009056516937853,-2.8239677359343565e-06,0.0255766734480857,0.0224703419953584,0.5027718544006348,-0.0052472529932856,0.002717045135796,-0.2259198874235153,0.9741279482841492,0.0334392148861407,0.0180343125333419,0.6188875018266256,0.0684341192245483,0.089906096458435,-0.1599512100219726,81,73,-8093,6572
26.3,1788519924791,-2.0281689167022705,1.887323975563049,-0.0050391154363751,-0.0027213916182518,0.85370272397995,0.5207291841506958,-0.0026414178806802,-0.0016060824498382,1.1555989834234144e-06,0.0140468683093786,0.0235448032617568,0.6047000288963318,-0.0042192945256829,0.0038838740438222,-0.1994301825761795,0.979895293712616,0.0068895854206706,0.0202281864933564,0.5881068837892764,-0.0284285545349121,0.1721207499504089,-0.0236263275146484,76,55,-6993,6370
26.4,1788519924891,-1.6056338548660278,1.5492957830429075,-0.0068327980116009,-0.001323820091784,0.8672803640365601,0.497771292924881,-0.0031374446561846,0.0029095787550107,5.445593282049204e-06,0.0051830429583787,0.0689051672816276,0.5821728110313416,-0.0033495351672172,0.0070085264742374,-0.1700480729341507,0.9854051470756532,-0.0003809666219888,0.0945423272769814,0.5980837297333755,-0.2250990867614746,-0.3967828750610351,0.918170928955078,28,54,-5580,5152
26.5,1788519924991,-1.2957746982574463,1.4929577112197876,-0.0069799087941646,-0.0012878926936537,0.8795170783996582,0.475814551115036,0.0027586230693896,-0.0006216469121004,6.392668369323022e-07,-0.0053020347841084,-0.0263206996023654,0.4392310976982116,-0.0036136778071522,0.0058430824428796,-0.1436498314142227,0.9896047711372375,-0.0019618711522937,-0.0111145876264716,0.4377038351100984,-0.0020502209663391,0.1095966100692749,-0.2697181701660156,145,43,-6902,5390
26.6,1788519925091,-1.6056338548660278,1.436619758605957,-0.0067889355123043,-0.0015968063380569,0.8903918266296387,0.4551414847373962,-0.0027016886637438,0.0009676136302258,-9.180892364990052e-07,-0.0080892369151115,-8.717732271179557e-05,0.4522989392280578,-0.0039347987622022,0.0058797523379325,-0.1238167956471443,0.9922798275947572,-0.016672325451293,-0.0003823776671364,0.4655088411454094,-0.0095462799072265,-0.0820014476776123,0.1767120361328125,95,158,-6004,6545
26.7,1788519925191,-1.380281686782837,1.6056338548660278,-0.007916041649878,-0.0023222926538437,0.9000171422958374,0.4357765316963196,-0.0062577769146816,-0.0004315697329255,2.745391952630057e-06,-0.0321624726057052,0.0260683335363864,0.424333393573761,-0.0049921162426471,0.0067873541265726,-0.1046425849199295,0.9944741725921632,-0.0362571870525407,0.0263215183261747,0.4225661163921436,0.0402882695198059,-0.0541468858718872,0.1198205947875976,77,175,-6896,7219
26.8,1788519925291,-1.211267590522766,1.380281686782837,-0.008500293828547,-0.0028964651282876,0.9088666439056396,0.4169902503490448,-0.0010637320663788,0.0033888988128133,-9.388289161197694e-07,-0.0128711992874741,0.0012148970272392,0.4720303118228912,-0.0054721711203455,0.0066102864220738,-0.0743475034832954,0.9971955418586732,0.0077352824039638,-0.0246524202195275,0.4597214673798424,0.1368035674095153,-0.0646063089370727,0.0376081466674804,46,61,-4986,4625
26.9,1788519925391,-1.211267590522766,1.2394366264343262,-0.0072707612998783,-0.0027263662777841,0.9179591536521912,0.3965988457202911,0.0075766519118661,0.0005884236958255,4.169469846943213e-06,0.017686428502202,-0.0290592927485704,0.4266055226325989,-0.0045099984854459,0.0051470892503857,-0.0561376549303531,0.9983996152877808,0.0259481859948836,-0.0398541490055839,0.4102973614792982,-0.0256422758102417,-0.0787512063980102,0.1460828781127929,64,4,-4835,3457
27.0,1788519925491,-1.0985915660858154,1.0985915660858154,-0.0053161918185651,-0.0024685708340257,0.9252415895462036,0.3793332576751709,0.0009899579658243,-0.0007239193975925,1.31237951975079e-06,0.0114438794553279,-0.0319006033241748,0.3708351254463196,-0.0040473705157637,0.0040377043187618,-0.0398805662989616,0.9991881251335144,0.0051022182555289,-0.0179601650033273,0.3743948344040138,0.0203077793121337,-0.0227035880088806,-0.1140613555908203,70,35,-5391,4211
27.1,1788519925591,-1.1267606019973757,1.183098554611206,-0.0049301860854029,-0.0023952587507665,0.932139217853546,0.3620586395263672,-0.0027980374581624,0.0004151878759026,-1.667948664831279e-07,0.002649946603924,0.0018450807547196,0.321843147277832,-0.0038652587682008,0.0038236360996961,-0.0234468970447778,0.9997103214263916,0.0032758092824398,0.0024790924257268,0.3156598863429909,-0.0474624633789062,-0.0692692399024963,-0.0355510711669921,69,50,-5533,4257
27.2,1788519925691,-1.0704225301742554,0.9577465057373048,-0.0048239380121231,-0.0023080422542989,0.9368075728416444,0.3498042523860931,7.263657830949227e-05,-0.0030336088549705,9.098714376556968e-07,-0.0006314472993835,-0.0062642903067171,0.276297777891159,-0.0038029216229915,0.0036503542214632,-0.0107148280367255,0.999928653240204,-0.0012246478657417,-0.011731127400886,0.2734575944216195,0.0093036890029907,0.0236279368400573,-0.0115785598754882,39,5,-2728,1686
27.3,1788519925791,0.0,0.0,-0.004828383680433,-0.0023339656181633,0.9415836930274964,0.3367362022399902,0.0046519348795778,0.0014826637256272,-8.6794596495975e-07,-0.0030268912669271,0.002855448750779,0.252567708492279,-0.0037943311035633,0.0036859698593616,0.0012637702748179,0.9999852776527404,0.0020656921284144,-0.0054261639787554,0.0172564515463716,0.0649377703666687,0.0083869099617004,-0.0473222732543945,0,0,0,0
27.4,1788519925891,0.0,0.0,-0.0047166193835437,-0.0024032716173678,0.9408352971076964,0.3388228714466095,0.0003335948098719,0.0033587442880325,-2.5983037975546764e-07,-0.0013440781040117,-0.002094444585964,-0.1229274123907089,-0.0038249576464295,0.0035363556817173,-0.0032446756958961,0.999981164932251,0.002017008523446,-0.0052968534346375,-0.0072190434347728,0.332670509815216,0.1940979361534118,0.001321792602539,0,42,447,2071
27.5,1788519925991,0.0,2.7887322902679443,-0.0044842064380645,-0.002544796327129,0.9412066340446472,0.3377920687198639,0.0137024598300262,0.0028230677721001,1.2672419683026198e-06,-0.0036526126787066,-0.0073206475935876,0.1026821956038475,-0.0038874549791216,0.0033984966576099,0.000956785865128,0.999986171722412,-0.0019137780089629,-0.0077197909310063,0.2289425676304591,0.3977813124656677,0.2050870060920715,0.1740789413452148,79,218,3930,10901
27.6,1788519926091,1.154929518699646,5.042253494262695,-0.0047287819907069,-0.0026869305875152,0.9477040767669678,0.3191041052341461,0.077685752680824,-0.0011255313387421,-4.924347112055441e-06,-0.0094120725989341,0.0031577532645314,0.495238721370697,-0.0044119777157902,0.0036095520481467,0.0331804305315017,0.9994331002235411,-0.0116342887561383,-0.0054642430788708,0.5878616454695247,0.6077693104743958,-0.086704671382904,0.5528068542480469,83,200,6080,18273
27.7,1788519926191,1.7183098793029783,8.28169059753418,-0.0044318879954516,-0.0030847883317619,0.9574670195579528,0.2884922325611114,0.1384490332066361,0.005521296272231,8.706480105778026e-06,-0.0023312692064791,-0.0239834934473037,0.7274361848831177,-0.004215482622385,0.0029365345835685,0.0692359581589698,0.9975871443748474,0.006685959894181,-0.0087845007029092,1.0406745518118174,0.4005857706069946,0.226729929447174,2.4175376892089844,140,175,7882,26259
27.8,1788519926291,1.8309859037399288,8.394366264343262,-0.0035861800424754,-0.0032860967330634,0.9701769351959229,0.2423490285873413,0.1857841127436126,0.0062857336080012,0.0001982379293436,-0.0127376159653067,-0.019146217033267,1.0002061128616333,-0.0044769961386919,0.0026090871542692,0.1141600459814071,0.9934488534927368,-0.0167582264471104,0.0320573599937144,1.1042620008949493,-0.2657469511032104,0.1092090606689453,-0.9913101196289062,47,83,6803,24147
27.9,1788519926391,1.8028168678283687,8.253520965576172,-0.0040804594755172,-0.0042326361872255,0.9820372462272644,0.1885954439640045,0.1830333102954275,0.0036604641105993,5.990844751924046e-05,-0.0262736119329929,-0.0240674167871475,0.9812940955162048,-0.0053773103281855,0.0022922679781913,0.1588402390480041,0.9872870445251464,-0.0200527919755354,-0.0207725318564432,0.953490847318098,0.094790518283844,0.2335509061813354,-1.2280206680297852,25,108,6653,23947
