time_s,timestamp_ms,wheel_vels__velocity_left,wheel_vels__velocity_right,odom__orient_x,odom__orient_y,odom__orient_z,odom__orient_w,odom__lin_x,odom__lin_y,odom__lin_z,odom__ang_x,odom__ang_y,odom__ang_z,imu__orient_x,imu__orient_y,imu__orient_z,imu__orient_w,imu__angvel_x,imu__angvel_y,imu__angvel_z,imu__acc_x,imu__acc_y,imu__acc_z,wheel_status__current_ma_left,wheel_status__current_ma_right,wheel_status__pwm_left,wheel_status__pwm_right
0.0,1788524973729,0.0,0.0,0.0056307087652385,0.0033048102632164,-0.996147871017456,0.0874453037977218,0.0,0.0,0.0,0.0,0.0,0.0,0.0053881527855992,0.0036178696900606,-0.987144410610199,0.1596992313861847,-0.0006664788485596,0.0001000515540255,-0.0010044083690947,0.0255557298660278,0.0018343925476074,-0.0062465667724609,1,0,0,0
0.1,1788524973829,0.0,0.0,0.0056307087652385,0.0033048102632164,-0.996147871017456,0.0874453037977218,0.0,0.0,0.0,0.0,0.0,0.0,0.0053881527855992,0.0036178696900606,-0.987144410610199,0.1596992313861847,-0.0006664788485596,0.0001000515540255,-0.0010044083690947,0.0255557298660278,0.0018343925476074,-0.0062465667724609,1,0,0,0
0.2,1788524973929,0.0,0.0,0.0056307087652385,0.0033048102632164,-0.996147871017456,0.0874453037977218,0.0,0.0,0.0,0.0,0.0,0.0,0.0053881527855992,0.0036178696900606,-0.987144410610199,0.1596992313861847,-0.0006664788485596,0.0001000515540255,-0.0010044083690947,0.0255557298660278,0.0018343925476074,-0.0062465667724609,1,0,0,0
0.3,1788524974029,0.0,0.0,0.0056307087652385,0.0033048102632164,-0.996147871017456,0.0874453037977218,0.0,0.0,0.0,0.0,0.0,0.0,0.0053881527855992,0.0036178696900606,-0.987144410610199,0.1596992313861847,-0.0006664788485596,0.0001000515540255,-0.0010044083690947,0.0255557298660278,0.0018343925476074,-0.0062465667724609,1,0,0,0
0.4,1788524974129,0.0,0.0,0.0056307087652385,0.0033048102632164,-0.996147871017456,0.0874453037977218,0.0,0.0,0.0,0.0,0.0,0.0,0.0053881527855992,0.0036178696900606,-0.987144410610199,0.1596992313861847,-0.0006664788485596,0.0001000515540255,-0.0010044083690947,0.0255557298660278,0.0018343925476074,-0.0062465667724609,1,0,0,0
0.5,1788524974229,0.0,0.0,0.0056307087652385,0.0033048102632164,-0.996147871017456,0.0874453037977218,0.0,0.0,0.0,0.0,0.0,0.0,0.0053881527855992,0.0036178696900606,-0.987144410610199,0.1596992313861847,-0.0006664788485596,0.0001000515540255,-0.0010044083690947,0.0255557298660278,0.0018343925476074,-0.0062465667724609,1,0,0,0
0.6,1788524974329,0.0,0.0,0.0056307087652385,0.0033048102632164,-0.996147871017456,0.0874453037977218,0.0,0.0,0.0,0.0,0.0,0.0,0.0053881527855992,0.0036178696900606,-0.987144410610199,0.1596992313861847,-0.0006664788485596,0.0001000515540255,-0.0010044083690947,0.0255557298660278,0.0018343925476074,-0.0062465667724609,1,0,0,0
0.7,1788524974429,0.0,0.0,0.0056307087652385,0.0033048102632164,-0.996147871017456,0.0874453037977218,0.0,0.0,0.0,0.0,0.0,0.0,0.0053881527855992,0.0036178696900606,-0.987144410610199,0.1596992313861847,-0.0006664788485596,0.0001000515540255,-0.0010044083690947,0.0255557298660278,0.0018343925476074,-0.0062465667724609,1,0,0,0
0.8,1788524974529,0.0,0.0,0.0056307087652385,0.0033048102632164,-0.996147871017456,0.0874453037977218,0.0,0.0,0.0,0.0,0.0,0.0,0.0053881527855992,0.0036178696900606,-0.987144410610199,0.1596992313861847,-0.0006664788485596,0.0001000515540255,-0.0010044083690947,0.0255557298660278,0.0018343925476074,-0.0062465667724609,1,0,0,0
0.9,1788524974629,0.0,0.0,0.0056307087652385,0.0033048102632164,-0.996147871017456,0.0874453037977218,0.0,0.0,0.0,0.0,0.0,0.0,0.0053688315674662,0.0036297338083386,-0.9871386289596558,0.1597353219985962,-0.0006822435062271,0.0013518336045725,-0.0010161582354203,0.0180755853652954,0.0075525045394897,-0.0116519927978515,6,0,0,0
1.0,1788524974729,0.0,0.0,0.0056307087652385,0.0033048102632164,-0.996147871017456,0.0874453037977218,0.0,0.0,0.0,0.0,0.0,0.0,0.0053688315674662,0.0036297338083386,-0.9871386289596558,0.1597353219985962,-0.0006822435062271,0.0013518336045725,-0.0010161582354203,0.0180755853652954,0.0075525045394897,-0.0116519927978515,4,0,0,0
1.1,1788524974829,0.0,0.0,0.0056307087652385,0.0033048102632164,-0.996147871017456,0.0874453037977218,0.0,0.0,0.0,0.0,0.0,0.0,0.0054019857197999,0.003594672307372,-0.9871357083320618,0.1597525626420974,0.0005113980117893,-0.0007488773241428,0.0013697487521421,0.0131959319114685,-0.0291836261749267,-0.0047664642333984,6,0,0,0
1.2,1788524974929,0.0,0.0,0.0056307087652385,0.0033048102632164,-0.996147871017456,0.0874453037977218,0.0,0.0,0.0,0.0,0.0,0.0,0.0054026301950216,0.0036018444225192,-0.9871396422386168,0.1597283631563186,0.0003869422441573,0.0008206825261906,-0.0010211535456404,0.0257971882820129,-0.0074936747550964,-0.002751350402832,5,0,0,0
1.3,1788524975029,0.0,0.0,0.0056307087652385,0.0033048102632164,-0.996147871017456,0.0874453037977218,0.0,0.0,0.0,0.0,0.0,0.0,0.0054461117833852,0.0035699652507901,-0.9871428608894348,0.1597075909376144,2.5375493940993677e-05,0.0002793401458592,-0.0008394475217513,0.021198570728302,0.0115623474121093,-0.0080327987670898,8,0,0,0
1.4,1788524975129,0.0,0.0,0.0056307087652385,0.0033048102632164,-0.996147871017456,0.0874453037977218,0.0,0.0,0.0,0.0,0.0,0.0,0.0054322630167007,0.0035425443202257,-0.9871445298194884,0.159698411822319,0.0007131915957335,-0.0020813459398883,0.0004100015417917,-0.0097355246543884,0.0182093977928161,0.0008106231689453,5,0,0,0
1.5,1788524975229,0.0,0.0,0.0056307087652385,0.0033048102632164,-0.996147871017456,0.0874453037977218,0.0,0.0,0.0,0.0,0.0,0.0,0.0054066646844148,0.0035701589658856,-0.9871478080749512,0.159678652882576,-0.0017669470713681,0.000463783616704,-0.00067791437535,0.0310280323028564,-0.0226413607597351,0.0241060256958007,4,0,0,0
1.6,1788524975329,0.0,0.0,0.0056307087652385,0.0033048102632164,-0.996147871017456,0.0874453037977218,0.0,0.0,0.0,0.0,0.0,0.0,0.0053910482674837,0.0035451548174023,-0.9871474504470824,0.1596819013357162,0.0001984435334611,-0.0002290824151226,-0.0023161057644049,0.0090590715408325,-0.0051497817039489,0.0312776565551757,0,0,0,0
1.7,1788524975429,0.0,0.0,0.0056440294720232,0.003146702889353,-0.9961537718772888,0.0873831361532211,0.0,0.0,0.0,0.0,0.0,0.0,0.0053994180634617,0.0035379659384489,-0.9871468544006348,0.1596852242946624,0.0003584567166542,-0.0008000642442314,0.0018148406213645,-0.0069720149040222,-0.0412381887435913,0.0327167510986328,3,0,0,0
1.8,1788524975529,0.0,0.0,0.0056164287962019,0.0031303940340876,-0.9961507320404052,0.0874201655387878,0.0,0.0,0.0,0.0,0.0,0.0,0.0053152414038777,0.0035153245553374,-0.9871461987495422,0.1596929132938385,0.0005322947938177,-0.0018482720185368,0.0010973469859769,-0.0194280743598938,-5.728006362915039e-05,0.0311250686645507,0,0,0,0
1.9,1788524975629,0.0,0.0,0.0055444007739424,0.0031125275418162,-0.9961515069007874,0.087417334318161,-7.735525229081969e-06,1.1060412999904432e-05,-3.267482151417108e-08,0.0004611178010236,-0.0029345266520977,-0.000120193537441,0.0052730105817317,0.0035136388614773,-0.987149178981781,0.1596757024526596,-0.0006755191614426,-0.0012694048336496,-0.0017015623488483,0.0177451968193054,0.0183448195457458,-0.015233039855957,1,0,0,0
2.0,1788524975729,0.0,0.0,0.0055444007739424,0.0031125275418162,-0.9961515069007874,0.087417334318161,-7.735525229081969e-06,1.1060412999904432e-05,-3.267482151417108e-08,0.0004611178010236,-0.0029345266520977,-0.000120193537441,0.0052730105817317,0.0035136388614773,-0.987149178981781,0.1596757024526596,-0.0006755191614426,-0.0012694048336496,-0.0017015623488483,0.0177451968193054,0.0183448195457458,-0.015233039855957,1,0,0,0
2.1,1788524975829,0.0,0.0,0.0055444007739424,0.0031125275418162,-0.9961515069007874,0.087417334318161,-7.735525229081969e-06,1.1060412999904432e-05,-3.267482151417108e-08,0.0004611178010236,-0.0029345266520977,-0.000120193537441,0.0052730105817317,0.0035136388614773,-0.987149178981781,0.1596757024526596,-0.0006755191614426,-0.0012694048336496,-0.0017015623488483,0.0177451968193054,0.0183448195457458,-0.015233039855957,1,0,0,0
2.2,1788524975929,0.0,0.0,0.0055444007739424,0.0031125275418162,-0.9961515069007874,0.087417334318161,-7.735525229081969e-06,1.1060412999904432e-05,-3.267482151417108e-08,0.0004611178010236,-0.0029345266520977,-0.000120193537441,0.0052730105817317,0.0035136388614773,-0.987149178981781,0.1596757024526596,-0.0006755191614426,-0.0012694048336496,-0.0017015623488483,0.0177451968193054,0.0183448195457458,-0.015233039855957,1,0,0,0
2.3,1788524976029,0.0,0.0,0.0055279461666941,0.0030676999595016,-0.996151864528656,0.0874146744608879,0.0001124067640309,-0.0001312557243949,-5.7868214632429e-07,0.0020127585157752,-0.000721649324987,0.0012837600661441,0.0052789961919188,0.0034845015034079,-0.9871465563774108,0.1596928536891937,-0.0008853391845438,-0.0002402517176155,-0.0003158162491736,0.0105215907096862,-0.0164365172386169,0.0042572021484375,0,0,0,0
2.4,1788524976129,0.0,0.0,0.005509294103831,0.0030982047319412,-0.9961525797843932,0.0874073430895805,-2.397580059125744e-05,2.840850053824606e-05,-1.3075162231524288e-07,-0.0012766595464199,-0.0006346484879031,-0.0003034264955203,0.0052625564858317,0.0034846849739551,-0.9871436953544616,0.1597105115652084,0.0003170545099012,-0.0008755672212605,0.0008532336546185,0.0119943022727966,0.0105418562889099,0.0080480575561523,0,0,0,0
2.5,1788524976229,0.0,0.0,0.005509294103831,0.0030982047319412,-0.9961525797843932,0.0874073430895805,0.0,0.0,0.0,0.0,0.0,0.0,0.0052629206329584,0.0034580184146761,-0.9871487021446228,0.1596803665161132,0.0024457227386796,0.0010626881148878,0.0010145896151197,-0.0006607174873352,-0.0169285535812377,0.011366844177246,0,0,0,0
2.6,1788524976329,0.0,0.0,0.0054583740420639,0.0030782441608607,-0.9961552619934082,0.0873807892203331,-9.245086948635414e-05,0.0001023343801585,-5.270662052115797e-07,-0.0005368056590668,9.4828377768863e-05,-0.0010455218143761,0.0052303122356534,0.0034800255671143,-0.9871488809585572,0.1596796512603759,-0.0007192716708865,0.0008226766425212,0.0007537036161074,0.0113354921340942,-0.005645215511322,0.0168943405151367,0,0,0,0
2.7,1788524976429,0.0,0.0,0.00548074580729,0.0030883913859725,-0.9961516857147216,0.0874198302626609,0.0001337417431071,-0.0001565900488912,7.15450458691055e-07,-0.0003285589336883,0.0009048794745467,0.0015379261458292,0.0052624559029936,0.0034801242873072,-0.9871454834938048,0.1597001254558563,-0.0001687801183581,0.0007919207625448,-0.0009611939814795,0.0032512545585632,0.0286949872970581,-0.0260210037231445,0,0,0,0
2.8,1788524976529,0.0,0.0,0.0055286856368184,0.0030929611530154,-0.9961531758308412,0.0873994976282119,-9.521064657856604e-05,0.000118496940116,-4.78360226199003e-07,-0.0004289297503419,0.0018597972812131,-0.0011630529770627,0.005323139950633,0.0035037640482187,-0.9871416091918944,0.1597207188606262,-0.0001931219714636,0.0004606666414945,0.0014623286858732,0.0312702655792236,0.0179640054702758,0.0064001083374023,0,0,0,0
2.9,1788524976629,0.0,0.0,0.0055655571632087,0.0031340336427092,-0.9961521029472352,0.0874083489179611,-7.280999394548385e-05,8.471768387177663e-05,-4.047424268987601e-07,-0.0008805172983556,0.0001285031175939,-0.0008363218512386,0.00531214941293,0.0035239234566688,-0.987146019935608,0.1596938520669937,0.0003471774105933,-0.0007629519266116,-0.0001349728842232,0.0114587545394897,-0.0048498511314392,-0.0082483291625976,4,0,0,0
3.0,1788524976729,0.0,0.0,0.0055874432437121,0.0031365135218948,-0.9961515069007874,0.0874131470918655,-9.190025042621196e-05,0.000101738379814,-5.329340452258916e-07,-0.0001358397130388,0.0013093360466882,-0.0010329830693081,0.0053565241396427,0.0035451166331768,-0.9871461391448976,0.1596914231777191,-0.0007161143084327,0.0013829061617215,-0.0011967545154524,0.0088535547256469,0.0134394168853759,-0.01531982421875,4,0,0,0
3.1,1788524976829,0.0,0.0,0.0055974372662603,0.0031403172761201,-0.9961524605751038,0.0874020233750343,-3.936088823404254e-05,4.47892745286347e-05,-2.236309669453013e-07,-0.0001113282196456,0.0004029895935673,-0.0004356369026936,0.0052794720977544,0.0035089785233139,-0.9871427416801452,0.1597154587507248,0.0001745497792629,-0.002699366323263,-0.001212219676163,0.0106588006019592,0.0217341184616088,0.0170774459838867,4,0,0,0
3.2,1788524976929,0.0,0.0,0.0055332644842565,0.0031192319002002,-0.9961525797843932,0.087405115365982,-9.405702751477554e-05,0.0001094387551443,-5.212904833168462e-07,-1.0886970812862272e-05,-0.001624776283279,-0.001140653155744,0.0052835801616311,0.0035020299255847,-0.9871402978897096,0.1597305983304977,0.0001527422311156,-0.0007732062778608,0.0023342270531545,9.077787399291992e-05,0.000199019908905,-0.0064849853515625,3,0,0,0
3.3,1788524977029,0.0,0.0,0.0055228532291948,0.0031000464223325,-0.9961480498313904,0.0874580740928649,0.0001151124197479,-0.0001296572273717,6.528008941952363e-07,0.0004902107175439,-0.0004241316637489,0.0012949855299666,0.0053269369527697,0.0035202838480472,-0.9871430397033693,0.1597117632627487,-0.00053471659815,0.0024487330682381,-0.0015384775394004,-0.0169171690940856,-0.0282639265060424,-0.0139646530151367,3,0,0,0
3.4,1788524977129,0.0,0.0,0.0055760792456567,0.0030867345631122,-0.996149480342865,0.087439090013504,7.236340479511033e-05,-8.574353828677515e-05,3.947598863933245e-07,0.0011586181353777,-0.0001257924013771,0.000832904712297,0.005336738191545,0.0035090753808617,-0.9871463775634766,0.1596908718347549,-0.0014174441704448,0.0019176541609229,-0.0020777934388992,0.0101796984672546,0.0002176165580749,-0.0118055343627929,4,0,0,0
3.5,1788524977229,0.0,0.0,0.0055972393602132,0.003110374789685,-0.9961532354354858,0.0873942524194717,-0.0001342283148849,0.0001571723315679,4.303424557767676e-07,-0.0007328563951887,0.0018813533242791,-0.0015860880957916,0.0053773140534758,0.0035107554867863,-0.9871436953544616,0.1597061455249786,-0.0002129991831551,-0.0018261697243428,0.0008202001753599,-0.005128264427185,0.0271309614181518,-0.0206766128540039,0,0,0,0
3.6,1788524977329,0.0,0.0,0.0056041185744106,0.0031035977881401,-0.9961526989936828,0.0874002873897552,-1.8548989792668328e-05,1.3773551888510842e-05,-1.4641710893117778e-07,0.0003268039727117,-0.0013087698025628,-0.0001201146878884,0.0053864726796746,0.003526272252202,-0.987150490283966,0.159663587808609,-0.0008416366155924,0.0014426769430809,-0.0008248619048019,-0.0106056332588195,0.0126622915267944,0.0330753326416015,3,0,0,0
3.7,1788524977429,0.0,0.0,0.0056041185744106,0.0031035977881401,-0.9961526989936828,0.0874002873897552,-1.8548989792668328e-05,1.3773551888510842e-05,-1.4641710893117778e-07,0.0003268039727117,-0.0013087698025628,-0.0001201146878884,0.0053864726796746,0.003526272252202,-0.987150490283966,0.159663587808609,-0.0008416366155924,0.0014426769430809,-0.0008248619048019,-0.0106056332588195,0.0126622915267944,0.0330753326416015,3,0,0,0
3.8,1788524977529,0.0,0.0,0.0056633404456079,0.0031395419500768,-0.9961531162261964,0.0873892977833747,0.0001051672639857,-0.0001264762272812,-6.310476451123426e-07,0.0004102861275896,-0.0001242262223968,0.0012647116091102,0.0053864726796746,0.003526272252202,-0.987150490283966,0.159663587808609,-0.0008416366155924,0.0014426769430809,-0.0008248619048019,-0.0106056332588195,0.0126622915267944,0.0330753326416015,4,0,0,0
3.9,1788524977629,0.0,0.0,0.0056377928704023,0.0031484956853091,-0.9961539506912231,0.0873813554644584,-9.958841151358796e-05,0.0001121617912871,-5.863530122283218e-07,-0.0008799447095952,-0.0002188592479797,-0.001123046153225,0.0054347589612007,0.0035469206050038,-0.9871453046798706,0.1596933901309967,0.0001780375811919,0.0007407504035404,0.0006491247072827,0.0067284703254699,0.0184714198112487,0.0098848342895507,6,0,0,0
4.0,1788524977729,0.0,0.0,0.0056720697320997,0.0031362380832433,-0.9961528182029724,0.0873927399516105,3.536399059612499e-05,-3.778804680653572e-05,2.1852152545204637e-07,0.0006663274834863,0.0004253424995113,0.0003541993792168,0.0054414300248026,0.0035620788112282,-0.9871538281440736,0.1596403270959854,-0.0008886276465962,0.0012085365129289,-0.0017254641264172,0.0051437020301818,-0.0189260840415954,0.004220962524414,2,0,0,0
4.1,1788524977829,0.0,0.0,0.0056919073686003,0.0031465478241443,-0.9961552619934082,0.0873637422919273,3.2605763409790777e-05,-3.709348657320413e-05,1.909633392559007e-07,0.0003341592964716,0.0001512921153334,0.0003711876925081,0.0054565956816077,0.0035409945994615,-0.987153947353363,0.15963976085186,0.0003311143067513,0.0006482586670419,-0.0014655355832664,0.0197321772575378,-0.0193955302238464,0.0061025619506835,8,0,0,0
4.2,1788524977929,0.0,0.0,0.005736831575632,0.0031461345497518,-0.9961589574813844,0.0873182043433189,-0.0001080848337756,0.0001280399567565,-6.149539001362204e-07,-0.0003292908950243,0.0011862042592838,-0.0012702606618404,0.0054966229945421,0.0035428246483206,-0.9871564507484436,0.1596228629350662,0.0008645776379577,0.0001293269922577,0.0011111226069094,0.027678370475769,-0.0159171223640441,0.0097637176513671,4,0,0,0
4.3,1788524978029,0.0,0.0,0.0057002464309334,0.0031301476992666,-0.996160328388214,0.08730498701334,-0.0001053676872705,0.0001209744285864,5.713179789813731e-07,-6.9938005253789015e-06,-0.0016005678335204,-0.001213208772242,0.0055041117593646,0.0035555670037865,-0.987162947654724,0.1595816314220428,-0.0001986584477373,0.001363181310351,0.0012941073121919,-0.0442959666252136,-0.0573749542236328,0.0629243850708007,0,0,0,0
4.4,1788524978129,0.0,0.0,0.0057630944065749,0.0031284384895116,-0.9961602091789246,0.0873033106327056,0.000111194869011,-0.0001276572273763,6.588361869081504e-07,0.000644878076855,0.0014296304434537,0.0012587696546688,0.0055729281157255,0.0035325800999999,-0.9871660470962524,0.1595609337091446,0.0003428248727225,0.0020976543808392,-0.0002930327209824,0.0110769271850585,-0.0164613723754882,0.025822639465332,0,0,0,0
4.5,1788524978229,0.0,0.0,0.0058387438766658,0.0031116278842091,-0.9961621165275574,0.0872770771384239,1.9629731405547724e-05,-1.87620481657636e-05,1.388564217392286e-07,0.0004117853241041,0.0019948740955442,0.0002059331163764,0.0056179901584982,0.0034920759499073,-0.98716002702713,0.1595971584320068,0.000343235978401,-0.000211688639822,-0.0003099593037058,0.0282798409461975,-0.0134591460227966,-0.0225515365600585,6,0,0,0
4.6,1788524978329,0.0,0.0,0.0058573051355779,0.0030738236382603,-0.9961593151092528,0.0873089432716369,-1.6153144147184544e-05,1.7255538229125968e-05,-1.0908409840223857e-07,0.0002028778835665,-0.000125163278426,-0.0001846610684879,0.0055871400982141,0.0034824414178729,-0.9871605038642884,0.1595957428216934,0.0006826040416905,-0.0019896072753542,0.0014484892207033,0.0455145835876464,0.0276457667350769,-0.0060043334960937,1,0,0,0
4.7,1788524978429,0.0,0.0,0.0058197430334985,0.0030688191764056,-0.9961597323417664,0.0873055234551429,3.956980323336486e-05,-5.065521760661171e-05,2.229699296275016e-07,0.0001946397387655,-0.000855955760926,0.0005022672121413,0.0056336028501391,0.0035013630986213,-0.9871649146080016,0.1595664173364639,0.0005073490555234,0.0025625644128326,-0.0001078429337175,0.0015286207199096,-0.038630187511444,0.0004463195800781,0,0,0,0
4.8,1788524978529,0.0,0.0,0.005876894108951,0.0030797205399721,-0.9961612820625304,0.0872845351696014,-6.927861894447553e-05,8.20511235725311e-05,-4.2214391644219483e-07,-0.0002207988145528,0.0022275561932474,-0.0008046365110203,0.0056430706754326,0.0034957453608512,-0.9871704578399658,0.1595323830842971,-0.0006760920632556,6.308688912026493e-05,-0.0018825382347825,0.0539537668228149,-0.0241770148277282,-0.0296821594238281,4,0,0,0
4.9,1788524978629,0.0,0.0,0.0058533991686999,0.0030676200985908,-0.9961633682250975,0.0872633010149002,0.0,0.0,0.0,0.0,0.0,0.0,0.0056586619466543,0.0034958282485604,-0.9871705770492554,0.1595304608345031,0.0001663989773418,0.0010610548851601,-0.0001292707838203,0.0416283011436462,0.0206154584884643,-0.0204601287841796,4,0,0,0
5.0,1788524978729,0.0,0.0,0.0059206541627645,0.0030774953775107,-0.9961658716201782,0.0872292518615722,-0.0001602878906671,0.0001897871950612,3.247498416221867e-07,-0.0004788532969541,0.0018016893882304,-0.001877560513094,0.0056937569752335,0.0034999921917915,-0.9871701002120972,0.1595319509506225,-1.608731748528582e-05,0.0011823265141708,-0.0001264015910722,0.0097051858901977,-0.0300241708755493,0.0256843566894531,4,0,0,0
5.1,1788524978829,0.0,0.0,0.0059297885745763,0.0030843103304505,-0.99616140127182,0.0872796550393104,0.0001816793833505,-0.0002054067556861,-2.60050089088534e-08,-0.0002579413994681,0.0003913751279469,0.0020695517305284,0.0057194661349058,0.0035510249435901,-0.987169086933136,0.159536674618721,-0.0009354116428611,0.0006865828674525,4.3231875931216245e-05,0.0176784396171569,-0.0289357900619506,0.00238037109375,3,0,0,0
5.2,1788524978929,0.0,0.0,0.0059628039598464,0.0031252289190888,-0.996163845062256,0.0872480124235153,-0.0001105222692339,0.0001234745895186,4.29157230130612e-07,-0.0014711150433868,0.0014265511417761,-0.0012442603474482,0.0057392418384552,0.0035819793120026,-0.9871641993522644,0.1595649868249893,-0.0013104093412183,0.0004531912754356,-0.0009374335122463,0.0487305521965026,0.0129693746566772,-0.0043296813964843,1,0,0,0
5.3,1788524979029,0.0,0.0,0.0059892022982239,0.0031469499226659,-0.9961603879928588,0.087285116314888,0.0,0.0,0.0,0.0,0.0,0.0,0.005706800147891,0.0035725077614188,-0.987159788608551,0.1595944166183471,0.0001060814349457,-0.0014277901145836,0.0009231399376833,0.0355956554412841,0.0004488229751586,-0.0224695205688476,3,0,0,0
5.4,1788524979129,0.0,0.0,0.0059356847777962,0.0031599407084286,-0.9961620569229126,0.0872690826654434,-6.995356413051189e-05,8.078746455151184e-05,-4.489113309438452e-07,-0.0004943907260894,-0.0018817646196112,-0.0008287532255053,0.0056809103116393,0.0035852277651429,-0.9871681928634644,0.1595425307750702,-0.0001912434234965,-0.0005706003580342,-0.0010208358518656,0.0207014083862304,-0.0172339081764221,-0.0137128829956054,2,0,0,0
5.5,1788524979229,0.0,0.0,0.0059149852022528,0.0031403019092977,-0.9961615204811096,0.0872770175337791,2.3119640575355174e-05,-3.303583243954801e-05,1.1241379276000701e-07,0.0007059009512886,-0.0008911748882383,0.0003189808048773,0.0056740827858448,0.0035935556516051,-0.9871715307235718,0.1595215648412704,-0.0008945213997563,0.0022693180765902,-0.0022457484836581,0.0331628322601318,0.015304148197174,-0.0152168273925781,3,0,0,0
5.6,1788524979329,0.0,0.0,0.0059352130629122,0.0031750262714922,-0.996165692806244,0.087226778268814,-0.0001724561004007,0.0002005118455244,8.363795848072672e-08,-0.0012688759015873,0.0009098159498535,-0.0019727488979697,0.0056638214737176,0.0035930024459958,-0.9871667623519896,0.1595523655414581,-0.0001978352419695,-0.001419494501543,0.0002031762097182,0.0075297355651855,0.0203902721405029,0.0313596725463867,2,0,0,0
5.7,1788524979429,0.0,0.0,0.0059103616513311,0.0031711456831544,-0.9961625933647156,0.0872637629508972,0.0,0.0,0.0,0.0,0.0,0.0,0.0056894477456808,0.0036147721111774,-0.9871676564216614,0.1595446169376373,-0.0008300276762225,0.0007158570213787,0.0022170482754372,0.0117276906967163,0.0297894477844238,0.0224733352661132,2,0,0,0
5.8,1788524979529,0.0,0.0,0.0059190979227423,0.003180868923664,-0.9961659908294678,0.0872241854667663,-0.0001359818409332,0.0001591153318592,3.526803807051656e-07,-0.0003459560684859,0.0003849462955258,-0.0015847804024815,0.005692177452147,0.0036102384328842,-0.9871697425842284,0.1595321744680404,0.0003309684483237,0.0001329605921773,-0.0008333249165967,0.038819670677185,0.0046899914741516,0.002699851989746,0,0,0,0
5.9,1788524979629,0.0,0.0,0.0059790331870317,0.003230907022953,-0.9961647987365724,0.087232306599617,-7.897560493975643e-06,1.1283227521456884e-05,-3.7816856433183145e-08,-0.0016711361240595,0.0020149955525994,-0.0001056039036484,0.0056747077032923,0.0036605605855584,-0.987172544002533,0.1595144420862198,-0.0010316851009706,-0.00139717057463,-0.0011560285273098,0.026099681854248,0.0147754549980163,-0.0062856674194335,8,0,0,0
6.0,1788524979729,1.5492957830429075,1.436619758605957,0.005918544717133,0.0032453124877065,-0.9961662888526917,0.0872188806533813,-4.957526207724168e-05,5.294137113942435e-05,-3.329653859497472e-07,-0.0007926456746645,-0.0023917346261441,-0.0005587834748439,0.0052102645859122,0.0036001000553369,-0.9871478080749512,0.1596846729516983,-0.0003499890277144,-0.0247663648204526,0.0091044267173538,2.641981840133667,-0.0513617396354675,-0.0103359222412109,317,326,13108,11911
6.1,1788524979829,4.535211086273193,4.535211086273193,0.0054585267789661,0.0032112435437738,-0.9961534142494202,0.0873970910906791,0.0867139653079472,-0.002452600290789,5.384295971940147e-07,0.0,0.0,0.0,0.0054879682138562,0.0035653449594974,-0.9873216152191162,0.1585980802774429,0.0198162807191801,0.0146155666674832,-0.0009747449058312,0.755696713924408,-0.0321247577667236,0.6252632141113281,164,141,17390,14677
6.2,1788524979929,5.521126747131348,5.098591327667236,0.0054202647879719,0.0032049738802015,-0.9963747262954712,0.0848389938473701,0.1720399311853781,0.0004668234378735,-1.895999434104643e-05,0.0073109217919409,-0.0028519984334707,-0.0661725401878357,0.0047677690163254,0.0036641014739871,-0.9876667261123656,0.1564559191465377,-0.0069271389824088,-0.0318706531605585,-0.0539612181669375,-0.1127671003341674,0.2103080153465271,-0.0194854736328125,48,55,14784,13428
6.3,1788524980029,5.267605781555176,4.985915660858154,0.0048311138525605,0.0034097926691174,-0.996494710445404,0.0834471508860588,0.1879249668355324,0.0020945192998609,3.59427965750975e-05,-0.0022103118244558,-0.0063378401100635,-0.0243388675153255,0.0038439454510807,0.0036214618012309,-0.987789511680603,0.1557046175003051,0.0026834539828413,-0.0173242298385245,-0.0015900550375463,-0.0769073963165283,0.056512176990509,-0.3293685913085937,72,48,14626,12836
6.4,1788524980129,5.295774459838867,4.788732528686523,0.0034017502330243,0.0029758384916931,-0.996564507484436,0.0826970711350441,0.1735312164998487,-0.0002201842078601,0.0001140695113512,0.011921651661396,-0.0352069661021232,-0.0275953337550163,0.0031368657946586,0.0035023121163249,-0.9879881143569946,0.1544587314128875,-0.0376520607668325,0.0033670823494475,-0.0592173891558827,0.1699911952018737,0.3265608549118042,-0.426609992980957,66,71,14315,13272
6.5,1788524980229,5.408450603485107,4.422535419464111,0.0025262630078941,0.0043207891285419,-0.9969485998153688,0.0779009014368057,0.1770652935095337,0.0001962909033819,7.427549635494557e-07,-0.0285401362925767,-0.0171528905630111,-0.1168068870902061,0.0017855903133749,0.004755413159728,-0.988755226135254,0.1494565904140472,-0.0335772910636796,-0.0448850426535109,-0.1092391952090588,0.2638236880302429,-0.3069411516189575,0.4944972991943359,100,90,16240,12747
6.6,1788524980329,5.211267471313477,4.957746505737305,0.0025798822753131,0.0036738305352628,-0.9975205063819884,0.0702321603894233,0.1720102148405159,0.0014675624794266,-2.4921817400768e-05,0.0150597775354981,0.0035452630836516,-0.126829594373703,0.0022573666647076,0.0039927577599883,-0.989523708820343,0.144297569990158,0.0188110691199208,-2.457989767224765e-05,-0.1230963388628715,0.1272118091583252,-0.0258905887603759,-1.108321189880371,53,71,14686,13344
6.7,1788524980429,5.042253494262695,5.070422649383545,0.0021652104333043,0.0037257266230881,-0.997752010822296,0.0668744668364524,0.1739318523937299,0.000810913199866,3.16929830992046e-05,-0.0160038657486438,-0.0077868206426501,-0.0783472806215286,0.0017471797764301,0.0040314113721251,-0.990367352962494,0.138395607471466,-0.009934891932815,-0.002548297328503,-0.0092487849198816,-0.0404384732246398,0.110988974571228,-0.3054533004760742,59,129,13689,14515
6.8,1788524980529,5.042253494262695,4.985915660858154,0.0021755401976406,0.0038882705848664,-0.9978241920471193,0.0657803416252136,0.1800220232977894,0.0026341651412392,-1.045517878245141e-06,-0.0070141651667654,0.0028300916310399,-0.0156916510313749,0.0024176137521862,0.003936911933124,-0.99041485786438,0.138047456741333,0.0092042007354335,0.0135739199583157,-0.0019292402793288,0.0168567299842834,0.2355729341506958,0.3585453033447265,59,89,13993,14287
6.9,1788524980629,5.183098793029785,5.014084339141846,0.0028706712182611,0.0039347135461866,-0.9978359937667848,0.0655707269906997,0.1723555743519074,0.0006281396788716,3.2965636769442255e-07,0.0,0.0,0.0,0.0026437593623995,0.004247386008501,-0.9904583096504213,0.137722298502922,0.0092630756034561,-0.0149663925727383,-0.0023302083483666,0.116050124168396,0.0652877688407898,-0.9532709121704102,80,112,13538,14296
7.0,1788524980729,5.042253494262695,5.042253494262695,0.003580515505746,0.0041078296490013,-0.9978023767471312,0.0660366415977478,0.177026842252976,0.0003501443360986,-1.299922952049748e-05,0.0059006148949265,0.0020407636184245,0.0175877846777439,0.0032774861901998,0.0044758832082152,-0.9902983903884888,0.138846218585968,-0.0117105826235826,1.0934660192981776e-05,0.0114196490709058,0.0841979384422302,-0.0504949688911438,0.5527229309082031,78,102,14180,13901
7.1,1788524980829,5.239436626434326,4.901408672332764,0.0042695486918091,0.0046080481261014,-0.9977837204933168,0.0662432536482811,0.1711433723007949,0.0021749346664098,-2.023346288956921e-07,-0.0126848854124546,0.0133304130285978,-0.0066167097538709,0.0040266308933496,0.0050380816683173,-0.9903210401535034,0.1386458873748779,-0.0187404637587115,0.0105603421107424,-0.0227685670691685,0.137744128704071,0.0299698710441589,0.5913820266723633,80,76,14778,13349
7.2,1788524980929,5.211267471313477,4.901408672332764,0.0039714076556265,0.0046075815334916,-0.9978664517402648,0.0650051832199096,0.1643098897479604,-0.0017750660409584,2.4317920420565876e-05,0.0052714846096932,-0.0072482777759432,-0.0105509283021092,0.0035277549177408,0.0048416722565889,-0.990514039993286,0.1372810453176498,0.0057418200392932,-0.0196973913513072,-0.0134315239270751,0.1536614298820495,-0.032813549041748,0.3233699798583984,67,59,14857,13219
7.3,1788524981029,4.985915660858154,4.957746505737305,0.0038810637779533,0.0045809745788574,-0.997956931591034,0.0636083632707595,0.1738147418916054,-0.0032016064087043,-1.0485665947747835e-06,-0.0034729470498859,0.0007218617247417,-0.034734658896923,0.0040332889184355,0.0049031944945454,-0.9908477067947388,0.1348355114459991,0.0117929392682481,0.0262841831959989,-0.0261765693242511,0.1287195682525634,-0.0349045395851135,0.8064031600952148,97,54,15578,13014
7.4,1788524981129,5.183098793029785,4.957746505737305,0.0046749794855713,0.0048560625873506,-0.9981163144111632,0.0609780959784984,0.1748197892009892,0.0008106656028327,-0.0001573051680933,-0.0005081975250504,0.0282416213303804,-0.0534624643623828,0.0054684914648532,0.0052264705300331,-0.9910945296287536,0.132945030927658,0.0111474765273329,0.086262134795046,-0.0445517235842189,0.363691508769989,0.0897865891456604,-1.5778865814208984,62,74,14850,12966
7.5,1788524981229,5.577464580535889,4.507042407989502,0.0033931042999029,0.0048699444159865,-0.9982507228851318,0.0588250830769538,0.1680445208775154,0.00101860287668,0.0004020061345421,-0.0052847848273813,-0.1130572706460952,-0.0588762387633323,0.003814379684627,0.0052411211654543,-0.9915512800216676,0.1295537054538726,-0.0052811951633302,0.073766955999522,-0.0974103557592246,0.2140779495239257,-0.3489424586296081,-2.7283682823181152,105,83,15363,13372
7.6,1788524981329,5.521126747131348,4.507042407989502,0.0033324919641017,0.0046586329117417,-0.9986116290092468,0.0523637048900127,0.181208588273953,-0.0004316064428398,0.0001000118155538,0.0071764839813113,-0.0168591681867837,-0.1466954201459884,0.0027255611494183,0.0050414055585861,-0.992553412914276,0.1216751784086227,-0.0056393101910312,-0.0092955522953136,-0.1537799407005363,0.0523756742477417,0.0049409866333007,-1.0420608520507812,56,52,15859,12498
7.7,1788524981429,5.211267471313477,4.901408672332764,0.0031276373192667,0.0047941976226866,-0.9989469051361084,0.0455213375389575,0.1695528669660868,-0.0022136398720167,-3.6975178184461782e-06,6.546437361976132e-05,-0.0017945512663573,-0.1268167495727539,0.0034893695265054,0.0051745409145951,-0.9933234453201294,0.1151938661932945,-0.0002548686409009,0.0547236317166127,-0.1261875330190797,-0.0832757949829101,-0.075957179069519,-0.8494291305541992,72,64,14489,12760
7.8,1788524981529,5.183098793029785,5.098591327667236,0.0036937538534402,0.0048520066775381,-0.9991915225982666,0.0397375598549842,0.1672358034669152,0.0022508872907916,-6.294931297795804e-06,0.0027286440599709,-0.0016313981031998,-0.0751478299498558,0.0033707031980156,0.0051000248640775,-0.9936423301696776,0.112417384982109,0.0048288746813928,0.0022017438178325,-0.0724112358186827,0.3415344953536987,0.0441840291023254,-1.465744972229004,62,90,13713,14222
7.9,1788524981629,5.267605781555176,4.901408672332764,0.0033964295871555,0.0049344468861818,-0.9992015361785888,0.0395016483962535,0.1809338361320017,-0.00013197555511,5.427302717740929e-05,0.0006487333448603,-0.0299169886857271,-0.0066050118766725,0.0033809561282396,0.0052126357331871,-0.9936562776565552,0.1122880354523658,-0.019257483035145,0.0320546161693114,0.0103666034755133,-0.0653110742568969,0.2050709128379821,1.489476203918457,71,90,13122,14519
8.0,1788524981729,5.014084339141846,5.070422649383545,0.0033964295871555,0.0049344468861818,-0.9992015361785888,0.0395016483962535,0.1732837535309723,0.0005383287472673,-1.6668226026831749e-07,0.0,0.0,0.0,0.002801694907248,0.0053401738405227,-0.9935621619224548,0.1131275966763496,0.0050531393578904,0.0033215981652352,0.0439077144711523,0.0798282027244567,0.0658836364746093,0.6146144866943359,76,83,14041,14075
8.1,1788524981829,5.154929637908936,5.098591327667236,0.0031086537055671,0.0050505460239946,-0.9991534352302552,0.0407093651592731,0.1719584251206262,-7.414604633056375e-05,4.3791431336260974e-05,-0.0066388151608407,-0.0145542826503515,0.0608288794755935,0.0020400872454047,0.0065831681713461,-0.9935805797576904,0.112916387617588,-0.0811559363178663,0.0180246278920268,-0.0609402578435641,-0.1288996934890747,-0.351462185382843,-0.4563922882080078,74,87,13726,13723
8.2,1788524981929,4.985915660858154,5.154929637908936,0.0039228689856827,0.0062169823795557,-0.9991635084152222,0.0402276776731014,0.1700192226441481,0.0034109966121159,-0.000167112134393,-0.0131958778947591,0.0403903350234031,-0.0280704442411661,0.0037368210032582,0.0066466648131608,-0.9934787154197692,0.113762192428112,-0.0090384496136442,0.0191289056406917,0.0050700117263571,-0.1373432874679565,-0.0657380223274231,-0.0807876586914062,83,58,14610,13761
8.3,1788524982029,5.183098793029785,5.126760482788086,0.0047338479198515,0.0065918480977416,-0.9991268515586852,0.040982499718666,0.1779986435608569,0.0001503796028132,-5.224518040071044e-05,-0.0101603399962186,0.029992539435625,-0.00700294226408,0.0035973032936453,0.0069231539964675,-0.9934574961662292,0.1139360219240188,-0.0041071431852723,-0.0147582802063572,0.0152783989730263,-0.1904488801956176,-0.061974287033081,0.9517431259155272,68,68,13640,13632
8.4,1788524982129,5.126760482788086,5.154929637908936,0.0046310424804687,0.0064186989329755,-0.9991026520729064,0.0416066981852054,0.1681221525621511,-0.0022672407516925,-4.852035358360241e-07,0.0093063134700059,0.017584316432476,0.0171923954039812,0.0038573937490582,0.0062569621950387,-0.9933846592903136,0.1145995482802391,0.0268517609171128,-0.006429410596378,0.0150539602757337,-0.0573574304580688,0.03618985414505,-0.8843107223510742,78,55,14264,13463
8.5,1788524982229,5.183098793029785,5.042253494262695,0.0038737244904041,0.0060625243932008,-0.9990872740745544,0.0421049669384956,0.1676843545294557,-0.0013256486150288,6.508757668908401e-05,0.0156586691737175,-0.0376746617257595,0.0240881126374006,0.0034292759373784,0.0062859235331416,-0.9933801889419556,0.1146502569317817,0.0037705898788334,0.0052516752261965,-0.0104231422215738,-0.1176874041557312,-0.1236905455589294,0.124887466430664,57,54,13819,13681
8.6,1788524982329,5.183098793029785,4.8450703620910645,0.0041893143206834,0.0058680437505245,-0.9990543127059937,0.0428774990141391,0.1704120574568469,-0.0006074413189307,-1.26214639064199e-05,0.0057830596342682,0.0085602700710296,0.0219521299004554,0.0037764683365821,0.0061525478959083,-0.993276298046112,0.1155427247285842,-0.0157373485899032,-0.0062229696864801,0.0021291463825623,0.2088770866394043,0.1148071885108947,0.3671979904174804,86,73,15181,13320
8.7,1788524982429,5.267605781555176,4.929577350616455,0.0039101992733776,0.0059526087716221,-0.999098777770996,0.0418418496847152,0.1765702794206319,0.0012074797448335,3.654637729613989e-05,-0.0039414730854332,-0.0206822045147418,-0.0285089518874883,0.0033718002960085,0.0059159891679883,-0.9934847354888916,0.1137616708874702,0.0059940896821124,-0.0073840312831898,-0.0298537306674905,-0.0357326865196228,-0.253560721874237,-0.8526372909545898,51,62,14649,13085
8.8,1788524982529,5.126760482788086,4.816901206970215,0.0028156689368188,0.0056249597109854,-0.9991682171821594,0.0402908138930797,0.1660363933173201,-0.0005074504281232,3.1334187693758934e-05,0.0114142633974552,-0.0435232706367969,-0.0617318600416183,0.0023515103384852,0.0058112414553761,-0.9935882091522216,0.1128864362835884,-0.0004063279537951,-0.0550353096488715,-0.0478233335208699,0.2280444502830505,-0.0464735627174377,1.1850576400756836,96,60,15150,13347
8.9,1788524982629,5.239436626434326,4.873239517211914,0.0026093241758644,0.0052849692292511,-0.9992245435714722,0.0389301367104053,0.1731409383518189,-0.0008897779609355,-6.672893489823988e-05,0.013234089128673,-0.0083763254806399,-0.0537192672491073,0.00213682372123,0.0052826330065727,-0.99393492937088,0.1098217815160751,0.0047512545148824,-0.0026261832817814,-0.0581547131684209,-0.0244378447532653,0.1683025360107422,0.7787857055664062,61,50,14826,13198
9.0,1788524982729,5.295774459838867,4.901408672332764,0.0026093241758644,0.0052849692292511,-0.9992245435714722,0.0389301367104053,0.1731409383518189,-0.0008897779609355,-6.672893489823988e-05,0.013234089128673,-0.0083763254806399,-0.0537192672491073,0.0023672496899962,0.005171931348741,-0.9943015575408936,0.1064520999789238,-0.0063707705500864,0.0265049887317771,-0.0731527387719616,-0.185505986213684,0.0996063351631164,0.2668905258178711,83,70,14540,13136
9.1,1788524982829,5.295774459838867,4.901408672332764,0.0026093241758644,0.0052849692292511,-0.9992245435714722,0.0389301367104053,0.1731409383518189,-0.0008897779609355,-6.672893489823988e-05,0.013234089128673,-0.0083763254806399,-0.0537192672491073,0.0033807354047894,0.0053195701912045,-0.9945351481437684,0.1042117998003959,-0.0014201139709364,0.0423042812820762,-0.0919203308881839,-0.0736663341522216,-0.3028596043586731,-0.0959444046020507,83,70,14540,13136
9.2,1788524982929,5.408450603485107,4.929577350616455,0.0039082341827452,0.0050552017055451,-0.9996070265769958,0.027294797822833,0.1713732190779921,-1.1110996665767014e-05,0.0001210628171735,0.0103606972843408,-0.0302416980266571,-0.0568125583231449,0.0033807354047894,0.0053195701912045,-0.9945351481437684,0.1042117998003959,-0.0014201139709364,0.0423042812820762,-0.0919203308881839,-0.0736663341522216,-0.3028596043586731,-0.0959444046020507,71,77,14051,13294
9.3,1788524983029,4.985915660858154,5.098591327667236,0.0029503111727535,0.0050093652680516,-0.9996267557144164,0.0266924761235713,0.1659358283207925,-0.0028157254685302,1.8321502820314916e-07,0.0052737793885171,-0.0038716450799256,-0.0012040644651278,0.0021842559799551,0.0048971939831972,-0.99509859085083,0.0987419262528419,0.0044124636889319,-0.0121045039305509,-0.0115141482550238,0.0916986465454101,0.2169514298439026,-0.5795793533325195,60,111,14431,14221
9.4,1788524983129,4.985915660858154,5.126760482788086,0.0028064248617738,0.0048563471063971,-0.9996357560157776,0.0263998582959175,0.1717524460430204,-0.0014802111308091,-1.1606206961057345e-07,0.0,0.0,0.0,0.0030644051730632,0.0052553573623299,-0.99517560005188,0.0979216769337654,-0.008888460345561,0.0077485133317501,-0.0218530701923723,0.0156784057617187,0.1185464859008789,-0.6667814254760742,49,66,14442,14021
9.5,1788524983229,5.295774459838867,5.126760482788086,0.0038012079894542,0.0051839076913893,-0.9996733665466307,0.0247371029108762,0.1731414105933337,-0.0007750692302597,-7.383679739714013e-05,-0.0089991297572851,0.0211615823209285,-0.0327338464558124,0.0038255853578448,0.0058872140944004,-0.9953197836875916,0.0963813140988349,-0.0173837473713284,0.0058240619476998,-0.0417620116451003,-0.2444115281105041,-0.2060688138008117,0.561427116394043,59,89,13087,13795
9.6,1788524983329,5.042253494262695,5.098591327667236,0.0041208160109817,0.0055852038785815,-0.9996992349624634,0.023519555106759,0.1726163719528581,0.0036044008070352,-1.7071297424526017e-05,-0.0095991902053356,0.0033826031722128,-0.0324163623154163,0.0033364119008183,0.0057324040681123,-0.9952470064163208,0.0971564725041389,-0.0074927561626415,-0.0414108191762132,0.0200966216485117,-0.0055913925170898,0.3042821288108825,-0.3155994415283203,79,82,14091,13905
9.7,1788524983429,5.098591327667236,5.126760482788086,0.0028947442770004,0.005328525789082,-0.9996705651283264,0.0249373335391283,0.1744014147105104,-0.0003032724228755,0.0001970705578275,0.0008145478204824,-0.0479148514568805,0.0268322993069887,0.002110625617206,0.0053963679820299,-0.9951889514923096,0.0978032946586608,0.0059836811475934,-0.0266968531549453,0.0103566974305724,0.0262191295623779,-0.1831215023994445,0.6482601165771484,65,65,14102,13750
9.8,1788524983529,5.154929637908936,5.014084339141846,0.0005016365321353,0.0047918045893311,-0.9996815323829652,0.0247744098305702,0.1833120412682676,0.0010610621538792,9.73517890472809e-05,0.0125670386478304,-0.056556936353445,-0.0083919642493128,0.0017245411872863,0.0049444446340203,-0.9948954582214355,0.1007752642035484,-0.0103896941608625,0.0062581040366162,0.1143192122569179,0.4304550290107727,0.1733681559562683,0.0393943786621093,83,71,13704,13829
9.9,1788524983629,5.126760482788086,5.042253494262695,0.0023907669819891,0.0053644627332687,-0.9995632767677308,0.0289615951478481,0.1731159924038897,-0.0008021806669794,-2.634403206318724e-05,-0.0262068565934896,0.0112169720232486,0.0795115455985069,0.0023839510977268,0.0060548866167664,-0.9947761297225952,0.1018728241324424,-0.0259144027774557,0.0128555154199888,0.0095945720387119,-0.0419625043869018,-0.417847990989685,-0.4439268112182617,67,60,13984,13521
10.0,1788524983729,5.352112770080566,4.8450703620910645,0.0033225622028112,0.0058972239494323,-0.9995750784873962,0.0283508375287055,0.1673857665166721,0.0002167339482631,6.264917028384059e-05,-0.00025286473101,0.0152458297088742,-0.0360734798014164,0.0022382149472832,0.0061138607561588,-0.9949457049369812,0.1002034023404121,-0.0034502162296289,-0.0421952764750795,-0.0560766512386415,0.1031838059425354,0.4195132255554199,0.4605083465576172,48,81,14095,12761
10.1,1788524983829,4.985915660858154,5.323943614959717,0.0027644196525216,0.0059948111884295,-0.9996383190155028,0.0260670315474271,0.1680761468192253,0.0019392200298984,-1.8261752968606736e-05,0.0011156856780871,-0.0046249697916209,-0.0462758280336856,0.0006219437345862,0.0056297183036804,-0.9952024221420288,0.097673162817955,3.075972265727311e-05,-0.0799583844414947,-0.0291260084172236,0.283828854560852,0.1380378603935241,0.0721950531005859,68,74,12811,14268
10.2,1788524983929,4.2816901206970215,5.549295902252197,0.0014239459997043,0.0052797719836235,-0.9996882677078248,0.0243619233369827,0.1692692562932231,0.0011860269293574,-0.0002009870976943,0.0119731333106756,0.0155472615733742,-0.023907670751214,0.0016490360721945,0.0056133698672056,-0.9952605962753296,0.0970675274729728,0.0077755277961462,0.068241859259197,-0.0401520186744875,-0.2756820917129516,-0.3073581457138061,0.2542619705200195,9,188,10258,18617
10.3,1788524984029,4.11267614364624,5.85915470123291,0.0009857604745775,0.0049515445716679,-0.9991999864578248,0.039671141654253,0.1536139066042618,0.0087079103064332,5.87994189476281e-05,-0.0009093301487155,-0.0189767256379127,0.4199026823043823,0.0004382813349366,0.0049884328618645,-0.9934306740760804,0.1143261417746543,-0.0029073531181656,-0.0307993597983408,0.4633199793912516,0.0418625473976135,-0.2640402913093567,0.0499219894409179,43,161,11235,18385
10.4,1788524984129,4.02816915512085,6.11267614364624,0.0011666422942653,0.0051646460779011,-0.9985336661338806,0.0538743808865547,0.1746130018199191,0.0023126229295938,3.418854877315344e-05,-0.0041110692545771,-0.0040937499143183,0.2263861894607544,0.0010806582868099,0.0057665426284074,-0.99117773771286,0.1324093788862228,-0.0069820115379634,0.0013250376001457,0.2293200338095518,-0.5527991056442261,-0.0809603929519653,0.392547607421875,11,285,9487,20531
10.5,1788524984229,3.521126747131348,6.2816901206970215,-2.1225976524874568e-05,0.0055250907316803,-0.9977821707725524,0.0663346275687217,0.1672263877596265,0.0012849233619251,6.455823227878577e-05,0.0010295920073986,-0.0526194311678409,0.2945892810821533,-0.0053951209411025,0.004720501601696,-0.989048957824707,0.1474132239818573,0.0013802795126603,-0.2289114531510536,0.3512244727822084,0.2421573400497436,-0.2517199516296386,0.6180858612060547,59,250,11729,20280
10.6,1788524984329,3.91549301147461,5.88732385635376,-0.0179992094635963,0.0032091103494167,-0.995399534702301,0.0940496399998664,0.1604047380061161,0.0054438584655408,0.0006023465471454,0.0322554297745227,-0.2247646600008011,0.4600888788700104,-0.0184128638356924,0.0017713187262415,-0.9859141707420348,0.1662263572216034,0.0394665200089673,-0.1803290631955341,0.4295215869688548,-0.0862430334091186,-0.0554417967796325,-1.0132522583007812,128,163,13167,17928
10.7,1788524984429,4.366197109222412,6.11267614364624,-0.0169635768979787,0.0035792863927781,-0.9944785833358764,0.1034984216094017,0.1614810640750356,0.0023258385268242,-0.0001004507856036,-0.0041617322713136,0.0407852232456207,0.3803919553756714,-0.0167933218181133,0.0022231684997677,-0.9832074642181396,0.1817035675048828,0.0158769331575552,0.0112244416468958,0.2520707636793654,-0.0839689373970031,0.0058098435401916,0.1515617370605468,62,88,12078,16549
10.8,1788524984529,4.732394218444824,5.408450603485107,-0.0177865903824567,0.0030064759775996,-0.9923624992370604,0.1220295503735542,0.1711818554669091,0.0017530533781737,6.64079779511359e-05,0.0109839225187897,-0.0132436985149979,0.2692238092422485,-0.0180100575089454,0.0017631454393267,-0.9811203479766846,0.1925495415925979,0.0079989477017081,-0.0129776777011811,0.2720253064070688,-0.2066030502319336,-0.2466065287590026,0.4319896697998047,151,37,14971,13759
10.9,1788524984629,4.647887229919434,5.464788913726807,-0.0174751281738281,0.0028821094892919,-0.99186772108078,0.1260345131158828,0.1765395729367004,-0.0001669564625357,-5.845409974549754e-05,0.0074926894158124,0.008850572630763,0.1307325810194015,-0.0169523991644382,0.0019470369443297,-0.9799504280090332,0.1985096335411071,-0.0170503169332765,0.0602143943592089,0.0427153433301508,-0.0501965284347534,0.1931666135787964,0.4261970520019531,60,125,12785,15739
11.0,1788524984729,4.563380241394043,5.436619758605957,-0.0170939955860376,0.0031919060274958,-0.991479516029358,0.1290968507528305,0.176216876429857,0.0022439646332684,-2.5964576400368635e-05,-0.0013040920021012,-0.0067569832317531,0.0697345286607742,-0.0176470149308443,0.0020547024905681,-0.9785051345825196,0.2054560631513595,-0.0148299570026478,0.0418055009003857,0.1757240633481989,0.0938643217086792,0.2433165907859802,0.4368877410888672,40,181,12764,16649
11.1,1788524984829,4.957746505737305,5.042253494262695,-0.0167668536305427,0.003282603342086,-0.9904527068138124,0.1367900818586349,0.1630446476911009,0.0025908086307094,-0.0001869639484917,0.0028861556202173,0.0467056520283222,0.1912641078233719,-0.0171281285583972,0.0022983206436038,-0.977738618850708,0.2091138660907745,-0.0074277860043354,0.034175302004645,-0.0143539566869889,0.1703032851219177,0.1685723662376403,0.3645381927490234,73,202,14201,16391
11.2,1788524984929,5.549295902252197,4.507042407989502,-0.01667395606637,0.0034484488423913,-0.9903740286827089,0.1373657882213592,0.1803504531864912,0.0028740145960758,-9.98648485677373e-05,-0.0006594778387807,0.021856240928173,-0.011406379751861,-0.0171874444931745,0.0018123602494597,-0.977828860282898,0.2086910903453827,0.0002333193626123,-0.0127928422064243,-0.012882024928219,0.2056119441986084,0.3621237874031067,-0.3684291839599609,110,108,16259,13689
11.3,1788524985029,5.88732385635376,4.591549396514893,-0.0122317485511302,0.0035884121898561,-0.9907821416854858,0.1348637193441391,0.1615886664108277,0.0011209817634013,-0.0004635389176279,0.0043296469375491,0.2202417552471161,-0.0968025773763656,-0.0022445507347583,0.0039946297183632,-0.9804259538650512,0.1968350261449813,0.0259549153309186,0.2340038629273784,-0.2621254334713234,-1.1208443641662598,0.1155257821083068,1.2440299987792969,30,200,14281,14701
11.4,1788524985129,5.549295902252197,4.535211086273193,-0.0039673722349107,0.005247910041362,-0.9931609630584716,0.1165675744414329,0.1690955174570726,-0.0016910710481972,0.0002210644363628,-0.0238023344427347,-0.1074432581663131,-0.1667167544364929,-0.0048525584861636,0.00490602850914,-0.9821321368217468,0.1880663484334945,-0.0144190752996325,-0.1220883407656244,-0.1242794022483324,-0.033777117729187,0.4076127409934997,-0.1873664855957031,44,206,14719,15182
11.5,1788524985229,5.577464580535889,4.676056385040283,-0.0079716220498085,0.0053424425423145,-0.9935576915740968,0.1129208654165268,0.1757171224786899,0.0059167545061231,0.0004133114670378,-0.0225074961781501,-0.1549550890922546,-0.144880935549736,-0.0128654316067695,0.0040173539891839,-0.9832680225372314,0.1816656738519668,-0.0042277679047926,-0.1880638827108514,-0.1452036791384023,0.0192168354988098,0.2597070932388305,-0.0786352157592773,51,140,14972,13942
11.6,1788524985329,5.352112770080566,4.788732528686523,-0.0165273547172546,0.0046684071421623,-0.9942304491996764,0.1058814153075218,0.1570103607459726,-0.0064331496740567,0.0004410955785743,-0.0084288977086544,-0.1561729311943054,-0.1506559997797012,-0.0146589055657386,0.0032981969416141,-0.9842190742492676,0.1763151288032531,0.0525732524799385,0.1368405498443672,-0.0595480327535586,0.5941205620765686,-0.0382025837898254,-0.1085109710693359,176,128,16940,14005
11.7,1788524985429,5.633802890777588,4.535211086273193,-0.0145104154944419,0.0040921997278928,-0.994436740875244,0.1042506322264671,0.15309922048813,0.0087021883797097,-0.0002750402027757,0.0300263352692127,0.0772055462002754,-0.0648865103721618,-0.0193141270428895,0.0010775681585073,-0.9859690070152284,0.1658042520284652,0.0037031660637811,0.0286149139019166,-0.1797198984516219,0.1941241025924682,0.1284586191177368,0.1795940399169922,62,217,15519,14566
11.8,1788524985529,5.6619720458984375,4.704225540161133,-0.0188921801745891,0.0025642183609306,-0.9957754015922546,0.0898207426071167,0.1752218749529782,-0.0015086303086196,-0.0001068463842705,-0.0042983689345419,0.0237670261412858,-0.1927156895399093,-0.0190287046134471,0.0011823065578937,-0.986596405506134,0.1620623171329498,-0.0070034626198945,0.0171069621462456,-0.2062510734794668,-0.0513669252395629,-0.0799997448921203,0.4081277847290039,40,112,14845,13572
11.9,1788524985629,5.492957592010498,4.591549396514893,-0.0209804512560367,0.00255559803918,-0.9965630173683168,0.0800965204834938,0.1636950638501544,-0.0026503042374674,0.000188617644063,-0.0084892073646187,-0.0270242597907781,-0.1895938366651535,-0.0160485934466123,0.0020134523510932,-0.9885469675064088,0.150044783949852,-0.0099491785427442,0.1851773523425379,-0.0801533457323225,0.3002443313598633,-0.0573951601982116,0.1601333618164062,103,187,15837,14857
12.0,1788524985729,5.577464580535889,4.732394218444824,-0.0164994746446609,0.0030982170719653,-0.9968131184577942,0.0779851675033569,0.1529268101061561,0.0007358698810467,-0.0004861270804497,-0.0090260580182075,0.1809075474739074,-0.0841077268123626,-0.0159306675195693,0.0021953582763671,-0.9892799854278564,0.1451434344053268,-0.0046135832759965,-0.0185873279436998,-0.2037020833814531,-0.1072710752487182,-0.3058194518089294,0.2223320007324218,53,155,15449,14236
12.1,1788524985829,5.521126747131348,4.563380241394043,-0.0155506571754813,0.0036515730898827,-0.9978132247924804,0.064136616885662,0.1627659267307762,0.002597543184271,7.816291337853288e-06,-0.0179701056331396,0.0301537904888391,-0.1726477444171905,-0.0160326622426509,0.0025143641978502,-0.9909632205963136,0.1331489533185959,0.0012607993922614,-0.0495344927794797,-0.1207831010089967,-0.0404439568519592,-0.4601699113845825,0.0923986434936523,71,253,15373,15203
12.2,1788524985929,5.492957592010498,4.647887229919434,-0.0183473490178585,0.0032420521602034,-0.9982003569602966,0.0569993667304515,0.1689935284959045,-0.001069067139173,0.0004367538986027,0.0071902596391737,-0.0874699428677558,-0.1227620989084243,-0.0186131931841373,0.0020173201337456,-0.991648256778717,0.1276060193777084,-0.0107025802384736,-0.0035573041949969,-0.1261527611662664,0.2709426879882812,0.0053328871726989,0.6258678436279297,122,160,16102,14588
12.3,1788524986029,4.14084529876709,6.11267614364624,-0.0188369434326887,0.0037277354858815,-0.9985816478729248,0.0496585182845592,0.1689356255787964,-0.0082445968083854,6.408528952603904e-05,-0.0197036992758512,-0.0188115909695625,-0.1801078915596008,-0.0200365651398897,0.0024219909682869,-0.9919297099113464,0.1251720935106277,0.0168542238362767,0.0084733467385552,0.2655630682770447,-0.5870805978775024,0.4172281622886657,0.2494935989379882,28,361,6786,22740
12.4,1788524986129,3.436619758605957,6.309859275817871,-0.0199434924870729,0.0037016118876636,-0.9979522228240968,0.0606609210371971,0.1620994108656505,0.0108321582037065,-2.0987168764162405e-05,0.0218684282153844,-0.0034148739650845,0.4442789554595947,-0.0194638334214687,0.0021111601963639,-0.9893090724945068,0.1445142179727554,0.0145746786444165,0.0347988914290283,0.4148756241338611,0.5736251473426819,-0.925422728061676,0.1026439666748046,151,223,12801,19107
12.5,1788524986229,4.197183132171631,5.6619720458984375,-0.0211336854845285,0.0030190143734216,-0.9966541528701782,0.0788967311382293,0.1633258775356301,-0.0053445707043905,0.0002301542822562,0.0229042563587427,-0.0897180661559104,0.3137394785881042,-0.0202394966036081,0.0016437200829386,-0.9871833324432372,0.1582935601472854,-0.0019673507912792,0.0493841004198751,0.1967550319944095,0.4382574558258056,-0.1247586607933044,-0.8078718185424805,51,375,12809,20907
12.6,1788524986329,4.2816901206970215,5.690140724182129,-0.0177987702190876,0.0036686747334897,-0.9957903623580932,0.0898400545120239,0.1689659692178247,-0.0006022152593735,-0.0003756965270365,-0.0121595254167914,0.0851285904645919,0.1620654910802841,-0.0188658125698566,0.0022185035049915,-0.986213743686676,0.1643824726343155,-0.002435477260877,-0.0361145759589832,0.0881650151334992,0.1148659586906433,0.1167013645172119,-0.1447439193725586,38,425,11955,22156
12.7,1788524986429,4.647887229919434,5.633802890777588,-0.0178820099681615,0.0036753816530108,-0.9952149391174316,0.0959889814257621,0.1779574733124045,0.00043633368453,-5.854591595166862e-05,0.0010775416158139,0.0286973603069782,0.165654644370079,-0.0171205252408981,0.0030200341716408,-0.9849359393119812,0.1720435172319412,-0.0189661772208375,0.0430658370799621,0.1439794971811525,0.6844044923782349,0.1327850818634033,0.3440513610839844,85,323,12632,19846
12.8,1788524986529,4.591549396514893,5.633802890777588,-0.0167464893311262,0.0044698542915284,-0.9946601986885072,0.1017373874783515,0.1724985390287055,0.0021471765116277,8.06947222283936e-05,-0.0076881949789822,0.0134820519015192,0.0668170377612114,-0.0183140989392995,0.0031734080985188,-0.9842915534973145,0.1755699068307876,-0.0119516116774589,-0.1225494482503144,0.0349491460349482,0.0679662823677063,-0.2151975631713867,-0.5915613174438477,11,315,11709,19484
12.9,1788524986629,4.676056385040283,5.7183098793029785,-0.0188713204115629,0.0042225224897265,-0.994303822517395,0.1048135980963707,0.1668770078862426,0.0049679338088955,0.0002915094098393,0.0047407508827745,-0.1031644716858863,0.0813926234841346,-0.018659608438611,0.0025295373052358,-0.9834978580474854,0.1799376010894775,0.0256970263482184,-0.0220098162622501,0.1007573996645873,-0.2387926578521728,0.0618765354156494,-0.248056411743164,42,399,12225,20739
13.0,1788524986729,4.591549396514893,5.436619758605957,-0.0187070183455944,0.0033958023414015,-0.9937396049499512,0.1100910529494285,0.1694313311080345,0.0016345966062218,9.153191710843424e-05,0.0216761138290166,-0.0184454694390296,0.0921012088656425,-0.0185738001018762,0.001770825125277,-0.982699990272522,0.1842627674341201,0.0197402931657617,0.0173774177808902,0.0953821017267278,0.0787202715873718,-0.0698281526565551,-0.2794647216796875,19,403,11630,20708
13.1,1788524986829,5.042253494262695,4.957746505737305,-0.0183499213308095,0.0023571534547954,-0.9932779669761658,0.11426592618227,0.1769253988931597,0.0002495866002434,9.847451034654282e-06,0.0400033332407474,0.0015860862331464,0.1124938577413559,-0.0149522665888071,0.0014855358749628,-0.9821003675460817,0.1877579241991043,-0.0146145048340157,0.1509733947644158,0.0265848903347051,-0.0709209442138671,-0.3500785827636719,0.5430173873901367,32,439,12758,20258
13.2,1788524986929,4.816901206970215,5.126760482788086,-0.0171705391258001,0.002680602716282,-0.993175745010376,0.1153256222605705,0.1729832951426791,0.0007141683294556,0.0001389199225358,-0.0192667171359062,-0.0772518292069435,-0.0206365138292312,-0.0175109822303056,0.0016863187775015,-0.982127010822296,0.1873952895402908,-0.0248906491197225,-0.0096105197666181,0.0094461139063932,0.2613533735275268,-0.3412328958511352,-0.3691587448120117,21,405,13121,19964
13.3,1788524987029,4.309859275817871,5.464788913726807,-0.0164726693183183,0.003389045363292,-0.9931933879852296,0.1152567416429519,0.1696736276716946,0.0006245482298669,-0.0001076933031171,-0.0069006788544356,0.0207790862768888,-0.0050032557919621,-0.0152018228545784,0.0035639842972159,-0.9820908308029176,0.1877601891756057,-0.0400390546351051,0.0711780765025199,0.0509478197112234,0.0484273433685302,-0.0373174548149108,0.719792366027832,10,407,10191,21127
13.4,1788524987129,4.507042407989502,5.802816867828369,-0.0148106226697564,0.0038108672015368,-0.9926779866218568,0.1198183372616767,0.1763365763238384,0.0021938379999225,2.1172621047267613e-06,0.0376576781272888,-0.0803298205137252,0.1266260296106338,-0.0172808989882469,0.0021543856710195,-0.980971336364746,0.1933700740337371,0.0100569349182618,-0.1549747753628753,0.1113324562588222,0.3190147280693054,0.2249202728271484,-0.7655906677246094,10,363,12200,19206
13.5,1788524987229,4.901408672332764,5.267605781555176,-0.0163756478577852,0.0035737378057092,-0.992250382900238,0.1231187507510185,0.1746084087686099,-0.0009885216849202,-0.0001016706376253,-0.0010618262458592,0.0236097555607557,0.0373393408954143,-0.0187751613557338,0.0018027061596512,-0.980494499206543,0.1956396400928497,0.0090401035918691,-0.0569447760993362,0.0234355663104593,0.0834035873413086,-0.0898109674453735,0.015120506286621,22,304,12925,19087
13.6,1788524987329,4.535211086273193,5.408450603485107,-0.0201444756239652,0.0032064793631434,-0.9921446442604064,0.1234214678406715,0.1740128609504429,-0.0004758096351721,0.0002219403342899,-0.0100562423467636,-0.0823672339320182,-0.0105826426297426,-0.0209857318550348,0.0018868315964937,-0.980667769908905,0.1945428103208542,-0.0198379630950785,0.0094897433781969,-0.0444745038741808,0.4202194809913635,0.4993937611579895,0.6087474822998047,11,397,12020,20502
13.7,1788524987429,4.676056385040283,5.577464580535889,-0.0191969219595193,0.0035142537672072,-0.9921329617500304,0.1236581206321716,0.1655047298772282,0.002587614141724,-8.99598212091244e-05,0.0010089437710121,0.079781025648117,0.0392028093338012,-0.0189378913491964,0.0024217702448368,-0.9801660776138306,0.197256252169609,-0.0088539879218823,-0.0003352516065038,0.0843712231584106,0.0124234557151794,0.1063879132270813,-0.2227201461791992,19,383,10973,20741
13.8,1788524987529,4.563380241394043,5.577464580535889,-0.0178207494318485,0.0038960943929851,-0.9915346503257751,0.1285542100667953,0.1732405886529423,-0.0007415885756701,-4.749793611190972e-05,-0.0075108767487108,0.0330205075442791,0.0901651456952095,-0.018069889396429,0.0025083189830183,-0.9792951941490172,0.2016138732433319,0.006447701487954,-0.0024112744707421,0.0837451925034627,-0.3210040926933288,0.3259080648422241,0.201822280883789,19,353,10969,20439
13.9,1788524987629,4.450704097747803,5.6619720458984375,-0.0183489918708801,0.0039791339077055,-0.990896224975586,0.133311927318573,0.1675938053253539,0.003522796385848,2.73165423107492e-05,-0.0020482870750129,-0.0120791010558605,0.1087689101696014,-0.0189125146716833,0.0022800303995609,-0.9779592752456664,0.2079247683286667,0.0234975931078464,-0.0074224110107716,0.1182750227130702,-0.0495665073394775,0.1357302069664001,-0.1618566513061523,51,356,12196,20200
14.0,1788524987729,4.929577350616455,5.521126747131348,-0.018994003534317,0.003545134793967,-0.9901042580604552,0.1389967650175094,0.1686942318119231,0.0024799826206969,4.324903837630359e-05,0.0027046352624893,-0.0136900516226887,0.1002495735883712,-0.0199414454400539,0.0024239923804998,-0.9772714376449584,0.2110382914543151,-0.0082517009650974,-0.044206339910428,0.0147458669537333,-0.159907579421997,0.356468915939331,-0.7618169784545898,16,326,13163,18209
14.1,1788524987829,4.957746505737305,5.014084339141846,-0.0190991498529911,0.0040761353448033,-0.9900544285774232,0.1393226087093353,0.1666799345341919,0.0014638703881497,-9.498223056450384e-05,-0.0072563416324555,0.018258549273014,0.0006928165093995,-0.018439631909132,0.003316817805171,-0.9774938225746156,0.2101306468248367,-0.01618636273889,0.0268088549315267,-0.0283476883983264,-0.0730221271514892,-0.1339306235313415,-0.2757129669189453,54,370,13991,18600
14.2,1788524987929,5.070422649383545,4.957746505737305,-0.0182464104145765,0.0046615917235612,-0.990294337272644,0.1377040594816208,0.1670736476125928,-0.0011910754805804,-3.454111798349016e-06,-0.0035669298376888,0.0006608640542253,-0.0334552638232708,-0.0195193570107221,0.003188326023519,-0.97796368598938,0.2078360319137573,-0.0030801170356814,-0.0292640403514207,-0.0503546979365059,0.0883192420005798,0.2864015102386474,0.3883190155029297,48,354,13814,18802
14.3,1788524988029,5.042253494262695,5.126760482788086,-0.0195654761046171,0.0044688349589705,-0.9906112551689148,0.1352278888225555,0.1662661721109831,0.0003796312759336,5.982659203093572e-05,0.0020612555090337,-0.0164686851203441,-0.0423690341413021,-0.0206551142036914,0.0029511349275708,-0.9785499572753906,0.2049502581357956,-0.0055138068457105,-0.0367713636204378,-0.0562941338810747,-0.1299588084220886,-0.2703173160552978,-0.025430679321289,16,360,12602,19918
14.4,1788524988129,4.985915660858154,5.211267471313477,-0.0198335014283657,0.004405559040606,-0.9908958077430724,0.1330895274877548,0.1615886982021063,-6.500330887926669e-05,-6.11280354995142e-05,0.0041165314614772,0.0185445193201303,-0.009998932480812,-0.0202468428760767,0.0030833845958113,-0.9787375926971436,0.2040913850069046,-0.0052184527557583,-0.0130467580485179,-0.0177815587159789,0.091345191001892,0.0624111890792846,-0.5160741806030273,20,358,12547,19818
14.5,1788524988229,4.816901206970215,5.211267471313477,-0.0200520940124988,0.0045127607882022,-0.990964412689209,0.1325408518314361,0.1866990064620484,-0.0009745540734272,6.102606732565999e-07,0.0,0.0,0.0,-0.0195338279008865,0.0028395494446158,-0.9787337183952332,0.2041827887296676,0.0035390973753449,0.0362015976130886,0.0021951774467065,-0.0770811438560485,0.0229127407073974,-0.5628623962402344,13,367,12405,19649
14.6,1788524988329,4.507042407989502,5.549295902252197,-0.0180876441299915,0.0041554025374352,-0.990895450115204,0.1333479881286621,0.1683630222115323,0.004034680815384,-9.658852361243328e-05,0.0113574424758553,0.0387355089187622,0.0339824222028255,-0.0175460074096918,0.0027161566540598,-0.9781826734542848,0.2069868743419647,0.0129242082524112,0.0323079056074982,0.0972771225900019,-0.2078459858894348,-0.0517135262489318,0.0251531600952148,9,368,11536,20659
14.7,1788524988429,4.647887229919434,5.633802890777588,-0.0169028658419847,0.0036857889499515,-0.9902946949005128,0.1379026770591735,0.1630009164494836,0.0070515314196654,-2.851609286559039e-05,0.0191126205027103,0.0195328164845705,0.1358986347913742,-0.015384005382657,0.0022672433406114,-0.9770528674125672,0.2124287635087967,0.0234716095449737,0.0787559838762852,0.1197314594326248,0.0348854660987854,-0.1567264199256897,0.7032356262207031,21,358,11379,20201
14.8,1788524988529,4.957746505737305,5.239436626434326,-0.0151227880269289,0.0029532029293477,-0.9895204305648804,0.1435687839984893,0.1719777216806274,0.0036922905790091,1.772101142269441e-05,0.0178355518728494,-0.0035641940776258,0.1000526472926139,-0.015484563075006,0.0022820644080638,-0.9761784672737122,0.2164040207862854,-0.0353165645733136,-0.0141166319364869,0.0355570061658014,-0.0898818373680114,0.0610215067863464,0.9088563919067384,18,405,12489,19432
14.9,1788524988629,4.873239517211914,5.267605781555176,-0.0187628678977489,0.00308488169685,-0.989098846912384,0.1460198163986206,0.1664554204770286,0.0028733275601469,0.0003285079519974,-0.0006841100403107,-0.1504980772733688,0.0591701231896877,-0.0165134370326995,0.0024488279595971,-0.9760190844535828,0.2170439660549163,-0.0095223012478847,0.0414427415443869,-0.0353734561763906,0.1786688566207885,0.7739434242248535,-0.0052223205566406,41,346,13490,19463
15.0,1788524988729,5.183098793029785,5.154929637908936,-0.0152517491951584,0.00408626627177,-0.989277482032776,0.1451918482780456,0.1663436139043724,0.0057955595542237,-0.0001238750800547,-0.0175554081797599,0.0593040362000465,-0.0198725201189517,-0.0152330603450536,0.0032782834023237,-0.976152002811432,0.2165285050868988,-0.0156325767301514,0.0279730704202587,-0.0215100107250494,-0.2312639355659485,0.1150832176208496,-0.3760824203491211,13,361,11394,19571
15.1,1788524988829,4.8450703620910645,5.126760482788086,-0.0141811007633805,0.0045596631243824,-0.9893442988395692,0.1448310166597366,0.1748320976735544,-0.0009996823601283,-0.0001272078839997,-0.0009818392572924,0.0243127960711717,-0.0041579129174351,-0.0140168825164437,0.0041374051943421,-0.9762208461761476,0.2162852734327316,-0.0285440155622174,0.0408699386003337,0.0051665335548045,0.2758459448814392,-0.1114317178726196,-0.7939949035644531,78,331,14116,18596
15.2,1788524988929,5.042253494262695,5.098591327667236,-0.0129993893206119,0.0031915684230625,-0.9891334176063538,0.1464099138975143,0.169578299008407,-0.0015770486897687,7.254204290634715e-05,0.0430523045361042,-0.0580418594181537,0.0374872758984565,-0.0155677432194352,0.0014523146674036,-0.976301610469818,0.2158489227294922,0.00969249061026,-0.0649604824687777,-0.0742489466838261,-0.5510929226875305,-0.4311767220497131,-0.0312356948852539,64,266,14174,17572
15.3,1788524989029,4.732394218444824,4.816901206970215,-0.0159284565597772,0.0024685985408723,-0.989621639251709,0.1427903026342392,0.1688682123858476,-1.0119573980063736e-05,9.264399755262004e-05,0.0011556273093447,-0.0425658747553825,-0.1055886819958686,-0.0159090794622898,0.0010922327637672,-0.9774182438850404,0.2107114195823669,-0.0121385521161399,0.0481066887411285,-0.1381359905306003,0.5258851051330566,-0.1842682957649231,-1.6501340866088867,54,458,14114,20235
15.4,1788524989129,4.2816901206970215,5.633802890777588,-0.0118240658193826,0.0028038842137902,-0.9905142784118652,0.1368714123964309,0.158003562144869,0.0011341653983154,-0.0005416297756534,-0.0013353001559153,0.1633367389440536,-0.0932495445013046,-0.0124923298135399,0.0020181247964501,-0.977975606918335,0.2083352357149124,-0.0203097803957154,-0.0271058412735782,-0.0381337103051091,-1.230346918106079,-0.0627543926239013,-0.3687295913696289,21,397,11966,20829
15.5,1788524989229,4.366197109222412,5.77464771270752,-0.0123096322640776,0.0030981781892478,-0.9900035858154296,0.140469416975975,0.1676946971371949,0.004832077878443,-4.748472432592719e-05,-0.0075605846941471,-0.0040555670857429,0.1167252361774444,-0.0125662647187709,0.0021623848006129,-0.977116584777832,0.2123219817876815,-0.0021658660926122,-0.0317231817097883,0.116419937449508,-0.1049308776855468,0.0102490186691284,0.2886972427368164,22,313,12176,19649
15.6,1788524989329,4.563380241394043,5.492957592010498,-0.0136832408607006,0.0035179283004254,-0.9892587065696716,0.1454912573099136,0.1613813046498365,0.0039579259454342,1.317604932636335e-05,-0.0134892193600535,0.0013878103345632,0.0872068032622337,-0.0138989156112074,0.0025724787265062,-0.9760154485702516,0.2172420173883438,-0.0284478211735719,0.0086702680342798,0.0787581821445307,0.073893129825592,-0.1521165370941162,0.4348621368408203,37,362,11537,20436
15.7,1788524989429,4.309859275817871,5.88732385635376,-0.0150713007897138,0.0035908238496631,-0.9882128834724426,0.1522996872663498,0.159846993537233,0.0075112187595647,8.369819938674744e-05,-0.0022270383778959,-0.0079377042129635,0.1751625090837478,-0.0152828628197312,0.0025158803910017,-0.9731824398040771,0.2295127958059311,0.00225852190302,-0.0114880221242321,0.1900546722982756,0.0384984612464904,0.0333560109138488,0.0255184173583984,11,390,9749,21856
15.8,1788524989529,4.760563373565674,5.492957592010498,-0.0151002425700426,0.0037145819514989,-0.9864065647125244,0.163585364818573,0.1688971590818578,0.0049827988697263,6.838402764791608e-05,-0.0003414530947338,-0.0002631954557728,0.2155516892671585,-0.0148611776530742,0.0023381244391202,-0.9705486297607422,0.2404351234436035,0.0241155229744926,0.0031056311974873,0.2369297182575625,0.1680747270584106,-0.1400806903839111,-0.4009313583374023,101,237,13262,18306
15.9,1788524989629,4.619718074798584,5.436619758605957,-0.0146158626303076,0.0034009316004812,-0.9852012395858764,0.1707436591386795,0.1766685170662905,-0.002263444656836,-8.643244435000722e-07,0.0045780842192471,0.0020761655177921,0.0681505873799324,-0.0147709222510457,0.0022543501108884,-0.9695236682891846,0.2445414811372757,0.0026583127591579,-0.0199545519728549,0.0963226170193735,-0.147258460521698,-0.1461060643196106,0.0730762481689453,20,356,11588,20128
16.0,1788524989729,4.422535419464111,5.464788913726807,-0.0162505097687244,0.0030406771693378,-0.984423816204071,0.1750324368476867,0.168617853261978,0.0010578221470392,0.0002207808618739,0.0004248404293321,-0.0702820494771003,0.0722071230411529,-0.0162110049277544,0.0017938055098056,-0.968714714050293,0.2476404458284378,0.0020497995846585,0.0228905036029779,0.0628757159604393,0.0936802625656127,-0.0031401515007019,0.5579061508178711,40,391,12186,20756
16.1,1788524989829,4.619718074798584,5.295774459838867,-0.0161782465875148,0.0029723420739173,-0.983900785446167,0.1779568195343017,0.1592321997787213,0.0028189335758441,-1.892861676911169e-05,-0.0016638861270621,6.457159179262817e-05,0.0871919617056846,-0.0164971444755792,0.0017525162547826,-0.9681681394577026,0.2497502267360687,-0.0029160631496513,-0.0105168914972177,0.0741904138152168,-0.1412280201911926,0.1160154938697815,-0.1106138229370117,29,335,13360,19483
16.2,1788524989929,4.8450703620910645,5.183098793029785,-0.0160864610224962,0.0031430113594979,-0.9835317134857178,0.1799907684326172,0.1762404318093924,0.0039718854672633,7.810245433272305e-07,0.0,0.0,0.0,-0.0164094604551792,0.0019784122705459,-0.9676823616027832,0.2516302764415741,0.0035361674047456,-0.036772170135218,0.0161059989713253,-0.0030623078346252,0.0387327671051025,-0.4912195205688476,32,343,13164,19355
16.3,1788524990029,5.126760482788086,5.154929637908936,-0.0159676168113946,0.0032266566995531,-0.9834550619125366,0.1804180890321731,0.175710582242978,-8.013105510988886e-05,-7.91368026271075e-07,0.0,0.0,0.0,-0.0144542511552572,0.0027144560590386,-0.9678082466125488,0.2512588500976562,-0.0146725019321067,0.0618824388313607,-0.0341407195019382,-0.001924455165863,-0.1146956086158752,0.7187280654907227,48,327,13288,18313
16.4,1788524990129,5.436619758605957,4.929577350616455,-0.0147894937545061,0.0036128570791333,-0.9836938977241516,0.1792057603597641,0.1673625722969587,0.0009642664472079,-3.767965504290656e-05,-0.0047287507914006,-0.0128067666664719,-0.0564542151987552,-0.0131484828889369,0.0017930623143911,-0.9681354761123656,0.250075101852417,0.0769785479942141,0.111489021986528,-0.0116365944086725,0.484455943107605,0.0444821715354919,-0.068307876586914,75,164,15596,15009
16.5,1788524990229,5.549295902252197,4.478873252868652,-0.0108276950195431,0.004497418180108,-0.9860799312591552,0.1658581793308258,0.1773141147083003,-0.0001733193578115,0.0001962958426904,-0.0326034724712371,-0.0721325501799583,-0.2552773952484131,-0.0129781048744916,0.003703074529767,-0.9722510576248168,0.2335502058267593,-0.0303995823220984,-0.1143960355554035,-0.2344257422590017,-0.1683883666992187,0.0108222365379333,0.0028543472290039,26,307,14379,16814
16.6,1788524990329,5.521126747131348,4.2816901206970215,-0.0146460821852087,0.0044771116226911,-0.9871116280555724,0.159298375248909,0.1614329126174388,-0.0016191384790294,0.0004717616171161,-0.0192209500819444,-0.105424478650093,-0.1882572472095489,-0.0153641374781727,0.0038440730422735,-0.9741541147232056,0.2253284007310867,-0.0227749972746989,-0.0164314560808272,-0.1864908823860573,0.1029397845268249,-0.602154016494751,0.3986186981201172,77,412,15204,18480
16.7,1788524990429,5.521126747131348,4.732394218444824,-0.0145115610212087,0.0052004810422658,-0.988366425037384,0.151308000087738,0.1636506451050768,-0.0006108645391932,2.8003368155385097e-05,-0.0167203154414892,0.0138651067391037,-0.1731759309768676,-0.0137071218341588,0.0048789270222187,-0.9759001135826112,0.2177324891090393,-0.0139704775879459,0.0255711634770916,-0.164914906477579,0.1786425113677978,-0.0420460104942321,-0.0991506576538086,61,294,15668,17080
16.8,1788524990529,5.577464580535889,4.704225540161133,-0.0115376049652695,0.0068745100870728,-0.989771604537964,0.1420271247625351,0.1733246020849028,-0.0017343494274759,-0.0001538448215778,-0.037039715796709,0.0882979482412338,-0.2123624831438064,-0.0116310408338904,0.0055043762549757,-0.9779343605041504,0.2085159420967102,0.0282716844970199,-0.0500117420942775,-0.2091822025698699,-0.5232900977134705,0.270774245262146,-0.2225990295410156,34,246,14692,16098
16.9,1788524990629,5.323943614959717,4.760563373565674,-0.0136045906692743,0.0057731801643967,-0.9914471507072448,0.1296693682670593,0.1567692294854676,-0.0057459225317792,0.0001492492062883,-0.0018877679249271,-0.0329768024384975,-0.1687823832035064,-0.0139774354174733,0.0047733392566442,-0.9794062972068788,0.2013581544160843,-0.0158388592970204,-0.0023491034429849,-0.1925206090549164,0.1666492223739624,0.0513696670532226,-0.0498523712158203,44,357,13826,18593
17.0,1788524990729,5.267605781555176,4.8450703620910645,-0.0169423297047615,0.0051743984222412,-0.9921871423721312,0.1234941855072975,0.1647341143008159,0.0002168536207235,0.0001334460458984,-0.0009435067186132,-0.0775460377335548,-0.0920291244983673,-0.0176236368715763,0.0039555458351969,-0.9807097315788268,0.1946338862180709,-0.0042980570290593,-0.0640588568062371,-0.0857196350261359,0.1343622803688049,-0.0214964747428894,-0.1485633850097656,35,350,13937,18627
17.1,1788524990829,5.183098793029785,5.014084339141846,-0.0159036442637443,0.0053745494224131,-0.9924036264419556,0.1218742132186889,0.1607786518001892,-0.0024398598959357,6.441214289320827e-06,-0.0038664867170155,0.0427028834819793,-0.0650253146886825,-0.0149522814899683,0.0043232515454292,-0.9813237190246582,0.191733181476593,0.0058957106454899,0.0435512841469322,-0.0585965444220224,0.0526759624481201,0.1065255999565124,-0.2668209075927734,74,338,14636,18516
17.2,1788524990929,5.352112770080566,4.929577350616455,-0.0135533651337027,0.0054191309027373,-0.9928185939788818,0.1187363564968109,0.1623678760452116,-0.000174291471932,-0.0001439803492533,0.0084951538592576,0.0583348833024501,-0.0546696744859218,-0.0130310552194714,0.0044062146916985,-0.9819915890693665,0.188423603773117,0.0053726264537278,0.0287937230142319,-0.079679756701934,-0.0390828847885131,0.2055951356887817,0.8170080184936523,38,273,13845,17644
17.3,1788524991029,5.267605781555176,4.816901206970215,-0.0138273425400257,0.0051950081251561,-0.9935951232910156,0.1120298355817794,0.1725609396793016,8.5564523678733e-05,0.0001209199057651,-0.0022952789440751,-0.0401101000607013,-0.0953971073031425,-0.0149189112707972,0.0040349923074245,-0.9830761551856996,0.1825442463159561,-0.0004197353766279,-0.0524700531759933,-0.1003436357119352,-0.0077614784240722,0.2832223773002624,0.2531652450561523,56,323,13876,18043
17.4,1788524991129,4.619718074798584,5.070422649383545,-0.0163680873811244,0.0048031760379672,-0.9939037561416626,0.1089237630367279,0.1668952367542379,-0.0007877315866431,0.0001109893362016,-0.0074557834304869,-0.0332526974380016,-0.0150780603289604,-0.016938054934144,0.0036872373893857,-0.983376681804657,0.1807477623224258,-0.0160678751589749,-0.0040568882024759,-0.019083430416622,0.2299606800079345,-0.4230290055274963,0.2995233535766601,26,398,13606,20013
17.5,1788524991229,5.014084339141846,5.323943614959717,-0.0167045183479785,0.0050057829357683,-0.993926465511322,0.1086558848619461,0.1762535914921792,-0.0024144290732734,1.915934776638399e-07,-0.0094942599534988,-0.0121729373931884,-0.0104632666334509,-0.0158318765461444,0.0043219262734055,-0.9834893345832824,0.1802203208208084,-0.0021286488392649,0.0790098258557238,-0.0059958433430077,0.2388607263565063,0.5180535316467285,-0.5657138824462891,55,378,12757,19545
17.6,1788524991329,4.535211086273193,5.267605781555176,-0.015447199344635,0.005857469048351,-0.9940275549888612,0.1078716143965721,0.1855342821595062,-0.0020053006701383,-2.357254180454865e-05,-0.0160978715866804,0.0044569731689989,-0.012861349619925,-0.0153156854212284,0.0043589444831013,-0.9835357666015624,0.1800107210874557,0.0045832492660043,0.0592510837177492,0.0227374292637908,0.3267707824707031,-0.3577325940132141,-0.0724153518676757,32,343,13747,19121
17.7,1788524991429,4.619718074798584,5.183098793029785,-0.0144545240327715,0.0056450855918228,-0.994070291519165,0.1076262295246124,0.1803917702775689,-0.0029189092589805,5.727937869870062e-07,-0.0088508361950516,0.0078541319817304,-0.0175046566873788,-0.0146194025874137,0.0047430442646145,-0.983802616596222,0.1785953044891357,0.0022456593678752,0.0128107651813268,-0.0251737393344809,0.1637454032897949,-0.1596211791038513,0.4969444274902344,32,377,13442,19333
17.8,1788524991529,5.183098793029785,5.042253494262695,-0.01419448107481,0.0056286649778485,-0.9942336082458496,0.106142520904541,0.1763838155185008,-0.0025038123073005,2.082101385204121e-07,-0.0016798437573015,-0.0001231150527019,-0.0104650119319558,-0.0145522151142358,0.0045897709205746,-0.983918070793152,0.1779673546552658,-0.0005555960246533,0.0035279810895302,-0.02599852584488,-0.1056559681892395,-0.0032190680503845,0.0024614334106445,62,366,13312,19034
17.9,1788524991629,5.239436626434326,4.985915660858154,-0.0144154205918312,0.0060274195857346,-0.9943609833717346,0.1048905849456787,0.1743206450388581,-0.0058383027302026,2.5396378366290327e-05,-0.0171706955879926,-0.006620779633522,-0.0492696389555931,-0.014302316121757,0.0057904440909624,-0.9844491481781006,0.1749913245439529,-0.0186464080202932,0.0334654194449027,-0.0338832795754809,-0.0110523104667663,0.00376558303833,0.0245237350463867,43,338,12715,19188
18.0,1788524991729,5.070422649383545,5.042253494262695,-0.013578369282186,0.0069761895574629,-0.994637966156006,0.102285236120224,0.1771109194652105,-0.0053279622465536,-9.254743914189038e-05,-0.0124640772119164,0.0288332682102918,-0.0408005900681018,-0.0135428514331579,0.0058371219784021,-0.9847040772438048,0.1736101657152176,0.0061872212596982,0.0439725064244783,-0.0336599861802482,0.1310775279998779,-0.0557294487953186,0.0208797454833984,86,371,13371,18689
18.1,1788524991829,4.985915660858154,5.014084339141846,-0.0134458281099796,0.0066274041309952,-0.9948386549949646,0.1003556996583938,0.1784111937157239,-0.0053747153968868,0.0001100279962133,0.0045420341193675,-0.0278670378029346,-0.0319528467953205,-0.0139737091958522,0.0055345250293612,-0.984941840171814,0.1722316294908523,0.0087499706119727,-0.0161019181460369,-0.0280299150876081,-0.0531963109970092,-0.0732660889625549,-0.1992149353027343,40,355,13763,18708
18.2,1788524991929,5.098591327667236,5.154929637908936,-0.0122333643957972,0.0057376879267394,-0.9950622320175172,0.0983290076255798,0.180430753010227,-0.0060241066324721,2.407089380972405e-05,0.0268325041979551,0.0149160493165254,-0.0332824476063251,-0.0114697637036442,0.0051209218800067,-0.9853854775428772,0.169875830411911,-0.001637576723259,0.1096699170272491,-0.0456509263559443,-0.0468121170997619,0.3065329194068908,0.3127498626708984,16,285,13208,18045
18.3,1788524992029,4.901408672332764,5.070422649383545,-0.0109889507293701,0.0066432505846023,-0.9953279495239258,0.0956943482160568,0.1745384706307545,-0.0038031076734091,-0.0003015007852342,-0.0323130264878273,0.053720124065876,-0.1049733608961105,-0.0137972338125109,0.0056355353444814,-0.9858108162879944,0.1671976149082183,-0.0104102620732909,-0.0153088250321182,-0.0243086642372328,0.3707789778709411,-0.0531831383705139,-0.1457233428955078,21,285,13419,18488
18.4,1788524992129,4.8450703620910645,5.323943614959717,-0.0115742068737745,0.0069483700208365,-0.9954612851142884,0.0942049622535705,0.172492893204055,-0.0055678614014376,-0.00028051860487,-0.0091774184256792,0.0864468067884445,-0.0380455702543258,-0.0106678865849971,0.004733701236546,-0.9859620928764344,0.1665610671043396,0.0937647660471027,0.0550643979012588,0.0359754022283449,-0.0368653535842895,-0.457019567489624,-0.6509981155395508,19,419,11132,21189
18.5,1788524992229,4.563380241394043,5.633802890777588,-0.0139305461198091,0.0044284048490226,-0.9951555132865906,0.0972201004624366,0.1789512240994661,-0.0007221113645667,0.0005111835724341,0.0249031297862529,-0.1243790239095687,0.0940339863300323,-0.0132537204772233,0.0034178541973233,-0.9847047328948976,0.1736928075551986,0.0016187526199907,0.0559359422527874,0.1344051229280443,0.3967317938804626,-0.413636565208435,0.2064876556396484,33,365,11383,21008
18.6,1788524992329,4.253520965576172,5.97183084487915,-0.012577879242599,0.0044646323658525,-0.9945404529571532,0.1034942790865898,0.1828802210132424,0.0055055972603024,-0.0002290718237741,0.0007128761499188,0.0344862304627895,0.1158616468310356,-0.0142395459115505,0.0029401592910289,-0.9835475087165833,0.1800636351108551,0.01586901080712,-0.060241366722349,0.1954336090645697,-0.2406870126724243,0.0410374402999877,-0.1616725921630859,8,367,9207,21481
18.7,1788524992429,3.746478796005249,5.7183098793029785,-0.0146606303751468,0.003635665634647,-0.9935588240623474,0.1123062074184417,0.1691712572442291,0.0075858131804074,0.0001047636765822,0.0143120847642421,-0.038545437157154,0.2070638686418533,-0.0129787689074873,0.002745441161096,-0.981759250164032,0.1896646916866302,0.0078284966723459,0.1329488104356324,0.2269644993522868,-0.4065406322479248,0.2312968373298645,1.059286117553711,60,478,12224,22718
18.8,1788524992529,4.14084529876709,6.02816915512085,-0.0113121094182133,0.0035805474035441,-0.9923311471939088,0.1230367347598075,0.1813897122832119,0.0061996737722147,-0.0003265811917205,0.0140014123171567,0.0400775037705898,0.2087261825799942,-0.0104635888710618,0.0032193129882216,-0.979375422000885,0.2017521411180496,-0.0156290206713277,0.0083318419204184,0.1763307239463555,-0.1360348463058471,-0.093936800956726,-0.1498556137084961,11,305,10931,20437
18.9,1788524992629,4.591549396514893,5.633802890777588,-0.0105687109753489,0.0034195522312074,-0.9905696511268616,0.1365595012903213,0.1832429871758104,0.0023004013825541,3.133617939447011e-06,0.0198161173611879,0.0049279802478849,0.1593781858682632,-0.01047492492944,0.002587023191154,-0.9777736067771912,0.2093857228755951,0.0157790462997039,0.025284999576069,0.1307727261307173,-0.0963741540908813,0.426813542842865,0.4001178741455078,48,237,12032,18517
19.0,1788524992729,4.647887229919434,5.408450603485107,-0.0114674037322402,0.0032521856483072,-0.98997300863266,0.1407525837421417,0.1756097193496262,0.0123791553432877,0.000136953787555,-0.0067449957132339,-0.0526100285351276,0.064045563340187,-0.0116808423772454,0.0024565113708376,-0.9771315455436708,0.2123004645109176,-0.0073795215387127,-0.0503109381269702,0.0631277434053673,0.0763400197029113,-0.4799979925155639,0.0415096282958984,18,367,11373,19833
19.1,1788524992829,4.535211086273193,5.492957592010498,-0.0117999715730547,0.0029746836517006,-0.9896990656852722,0.1426454037427902,0.1731462327129188,0.0034270968893774,6.32794898531715e-05,0.0099336635321378,-0.0150803355500102,0.0762080028653144,-0.0122382128611207,0.0019608754664659,-0.9759964942932128,0.2174334824085235,-0.0018515481699448,-0.0018238360754964,0.0966483148921536,0.2009671926498413,0.0173735618591308,-0.0203571319580078,30,422,11863,20585
19.2,1788524992929,4.760563373565674,5.267605781555176,-0.0112914610654115,0.0028428740333765,-0.9890303015708924,0.1472530663013458,0.1811421060274868,0.0070410024141865,-4.3909996968922513e-05,0.0072128749452531,0.0335232317447662,0.0960684791207313,-0.0115264691412448,0.002386306412518,-0.975543975830078,0.2194892466068267,-0.0101387226332537,-0.0120805819987748,0.0072378051669339,0.0155419707298278,-0.0002911686897277,-0.0399713516235351,36,306,13395,18594
19.3,1788524993029,4.816901206970215,5.295774459838867,-0.0111084636300802,0.0032679804135113,-0.9888719916343688,0.1483174562454223,0.1789892491405708,0.0041451297304885,-2.716712110456956e-05,-0.0031110642012208,0.0118733774870634,0.0227522030472755,-0.0102595705538988,0.0026212055236101,-0.9753122925758362,0.2205763459205627,0.0023217668794116,0.0364525942206413,0.0121809816172954,-0.050916314125061,-0.0770533680915832,0.2943115234375,22,300,13835,17535
19.4,1788524993129,5.070422649383545,5.042253494262695,-0.0102748405188322,0.0031209453009068,-0.9887305498123168,0.1493205726146698,0.1839594510097882,-0.0002569402110737,5.715164973599861e-07,0.0058114170096814,-0.010970339179039,0.0095757199451327,-0.0101033700630068,0.0022178823128342,-0.9754799604415894,0.2198449224233627,-0.0008915948839756,0.0275342753774799,-0.0358474223749595,0.0483028292655944,-0.3860578536987304,0.114847183227539,44,297,13527,17449
19.5,1788524993229,5.014084339141846,4.985915660858154,-0.0098570892587304,0.002778229303658,-0.9889711141586304,0.1477540582418441,0.1801720733061513,-0.0076994896916395,-8.417450766821986e-05,0.0062893801368772,0.0178770329803228,-0.0434927493333816,-0.0104090329259634,0.0016946299001574,-0.9759422540664672,0.217773899435997,0.0192155979401882,-0.0037515291830693,-0.042452260459252,-0.001065969467163,0.0612862706184387,0.0837888717651367,50,298,13541,17855
19.6,1788524993329,5.154929637908936,4.957746505737305,-0.0104032885283231,0.0026109269820153,-0.989376187324524,0.1449817419052124,0.1716106233030655,-0.006392086540393,1.6775726898337262e-05,-0.0027459505945444,-0.0064626587554812,-0.0693089067935943,-0.0107522057369351,0.0016852524131536,-0.976626753807068,0.2146665453910827,-0.0002586625314095,-0.0136949016194959,-0.0692467493802787,-0.1290903687477111,-0.0626350045204162,-0.079324722290039,30,335,13088,18512
19.7,1788524993429,4.929577350616455,4.985915660858154,-0.0107993949204683,0.0022183726541697,-0.9896907210350036,0.1427963078022003,0.1719147389268117,-0.0018786612101816,2.856054126642218e-05,0.0114733874797821,-0.0130659043788909,-0.0277678463608026,-0.0109949195757508,0.0012883320450782,-0.9770222902297974,0.2128497064113617,0.0110903658340445,0.0187417987439057,-0.0456610077562151,0.0614580512046813,0.2587400674819946,-0.2823143005371094,28,369,13792,19092
19.8,1788524993529,5.014084339141846,4.563380241394043,-0.0065097357146441,0.0016522468067705,-0.9901940226554872,0.139537826180458,0.1705397211706111,-0.0088202168909529,-0.0004753377400718,0.0033717630431056,0.1757200360298156,-0.05354630574584,-0.0065675033256411,0.0016915146261453,-0.9777438640594482,0.2096924036741256,-0.0600844394938214,0.0475907461033738,-0.1820042649668673,-0.2014870643615722,0.3095563650131225,-0.1543254852294922,41,463,13859,20383
19.9,1788524993629,4.985915660858154,5.098591327667236,-0.0121539896354079,0.0027345577254891,-0.9904868006706238,0.1370424330234527,0.1800060939506271,0.0008191704134731,0.0004383217262659,-0.0342995785176754,-0.1507770270109176,-0.0294506400823593,-0.0129237789660692,0.0018323333933949,-0.977908194065094,0.2086269259452819,-0.0322293453741767,-0.1640559906111793,-0.0309113320682866,0.0106033086776733,-0.7478490471839905,0.2573213577270508,17,318,13205,18617
20.0,1788524993729,4.450704097747803,5.577464580535889,-0.0137763796374201,0.0027625076472759,-0.9906274676322936,0.1358668655157089,0.1731508916343208,-0.0084801958546369,0.0002779458255651,-0.0112132104113698,-0.0679020956158638,-0.0504637286067009,-0.014849754050374,0.0015587229281663,-0.9778969883918762,0.2085533142089843,-0.0064150013694474,-0.0419524022838619,0.0582726773702334,-0.2695005536079407,0.4165270328521728,-0.7101821899414062,30,392,11987,21005
20.1,1788524993829,4.366197109222412,5.549295902252197,-0.0148647855967283,0.0030456206295639,-0.9902388453483582,0.1385528147220611,0.1676045273087217,0.0134792787090428,1.7967556610032302e-05,-0.0189383085817098,-0.0055098631419241,0.0802267342805862,-0.0113874990493059,0.0036761844530701,-0.9769322872161864,0.2132138013839721,-0.0249449825719399,0.1759686050529745,0.0999440620768409,0.0391417741775512,0.0828357338905334,0.5677471160888672,33,349,12306,20976
20.2,1788524993929,4.3380279541015625,5.605633735656738,-0.0130238328129053,0.0035926876589655,-0.9890732169151306,0.1468044966459274,0.1709435928132993,0.0058027333539742,0.0002558521681224,0.0194194950163364,-0.0649488642811775,0.1476550847291946,-0.0131934778764843,0.002595791593194,-0.9756450653076172,0.2189428955316543,0.0129445365045257,-0.0079743921401118,0.1600752975912081,0.1743004918098449,-0.025890827178955,0.0623092651367187,33,322,12365,19541
20.3,1788524994029,4.647887229919434,5.154929637908936,-0.0131628727540373,0.0035484046675264,-0.988307237625122,0.1518649160861969,0.1757114395683043,0.0039595061964674,4.277508626041238e-05,-0.0033716273028403,0.0055545656941831,0.0885147973895073,-0.013377278111875,0.0025816364213824,-0.9746411442756652,0.2233584374189376,-0.0121225411452317,0.0315316681759048,0.0720163088939989,0.1615539789199829,-0.0480758547782897,-0.1264190673828125,48,340,14430,19134
20.4,1788524994129,4.985915660858154,5.239436626434326,-0.0136248599737882,0.0035594087094068,-0.9882451891899108,0.1522276401519775,0.1718432293657971,-0.0055593615992666,6.809869049426533e-05,-0.0028896452859044,-0.0172673892229795,0.0138443140313029,-0.0174739360809326,0.0022154841572046,-0.9746487736701964,0.2230460792779922,-0.014993330044911,-0.1221159942393318,-0.0015912279036855,0.0453948378562927,0.2382277250289917,0.5441350936889648,22,338,12566,18944
20.5,1788524994229,4.873239517211914,5.126760482788086,-0.0161593668162822,0.003737909020856,-0.988334059715271,0.1513962000608444,0.1797339616773969,-0.0015210233812192,-3.097801361948478e-05,-0.0090587502345442,0.0498157702386379,-0.0085903219878673,-0.0157087072730064,0.0027869176119565,-0.9747564792633056,0.222700223326683,-0.011129447268952,0.0848310325304043,-0.0231247766307551,0.2940847873687744,-0.3244279623031616,1.046818733215332,48,396,13451,20147
20.6,1788524994329,4.901408672332764,5.352112770080566,-0.014965328387916,0.0041079153306782,-0.9883925318717957,0.1511266380548477,0.1770706024465333,0.0029585455216833,-1.1426897145169743e-06,0.0,0.0,0.0,-0.0148430010303854,0.0030215168371796,-0.9747062921524048,0.2229761332273483,0.0073441196387726,0.0091151186617962,0.0196665051374888,0.020309567451477,-0.0317786335945129,-0.0956983566284179,17,325,12716,18807
20.7,1788524994429,5.295774459838867,4.8450703620910645,-0.0147577878087759,0.0038115724455565,-0.9882193803787231,0.152283176779747,0.178361576848064,-0.0025513168671925,2.4732222260259645e-05,0.0065925382077693,-0.0068175247870385,0.0169882476329803,-0.0152099374681711,0.0025072740390896,-0.974435031414032,0.2241403758525848,0.0082467264885067,-0.0166998095127762,0.0220435581600609,0.227388322353363,-0.0316898822784423,-0.2073574066162109,110,207,15997,15691
20.8,1788524994529,5.88732385635376,4.478873252868652,-0.0134586691856384,0.0038489182479679,-0.9886263608932496,0.149739533662796,0.1735863812138675,-0.0099127623877462,-3.366149691324662e-05,0.0049856342375278,0.0520829036831855,-0.1025601923465728,-0.0118840672075748,0.00328538287431,-0.9768114686012268,0.2137457281351089,-0.0106212026413777,0.0283078646316363,-0.2802865687165274,-0.1329875588417053,-0.1635136604309082,-0.1406316757202148,54,275,15356,16077
20.9,1788524994629,5.549295902252197,4.478873252868652,-0.0113265858963131,0.0040132952854037,-0.9904465675354004,0.1373724937438964,0.1752197172639091,-0.0080776714335337,-8.193452186498035e-05,-0.001400604029186,0.0156304761767387,-0.2389655858278274,-0.0128112873062491,0.0027837138622999,-0.9788752794265748,0.2040375471115112,0.0062790718063738,-0.0710650099545681,-0.2161192130360154,-0.0182092189788818,0.3806387186050415,0.0027713775634765,29,346,14676,16865
21.0,1788524994729,5.098591327667236,4.647887229919434,-0.015994781628251,0.0032652197405695,-0.9922137260437012,0.1234727501869201,0.1670923465672014,-0.0095020773829342,0.0001511839748951,0.0059723388403654,-0.0354142561554908,-0.1745166480541229,-0.0163186285644769,0.0020508738234639,-0.9805353879928588,0.1956527978181839,0.0099512272926662,-0.0327457713207938,-0.1913994712378221,0.1479824781417846,0.0926500558853149,-0.030034065246582,55,411,14258,19337
21.1,1788524994829,4.957746505737305,4.929577350616455,-0.0152690978720784,0.0030728997662663,-0.9928635358810424,0.1182346120476722,0.1798924977314411,-0.0057317458592513,-7.662103254008812e-06,0.0011677236761897,0.0179426707327365,-0.0871172994375228,-0.015028310008347,0.0020697750151157,-0.9817577600479126,0.1895297169685363,-0.0041067350832258,0.0478816454567734,-0.0652510571257393,0.0825951695442199,0.1586860418319702,-0.3595418930053711,39,387,15008,18755
21.2,1788524994929,5.323943614959717,4.929577350616455,-0.0143135506659746,0.0033771959133446,-0.9930700659751892,0.1165997311472892,0.1765741248834213,-0.0057810718937389,-0.0001536232534953,-0.0083730071783065,0.038943450897932,-0.064327023923397,-0.0136439576745033,0.0023215431720018,-0.982274293899536,0.1869377344846725,0.0066241521896667,0.0250371650517837,-0.0520986042410681,-0.1147162318229675,-0.1013936996459961,-0.0401554107666015,33,276,13813,17641
21.3,1788524995029,5.014084339141846,4.957746505737305,-0.0159344598650932,0.0035380332265049,-0.9933908581733704,0.1136138215661048,0.173074339385691,0.0030468715387198,0.0002703768359053,-0.0055294912308454,-0.0786313563585281,0.0329060181975364,-0.0162273552268743,0.0022488525137305,-0.9824801683425904,0.1856461018323898,0.0033146428422181,-0.0854995208238726,0.0516164856349978,0.0989059805870056,0.2726736664772033,-0.2913455963134765,103,313,14498,17815
21.4,1788524995129,5.380281925201416,4.929577350616455,-0.0138649437576532,0.0038925216067582,-0.993682026863098,0.1113040894269943,0.1859471626861885,-0.0067372376863575,-0.0001593112168757,-0.0051094759255647,0.0198339596390724,-0.1110768690705299,-0.0147768249735236,0.0027285078540444,-0.9833288192749025,0.1812141984701156,0.0019777191958514,-0.0579177689962241,-0.1619550647152654,-0.178439199924469,0.0767447352409362,-0.3941907882690429,68,276,14083,17716
21.5,1788524995229,4.8450703620910645,5.352112770080566,-0.0148866921663284,0.0038444676902145,-0.9940831661224364,0.1075284853577613,0.1810788763063019,-0.0047385877988375,0.0001447385627193,-0.0046674953773617,-0.0399899408221244,-0.1519450396299362,-0.0172853972762823,0.0021400088444352,-0.983613669872284,0.1794460564851761,-0.0011117966092882,-0.0679909997960433,0.0511638562117812,0.4454792737960815,0.247663140296936,-0.859832763671875,10,428,10008,20926
21.6,1788524995329,4.507042407989502,5.6619720458984375,-0.0154890930280089,0.0032905170228332,-0.9939101338386536,0.1090500801801681,0.1636385284556386,0.0044013574794329,5.543199666052548e-05,0.0138800060376524,0.0464304536581039,0.0871680378913879,-0.017502561211586,0.0031678508967161,-0.98316890001297,0.1818310618400573,-0.0444297770477894,-0.1842833567761388,0.0448231163606792,-0.5326321721076965,-0.1750733256340026,0.4750137329101562,10,502,11613,21547
21.7,1788524995429,5.154929637908936,4.901408672332764,-0.0166061408817768,0.0053943460807204,-0.9936501383781432,0.1111507415771484,0.1756701286225881,-0.0105969299881965,-0.0003324669154057,-0.0207291860133409,0.0608721002936363,-0.0100207244977355,-0.0169083196669816,0.0040058428421616,-0.9828425645828248,0.1836263090372085,-0.0218838807189869,0.0828553165109663,-0.027521719842793,0.5104695558547974,-0.1984076499938964,-0.0026054382324218,83,334,14062,19307
21.8,1788524995529,4.732394218444824,5.464788913726807,-0.012919396162033,0.0062703914009034,-0.9938461780548096,0.1098340973258018,0.1725549900601157,-0.0010918787392122,-0.0003383073296741,-0.0186072122305631,0.1457283794879913,-0.0500685311853885,-0.0153449131175875,0.003256682306528,-0.9826021790504456,0.1850592195987701,0.0415992530012177,-0.1599987989169543,0.1276334248476526,0.105957806110382,-0.4319009780883789,0.7735557556152344,43,280,13220,18208
21.9,1788524995629,4.816901206970215,5.154929637908936,-0.018017066642642,0.0036398265510797,-0.993302047252655,0.1140758767724037,0.1774938263461804,0.0013145898722731,0.0006505583174979,0.030752083286643,-0.1664448380470276,0.08283032476902,-0.0189463216811418,0.0018933797255158,-0.9822351932525636,0.1866857260465622,0.0069357477137885,-0.0275285906065197,-0.0064953107379152,0.4721656441688537,0.0069669485092163,0.4313917160034179,60,393,13794,19275
22.0,1788524995729,5.126760482788086,5.323943614959717,-0.0191447027027606,0.0032707063946872,-0.9932562112808228,0.1143024265766143,0.1883106362042011,-0.0091974131394927,0.0001940704534029,0.0035399822518229,-0.0353882350027561,-0.0153511613607406,-0.0196091271936893,0.001885250210762,-0.982460916042328,0.1854250282049179,-0.0133571400720741,-0.0105530261413147,-0.0272802381717144,-0.2517746090888977,0.0420750379562377,-0.2151165008544922,19,331,11938,18850
22.1,1788524995829,4.929577350616455,5.267605781555176,-0.0180251002311706,0.0036689401604235,-0.9934203624725342,0.1130377650260925,0.1678447852314921,-0.0007546255489122,6.528251988342532e-07,-0.0046527609229087,0.0496182516217231,-0.0175344031304121,-0.0144978109747171,0.0032329456880688,-0.98271507024765,0.184527575969696,-0.0115499408434348,0.1181126069775056,-0.0181098486538514,0.1554570198059082,0.0591920614242553,0.9096717834472656,34,390,13065,19812
22.2,1788524995929,5.183098793029785,5.014084339141846,-0.0140211973339319,0.004398129414767,-0.9936750531196594,0.1113282442092895,0.1836760655094785,-0.0080959075363459,-6.5315182514194485e-06,-0.0027591853868216,0.003812824608758,-0.0449569262564182,-0.0139886494725942,0.0033636512234807,-0.9830544590950012,0.1827485561370849,0.0033465215611036,0.0336898579444689,-0.0638778107764018,0.0554689168930053,0.137081503868103,0.0848598480224609,47,277,14256,17358
22.3,1788524996029,5.154929637908936,4.788732528686523,-0.0134839108213782,0.0044144350104033,-0.9940241575241088,0.1082340702414512,0.1761455084347088,-0.006787607362096,-0.000161958525488,7.058327173581347e-05,0.0221706721931695,-0.1244489029049873,-0.015309888869524,0.0031134216114878,-0.9838756322860718,0.1781706511974334,0.0026629348132257,-0.0610805822182431,-0.0799324581098378,0.041023313999176,-0.3081197142601013,0.105870246887207,56,309,14207,18115
22.4,1788524996129,5.126760482788086,4.873239517211914,-0.0160066410899162,0.0042106281034648,-0.9945471286773682,0.1029658913612365,0.1759256203860449,-0.0087501927383112,0.0001328470197145,-0.0041873529553413,-0.0344790183007717,-0.1175634711980819,-0.0167724322527647,0.0029891021549701,-0.9849297404289246,0.1721137017011642,0.0026074524335452,0.003869838375771,-0.0814435594997754,0.322811484336853,0.3831632733345032,-0.2582979202270508,66,359,14499,18538
22.5,1788524996229,5.267605781555176,4.957746505737305,-0.0171555895358324,0.0042692376300692,-0.9952734708786012,0.0954886376857757,0.1768357987155559,-0.0079863901932361,7.514562378388673e-05,-0.0052230060100555,-0.0325780063867569,-0.0988500043749809,-0.0171231981366872,0.0030157389119267,-0.9856523871421814,0.1678900122642517,-7.449187563302053e-05,-0.0408614831698181,-0.0730835781592919,0.0436614155769348,-0.425989031791687,0.1674728393554687,40,346,13831,18109
22.6,1788524996329,5.154929637908936,4.732394218444824,-0.0175760854035615,0.0041928081773221,-0.9955034255981444,0.0929861068725586,0.1693633884998112,-0.00419691052414,0.0001368352313635,-0.0002382795646553,-0.0162345599383115,-0.0993305146694183,-0.0177485533058643,0.0030269036069512,-0.9864149689674376,0.1632829010486602,-0.0106933103549911,0.0057267016761536,-0.1195122245083285,-0.131565511226654,0.3558602929115295,-0.5675563812255859,47,370,14248,18947
22.7,1788524996429,5.183098793029785,4.985915660858154,-0.0171032026410102,0.0045596784912049,-0.9959506988525392,0.0881416723132133,0.1738150148911143,-0.0092242061762994,-7.78318571428092e-05,-0.008950893767178,0.0082480562850832,-0.0981674045324325,-0.0181909427046775,0.0032406095415353,-0.98740553855896,0.1571270823478698,-0.0089364617282016,-0.0153416019703699,-0.0751339863977198,0.2128216028213501,0.1614723801612854,0.4806394577026367,38,320,14118,17897
22.8,1788524996529,5.154929637908936,4.8450703620910645,-0.0173438396304845,0.0045934543013572,-0.9964523315429688,0.0822240859270095,0.1722545285656302,-0.0072236633334717,-0.0001112144499264,-0.0039133047685027,0.0265677478164434,-0.1304500550031662,-0.016694201156497,0.0037461631000041,-0.9883865118026732,0.1509949564933776,-0.0123417437003871,0.0746966113678269,-0.1492782124303366,0.2659013867378235,0.1179889440536499,0.4830846786499023,56,434,14266,19109
22.9,1788524996629,5.267605781555176,4.760563373565674,-0.0175118334591388,0.0053544351831078,-0.9971275925636292,0.0734931305050849,0.1724853787177239,-0.0089588125180892,3.604431142068158e-05,-0.0155725050717592,0.0050789294764399,-0.1031732708215713,-0.0177019294351339,0.0041938610374927,-0.9892622828483582,0.1450148522853851,-0.0183698451552597,0.0320741653553725,-0.1263457694763411,0.1877738833427429,0.1615113615989685,0.2012672424316406,50,387,14077,19271
23.0,1788524996729,5.239436626434326,5.014084339141846,-0.0171490367501974,0.0061381147243082,-0.9974344372749328,0.0692296549677848,0.1853697113669291,-0.0071966245491194,-2.8857609947949795e-05,-0.0134045276790857,0.0198495015501976,-0.0744200125336647,-0.01758205704391,0.0050267009064555,-0.9898367524147034,0.1410280615091323,-0.0170195831940743,0.0063403954975164,-0.0735950050250707,0.0197994112968444,-0.1576332449913025,0.3302736282348633,51,327,14123,18352
23.1,1788524996829,5.183098793029785,4.985915660858154,-0.0171097479760646,0.0063086189329624,-0.997563660144806,0.0673357620835304,0.1759892734170232,-0.0080217291274525,2.2513783690622624e-06,-0.0078154867514967,0.0025458266027271,-0.0744045153260231,-0.0194497723132371,0.004539112560451,-0.9902681112289428,0.1377328038215637,0.0056508131405504,-0.1021189325469956,-0.0648772310734285,0.0424859523773193,0.1110355854034423,-0.694727897644043,42,318,14042,17942
23.2,1788524996929,5.267605781555176,4.901408672332764,-0.0189064294099807,0.0057532382197678,-0.997771143913269,0.0637368559837341,0.1777958474299773,-0.0066376610175491,3.842013313743983e-05,0.0074991374276578,-0.0011298982426524,-0.069216139614582,-0.0202282331883907,0.0040721669793128,-0.9907663464546204,0.134001538157463,0.007795802774155,-0.0475918182204736,-0.0902569542497996,-0.2086378931999206,0.2395480275154113,-0.7626533508300781,42,336,13889,18447
23.3,1788524997029,5.239436626434326,4.985915660858154,-0.0189752671867609,0.005279041826725,-0.9980728030204772,0.0588456951081752,0.174132654219109,-0.0075420556612019,-3.4510492497938326e-05,0.0092324586585164,0.0295332018285989,-0.0806227475404739,-0.0178154502063989,0.0039696106687188,-0.9915547966957092,0.128398060798645,0.0058759996560186,0.0575243960896483,-0.1034937759641018,0.1691978573799133,0.467613160610199,-0.7055225372314453,23,321,14472,17141
23.4,1788524997129,5.88732385635376,4.169013977050781,-0.0088470811024308,0.004343066830188,-0.998697817325592,0.0500557422637939,0.1733762607024055,-0.0147602958994165,-0.0005705756116544,0.0129659567028284,0.2775279879570007,-0.1846760511398315,-0.0087133469060063,0.0037859678268432,-0.99241840839386,0.1225380599498748,-0.0196626193822064,0.2977492661492416,-0.2205948073333974,0.1300360560417175,-0.0855771899223327,0.2444572448730468,26,423,14014,18012
23.5,1788524997229,5.521126747131348,4.676056385040283,-0.0051638633012771,0.0042180977761745,-0.9989951252937316,0.0443192981183528,0.1738820141420138,-0.0028731313629531,-0.0005115346612239,0.0104239247739315,0.1484925895929336,-0.2299394458532333,-0.0060516046360135,0.0037483032792806,-0.9935583472251892,0.1130978688597679,-0.0044238734476009,-0.0582634660165081,-0.2088521980419744,-0.1146696805953979,0.4585998058319092,0.1129207611083984,39,288,14832,16216
23.6,1788524997329,5.577464580535889,4.507042407989502,-0.0077531747519969,0.0043187569826841,-0.9993544816970824,0.034811470657587,0.173367469405812,-0.0089753051148458,0.0001678361594832,-0.0084922034293413,-0.0675451830029487,-0.2011051028966903,-0.011253940872848,0.0035530794411897,-0.9948383569717408,0.1007843986153602,-0.0050545006820859,-0.0936384024443388,-0.2037166224079573,0.0453017950057983,-0.6401255130767822,0.0024328231811523,32,307,14490,16845
23.7,1788524997429,5.323943614959717,4.985915660858154,-0.013672012835741,0.0040001724846661,-0.9996759295463562,0.0210976302623748,0.1794501810142129,-0.007426970577925,0.0001945441931824,0.005155571270734,-0.0632677376270294,-0.1250564008951187,-0.0137145705521106,0.0030250065028667,-0.9954624772071838,0.0941128358244896,0.0111900920361375,-0.0891069578787092,-0.0768129965062718,-0.0820960998535156,0.0851239562034607,-0.19647216796875,28,329,13325,18383
23.8,1788524997529,5.014084339141846,4.619718074798584,-0.0113217663019895,0.0037037013098597,-0.9997808337211608,0.0172135923057794,0.1601305019014804,-0.0051256690404096,-0.0002305764449121,-0.0114368926733732,0.1220895126461982,-0.110662393271923,-0.0110680041834712,0.0029867384582757,-0.9959781765937804,0.0888604000210762,-0.0043532586119841,0.0541567818745121,-0.0954422902493597,-0.162267804145813,-0.4107252955436706,0.1356763839721679,57,422,14999,19614
23.9,1788524997629,5.323943614959717,4.985915660858154,-0.0111072212457656,0.0038179003167897,-0.9998255968093872,0.0145231513306498,0.1840544378709294,-0.0092628280060846,-7.716039039878664e-05,-0.0057074432261288,0.0092006148770451,-0.109000988304615,-0.0108866253867745,0.0028864368796348,-0.9963476061820984,0.0846443101763725,-0.0115716221735807,0.0030541687090576,-0.1068839405207216,0.1136476397514343,0.3154909610748291,-0.1378364562988281,29,284,13549,17706
24.0,1788524997729,5.323943614959717,4.985915660858154,-0.0107848411425948,0.0038732183165848,-0.999883770942688,0.0100510967895388,0.1769645339266271,-0.0048209858024297,-5.354161110271299e-06,-0.0126444622874259,-0.0040549887344241,-0.1062655970454216,-0.0113627659156918,0.0034500826150178,-0.9967359900474548,0.0798526406288147,-0.006938085045009,-0.0042625207506665,-0.0908126556045914,-0.0695505142211914,-0.462801992893219,0.1935033798217773,19,333,13223,17689
24.1,1788524997829,5.295774459838867,4.929577350616455,-0.0111637413501739,0.0043112020939588,-0.9999157786369324,0.0050295758992433,0.1683152741630403,-0.0113887855165424,2.86626533152258e-06,-0.0033958442509174,-0.0036453655920922,-0.1056102588772773,-0.0106034791097044,0.0035618264228105,-0.997089147567749,0.0754194781184196,-0.0034763870472837,0.0526233028258582,-0.0958548527947301,0.0885038375854492,0.129679799079895,0.241342544555664,42,335,13691,18115
24.2,1788524997929,5.126760482788086,4.957746505737305,0.0096423560753464,-0.0042937062680721,0.999944031238556,0.0007701106369495,0.1803852103185293,-0.0089610239160876,-8.674583701638765e-05,-0.0001081922455341,0.0206508412957191,-0.1005771905183792,-0.0092777097597718,0.0036735832691192,-0.9975789785385132,0.0688228532671928,-0.0056368155541425,0.0127078127109579,-0.102833792913977,-0.1395128965377807,-0.0993390083312988,-0.0173320770263671,36,311,13997,17569
24.3,1788524998029,5.267605781555176,4.8450703620910645,0.0090571548789739,-0.0043082693591713,0.9999356865882874,0.0052917883731424,0.1754285921656811,-0.0078467845140426,-8.669853999225062e-06,-0.0006972367991693,-0.0002618111611809,-0.0958798080682754,-0.0116523094475269,0.0033565443009138,-0.997796893119812,0.065225139260292,8.619947191193987e-05,-0.102788858548961,-0.0861639301588444,-0.0855187773704528,0.1403318643569946,-0.4110307693481445,31,316,13685,18318
24.4,1788524998129,5.295774459838867,5.126760482788086,0.011222019791603,-0.0041766045615077,0.999891757965088,0.0085468348115682,0.1724602865907452,-0.0043471804408651,0.0001326968536985,0.0014664670452475,-0.0146116949617862,-0.0585351511836051,-0.0108885550871491,0.0034959111362695,-0.9980179071426392,0.0618827417492866,-0.006203320119975,0.0065776599558617,-0.0655676879171322,-0.2326645851135254,0.0522868037223815,0.2498445510864257,16,333,12624,18421
24.5,1788524998229,4.929577350616455,4.8450703620910645,0.0112347332760691,-0.0042380769737064,0.9998610019683838,0.0115638235583901,0.1784100034575436,-0.0035784596662244,-1.932003109170586e-07,0.0,0.0,0.0,-0.0113686835393309,0.0033486159518361,-0.9980496168136596,0.0612907409667968,0.002944993249083,0.0300523679511789,-0.001816102252698,0.2287673950195312,-0.0275237560272216,0.1344661712646484,63,353,13972,19058
24.6,1788524998329,5.183098793029785,4.929577350616455,0.0099422242492437,-0.0036068456247448,0.9998551607131958,0.0133362086489796,0.1852602611038329,-0.0058797198777332,-0.0002079346607414,0.0125355469062924,0.0537404529750347,-0.0578064732253551,-0.0100687528029084,0.0030196700245141,-0.9982354044914246,0.0584428682923316,-0.0114983624194229,0.0128223881381411,-0.0703313042369485,-0.0765512585639953,0.2026843428611755,0.4393959045410156,27,332,12910,18864
24.7,1788524998429,4.901408672332764,5.098591327667236,0.0097958482801914,-0.0038308301009237,0.9998329281806946,0.0149484323337674,0.1730736643167255,-0.0005200039766909,-2.1864312981158005e-05,-0.0095552196726202,0.0058813174255192,-0.0635477975010871,-0.0092780720442533,0.0029685776680707,-0.9983476400375366,0.0566315054893493,0.0037187224678395,0.0390223919409991,-0.0483824030238021,-0.129549503326416,-0.1143024563789367,0.317056655883789,47,305,13775,18349
24.8,1788524998529,5.014084339141846,5.070422649383545,0.0089971274137496,-0.0036555789411067,0.9998048543930054,0.0172022245824337,0.1807733315974082,-0.0052765728671371,-6.65879855680908e-05,-0.0019711623899638,0.0100643597543239,-0.0555847436189651,-0.0100826928392052,0.0028125839307904,-0.9984604120254515,0.0544719621539115,0.0070040669049206,-0.0288787087209987,-0.0441550939542531,0.0229197740554809,0.2119734287261963,0.1297578811645507,24,293,13163,18290
24.9,1788524998629,5.211267471313477,4.929577350616455,0.010042168200016,-0.0036903696600347,0.999752640724182,0.0194977931678295,0.1759646808328255,-0.0038381488059056,1.5153167586153183e-05,-0.0072985151782631,-0.0121717127040028,-0.0599894486367702,-0.011008539237082,0.0029550157487392,-0.9986349940299988,0.0509734116494655,-0.0017939054505811,-0.0221490376640872,-0.0697036337689352,0.103259265422821,-0.0757796764373779,-0.77001953125,61,320,14076,17627
25.0,1788524998729,5.323943614959717,4.8450703620910645,0.0097614815458655,-0.0041068624705076,0.9995954632759094,0.0263956785202026,0.1817072008132587,-0.0079182574187933,-7.414860979855143e-05,-0.0126153919845819,0.0320424623787403,-0.124343641102314,-0.0098471604287624,0.0035838540643453,-0.998893141746521,0.045854527503252,-0.0327752156019755,0.0313808998719872,-0.1094956769790109,0.1286916732788086,0.2568280696868896,-0.2923212051391601,15,317,13286,17947
25.1,1788524998829,5.408450603485107,5.042253494262695,0.0077241002582013,-0.0044560180976986,0.9995378851890564,0.0290602650493383,0.1658875547202842,-0.0045330805437296,-0.0001561970234183,-0.016340160742402,0.077607549726963,-0.1010504812002182,-0.0086997598409652,0.0033078184351325,-0.9990642666816713,0.0422376282513141,0.0241858191938369,-0.0653459095849835,-0.0508895684156026,-0.3384336829185486,-0.2357227802276611,-0.1287298202514648,24,230,13230,16852
25.2,1788524998929,5.183098793029785,4.169013977050781,0.0088420249521732,-0.0035480323713272,0.9994179010391236,0.0327584259212017,0.1771075949439924,-0.0038384589714919,7.597466310902986e-05,0.0155047746375203,-0.0166449043899774,-0.0870702266693115,-0.0035588601604104,0.0027110129594802,-0.9993793964385986,0.0349400378763675,-0.0660412007407462,0.1907379479527996,-0.282754784478439,-0.479729950428009,0.417395532131195,-0.7567358016967773,48,504,14304,20228
25.3,1788524999029,5.042253494262695,5.042253494262695,0.0080026844516396,-0.0040752296335995,0.9991539120674132,0.0401347130537033,0.1786108428886938,-0.0060911991431885,0.0003653448988602,-0.022785672917962,-0.1627297848463058,-0.0358124300837516,-0.0103876516222953,0.0037357052788138,-0.9994232654571532,0.0321142151951789,-0.0329732440718455,-0.2148804261799983,-0.0576331618372131,0.0767639279365539,0.1150773167610168,-0.5039815902709961,33,323,14088,17608
25.4,1788524999129,5.380281925201416,5.014084339141846,0.0118879899382591,-0.0048440620303153,0.9989317059516908,0.0443922206759452,0.1808298032765493,-0.0045079505643716,-3.862174246659269e-06,-0.0088541666045784,-0.0096022831276059,-0.1247011646628379,-0.012230391614139,0.0039728572592139,-0.9995152354240416,0.0283530168235301,-0.0067007540415377,-0.0173517268546194,-0.1185750405878116,-0.2736708521842956,-0.3527888059616089,0.0286245346069335,42,387,12575,19254
25.5,1788524999229,5.014084339141846,4.957746505737305,0.0133491130545735,-0.0052655036561191,0.998752772808075,0.0478240251541137,0.179750261814328,-0.0056907164851465,0.0001676858532795,-0.0089825149625539,-0.0386187992990016,-0.0774829238653183,-0.0133617939427495,0.0042539676651358,-0.9995992183685304,0.024594621732831,0.0002008037567862,0.0278186633872072,-0.0831368906894438,0.2594608068466186,0.0800105333328247,0.4366493225097656,20,312,13525,18990
25.6,1788524999329,5.126760482788086,5.154929637908936,0.0123461047187447,-0.0050423233769834,0.9986840486526488,0.0495211817324161,0.1780892674421741,-0.0106606464566964,-0.0001672717878392,0.0060738450847566,0.0407990850508213,-0.0678095817565918,-0.0120965205132961,0.00413931440562,-0.9996664524078368,0.0224391557276248,0.0004083896282042,0.0288936302270954,-0.0222077527111671,0.0533274412155151,-0.2896510362625122,0.5590429306030273,55,330,13034,18478
25.7,1788524999429,5.014084339141846,5.014084339141846,0.0113416826352477,-0.0048917639069259,0.9985959529876708,0.051512736827135,0.1806173634443373,-0.0046490758135323,-5.207089390760867e-07,0.0027795524802058,0.0145526230335235,-0.0375779569149017,-0.0117564527317881,0.0038355579599738,-0.9997126460075378,0.0205365698784589,0.0137301901657403,-0.0074329946029196,-0.0508181558783964,-0.0753000378608703,0.3174781799316406,0.2799415588378906,36,361,13349,18581
25.8,1788524999529,4.873239517211914,5.098591327667236,0.0121313044801354,-0.0045787217095494,0.9984468221664428,0.0541827380657196,0.1767814047931917,-0.0071433389688003,8.451088467439028e-06,0.00813156273216,-0.0055012498050928,-0.0238920506089925,-0.0125098004937171,0.0035079373046755,-0.999745547771454,0.0184423401951789,0.0168048801732159,-0.0063264575387018,-0.0192869886715257,0.1628786325454712,0.3208417296409607,0.0370254516601562,22,318,13912,18373
25.9,1788524999629,5.183098793029785,5.098591327667236,0.0127383116632699,-0.0046748747117817,0.9983317255973816,0.0561226941645145,0.1802058393256457,-0.0047782740372482,5.07668986620804e-05,-0.0078643709421157,-0.026589261367917,-0.043110441416502,-0.0130448527634143,0.0037350747734308,-0.9997683763504028,0.0167083498090505,-0.0108822437493613,-0.027900284285102,-0.032767688551066,0.0875956416130065,-0.2108490467071533,-0.2904806137084961,49,356,12682,18660
26.0,1788524999729,5.154929637908936,5.126760482788086,0.0126139186322689,-0.0045497650280594,0.9982980489730836,0.0567539297044277,0.1755881658998489,-0.0047039481087583,1.5247849176060734e-05,0.004380430560559,0.0053388359956443,-0.0252745579928159,-0.0128240911290049,0.0038511268794536,-0.9997934699058532,0.0152908358722925,-0.0148329933955905,-0.0025855381672259,-0.0424013157789014,-0.1524971723556518,0.2355478405952453,-0.0662469863891601,20,377,11515,19761
26.1,1788524999829,5.070422649383545,5.239436626434326,0.0123052280396223,-0.0051404712721705,0.998242735862732,0.0577364899218082,0.1736777562357646,-0.0006537410634388,-4.763731076954713e-05,-0.0070282607339322,0.0236115865409374,-0.0041397218592464,-0.0129097197204828,0.0042722038924694,-0.9997974038124084,0.014843413606286,-0.00151695728284,-0.0202148262455108,-0.0120739593608453,-0.2447915077209472,0.2831651568412781,-0.2281303405761718,37,359,12075,19408
26.2,1788524999929,4.619718074798584,4.985915660858154,0.0136988069862127,-0.0054506151936948,0.9981995820999146,0.0581403709948062,0.1737828381233421,-6.841955624157014e-07,2.102604983888968e-05,-0.0135278394445776,-0.0118803307414054,-0.0133126303553581,-0.0134983668103814,0.0044567910954356,-0.9997920393943788,0.0146255390718579,-0.0064447808338235,0.0515907112901058,-0.0092514059264373,0.3712620139122009,-0.2520564198493957,0.1043605804443359,22,372,13692,20253
26.3,1788525000029,5.014084339141846,5.295774459838867,0.01201131939888,-0.0056040002964437,0.9981701374053956,0.0589984245598316,0.1868183640814903,-0.0041126127274603,-0.0001833859478603,-0.0130414962768554,0.0498999468982219,-0.020068883895874,-0.0123874396085739,0.0047146510332822,-0.9998165369033812,0.0138293746858835,-0.0103868728976235,0.0258454622505177,-0.0293601814223018,-0.1589558124542236,0.311078131198883,-0.5957956314086914,29,311,12181,18746
26.4,1788525000129,4.704225540161133,4.985915660858154,0.0122230630367994,-0.005876519717276,0.9981332421302797,0.059548620134592,0.1782039720612568,-0.001884896390155,-1.4163112372255017e-05,-0.0106564899906516,-0.0089940959587693,-0.0219768490642309,-0.0129801593720912,0.0052914833649992,-0.9998188018798828,0.0128800375387072,0.0020537993720867,0.00675947895169,-0.0092742628814347,-0.1955394148826599,0.0666731595993042,-0.4392852783203125,27,374,13228,19894
26.5,1788525000229,4.873239517211914,5.295774459838867,0.0125080188736319,-0.0063829757273197,0.998091757297516,0.0601300187408924,0.178121130703384,-0.0032609288342912,-7.099545936227686e-06,-0.0079595008864998,0.003321390133351,-0.0182090550661087,-0.012587409466505,0.0060987416654825,-0.9998217225074768,0.0126830823719501,-0.0187257278566192,-0.0096731342976538,0.0160648868712621,0.0293673872947692,-0.1690049767494201,0.3470563888549804,29,337,12500,18923
26.6,1788525000329,5.098591327667236,5.154929637908936,0.0129485614597797,-0.0073685157112777,0.998122215270996,0.0594142749905586,0.1793953468073148,-0.0020017136894825,4.378994187150726e-05,-0.0065877721644937,-0.0203464068472385,0.0071801440790295,-0.0136327361688017,0.0063826357945799,-0.9997983574867249,0.0132939312607049,-0.0040401506030441,-0.0272298291214462,-0.0046708315511037,0.0115434527397155,0.1242522001266479,0.6568470001220703,27,369,12215,19627
26.7,1788525000429,4.957746505737305,5.239436626434326,0.0127167254686355,-0.0082390904426574,0.998081386089325,0.0600326545536518,0.1788137842100483,-0.0048829469388608,-0.0001643547846982,-0.0293545145541429,0.0421144813299179,-0.0202228743582963,-0.0126817421987652,0.0076460838317871,-0.9998100399971008,0.0126718878746032,-0.038677766721647,0.0545897529325242,-0.0067725942107244,0.1931486129760742,0.1167855262756347,-0.6282472610473633,10,357,12440,19324
