time_s,timestamp_ms,wheel_vels__velocity_left,wheel_vels__velocity_right,odom__orient_x,odom__orient_y,odom__orient_z,odom__orient_w,odom__lin_x,odom__lin_y,odom__lin_z,odom__ang_x,odom__ang_y,odom__ang_z,imu__orient_x,imu__orient_y,imu__orient_z,imu__orient_w,imu__angvel_x,imu__angvel_y,imu__angvel_z,imu__acc_x,imu__acc_y,imu__acc_z,wheel_status__current_ma_left,wheel_status__current_ma_right,wheel_status__pwm_left,wheel_status__pwm_right
0.0,1788351025877,-3.88732385635376,-4.14084529876709,-0.0037808362394571,0.0034166115801781,-0.9816270470619202,0.1907415688037872,-0.0971127876932366,0.0030752894896508,1.9850837667306973e-05,-0.0164478607475757,0.0093654198572039,-0.0587396323680877,-0.0046263402327895,0.0025370027869939,-0.9518517851829528,0.3065131902694702,0.0205179305820873,-0.0091692385221775,-0.0188756919529142,-0.0800235271453857,-0.0418829917907714,0.0433969497680664,218,43,-16153,-10723
0.1,1788351025977,-3.88732385635376,-4.14084529876709,-0.0037808362394571,0.0034166115801781,-0.9816270470619202,0.1907415688037872,-0.0971127876932366,0.0030752894896508,1.9850837667306973e-05,-0.0164478607475757,0.0093654198572039,-0.0587396323680877,-0.0046263402327895,0.0025370027869939,-0.9518517851829528,0.3065131902694702,0.0205179305820873,-0.0091692385221775,-0.0188756919529142,-0.0800235271453857,-0.0418829917907714,0.0433969497680664,218,43,-16153,-10723
0.2,1788351026077,-3.88732385635376,-4.14084529876709,-0.0037808362394571,0.0034166115801781,-0.9816270470619202,0.1907415688037872,-0.0971127876932366,0.0030752894896508,1.9850837667306973e-05,-0.0164478607475757,0.0093654198572039,-0.0587396323680877,-0.0046263402327895,0.0025370027869939,-0.9518517851829528,0.3065131902694702,0.0205179305820873,-0.0091692385221775,-0.0188756919529142,-0.0800235271453857,-0.0418829917907714,0.0433969497680664,218,43,-16153,-10723
0.3,1788351026177,-3.88732385635376,-4.14084529876709,-0.0037808362394571,0.0034166115801781,-0.9816270470619202,0.1907415688037872,-0.0971127876932366,0.0030752894896508,1.9850837667306973e-05,-0.0164478607475757,0.0093654198572039,-0.0587396323680877,-0.0046263402327895,0.0025370027869939,-0.9518517851829528,0.3065131902694702,0.0205179305820873,-0.0091692385221775,-0.0188756919529142,-0.0800235271453857,-0.0418829917907714,0.0433969497680664,218,43,-16153,-10723
0.4,1788351026277,-3.88732385635376,-4.14084529876709,-0.0037808362394571,0.0034166115801781,-0.9816270470619202,0.1907415688037872,-0.0971127876932366,0.0030752894896508,1.9850837667306973e-05,-0.0164478607475757,0.0093654198572039,-0.0587396323680877,-0.0046263402327895,0.0025370027869939,-0.9518517851829528,0.3065131902694702,0.0205179305820873,-0.0091692385221775,-0.0188756919529142,-0.0800235271453857,-0.0418829917907714,0.0433969497680664,218,43,-16153,-10723
0.5,1788351026377,-3.88732385635376,-4.14084529876709,-0.0037808362394571,0.0034166115801781,-0.9816270470619202,0.1907415688037872,-0.0971127876932366,0.0030752894896508,1.9850837667306973e-05,-0.0164478607475757,0.0093654198572039,-0.0587396323680877,-0.0046263402327895,0.0025370027869939,-0.9518517851829528,0.3065131902694702,0.0205179305820873,-0.0091692385221775,-0.0188756919529142,-0.0800235271453857,-0.0418829917907714,0.0433969497680664,218,43,-16153,-10723
0.6,1788351026477,-3.88732385635376,-4.14084529876709,-0.0037808362394571,0.0034166115801781,-0.9816270470619202,0.1907415688037872,-0.0971127876932366,0.0030752894896508,1.9850837667306973e-05,-0.0164478607475757,0.0093654198572039,-0.0587396323680877,-0.0046263402327895,0.0025370027869939,-0.9518517851829528,0.3065131902694702,0.0205179305820873,-0.0091692385221775,-0.0188756919529142,-0.0800235271453857,-0.0418829917907714,0.0433969497680664,218,43,-16153,-10723
0.7,1788351026577,-3.88732385635376,-4.14084529876709,-0.0037808362394571,0.0034166115801781,-0.9816270470619202,0.1907415688037872,-0.0971127876932366,0.0030752894896508,1.9850837667306973e-05,-0.0164478607475757,0.0093654198572039,-0.0587396323680877,-0.0046263402327895,0.0025370027869939,-0.9518517851829528,0.3065131902694702,0.0205179305820873,-0.0091692385221775,-0.0188756919529142,-0.0800235271453857,-0.0418829917907714,0.0433969497680664,218,43,-16153,-10723
0.8,1788351026677,-3.88732385635376,-4.14084529876709,-0.0037808362394571,0.0034166115801781,-0.9816270470619202,0.1907415688037872,-0.0971127876932366,0.0030752894896508,1.9850837667306973e-05,-0.0164478607475757,0.0093654198572039,-0.0587396323680877,-0.0046263402327895,0.0025370027869939,-0.9518517851829528,0.3065131902694702,0.0205179305820873,-0.0091692385221775,-0.0188756919529142,-0.0800235271453857,-0.0418829917907714,0.0433969497680664,218,43,-16153,-10723
0.9,1788351026777,-3.88732385635376,-4.14084529876709,-0.0037808362394571,0.0034166115801781,-0.9816270470619202,0.1907415688037872,-0.0971127876932366,0.0030752894896508,1.9850837667306973e-05,-0.0164478607475757,0.0093654198572039,-0.0587396323680877,-0.0046263402327895,0.0025370027869939,-0.9518517851829528,0.3065131902694702,0.0205179305820873,-0.0091692385221775,-0.0188756919529142,-0.0800235271453857,-0.0418829917907714,0.0433969497680664,218,43,-16153,-10723
1.0,1788351026877,-3.88732385635376,-4.14084529876709,-0.0037808362394571,0.0034166115801781,-0.9816270470619202,0.1907415688037872,-0.0971127876932366,0.0030752894896508,1.9850837667306973e-05,-0.0164478607475757,0.0093654198572039,-0.0587396323680877,-0.0046263402327895,0.0025370027869939,-0.9518517851829528,0.3065131902694702,0.0205179305820873,-0.0091692385221775,-0.0188756919529142,-0.0800235271453857,-0.0418829917907714,0.0433969497680664,218,43,-16153,-10723
1.1,1788351026977,-3.88732385635376,-4.14084529876709,-0.0037808362394571,0.0034166115801781,-0.9816270470619202,0.1907415688037872,-0.0971127876932366,0.0030752894896508,1.9850837667306973e-05,-0.0164478607475757,0.0093654198572039,-0.0587396323680877,-0.0046263402327895,0.0025370027869939,-0.9518517851829528,0.3065131902694702,0.0205179305820873,-0.0091692385221775,-0.0188756919529142,-0.0800235271453857,-0.0418829917907714,0.0433969497680664,218,43,-16153,-10723
1.2,1788351027077,-3.88732385635376,-4.14084529876709,-0.0037808362394571,0.0034166115801781,-0.9816270470619202,0.1907415688037872,-0.0971127876932366,0.0030752894896508,1.9850837667306973e-05,-0.0164478607475757,0.0093654198572039,-0.0587396323680877,-0.0046263402327895,0.0025370027869939,-0.9518517851829528,0.3065131902694702,0.0205179305820873,-0.0091692385221775,-0.0188756919529142,-0.0800235271453857,-0.0418829917907714,0.0433969497680664,218,43,-16153,-10723
1.3,1788351027177,-3.88732385635376,-4.14084529876709,-0.0037808362394571,0.0034166115801781,-0.9816270470619202,0.1907415688037872,-0.0971127876932366,0.0030752894896508,1.9850837667306973e-05,-0.0164478607475757,0.0093654198572039,-0.0587396323680877,-0.0046263402327895,0.0025370027869939,-0.9518517851829528,0.3065131902694702,0.0205179305820873,-0.0091692385221775,-0.0188756919529142,-0.0800235271453857,-0.0418829917907714,0.0433969497680664,218,43,-16153,-10723
1.4,1788351027277,-3.88732385635376,-4.14084529876709,-0.0037808362394571,0.0034166115801781,-0.9816270470619202,0.1907415688037872,-0.0971127876932366,0.0030752894896508,1.9850837667306973e-05,-0.0164478607475757,0.0093654198572039,-0.0587396323680877,-0.0046263402327895,0.0025370027869939,-0.9518517851829528,0.3065131902694702,0.0205179305820873,-0.0091692385221775,-0.0188756919529142,-0.0800235271453857,-0.0418829917907714,0.0433969497680664,218,43,-16153,-10723
1.5,1788351027377,-3.88732385635376,-4.14084529876709,-0.0037808362394571,0.0034166115801781,-0.9816270470619202,0.1907415688037872,-0.0971127876932366,0.0030752894896508,1.9850837667306973e-05,-0.0164478607475757,0.0093654198572039,-0.0587396323680877,-0.0046263402327895,0.0025370027869939,-0.9518517851829528,0.3065131902694702,0.0205179305820873,-0.0091692385221775,-0.0188756919529142,-0.0800235271453857,-0.0418829917907714,0.0433969497680664,218,43,-16153,-10723
1.6,1788351027477,-3.88732385635376,-4.14084529876709,-0.0037808362394571,0.0034166115801781,-0.9816270470619202,0.1907415688037872,-0.0971127876932366,0.0030752894896508,1.9850837667306973e-05,-0.0164478607475757,0.0093654198572039,-0.0587396323680877,-0.0046263402327895,0.0025370027869939,-0.9518517851829528,0.3065131902694702,0.0205179305820873,-0.0091692385221775,-0.0188756919529142,-0.0800235271453857,-0.0418829917907714,0.0433969497680664,218,43,-16153,-10723
1.7,1788351027577,-3.88732385635376,-4.14084529876709,-0.0037808362394571,0.0034166115801781,-0.9816270470619202,0.1907415688037872,-0.0971127876932366,0.0030752894896508,1.9850837667306973e-05,-0.0164478607475757,0.0093654198572039,-0.0587396323680877,-0.0046263402327895,0.0025370027869939,-0.9518517851829528,0.3065131902694702,0.0205179305820873,-0.0091692385221775,-0.0188756919529142,-0.0800235271453857,-0.0418829917907714,0.0433969497680664,218,43,-16153,-10723
1.8,1788351027677,-3.88732385635376,-4.14084529876709,-0.0037808362394571,0.0034166115801781,-0.9816270470619202,0.1907415688037872,-0.0971127876932366,0.0030752894896508,1.9850837667306973e-05,-0.0164478607475757,0.0093654198572039,-0.0587396323680877,-0.0046263402327895,0.0025370027869939,-0.9518517851829528,0.3065131902694702,0.0205179305820873,-0.0091692385221775,-0.0188756919529142,-0.0800235271453857,-0.0418829917907714,0.0433969497680664,218,43,-16153,-10723
1.9,1788351027777,-3.88732385635376,-4.14084529876709,-0.0037808362394571,0.0034166115801781,-0.9816270470619202,0.1907415688037872,-0.0971127876932366,0.0030752894896508,1.9850837667306973e-05,-0.0164478607475757,0.0093654198572039,-0.0587396323680877,-0.0046263402327895,0.0025370027869939,-0.9518517851829528,0.3065131902694702,0.0205179305820873,-0.0091692385221775,-0.0188756919529142,-0.0800235271453857,-0.0418829917907714,0.0433969497680664,218,43,-16153,-10723
2.0,1788351027877,-3.88732385635376,-4.14084529876709,-0.0037808362394571,0.0034166115801781,-0.9816270470619202,0.1907415688037872,-0.0971127876932366,0.0030752894896508,1.9850837667306973e-05,-0.0164478607475757,0.0093654198572039,-0.0587396323680877,-0.0046263402327895,0.0025370027869939,-0.9518517851829528,0.3065131902694702,0.0205179305820873,-0.0091692385221775,-0.0188756919529142,-0.0800235271453857,-0.0418829917907714,0.0433969497680664,218,43,-16153,-10723
2.1,1788351027977,-3.88732385635376,-4.14084529876709,-0.0037808362394571,0.0034166115801781,-0.9816270470619202,0.1907415688037872,-0.0971127876932366,0.0030752894896508,1.9850837667306973e-05,-0.0164478607475757,0.0093654198572039,-0.0587396323680877,-0.0046263402327895,0.0025370027869939,-0.9518517851829528,0.3065131902694702,0.0205179305820873,-0.0091692385221775,-0.0188756919529142,-0.0800235271453857,-0.0418829917907714,0.0433969497680664,218,43,-16153,-10723
2.2,1788351028077,-3.88732385635376,-4.14084529876709,-0.0037808362394571,0.0034166115801781,-0.9816270470619202,0.1907415688037872,-0.0971127876932366,0.0030752894896508,1.9850837667306973e-05,-0.0164478607475757,0.0093654198572039,-0.0587396323680877,-0.0046263402327895,0.0025370027869939,-0.9518517851829528,0.3065131902694702,0.0205179305820873,-0.0091692385221775,-0.0188756919529142,-0.0800235271453857,-0.0418829917907714,0.0433969497680664,218,43,-16153,-10723
2.3,1788351028177,-3.88732385635376,-4.14084529876709,-0.0037808362394571,0.0034166115801781,-0.9816270470619202,0.1907415688037872,-0.0971127876932366,0.0030752894896508,1.9850837667306973e-05,-0.0164478607475757,0.0093654198572039,-0.0587396323680877,-0.0046263402327895,0.0025370027869939,-0.9518517851829528,0.3065131902694702,0.0205179305820873,-0.0091692385221775,-0.0188756919529142,-0.0800235271453857,-0.0418829917907714,0.0433969497680664,218,43,-16153,-10723
2.4,1788351028277,-3.88732385635376,-4.14084529876709,-0.0037808362394571,0.0034166115801781,-0.9816270470619202,0.1907415688037872,-0.0971127876932366,0.0030752894896508,1.9850837667306973e-05,-0.0164478607475757,0.0093654198572039,-0.0587396323680877,-0.0046263402327895,0.0025370027869939,-0.9518517851829528,0.3065131902694702,0.0205179305820873,-0.0091692385221775,-0.0188756919529142,-0.0800235271453857,-0.0418829917907714,0.0433969497680664,218,43,-16153,-10723
2.5,1788351028377,-3.88732385635376,-4.14084529876709,-0.0037808362394571,0.0034166115801781,-0.9816270470619202,0.1907415688037872,-0.0971127876932366,0.0030752894896508,1.9850837667306973e-05,-0.0164478607475757,0.0093654198572039,-0.0587396323680877,-0.0046263402327895,0.0025370027869939,-0.9518517851829528,0.3065131902694702,0.0205179305820873,-0.0091692385221775,-0.0188756919529142,-0.0800235271453857,-0.0418829917907714,0.0433969497680664,218,43,-16153,-10723
2.6,1788351028477,-3.88732385635376,-4.14084529876709,-0.0037808362394571,0.0034166115801781,-0.9816270470619202,0.1907415688037872,-0.0971127876932366,0.0030752894896508,1.9850837667306973e-05,-0.0164478607475757,0.0093654198572039,-0.0587396323680877,-0.0046263402327895,0.0025370027869939,-0.9518517851829528,0.3065131902694702,0.0205179305820873,-0.0091692385221775,-0.0188756919529142,-0.0800235271453857,-0.0418829917907714,0.0433969497680664,218,43,-16153,-10723
2.7,1788351028577,-3.88732385635376,-4.14084529876709,-0.0037808362394571,0.0034166115801781,-0.9816270470619202,0.1907415688037872,-0.0971127876932366,0.0030752894896508,1.9850837667306973e-05,-0.0164478607475757,0.0093654198572039,-0.0587396323680877,-0.0046263402327895,0.0025370027869939,-0.9518517851829528,0.3065131902694702,0.0205179305820873,-0.0091692385221775,-0.0188756919529142,-0.0800235271453857,-0.0418829917907714,0.0433969497680664,218,43,-16153,-10723
2.8,1788351028677,-3.88732385635376,-4.14084529876709,-0.0037808362394571,0.0034166115801781,-0.9816270470619202,0.1907415688037872,-0.0971127876932366,0.0030752894896508,1.9850837667306973e-05,-0.0164478607475757,0.0093654198572039,-0.0587396323680877,-0.0046263402327895,0.0025370027869939,-0.9518517851829528,0.3065131902694702,0.0205179305820873,-0.0091692385221775,-0.0188756919529142,-0.0800235271453857,-0.0418829917907714,0.0433969497680664,218,43,-16153,-10723
2.9,1788351028777,-3.88732385635376,-4.14084529876709,-0.0037808362394571,0.0034166115801781,-0.9816270470619202,0.1907415688037872,-0.0971127876932366,0.0030752894896508,1.9850837667306973e-05,-0.0164478607475757,0.0093654198572039,-0.0587396323680877,-0.0046263402327895,0.0025370027869939,-0.9518517851829528,0.3065131902694702,0.0205179305820873,-0.0091692385221775,-0.0188756919529142,-0.0800235271453857,-0.0418829917907714,0.0433969497680664,218,43,-16153,-10723
3.0,1788351028877,-3.88732385635376,-4.14084529876709,-0.0037808362394571,0.0034166115801781,-0.9816270470619202,0.1907415688037872,-0.0971127876932366,0.0030752894896508,1.9850837667306973e-05,-0.0164478607475757,0.0093654198572039,-0.0587396323680877,-0.0046263402327895,0.0025370027869939,-0.9518517851829528,0.3065131902694702,0.0205179305820873,-0.0091692385221775,-0.0188756919529142,-0.0800235271453857,-0.0418829917907714,0.0433969497680664,218,43,-16153,-10723
3.1,1788351028977,-3.88732385635376,-4.14084529876709,-0.0037808362394571,0.0034166115801781,-0.9816270470619202,0.1907415688037872,-0.0971127876932366,0.0030752894896508,1.9850837667306973e-05,-0.0164478607475757,0.0093654198572039,-0.0587396323680877,-0.0046263402327895,0.0025370027869939,-0.9518517851829528,0.3065131902694702,0.0205179305820873,-0.0091692385221775,-0.0188756919529142,-0.0800235271453857,-0.0418829917907714,0.0433969497680664,218,43,-16153,-10723
3.2,1788351029077,-3.88732385635376,-4.14084529876709,-0.0037808362394571,0.0034166115801781,-0.9816270470619202,0.1907415688037872,-0.0971127876932366,0.0030752894896508,1.9850837667306973e-05,-0.0164478607475757,0.0093654198572039,-0.0587396323680877,-0.0046263402327895,0.0025370027869939,-0.9518517851829528,0.3065131902694702,0.0205179305820873,-0.0091692385221775,-0.0188756919529142,-0.0800235271453857,-0.0418829917907714,0.0433969497680664,218,43,-16153,-10723
3.3,1788351029177,-3.88732385635376,-4.14084529876709,-0.0037808362394571,0.0034166115801781,-0.9816270470619202,0.1907415688037872,-0.0971127876932366,0.0030752894896508,1.9850837667306973e-05,-0.0164478607475757,0.0093654198572039,-0.0587396323680877,-0.0046263402327895,0.0025370027869939,-0.9518517851829528,0.3065131902694702,0.0205179305820873,-0.0091692385221775,-0.0188756919529142,-0.0800235271453857,-0.0418829917907714,0.0433969497680664,218,43,-16153,-10723
3.4,1788351029277,-3.88732385635376,-4.14084529876709,-0.0037808362394571,0.0034166115801781,-0.9816270470619202,0.1907415688037872,-0.0971127876932366,0.0030752894896508,1.9850837667306973e-05,-0.0164478607475757,0.0093654198572039,-0.0587396323680877,-0.0046263402327895,0.0025370027869939,-0.9518517851829528,0.3065131902694702,0.0205179305820873,-0.0091692385221775,-0.0188756919529142,-0.0800235271453857,-0.0418829917907714,0.0433969497680664,218,43,-16153,-10723
3.5,1788351029377,-3.88732385635376,-4.14084529876709,-0.0037808362394571,0.0034166115801781,-0.9816270470619202,0.1907415688037872,-0.0971127876932366,0.0030752894896508,1.9850837667306973e-05,-0.0164478607475757,0.0093654198572039,-0.0587396323680877,-0.0046263402327895,0.0025370027869939,-0.9518517851829528,0.3065131902694702,0.0205179305820873,-0.0091692385221775,-0.0188756919529142,-0.0800235271453857,-0.0418829917907714,0.0433969497680664,218,43,-16153,-10723
3.6,1788351029477,-3.88732385635376,-4.14084529876709,-0.0037808362394571,0.0034166115801781,-0.9816270470619202,0.1907415688037872,-0.0971127876932366,0.0030752894896508,1.9850837667306973e-05,-0.0164478607475757,0.0093654198572039,-0.0587396323680877,-0.0046263402327895,0.0025370027869939,-0.9518517851829528,0.3065131902694702,0.0205179305820873,-0.0091692385221775,-0.0188756919529142,-0.0800235271453857,-0.0418829917907714,0.0433969497680664,218,43,-16153,-10723
3.7,1788351029577,-3.88732385635376,-4.14084529876709,-0.0037808362394571,0.0034166115801781,-0.9816270470619202,0.1907415688037872,-0.0971127876932366,0.0030752894896508,1.9850837667306973e-05,-0.0164478607475757,0.0093654198572039,-0.0587396323680877,-0.0046263402327895,0.0025370027869939,-0.9518517851829528,0.3065131902694702,0.0205179305820873,-0.0091692385221775,-0.0188756919529142,-0.0800235271453857,-0.0418829917907714,0.0433969497680664,218,43,-16153,-10723
3.8,1788351029677,-3.88732385635376,-4.14084529876709,-0.0037808362394571,0.0034166115801781,-0.9816270470619202,0.1907415688037872,-0.0971127876932366,0.0030752894896508,1.9850837667306973e-05,-0.0164478607475757,0.0093654198572039,-0.0587396323680877,-0.0046263402327895,0.0025370027869939,-0.9518517851829528,0.3065131902694702,0.0205179305820873,-0.0091692385221775,-0.0188756919529142,-0.0800235271453857,-0.0418829917907714,0.0433969497680664,218,43,-16153,-10723
3.9,1788351029777,-3.88732385635376,-4.14084529876709,-0.0037808362394571,0.0034166115801781,-0.9816270470619202,0.1907415688037872,-0.0971127876932366,0.0030752894896508,1.9850837667306973e-05,-0.0164478607475757,0.0093654198572039,-0.0587396323680877,-0.0046263402327895,0.0025370027869939,-0.9518517851829528,0.3065131902694702,0.0205179305820873,-0.0091692385221775,-0.0188756919529142,-0.0800235271453857,-0.0418829917907714,0.0433969497680664,218,43,-16153,-10723
4.0,1788351029877,-3.88732385635376,-4.14084529876709,-0.0037808362394571,0.0034166115801781,-0.9816270470619202,0.1907415688037872,-0.0971127876932366,0.0030752894896508,1.9850837667306973e-05,-0.0164478607475757,0.0093654198572039,-0.0587396323680877,-0.0046263402327895,0.0025370027869939,-0.9518517851829528,0.3065131902694702,0.0205179305820873,-0.0091692385221775,-0.0188756919529142,-0.0800235271453857,-0.0418829917907714,0.0433969497680664,218,43,-16153,-10723
4.1,1788351029977,-3.88732385635376,-4.14084529876709,-0.0037808362394571,0.0034166115801781,-0.9816270470619202,0.1907415688037872,-0.0971127876932366,0.0030752894896508,1.9850837667306973e-05,-0.0164478607475757,0.0093654198572039,-0.0587396323680877,-0.0046263402327895,0.0025370027869939,-0.9518517851829528,0.3065131902694702,0.0205179305820873,-0.0091692385221775,-0.0188756919529142,-0.0800235271453857,-0.0418829917907714,0.0433969497680664,218,43,-16153,-10723
4.2,1788351030077,-3.88732385635376,-4.14084529876709,-0.0037808362394571,0.0034166115801781,-0.9816270470619202,0.1907415688037872,-0.0971127876932366,0.0030752894896508,1.9850837667306973e-05,-0.0164478607475757,0.0093654198572039,-0.0587396323680877,-0.0046263402327895,0.0025370027869939,-0.9518517851829528,0.3065131902694702,0.0205179305820873,-0.0091692385221775,-0.0188756919529142,-0.0800235271453857,-0.0418829917907714,0.0433969497680664,218,43,-16153,-10723
4.3,1788351030177,-3.88732385635376,-4.14084529876709,-0.0037808362394571,0.0034166115801781,-0.9816270470619202,0.1907415688037872,-0.0971127876932366,0.0030752894896508,1.9850837667306973e-05,-0.0164478607475757,0.0093654198572039,-0.0587396323680877,-0.0046263402327895,0.0025370027869939,-0.9518517851829528,0.3065131902694702,0.0205179305820873,-0.0091692385221775,-0.0188756919529142,-0.0800235271453857,-0.0418829917907714,0.0433969497680664,218,43,-16153,-10723
4.4,1788351030277,-4.591549396514893,-4.169013977050781,-0.0040930248796939,0.0031517085153609,-0.983588695526123,0.1803512275218963,-0.137475036715309,0.0024808246825388,1.0949882721366551e-06,0.0121391909196972,0.0031414439436048,-0.0169016309082508,-0.0043292446061968,0.002594050951302,-0.9518970251083374,0.3063765466213226,0.0033875624413945,0.028150572719781,-0.013373686160002,0.0066977143287658,-0.1825248599052429,-0.028822898864746,224,53,-15211,-11102
4.5,1788351030377,-3.9718310832977295,-4.0,-0.0039935261011123,0.002825919073075,-0.9835692644119264,0.180464506149292,-0.1403969790360395,0.0006013309477828,1.1069138027337288e-05,0.0173464082181453,0.0019801072776317,0.0058312672190368,-0.0038441335782408,0.0020232247188687,-0.9517295956611632,0.3069070279598236,0.0075225133695375,0.0167836146132988,0.0049135666806174,-0.1296655535697937,0.1154234409332275,0.3813037872314453,139,58,-14444,-11156
4.6,1788351030477,-0.6760563254356384,-1.211267590522766,-0.0040360982529819,0.0024868259206414,-0.9838026762008668,0.1791922748088836,-0.0971203631564923,-0.0036788411194553,6.886376612269219e-06,-0.0029984775464981,-0.0190043281763792,-0.0658349841833114,-0.0043729981407523,0.0018228897824883,-0.952382266521454,0.3048696517944336,0.0153466088511937,-0.0317431256556065,-0.0782557716953706,3.153268575668335,0.0634763240814209,0.0482072830200195,32,67,0,0
4.7,1788351030577,0.9577465057373048,-1.774647831916809,-0.0036959508433938,0.0023260619491338,-0.9841015934944152,0.1775527894496917,0.0072076970669416,-0.0031173988094655,-5.390853117365809e-07,0.0,9.660807265277072e-09,0.0,-0.0037410613149404,0.0017602024599909,-0.9539141058921814,0.3000515401363373,0.0026142317615452,0.015617306709519,-0.213450293960344,-0.1781070828437805,-0.4051253795623779,0.0332984924316406,254,50,9647,-5640
4.8,1788351030677,2.7887322902679443,-3.239436626434326,-0.0035661440342664,0.0021780966781079,-0.987651526927948,0.1566110998392105,0.0024489900601137,-0.0067096051860238,-1.2089953181375604e-07,-0.0007012541173025,-0.003598271170631,-0.6245999336242676,-0.0036723110824823,0.0017032641917467,-0.9627591967582704,0.2703301310539245,-0.0007881113850651,0.0123780691339639,-0.8579514827688088,-0.0712064504623413,0.0893667340278625,0.6272954940795898,233,159,14387,-11753
4.9,1788351030777,3.521126747131348,-3.436619758605957,-0.003345497418195,0.0022268178872764,-0.995147466659546,0.0983132421970367,-0.0033668545375923,0.004344104672951,6.639291013674738e-07,-0.0062184780836105,0.009971366263926,-1.2084360122680664,-0.003615953028202,0.0018604025244712,-0.9758081436157228,0.2185908406972885,-0.014603361110823,0.0124863020209359,-1.3015573192425771,-0.350290834903717,-0.0314746499061584,-0.0879402160644531,257,311,0,0
5.0,1788351030877,0.0,-0.591549277305603,-0.0037734129000455,0.0024495476391166,-0.9978477358818054,0.0654186606407165,-0.0134193586604962,0.0125979586711197,-2.576011923491081e-06,0.0003099431341979,-0.0063471770845353,-0.1682000905275344,-0.003935070708394,0.0023401165381073,-0.9809990525245668,0.1939586699008941,-0.0145292344764949,0.0020412228107165,-0.0018810558027845,-0.2463087439537048,-0.6763778924942017,-0.0858888626098632,0,3,0,0
5.1,1788351030977,0.0,0.0,-0.0036741385702043,0.002773065585643,-0.9978815913200378,0.0648921951651573,-0.002372982877697,-0.0005391910104738,-2.066591824502869e-07,-0.0128261344507336,0.0049027255736291,-0.0212039127945899,-0.0039539281278848,0.0024722516536712,-0.9811187386512756,0.1933499127626419,-0.00826945761217,0.0042481271817797,-0.0253790513601475,-0.176184594631195,-0.6560424566268921,-0.0085725784301757,0,0,0,0
5.2,1788351031077,0.0,0.0,-0.0035407412797212,0.0024168251547962,-0.9978281259536744,0.0657305493950843,-0.0050957015871287,-0.0048925797764177,1.2032129221283326e-07,0.0172048602253198,0.0016048470279201,0.0396833457052707,-0.0037911441177129,0.0020044147968292,-0.980832815170288,0.1948042511940002,-0.0042755378888811,0.0022455017336143,0.0166973503078342,0.0731420516967773,-0.2576017379760742,-0.1045141220092773,0,0,0,0
5.3,1788351031177,0.0,0.0,-0.0035092448815703,0.002483682706952,-0.9978088140487672,0.0660235285758972,-0.0010503526054053,0.0016748533531995,-7.057724226982517e-06,-0.0030706396792083,0.0016906877281144,0.0141793889924883,-0.0037812441587448,0.0020435489714145,-0.9805226922035216,0.1963589489459991,0.0025254663474525,-0.0007726622176215,0.0654616813677872,0.0699607133865356,-0.0647175312042236,-0.0591230392456054,2,0,0,0
5.4,1788351031277,0.0,0.0,-0.0035116900689899,0.0025841700844466,-0.997602880001068,0.0690605565905571,0.0022400464387465,-0.0004490284754389,1.7531639945733818e-06,-0.002687303815037,-0.0008732089190743,0.0384824089705944,-0.0038005989044904,0.0020986208692193,-0.980114758014679,0.1983841210603714,0.0012310226618467,0.0020399650781833,0.0298912941115804,-0.0827927589416503,-0.0547895431518554,0.0665855407714843,2,0,0,0
5.5,1788351031377,0.0,0.0,-0.0035648124758154,0.0025983261875808,-0.9974501132965088,0.0712300464510917,0.0017152736264158,0.0008405935126333,-1.7914142501045077e-06,-0.0011387419654056,-0.0029801926575601,0.0620871074497699,-0.0038675302639603,0.0021463418379426,-0.9797288179397584,0.2002796828746795,-0.0011776950055163,0.0009601573817237,0.0117841097611703,-0.2436054348945617,-0.1520231366157531,-0.0306911468505859,0,0,0,0
5.6,1788351031477,0.0,0.0,-0.0035878580529242,0.0026551021728664,-0.9974883198738098,0.0706904157996177,0.0006541200985297,-0.0014026084296457,-2.769958522169738e-06,-0.0024254622403532,-0.0007024317164905,-0.0218274034559726,-0.0039295172318816,0.0021875789389014,-0.9798314571380616,0.1997751146554947,-0.0004628962478357,-0.0008112003443619,0.0178267370477841,0.1181433200836181,-0.0630419254302978,-0.0195627212524414,0,0,0,0
5.7,1788351031577,0.0,0.0,-0.0036078875418752,0.0026729039382189,-0.9974679350852966,0.070975661277771,0.0010336016769798,-0.0003079377119495,3.26372022873722e-06,0.0,0.0,0.0,-0.0039274329319596,0.0022522034123539,-0.9800176620483398,0.1988590061664581,-0.0022304724702379,-0.0004322066423628,-0.0703873349404755,0.192017912864685,-0.0816556811332702,-0.0088081359863281,251,286,7370,-7308
5.8,1788351031677,2.169013977050781,-2.563380241394043,-0.0040184799581766,0.0029345056973397,-0.998609721660614,0.0524770207703113,-0.0039978441526532,-0.000268157078569,-2.308828546258689e-06,-0.007572797127068,-0.0132766058668494,-0.5458298325538635,-0.0044581592082977,0.0024436563253402,-0.98414146900177,0.177312359213829,-0.0086894358968518,-0.008399709173118,-0.6515060715932111,0.05909925699234,-0.1382097601890564,-0.1867084503173828,259,142,13532,-10437
5.9,1788351031777,3.7183098793029785,-4.14084529876709,-0.004376390017569,0.0032468333374708,-0.9999085664749146,0.0123740900307893,-0.0097337116782673,0.0020476903244961,-3.246634442652768e-06,-0.0067828292958438,-0.0042346213012933,-0.9725199937820436,-0.0047875801101326,0.0025993753224611,-0.9906559586524964,0.1362762600183487,0.0048849659820365,-0.0061222486631575,-1.0296333638975663,0.6268876194953918,-0.319137692451477,0.58001708984375,346,131,19302,-14006
6.0,1788351031877,0.9577465057373048,-0.98591548204422,0.0044264374300837,-0.0029926453717052,0.998894989490509,0.0466926172375679,-0.0143941314784766,0.003299298928382,-7.111391358604165e-07,0.0023079407401382,0.0036730477586388,-1.3257768154144287,-0.0042183520272374,0.0025369143113493,-0.9978833794593812,0.0648424327373504,-0.0087217130364289,0.0326160835481553,-0.8887998409387075,-1.7031596899032593,1.3046492338180542,0.8096323013305664,60,83,0,0
6.1,1788351031977,0.0,0.0,0.0036158536095172,-0.0029393380973488,0.9977211356163024,0.0673110634088516,-0.0056986285887632,0.0100110832506203,4.973734558795608e-06,0.0002742006035987,0.0054710106924176,-0.0425531677901744,-0.004041071049869,0.0024649882689118,-0.9979994297027588,0.0630448013544082,-0.0015329135516172,-0.0048947164688092,0.021299752783592,-0.0903112888336181,-0.2072234749794006,-0.0594520568847656,0,0,0,0
6.2,1788351032077,0.0,0.0,0.0037363111041486,-0.0029377206228673,0.9977502822875975,0.066871240735054,0.0002327466423705,-0.0001807285151862,1.986065719916874e-06,4.035034726257436e-05,-0.0005721895722672,-0.0021039638668298,-0.0041174851357936,0.0025067050009965,-0.9980023503303528,0.0629922151565551,-0.0020665835797432,-0.001534822162294,0.0179934363702256,0.2405062913894653,0.062990128993988,-0.0173368453979492,0,0,0,0
6.3,1788351032177,0.0,0.0,0.0037782904691994,-0.0032219123095273,0.9976903200149536,0.067745566368103,0.0044286772787567,0.0011847122814308,7.284910689550682e-07,-0.0077928197570145,-0.0017268760129809,-0.0321918539702892,-0.004145273938775,0.0028031850233674,-0.9980871081352234,0.0616199262440204,-0.0066590350098858,0.0018083922037623,-0.0445730850204791,-0.2680451869964599,0.0687311291694641,-0.0228500366210937,0,0,0,0
6.4,1788351032277,0.0,0.0,0.0037583191879093,-0.0032639149576425,0.9976826310157776,0.0678559318184852,0.0011678135056482,0.0003399660789979,1.6312732036002036e-06,0.0020841637160629,-0.0003646018740255,0.0206861514598131,-0.0041370568796992,0.002626234665513,-0.9980244040489196,0.0626367181539535,0.0084898106067434,0.0010139501399063,0.0285834441181254,0.0480636954307556,-0.1448625922203064,4.291534423828125e-05,0,0,0,0
6.5,1788351032377,0.0,0.0,0.0037443721666932,-0.002882715081796,0.9977969527244568,0.066173680126667,0.0023267438995163,-0.0005693907687374,-1.374344401905744e-06,0.0072457231581211,0.0008684461936354,0.0397564023733139,-0.0040778936818242,0.0023536430671811,-0.997928261756897,0.0641636401414871,-0.000472679083708,-0.0003078765315186,0.0231189416665467,-0.040834367275238,-0.2165592312812805,-0.0181493759155273,0,0,0,0
6.6,1788351032477,0.0,0.0,0.0037558986805379,-0.0028264978900551,0.9978381991386414,0.0655490010976791,-0.0006232712764882,0.0009668113490678,5.423407976038248e-07,0.0,0.0,0.0,-0.0041049337014555,0.0022914763540029,-0.997893214225769,0.0647062137722969,0.0021955525637516,-0.0004456824176866,0.0068288451140464,-0.0881193280220031,0.0750078558921814,0.0041322708129882,0,0,0,0
6.7,1788351032577,0.0,0.0,0.0037558986805379,-0.0028264978900551,0.9978381991386414,0.0655490010976791,-0.0004296109878465,0.0004042809718637,-4.419728312702284e-06,0.0,0.0,0.0,-0.0041172122582793,0.0023065833374857,-0.9978904724121094,0.0647489205002784,0.0002432410159316,-0.0007905364949313,0.0023784773888958,-0.0093023180961608,0.0322800278663635,-0.0210962295532226,0,0,0,0
6.8,1788351032677,0.0,0.0,0.0037558986805379,-0.0028264978900551,0.9978381991386414,0.0655490010976791,0.0,0.0,0.0,0.0,0.0,0.0,-0.0041270768269896,0.002284406684339,-0.9978885650634766,0.0647784173488617,-0.0004385886719053,-0.0022383910388697,0.0010542157620386,0.0347837209701538,0.0102244615554809,-0.0097770690917968,0,0,0,0
6.9,1788351032777,0.0,0.0,0.0037558986805379,-0.0028264978900551,0.9978381991386414,0.0655490010976791,0.0,0.0,0.0,0.0,0.0,0.0,-0.0041126497089862,0.0022585373371839,-0.9978854656219482,0.0648266151547432,0.0014857955737374,-0.0009661229911729,0.0021964473265643,0.0065371990203857,0.0489745736122131,0.003615379333496,0,0,0,0
7.0,1788351032877,0.0,0.0,0.0037762382999062,-0.0027908484917134,0.9978591799736024,0.0652299970388412,0.0012096765917103,-0.0013830731777627,-1.1092848343732825e-06,0.0016568902647122,-0.0008154303068295,0.0138712609186768,-0.0041252439841628,0.0022618295624852,-0.9978845119476318,0.0648409500718116,0.0009490101510232,-0.0013162898440989,0.002363995700037,-0.0130110383033752,0.0038391351699829,0.0096006393432617,0,0,0,0
7.1,1788351032977,0.0,0.0,0.0038073367904871,-0.0027680387720465,0.9978598356246948,0.0652193874120712,3.73827092773627e-05,-4.274767401514846e-05,-5.123952536698375e-07,0.0010095016332343,-0.0012021919246762,0.0004252685175742,-0.0041414117440581,0.0022549768909811,-0.9978870749473572,0.0648010745644569,-0.000317320778265,0.0001168718752791,-0.0007137824394467,0.0149760246276855,-0.0109702944755554,-0.0332546234130859,0,0,0,0
7.2,1788351033077,0.0,0.0,0.0038405861705541,-0.0027534049004316,0.9978609681129456,0.0652008429169654,6.541655562629069e-05,-7.480803889084387e-05,-8.968239775553031e-07,0.0006773541681468,-0.0012976536527276,0.0007412060513161,-0.0041732136160135,0.0022249473258852,-0.99788635969162,0.0648101940751075,0.0004167222104182,0.0006332126883997,-0.0009932416643648,0.0247427821159362,-0.0192216038703918,-0.0169105529785156,0,0,0,0
7.3,1788351033177,0.0,0.0,0.003849217435345,-0.0027476593386381,0.9978592991828918,0.065225102007389,0.0,0.0,0.0,0.0,0.0,0.0,-0.0041437000036239,0.0022640125826001,-0.997882843017578,0.0648665875196456,-0.0009026459683926,0.0012571362440271,0.0004108164067718,0.0135086774826049,0.0091347694396972,0.0136318206787109,0,0,0,0
7.4,1788351033277,0.0,0.0,0.0037882861215621,-0.002814156236127,0.9978622198104858,0.0651821866631507,-3.97198550977416e-05,4.434133618666504e-05,5.416860321054592e-07,-0.001687639276497,0.0016954474849626,-0.0004412234411574,-0.0040819151327013,0.0023188441991806,-0.99788236618042,0.0648750886321067,-0.0011216050861581,0.0029189754981862,0.0016818258554096,-0.0046029686927795,0.0303043127059936,-0.0133237838745117,0,0,0,0
7.5,1788351033377,0.0,0.0,0.0037279778625816,-0.0028640674427151,0.997862994670868,0.0651714280247688,3.8727274780769045e-05,-4.378339018490402e-05,-5.313011336700186e-07,-0.0021822601556777,0.0023125666193664,0.0004530161968432,-0.004046163521707,0.0023716809228062,-0.9978846311569214,0.0648408755660057,-0.0009467656782542,0.0015300486782885,-0.0015254383768183,-0.0140513777732849,-0.0311431288719177,-0.0010328292846679,0,0,0,0
7.6,1788351033477,0.0,0.0,0.0037071197293698,-0.0028868243098258,0.9978651404380798,0.065139353275299,0.0001114540037728,-0.000127979966489,-1.5402277201525308e-06,-0.0009545401553623,0.0007673358777537,0.0012873992091044,-0.0040670083835721,0.0023858677595853,-0.9978826642036438,0.0648691207170486,-0.0002337351210664,-0.0007986883772577,-0.00082055554976,0.0146051049232482,-0.0268297791481018,-0.0011634826660156,0,0,0,0
7.7,1788351033577,0.0,0.0,0.0037163030356168,-0.002895763143897,0.9978631734848022,0.0651685521006584,0.0,0.0,0.0,0.0,0.0,0.0,-0.0040318453684449,0.0023874230682849,-0.997878909111023,0.0649282932281494,0.0004015148000139,0.0010107909909621,0.0002427915773494,0.0018674135208129,0.0010013580322265,0.0131511688232421,0,0,0,0
7.8,1788351033677,0.0,0.0,0.0036375380586832,-0.0029116116929799,0.9978670477867126,0.065112292766571,-1.374524624972274e-05,1.6099698771935706e-05,1.9148917368985203e-07,-0.0007281876169145,0.0014577481197193,-0.0001519830984761,-0.0039710430428385,0.0024150675162672,-0.997879147529602,0.0649286583065986,-0.0010282426004911,0.0022190480328126,0.001580867816011,-0.0138269662857055,0.0080383419990539,-0.0336475372314453,0,0,0,0
7.9,1788351033777,0.0,0.0,0.0036123134195804,-0.0029234173707664,0.9978665709495544,0.0651203766465187,-2.936392188773959e-05,3.359395532948698e-05,4.036148824561572e-07,-0.0005586622864939,0.0010141930542886,-0.0003316607326269,-0.0039331363514065,0.0024736486375331,-0.9978798627853394,0.0649165287613868,-0.0013421580792,0.0015358878250708,0.0006041586174444,-0.0048693418502807,-0.0060389637947082,-0.0140666961669921,0,0,0,0
8.0,1788351033877,0.0,0.0,0.0035827432293444,-0.0029868639539927,0.9978672862052916,0.0651088878512382,5.865594924087051e-05,-6.763570223185635e-05,-8.109791914310587e-07,-0.0015659524360671,0.0007604223792441,0.0006823220755904,-0.0039509357884526,0.00251255184412,-0.9978803396224976,0.0649060681462287,-0.001091876471459,-0.0006445918784319,-0.0013407236905993,0.0087106823921203,-0.0434985160827636,0.0055694580078125,0,0,0,0
8.1,1788351033977,0.0,0.0,0.0035684967879205,-0.0030048605985939,0.9978676438331604,0.065103568136692,6.28153611558433e-05,-7.226543136248597e-05,-8.748692363013262e-07,0.0001647184544708,0.0006105717620812,0.000726792786736,-0.0038964664563536,0.0025486312806606,-0.9978790283203124,0.0649302676320076,-0.0021996420453743,0.0018048277272036,-0.0001229240783387,0.0094068050384521,-0.0089718103408813,-0.0374603271484375,0,0,0,0
8.2,1788351034077,0.0,0.0,0.0035084604751318,-0.003101542359218,0.9978682398796082,0.0650916546583175,5.495721543151213e-05,-6.250508303730887e-05,-7.587933831725864e-07,-0.0018042096635326,0.0002942900464404,0.0006277604261413,-0.0038842922076582,0.0026108855381608,-0.9978764653205872,0.064965970814228,0.0006018029262682,-0.0002456581014149,0.0014889674671061,-0.010521113872528,0.0276210904121398,-0.0211925506591796,0,0,0,0
8.3,1788351034177,0.0,0.0,0.0035409384872764,-0.0030859916005283,0.9978687167167664,0.0650835856795311,-5.022705502975935e-05,5.696163607944798e-05,6.979134839528744e-07,0.000350631744368,-0.0011274890275672,-0.0005830926238559,-0.0038943402469158,0.00262136105448,-0.9978765845298768,0.0649635642766952,-0.0007136316969986,0.0007338810070628,0.0012317393523414,-0.0074468255043029,0.0003349781036376,0.034398078918457,0,0,0,0
8.4,1788351034277,0.0,0.0,0.0035308119840919,-0.0031222726684063,0.9978723526000975,0.0650268271565437,0.0002315809303897,-0.0002654967547612,1.9224905230686925e-06,-0.0007421590271405,-0.0002999283024109,0.0026604302693158,-0.0038945404812693,0.0026462748646736,-0.9978752136230468,0.0649830102920532,-0.0001927332221366,0.0006360888125459,-0.00154007681553,-0.0005716681480407,-0.0085949897766113,0.0163393020629882,0,0,0,0
8.5,1788351034377,0.0,0.0,0.0034902896732091,-0.0031297367531806,0.9978734850883484,0.0650110617280006,0.0001018146569578,-0.0001165120706523,-1.4289465106012449e-06,1.402851557941176e-05,0.0005269494722597,0.0011694646673277,-0.0038887904956936,0.0026852320879697,-0.9978726506233216,0.0650230944156646,-0.0017268280207977,-0.0001795133616371,-0.001535701102332,-0.0221986770629882,0.0242630839347839,-0.0052261352539062,0,0,0,0
8.6,1788351034477,0.0,0.0,0.0034495184663683,-0.0032220145221799,0.9978734254837036,0.0650098696351051,6.15255526269728e-05,-7.092030135736265e-05,-8.747301744296174e-07,-0.0012155111180618,0.0017706908984109,0.0007189308525994,-0.0038429806008934,0.0027464423328638,-0.9978718757629396,0.0650337189435958,-0.0006380042015023,0.0005100007358804,0.0015151341947605,-0.0052462220191955,0.0035398602485656,0.0126075744628906,0,0,0,0
8.7,1788351034577,0.0,0.0,0.0034475303255021,-0.0032498631626367,0.997870922088623,0.0650474354624748,-0.0001155571800967,0.0001322554786204,1.635614231433578e-06,-0.0010655554942786,3.1456987926503643e-05,-0.0013205808354541,-0.0038314741104841,0.002772687934339,-0.997873306274414,0.0650107786059379,0.0008374040345602,0.0013679296776082,0.0014955934243432,-0.0087705850601196,0.0397183895111084,-0.0161113739013671,0,0,0,0
8.8,1788351034677,0.0,0.0,0.0033863286953419,-0.003268075408414,0.9978715777397156,0.0650386586785316,9.21072528813066e-06,-1.0540548982679897e-05,-1.3115642763978198e-07,-0.0006882208399474,0.002866253722459,0.0001210040791193,-0.0037443563342094,0.002825079485774,-0.997875988483429,0.0649734511971473,-0.0014429703896785,0.0025968800568088,-0.0015328714247937,0.0036017894744873,-0.0046085715293884,0.028609275817871,0,0,0,0
8.9,1788351034777,0.0,0.0,0.0033356740605086,-0.0032876774203032,0.9978715181350708,0.065041571855545,7.972215287622766e-05,-9.240223268113784e-05,-1.1297482638733382e-06,-0.000383194477763,6.155208393465728e-05,0.0009223209344781,-0.0037667322903871,0.002813802100718,-0.9978745579719543,0.06499495357275,0.0004535493494401,-0.0019914510239865,6.041186206601727e-05,0.0243228077888488,0.021876573562622,-0.0168228149414062,37,165,1016,5908
9.0,1788351034877,0.0,3.2676055431365967,0.0038737384602427,-0.0032391676213592,0.9983917474746704,0.0564650259912014,0.0372467111244855,0.00165676793049,1.5171216571511434e-05,0.0052448702044785,-0.0169609636068344,0.3256832361221313,-0.0042091468349099,0.0026815803721547,-0.9974342584609984,0.0714145079255104,0.0041503166003207,-0.0184065096513391,0.3359573889990922,0.4692063331604004,0.4255018234252929,0.339303970336914,96,239,6558,13207
9.1,1788351034977,1.1267606019973757,5.746479034423828,0.0040777237154543,-0.0034211869351565,0.9994559288024902,0.0325484238564968,0.0982321574820139,0.0014932627566155,5.554345604712426e-06,-0.0003784893779084,-0.007051842752844,0.5715283751487732,-0.0042134951800107,0.0029954453930258,-0.9945850372314452,0.1037975177168846,-0.0045316659895068,0.0037923723476737,0.6836966474239808,0.15406334400177,0.0915167927742004,-0.5327367782592773,82,208,4862,19313
9.2,1788351035077,1.183098554611206,6.816901206970215,-0.0042850468307733,0.0034338566474616,-0.9999607801437378,0.0069546070881187,0.145896137940677,0.0017059590848647,3.1397821449819217e-06,0.0030956726986914,-0.0034724783618003,0.8766529560089111,-0.0043648174032568,0.0029270257800817,-0.987519145011902,0.1574113816022873,0.0038183756836669,0.0025079072870279,1.0015790050527218,-0.3627598881721496,0.2623679637908935,-0.0852279663085937,71,76,5428,19165
9.3,1788351035177,0.6478873491287231,3.8309860229492183,-0.0036421038676053,0.0035114209167659,-0.99863201379776,0.0520423203706741,0.134786805930204,-0.0116840448735111,4.886863209173108e-06,0.0022667157463729,0.0129213454201817,0.954842209815979,-0.0038941297680139,0.0031371777877211,-0.9804964065551758,0.1964732706546783,-0.0057371570900548,0.0164180410487873,0.5788829773719707,-0.3392104506492615,-0.1682992577552795,-0.3288545608520508,133,47,3282,7061
9.4,1788351035277,0.2816901504993438,1.3521126508712769,-0.0041622156277298,0.0034429682418704,-0.9967761635780334,0.0800508484244346,0.0527529244395841,-0.0037629093281601,5.485519570173848e-06,0.000472315645311,-0.0117637924849987,0.3266330361366272,-0.0045265592634677,0.0030340887606143,-0.9775229692459106,0.2107585072517395,-0.012642586374397,-0.0022667380996256,0.2365583667401906,-0.7548578381538391,-0.1872367262840271,-0.0433645248413085,28,16,2808,1301
9.5,1788351035377,0.0,0.0,-0.004161583725363,0.0036307643167674,-0.9964579939842224,0.0839101448655128,0.0012981221223094,-0.0027508848012491,2.0289598805760685e-06,-0.0016767490888014,0.0040628821589052,0.0192890800535678,-0.0046626916155219,0.0029739085584878,-0.9772769808769226,0.211894541978836,0.004523952645551,-0.0052877099000511,-0.0413705260664865,0.1368429064750671,0.0117590427398681,-0.0946464538574218,0,0,0,0
9.6,1788351035477,0.0,0.0,-0.004240000154823,0.0035391291603446,-0.9966372847557068,0.0817533731460571,-0.001905119068103,0.0020932359338216,-3.3110248186424937e-06,-0.0008149619679898,0.0023380205966532,-0.0169109161943197,-0.00462974794209,0.0029759351164102,-0.9775103330612184,0.2108157724142074,-0.0001179230150524,0.0007200422511741,0.026555148853854,-0.1445929408073425,0.0348849892616272,-0.0785160064697265,0,0,0,0
9.7,1788351035577,0.0,0.0,-0.0042086592875421,0.0035502437967807,-0.9966113567352296,0.0820699706673622,-0.0001643565509979,-0.0001751945187494,-7.780511180956118e-08,0.0,0.0,0.0,-0.0046339966356754,0.0029868371784687,-0.9775354266166688,0.2106992155313491,-0.0024178599265361,0.0002899837275928,-0.0024259648301674,-0.071029782295227,-0.0800981521606445,0.0200014114379882,0,0,0,0
9.8,1788351035677,0.0,0.0,-0.0041768467053771,0.0035486142151057,-0.9966091513633728,0.0820988714694976,6.635850604190786e-05,-7.50890061503159e-05,2.313747389773389e-06,0.0004823382187169,0.0008316507446579,0.0007648442988283,-0.004618676379323,0.0029762471094727,-0.977533757686615,0.2107072472572326,-0.0002792884281509,-0.0007495575648367,-0.0018320629156453,-0.0546044111251831,-0.0030499100685119,-0.0121307373046875,0,0,0,0
9.9,1788351035777,0.0,0.0,-0.0041701830923557,0.0035613437648862,-0.9966157674789428,0.0820186659693718,-0.0002791513095415,0.0003194835391708,-1.0828518834172701e-07,-0.0004959618672728,0.0003185782406944,-0.0032025875989347,-0.0046060448512434,0.0029475819319486,-0.9775382280349731,0.210687443614006,0.0013068774170563,-0.0002523447875303,0.0009498118423011,0.031726598739624,0.0537943840026855,-0.0011863708496093,0,0,0,0
10.0,1788351035877,0.0,0.0,-0.0042042564600706,0.0035175553057342,-0.9966157674789428,0.0820186734199523,0.0,0.0,0.0,0.0016383308684453,-0.0015061288140714,-1.1953848115808796e-05,-0.0046121906489133,0.0029731187969446,-0.9775426387786864,0.2106664925813675,-0.0007950313002616,0.0009571183036291,0.0010942678534626,-0.0401331186294555,-0.035515010356903,0.0057506561279296,0,0,0,0
10.1,1788351035977,0.0,0.0,-0.0042042564600706,0.0035175553057342,-0.9966157674789428,0.0820186734199523,0.0,0.0,0.0,0.0,0.0,0.0,-0.0046166190877556,0.0029525840654969,-0.9775515794754028,0.2106249183416366,-0.0002703680743949,0.000438521114067,-0.0026136154998482,0.0081912875175476,-0.0197058320045471,-0.003173828125,0,0,0,0
10.2,1788351036077,0.0,0.0,-0.0042042564600706,0.0035175553057342,-0.9966157674789428,0.0820186734199523,0.0,0.0,0.0,0.0,0.0,0.0,-0.0046590147539973,0.002940721809864,-0.9774870276451112,0.2109236419200897,-0.0013579192543064,-0.0036611644250632,0.0188664334894294,0.2983071208000183,0.1112789511680603,0.0367708206176757,85,349,2628,9748
10.3,1788351036177,1.0985915660858154,3.690140962600708,-0.0042195911519229,0.0036131707020103,-0.9959820508956908,0.0893803462386131,0.0406732784931592,0.0019851769700739,4.543085574885287e-06,-0.001507397624664,0.0008902677218429,0.2766942977905273,-0.0050162822008132,0.0029762759804725,-0.9745608568191528,0.2240471690893173,-0.000201101217126,-0.0268131964030809,0.3957951887330022,1.2337586879730225,-0.1103972792625427,0.2107887268066406,114,157,5866,13309
10.4,1788351036277,1.436619758605957,6.11267614364624,-0.0042674462310969,0.0038057449273765,-0.9936390519142152,0.1124671101570129,0.0990290447690554,0.0051296326927072,-7.625465896006536e-06,0.0013425564393401,0.000309746566927,0.5264623761177063,-0.0049228714779019,0.0031371209770441,-0.9688196182250975,0.2476983517408371,0.0065905513209189,-0.0200350315033305,0.7216036523949845,0.5613154172897339,0.251302421092987,-0.3722467422485351,147,160,8913,18928
10.5,1788351036377,2.0,8.14084529876709,-0.0049043027684092,0.0035635833628475,-0.98805034160614,0.1540122926235199,0.1612745839332015,0.0031537510884167,6.567929573627272e-05,0.0067427763715386,-0.0152455708011984,0.8266977667808533,-0.0053494647145271,0.0027750208973884,-0.955547034740448,0.2947773933410644,0.0113732321073379,-0.0070130265927067,0.9355061241157732,0.185396671295166,0.2182366251945495,-0.3149280548095703,177,139,10345,23047
10.6,1788351036477,2.197183132171631,8.14084529876709,-0.0045724059455096,0.0030538155697286,-0.9798731207847596,0.1995456516742706,0.1751882079956116,-0.0017715078943115,-7.240467750038467e-05,0.0201382655650377,0.011520555242896,0.9252892136573792,-0.0046280426904559,0.0024192789569497,-0.942225456237793,0.3349385559558868,0.0165301817966119,0.0186605678068324,0.9080112509506342,-0.2152996659278869,0.2505477666854858,0.855921745300293,150,72,8605,20869
10.7,1788351036577,3.2676055431365967,7.323943614959717,-0.0037188893184065,0.003453602315858,-0.9712838530540466,0.2378693670034408,0.1794553265274735,0.0031236469474616,-0.0001344650622006,-0.0072840554639697,0.0282644238322973,0.8288627862930298,-0.0041454713791608,0.0029604136943817,-0.9289134740829468,0.3702618181705475,0.0014552250881714,-0.0077492097437509,0.7776046816532738,-0.0631922483444213,-0.1302063465118408,0.8262100219726562,102,41,9601,18705
10.8,1788351036677,3.492957830429077,6.929577350616455,-0.0029736922588199,0.0040871733799576,-0.9626282453536988,0.2707792520523071,0.1623135325834311,0.001594998781147,-9.82958013120876e-05,-0.019394339993596,0.0416676551103591,0.6110528707504272,-0.0035771084949374,0.0037317043170332,-0.9180006980895996,0.3965450227260589,-0.015480645702476,0.0121725966104657,0.5674184621940574,-0.0013995170593261,-0.2265752553939819,0.6553373336791992,187,87,11090,18470
10.9,1788351036777,3.4647886753082275,6.985915660858154,-0.0029642963781952,0.0048416280187666,-0.9536533355712892,0.300853818655014,0.1709069910417565,0.005307770589277,-1.9885738413492143e-05,-0.0098647652193903,0.0090299816802144,0.5811126828193665,-0.0035379147157073,0.0045572333037853,-0.9037700295448304,0.4279796779155731,-0.013071897526983,0.0224666478319422,0.5693594973838276,-0.2883750200271606,0.313637912273407,-0.167703628540039,108,89,10507,18404
11.0,1788351036877,3.549295663833618,7.014084339141846,-0.0020462893880903,0.0052558481693267,-0.9441213011741638,0.3295497894287109,0.1715905268211562,0.0014145970969353,-2.5731457279288157e-05,0.0025412156246602,0.0232597272843122,0.6084899306297302,-0.0027019707486033,0.0049553737044334,-0.891789972782135,0.4524143040180206,-0.002045765607913,0.0285500320444528,0.5901584144509127,-0.0302082300186157,0.259341835975647,0.0621070861816406,100,79,10271,18124
11.1,1788351036977,3.4084506034851074,6.760563373565674,-0.0013781345915049,0.0052140993066132,-0.9353689551353456,0.353632241487503,0.1794920521662846,0.0041575130968792,-5.2814483223125975e-05,0.0082817561924457,0.0207127314060926,0.5614426732063293,-0.002279657870531,0.0046950494870543,-0.8766102194786072,0.4811728894710541,0.0118392534318578,-0.0313993027799364,0.5003379295788665,-0.4204868078231811,-0.2874426245689392,-0.1154956817626953,93,39,13014,16498
11.2,1788351037077,3.070422649383545,6.563380241394043,-0.0015580141916871,0.0046889167279005,-0.9270256161689758,0.3749653100967407,0.1633878810253124,0.0057557042222318,-8.826496817256042e-07,0.0102874618023633,0.0024940918665379,0.4974522888660431,-0.0019092820584774,0.0046384278684854,-0.8658331632614136,0.5003076791763306,-0.0033587796655916,0.0173874474029848,0.4790315040973916,0.1029713749885559,-0.2076927423477172,-0.1403045654296875,235,79,13999,17343
11.3,1788351037177,3.88732385635376,6.591549396514893,-0.0018192983698099,0.0043135448358953,-0.917454481124878,0.3978132009506225,0.1659166672791976,0.0017080627591746,-1.645440547469253e-05,0.0089757619425654,-0.0194024853408336,0.4776228964328766,-0.0021656854078173,0.0042538763955235,-0.8550127744674683,0.5185849666595459,-0.0141453747226944,0.0191270706054904,0.4390793098748224,-0.5390991568565369,-0.1014087200164794,0.2279291152954101,142,75,11325,17477
11.4,1788351037277,3.633802890777588,6.253520965576172,-0.0018997102743014,0.0038640687707811,-0.9069578647613524,0.4211993217468261,0.1733702483748007,0.0034177787632707,2.9635871181498967e-05,0.0089982310310006,0.0035336203873157,0.4768446981906891,-0.0020832419395446,0.003688178025186,-0.8425315618515015,0.5386302471160889,0.0043429774471379,0.0304168739532123,0.4546708019833735,-0.3849653601646423,-0.3771359920501709,-0.6744298934936523,212,53,14752,16465
11.5,1788351037377,3.802816867828369,6.056337833404541,-0.0014449533773586,0.0037770438939332,-0.8983235955238342,0.4393157958984375,0.1682752610000166,0.0045782296865118,3.0202368720029532e-05,0.0090485708788037,0.0041664154268801,0.4085493087768554,-0.001609943807125,0.0036407420411705,-0.8324421048164368,0.5540977716445923,0.0127155547243461,0.0500709187353608,0.4298195422045238,0.4065984487533569,-0.1554177403450012,0.1794986724853515,182,49,13755,16965
11.6,1788351037477,4.11267614364624,5.85915470123291,-0.001744101406075,0.0036222587805241,-0.8903075456619263,0.4553419947624206,0.1693014485332982,0.0074873790956092,5.368839723953568e-05,-0.0005251441034488,-0.019098037853837,0.3617976009845733,-0.0020202854648232,0.0033835675567388,-0.8206806182861328,0.5713735818862915,0.0020717033983644,0.0056626574658739,0.2659601003296339,-0.1024549603462219,0.2483183145523071,0.3958930969238281,237,41,14839,15148
11.7,1788351037577,3.94366192817688,5.97183084487915,-0.0018577490700408,0.0032856492325663,-0.8837877511978149,0.4678728580474853,0.1670140341855628,0.0036400737384334,3.6808316887231926e-05,0.0039370534941554,-0.0194583106786012,0.2499601393938064,-0.0024783732369542,0.0029001776129007,-0.8142369985580444,0.5805201530456543,0.0002127775839429,-0.0300080232032798,0.2396080700966231,-0.1592022776603698,0.0957196950912475,0.0649948120117187,216,84,16750,14446
11.8,1788351037677,4.366197109222412,5.77464771270752,-0.0021593095734715,0.0032720637973397,-0.8779805898666382,0.4786801338195801,0.165639822243325,0.0021777510545313,5.275520281238807e-05,0.0041980254463851,-0.0123042957857251,0.2342548817396164,-0.0024932604283094,0.0029452284798026,-0.8058879375457764,0.5920555591583252,0.0019054529475867,0.0042992443367181,0.2230957467254127,0.1923654675483703,0.0965389609336853,0.1243839263916015,242,58,14597,16186
11.9,1788351037777,4.704225540161133,5.577464580535889,-0.0019276862731203,0.0034312191419303,-0.8725202083587646,0.488562136888504,0.1736749944680284,0.0035737116022322,1.887021345335561e-05,-0.003138001775369,0.0042512440122663,0.2411937266588211,-0.0027291486039757,0.0028447462245821,-0.8000634908676147,0.5999024510383606,0.001492998799079,-0.0329227298877667,0.1866650176761304,0.2185215950012207,0.095889925956726,0.8697805404663086,155,35,15457,14305
12.0,1788351037877,4.2253522872924805,5.436619758605957,-0.0020592662040144,0.0033981841988861,-0.8686462640762329,0.4954168498516083,0.1718444942335169,0.0016690683825819,7.64608426120538e-07,0.0013171037426218,0.0003398857370484,0.1700054407119751,-0.0026950119063258,0.0028272997587919,-0.7953331470489502,0.6061601042747498,0.0056274235640069,-0.0236219043240351,0.17164531001792,-0.1181870102882385,-0.3534999489784241,0.7751302719116211,207,49,17087,15036
12.1,1788351037977,4.422535419464111,5.943662166595459,-0.0022582905367016,0.0033056915272027,-0.8643736243247986,0.5028340220451355,0.1616849207608123,0.0089510341603092,2.653688887265887e-05,-0.0031737082172185,0.0065991594456136,0.1653145998716354,-0.0029883384704589,0.0025371732190251,-0.7885180115699768,0.6149992346763611,0.0046991192016195,-0.0156104313159587,0.2305894831293168,-0.101923644542694,0.1906212568283081,0.4747810363769531,213,69,14066,15860
12.2,1788351038077,4.422535419464111,5.577464580535889,-0.0033115190453827,0.0024613428395241,-0.8579613566398621,0.513697624206543,0.16620926350669,0.0040995037948442,7.914010253900301e-05,0.0019684061408042,-0.0240765679627656,0.2371596246957779,-0.0037186434492468,0.0016516130417585,-0.7822434306144714,0.6229596138000488,0.0134848595567932,-0.017269243007531,0.1846807456577873,-0.0783208608627319,-0.500417947769165,0.6419076919555664,176,28,16342,14343
12.3,1788351038177,4.309859275817871,5.492957592010498,-0.0033682789653539,0.0021108139771968,-0.8538911938667297,0.5204362273216248,0.1677631870863377,0.0100545355687583,-8.194303515287399e-05,-0.0017788034165278,0.031391616910696,0.1459850817918777,-0.003426169976592,0.0017564399167895,-0.777625322341919,0.628716230392456,0.0040854770216632,0.0095490048431064,0.1838358850442558,0.3448471426963806,0.1568506360054016,-0.0011196136474609,249,64,17074,14971
12.4,1788351038277,4.309859275817871,5.605633735656738,-0.0030021336860954,0.0018071810482069,-0.8485214710235596,0.5291492938995361,0.1636031780679745,0.0077887055587996,0.0001060919125034,0.0104337213560938,-0.00187449879013,0.217120423913002,-0.0030942829325795,0.0014141853898763,-0.771795392036438,0.6358618140220642,0.0081702358334483,0.0412004264139468,0.1905119062352314,-0.0651082992553711,0.0343117713928222,0.1366987228393554,179,52,17434,14332
12.5,1788351038377,5.070422649383545,5.239436626434326,-0.0032334798015654,0.0011221593013033,-0.842741072177887,0.5383081436157227,0.1594573914520629,0.0087717957029153,0.0001395795890059,0.0113606564700603,-0.01793641038239,0.2007857859134674,-0.0031001968309283,0.0007876167073845,-0.7642034292221069,0.6449673771858215,0.0084545671590544,0.0195976457726113,0.2007381558385925,0.4268878102302551,-0.3376302719116211,0.2005653381347656,375,28,17965,13170
12.6,1788351038477,4.478873252868652,5.521126747131348,-0.0028822424355894,0.0009181255009025,-0.8394226431846619,0.5434706807136536,0.1651131699496264,0.0008325402088625,3.723967485383064e-05,0.0177004504948854,-0.0137458331882953,0.1149430274963378,-0.0030607543885707,0.0003083907067775,-0.7611927390098572,0.6485185623168945,0.015413482799279,-0.0164617708103279,0.1015247619844041,-0.0541778802871704,0.1716833710670471,-0.3173589706420898,231,55,17740,14589
12.7,1788351038577,4.760563373565674,5.6619720458984375,-0.0029601911082863,0.0005693123675882,-0.8357071280479431,0.5491670370101929,0.1739008945560076,0.0038814587569623,4.755985660562185e-05,0.0032763015478849,-0.012202956713736,0.1691398322582245,-0.0029830848798155,7.302127778530121e-05,-0.7564345598220825,0.6540626287460327,0.0051414986717952,-0.0075426308000516,0.1714613295751342,-0.26954185962677,-0.1744202375411987,-0.0560731887817382,303,49,16257,14309
12.8,1788351038677,4.366197109222412,5.577464580535889,-0.0026954356580972,0.0006876105908304,-0.8306000232696533,0.556862473487854,0.1611679142139781,0.0076275606941584,-5.481337000039525e-05,-0.0023331271950155,0.0090406211093068,0.1765214055776596,-0.0026657078415155,0.000112596899271,-0.7489304542541504,0.662643313407898,0.0142726679079879,-0.0050694402763664,0.1977468680616273,0.1259622573852539,0.2312809824943542,-0.4644584655761719,238,56,17605,14449
12.9,1788351038777,4.2253522872924805,5.605633735656738,-0.0019952310249209,0.0012783545535057,-0.8248776793479919,0.5653061866760254,0.1628336031996708,0.0064487047899689,-0.0001936026269596,-0.0104274218901991,0.0288232788443565,0.1772235482931137,-0.0021253442391753,0.0010295743122696,-0.7434623837471008,0.6687735915184021,-0.001073113777047,-0.0019643671324196,0.189364859742555,-0.2204436063766479,-0.2468663454055786,0.1592073440551757,276,61,18391,14452
13.0,1788351038877,4.676056385040283,5.577464580535889,-0.0017985183512791,0.0013896310701966,-0.8197144269943237,0.572767972946167,0.1633397728476491,0.0057265669137219,-5.433218645476346e-05,0.0007751648663543,0.0142838777974247,0.1859181672334671,-0.0020372830331325,0.001054105348885,-0.7377657294273376,0.6750530004501343,0.0069506769964051,-0.0085668402731584,0.1987623028676533,0.2825883030891418,-0.0197428464889526,0.2838668823242187,267,53,16835,14390
13.1,1788351038977,4.3380279541015625,5.521126747131348,-0.0020983796566724,0.0016530125867575,-0.8144630789756775,0.5802092552185059,0.1712633633432571,0.0031684939639448,3.4858008190861804e-05,-0.0065404688939452,-0.0062586427666246,0.2108083516359329,-0.002658330835402,0.0012628668919205,-0.7298609614372253,0.6835893988609314,-0.0095046916264319,-0.0230845580502975,0.1981729562363163,-0.1252647638320922,-0.2879126071929931,0.0729522705078125,278,46,17924,14663
13.2,1788351039077,4.647887229919434,5.183098793029785,-0.0025514476001262,0.0015791808255016,-0.8094534873962402,0.5871762037277222,0.1706050320224158,0.0003449255544803,5.639746840631856e-05,-0.0028051773551851,0.0007660560077056,0.1384730041027069,-0.002483888529241,0.0016248561441898,-0.7257317900657654,0.6879713535308838,-0.0075526587873723,0.0390018907624057,0.0729306473981005,0.2219517230987548,0.2023101449012756,-0.1466178894042968,303,56,19515,13667
13.3,1788351039177,4.619718074798584,5.211267471313477,-0.0029756845906376,0.0017352250870317,-0.8067167401313782,0.5909281373023987,0.171461845232483,0.0032251816002847,7.47860973474505e-05,-0.0059912339784204,-0.0198562387377023,0.0943468213081359,-0.0032325033098459,0.0013421960175037,-0.7230115532875061,0.6908271312713623,-0.012979544316332,-0.0139720119819648,0.0833275665155311,-0.2195233106613159,0.0413323044776916,-0.8044805526733398,285,53,19194,13567
13.4,1788351039277,5.126760482788086,5.239436626434326,-0.0026559049729257,0.0019277767278254,-0.8038680553436279,0.5947986245155334,0.1720912639915187,0.0016046022945569,4.0358285577560896e-05,0.0026711151003837,-0.0184162706136703,0.0899934321641922,-0.0028854794800281,0.00190972071141,-0.719240665435791,0.6947525143623352,-0.0164310220698841,0.0155656410917752,0.0614032794889519,0.1309766173362732,0.2448909878730774,-0.3997516632080078,316,53,17809,13492
13.5,1788351039377,5.042253494262695,5.323943614959717,-0.0026012046728283,0.0025486040394753,-0.80165034532547,0.5977820158004761,0.1704988938170834,0.0010399525719675,-4.932655820447926e-05,-0.0087962942197918,0.0068095233291387,0.1137797087430954,-0.0031901644542813,0.0020255148410797,-0.716529130935669,0.6975470185279846,-0.0030540345410168,-0.0249876032383839,0.0813417590649434,0.1499986052513122,-0.2744702100753784,-0.1046781539916992,330,49,17893,13069
13.6,1788351039477,4.619718074798584,5.239436626434326,-0.0028854799456894,0.0024983044713735,-0.799172580242157,0.601089596748352,0.1623497010225663,0.0061755702295005,-1.7975220248091747e-05,0.0047185425646603,-0.0064562805928289,0.0977289527654647,-0.0033216616138815,0.0019760048016905,-0.7136994004249573,0.7004414200782776,0.0030223908840961,-0.0190020215175903,0.1084312390230665,0.3185133337974548,0.2233474850654602,-0.4643630981445312,310,37,19582,13470
13.7,1788351039577,4.8450703620910645,5.492957592010498,-0.0028863705229014,0.0027060774154961,-0.7965064644813538,0.6046169400215149,0.1692443788691055,0.0019174607257863,-4.277115517131262e-05,-0.0033023771829903,0.0139860240742564,0.0907873138785362,-0.0031473003327846,0.0027011455968022,-0.7091565132141113,0.705038845539093,-0.0077618099262025,0.00260600018869,0.1416350889097186,-0.1372407674789428,0.020070195198059,-0.8062601089477539,256,64,16320,14824
13.8,1788351039677,4.676056385040283,5.77464771270752,-0.0025787686463445,0.0033905615564435,-0.7904138565063477,0.6125583648681641,0.1666976188026481,0.0067507697231691,-0.0001109747865722,-0.0046582352370023,0.0292127151042222,0.2003995329141616,-0.0032272124662995,0.0028392300009727,-0.7027104496955872,0.7114630341529846,-0.0015173987134738,-0.0290327404283862,0.2197312094726396,0.0505140423774719,0.2427954673767089,1.1054258346557615,341,45,16838,13693
13.9,1788351039777,4.873239517211914,5.521126747131348,-0.0032973673660308,0.0028744633309543,-0.7842795252799988,0.620392382144928,0.1662398369344387,0.0031867548242496,6.249642758302924e-05,0.0018096788553521,-0.0215224884450435,0.2157469689846038,-0.0036559347063302,0.0024579158052802,-0.6959060430526733,0.7181193232536316,-0.0035602810019327,-0.004078054746871,0.1889064132953056,-0.2305963635444641,-0.0036361217498779,-0.526123046875,279,37,16554,14366
14.0,1788351039877,4.619718074798584,5.492957592010498,-0.0025866206269711,0.0030226283706724,-0.7782239317893982,0.6279741525650024,0.1680162999567573,0.0068798408835696,-4.284700030877807e-05,0.0073898746632039,0.0152710089460015,0.1953480392694473,-0.0033375564962625,0.0022444976493716,-0.687343955039978,0.7263210415840149,-0.0081717815489006,-0.0347775035639655,0.2071322953744925,-0.2948734760284424,0.3171576857566833,-0.2667369842529297,367,48,17669,14384
14.1,1788351039977,4.3380279541015625,5.605633735656738,-0.0037285261787474,0.0021202182397246,-0.771407425403595,0.6363270282745361,0.1682771611367194,0.0029753326345573,9.477078052837864e-05,-0.0002888697199523,-0.0244837421923875,0.1944516003131866,-0.004048341885209,0.0016543501988053,-0.6811944842338562,0.7320894598960876,-0.0076392615178141,-0.0116202742011599,0.1702708752486747,-0.700203001499176,-0.0312359929084777,-0.0377912521362304,230,37,18369,14040
14.2,1788351040077,4.3380279541015625,5.492957592010498,-0.003808997105807,0.0017118344549089,-0.7649745941162109,0.6440469622612,0.1578521614784015,0.0063851487554569,6.61934630342657e-05,0.0087831690907478,-0.0341523066163063,0.2090063393115997,-0.0041290363296866,0.0010488545522093,-0.6742228865623474,0.7385156750679016,5.068233986408935e-05,-0.0400283877092896,0.1849270436629722,0.3846286535263061,-0.1790107488632202,-0.3000564575195312,340,42,18748,14466
14.3,1788351040177,4.929577350616455,5.605633735656738,-0.0043957848101854,0.0008254263084381,-0.7587389349937439,0.6513795256614685,0.1679651882164728,0.0057809901572568,2.5697518693856748e-05,0.011148658581078,-0.0158219300210475,0.227152943611145,-0.0047210566699504,-0.0003678100183606,-0.6650387048721313,0.7467938661575317,0.013736835048532,-0.0346997789817968,0.1980399271598333,-0.2374835610389709,-0.1888726353645324,-0.0864248275756836,296,37,16873,13914
14.4,1788351040277,4.450704097747803,5.633802890777588,-0.0050294692628085,-0.0007011950947344,-0.7524277567863464,0.6586552858352661,0.1758305542017134,0.0029058446500594,8.068967511771889e-05,0.0162769854068756,-0.0298578403890132,0.191136747598648,-0.0048338584601879,-0.0017366111278533,-0.6581701040267944,0.7528518438339233,0.0209787797328035,-0.017303268064043,0.2133209917413577,0.3359174132347107,-0.3249452710151672,0.0518302917480468,267,42,18546,13899
14.5,1788351040377,4.422535419464111,5.746479034423828,-0.0047802152112126,-0.0013723858864977,-0.7461064457893372,0.6658081412315369,0.1662421908760627,0.0039343460447581,2.3667993049189573e-05,0.0153135620057582,0.004324628971517,0.2141585648059845,-0.0041360193863511,-0.0017629526555538,-0.6511184573173523,0.7589628100395203,0.0138897565195174,0.0358046332111977,0.2313833493179568,0.0162104368209838,0.4231316447257995,0.0427570343017578,364,31,18560,13506
14.6,1788351040477,4.366197109222412,5.521126747131348,-0.0042367186397314,-0.0013484148075804,-0.7385134696960449,0.6742240190505981,0.1649145388252446,0.003247659058576,2.195131454381926e-05,-0.0026770117692649,-0.0125913051888346,0.1696376502513885,-0.0039758272469043,-0.0017619878053665,-0.6423605680465698,0.7663902044296265,-0.002145678377393,0.0033006209182222,0.2159110803176586,0.0922974944114685,-0.0456407666206359,0.1601104736328125,235,53,18548,14454
14.7,1788351040577,4.309859275817871,5.549295902252197,-0.0039520431309938,-0.0014496846124529,-0.7321984767913818,0.6810783743858337,0.1660961052803326,0.004052301857166,1.4406561041178925e-07,0.0088494084775447,-0.0008251996478065,0.2066087871789932,-0.0036227842792868,-0.002042394131422,-0.6355472803115845,0.7720507979393005,0.0112195367467793,-3.9677103915214e-05,0.175623198464137,-0.0796658396720886,0.2117881178855896,0.2522993087768554,341,41,18777,14113
14.8,1788351040677,4.422535419464111,5.633802890777588,-0.0039458991959691,-0.0019583466928452,-0.7257385849952698,0.6879565119743347,0.1672115286188957,0.0002341901289923,3.8703570761956685e-05,0.0077006975188851,-0.0098472340032458,0.1911763101816177,-0.003737973049283,-0.0026641367003321,-0.6289425492286682,0.7774382829666138,0.0049006826318677,-0.0172474274984128,0.1752764809350947,0.0661476850509643,-0.3450979590415954,-0.3668365478515625,246,42,18288,13970
14.9,1788351040777,4.873239517211914,5.633802890777588,-0.0037837014533579,-0.0019156646449118,-0.7197803854942322,0.6941888332366943,0.161337615452329,0.0078546104124033,-2.234502081923432e-05,0.0023136150557547,0.0153490751981735,0.1919665783643722,-0.0030287951231002,-0.0018127718940377,-0.6198245286941528,0.7847325205802917,0.0009876554878873,0.0320733047383087,0.1853348058938444,-0.1977152228355407,0.2781075835227966,0.5307388305664062,323,39,16774,13855
15.0,1788351040877,4.507042407989502,5.633802890777588,-0.0035820072516798,-0.0015518009895458,-0.7118926644325256,0.7022774815559387,0.1662335587018495,0.004021141021123,2.1105678592715987e-05,-0.0020602697040885,-0.0188594348728656,0.1838256418704986,-0.0036047995090484,-0.0023364275693893,-0.6130945682525635,0.7899978160858154,-0.0001402441307667,-0.0463542467684987,0.219636312516462,0.0122073292732238,-0.110208511352539,-0.197484016418457,236,34,18023,14099
15.1,1788351040977,5.690140724182129,4.478873252868652,-0.0044371150434017,-0.0022877922747284,-0.7069991827011108,0.7071967124938965,0.1720685257484097,0.0006260630222246,5.123551427812461e-05,-0.001935094827786,-0.0213180128484964,0.1130180060863494,-0.0047904290258884,-0.0035534901544451,-0.6092696189880371,0.7929407358169556,-0.007547865611949,-0.0653353809711286,-0.0022286808005224,0.2737606763839721,-0.5662733316421509,0.0155086517333984,382,24,21107,10808
15.2,1788351041077,5.549295902252197,4.478873252868652,-0.0100928768515586,-0.0075483662076294,-0.7107313871383667,0.7033506631851196,0.1661292499333755,-0.0015969409665136,0.000463607999788,-0.0096090836450457,-0.1864209175109863,-0.1448927223682403,-0.0118602020666003,-0.0124214235693216,-0.615681529045105,0.7878078818321228,-0.0019569145115318,-0.2146583091874557,-0.1268407094489342,0.6207488179206848,-0.0073286294937133,-0.3460092544555664,303,56,21321,11624
15.3,1788351041177,5.690140724182129,4.450704097747803,-0.016956478357315,-0.013892495073378,-0.7146668434143066,0.6991214752197266,0.1596788751095195,0.0026459703274428,0.0004167000542976,-0.0127622578293085,-0.1804650425910949,-0.1117243915796279,-0.0154803767800331,-0.0160913597792387,-0.6190975904464722,0.7849966287612915,-0.0236923089524845,-0.0007914146164238,-0.0847116944079758,-0.3526660203933716,-0.0354591012001037,-0.3046731948852539,457,86,20882,12334
15.4,1788351041277,5.352112770080566,4.985915660858154,-0.016777578741312,-0.0133713083341717,-0.7162563800811768,0.6975072622299194,0.1664941728434812,-0.0002101471934913,-0.0001642252472264,0.0009584456565789,0.0253231339156627,-0.0209767520427703,-0.0149387791752815,-0.0153955612331628,-0.6196421384811401,0.7845912575721741,-0.0020615860607464,0.0133234693404365,0.0251295445902639,0.6110976934432983,-0.1022157073020935,-0.2550048828125,337,41,20012,12712
15.5,1788351041377,5.295774459838867,4.901408672332764,-0.0168329812586307,-0.0130463670939207,-0.7163885831832886,0.6973764300346375,0.1673391424202898,0.0026978136882489,7.93308390706674e-08,0.0,0.0,0.0,-0.0150923570618033,-0.0147530231624841,-0.6191325187683105,0.7850028276443481,-0.0024314693238126,0.0099800346774574,0.0309050692621969,0.2383567094802856,0.2511295080184936,-0.1988639831542968,292,33,19899,12491
15.6,1788351041477,5.211267471313477,4.873239517211914,-0.016639245674014,-0.012441836297512,-0.7156005501747131,0.6982006430625916,0.1625440244111701,0.0029862225543958,-2.6117228292300053e-05,0.000960724952165,0.0082506043836474,0.0098881563171744,-0.0147746438160538,-0.014237118884921,-0.6186040639877319,0.7854350209236145,-0.0056128460607457,0.0011571195385972,0.0050425170798427,-0.121647834777832,-0.3240877985954284,-0.0752019882202148,407,37,19936,13323
15.7,1788351041577,5.352112770080566,5.098591327667236,-0.0160092450678348,-0.011835147626698,-0.7147021889686584,0.6991454362869263,0.1661181246521044,0.0056012396720722,-6.38080006219422e-07,-0.0006484157638624,0.0170639380812644,0.0289912614971399,-0.0138043146580457,-0.0132680041715502,-0.6168700456619263,0.7868320941925049,0.0071927357438343,0.0330321601784867,0.0685283515706901,0.1475756764411926,0.0288676023483276,0.0468473434448242,381,36,18962,12731
15.8,1788351041677,5.126760482788086,4.929577350616455,-0.0148866539821028,-0.0110229421406984,-0.7119066715240479,0.7020297050476074,0.1691768580367631,-0.0004221033328463,-8.408995716141141e-05,0.0051958039402961,0.0134254666045308,0.0687521621584892,-0.0136005198583006,-0.0131718832999467,-0.614436149597168,0.7887394428253174,-0.0013676967768598,-0.0277700425960728,0.024866031407511,0.0779721140861511,0.0526303052902221,0.2586660385131836,400,21,21272,12066
15.9,1788351041777,4.8450703620910645,4.929577350616455,-0.0154384030029177,-0.0113766053691506,-0.7115034461021423,0.7024208307266235,0.1629077833866619,0.0021454006175405,7.326399170915527e-05,-0.0033071734942495,-0.0151723930612206,0.0126992631703615,-0.0135768661275506,-0.0130389519035816,-0.6136031746864319,0.7893900871276855,0.0068133838595731,0.024481991729146,0.0437257125840269,0.0355769991874694,0.1521437764167785,-0.0968046188354492,382,53,21086,13380
16.0,1788351041877,4.901408672332764,4.8450703620910645,-0.0150033207610249,-0.0110535798594355,-0.7098892331123352,0.7040666937828064,0.1676661812838842,-0.0001537870891461,-3.222970803675565e-05,0.0041343881748616,-0.001549954409711,0.0223884899169206,-0.0136825209483504,-0.0132372099906206,-0.6124748587608337,0.7902607917785645,6.960216968168373e-05,-0.0437960089876085,0.0035067045611652,0.0259905457496643,-0.0271768569946289,-0.2982664108276367,410,23,21987,12386
16.1,1788351041977,4.676056385040283,5.239436626434326,-0.0149447685107588,-0.0109908487647771,-0.7096660733222961,0.7042939066886902,0.1642701868932265,0.0030754534089882,-2.51541939644774e-06,0.0001290421350859,0.0042650811374187,0.0160128287971019,-0.0131132714450359,-0.0122062899172306,-0.6110525131225586,0.7913873195648193,-0.0093307484888031,0.0376253925725523,0.0780721156494779,0.0989375114440918,0.1097688674926757,0.4682064056396484,316,46,20113,13482
16.2,1788351042077,4.647887229919434,5.352112770080566,-0.0142257278785109,-0.0101597011089324,-0.7060328722000122,0.7079632878303528,0.1725912845785727,0.0020649764508649,-0.000108586012734,0.003963319119066,0.0127992797642946,0.1061961948871612,-0.012833192013204,-0.0119995409622788,-0.6077755093574524,0.7939146161079407,0.0081776772412961,-0.0109549632143265,0.0925933800620802,-0.0107770562171936,0.0045428872108459,0.28399658203125,340,35,19861,12964
16.3,1788351042177,4.8450703620910645,5.464788913726807,-0.0151417274028062,-0.0108120739459991,-0.7035546898841858,0.7103975415229797,0.1659500164270869,0.0044809839996633,7.99976623606862e-05,-0.0056089027784764,-0.0245703179389238,0.0698439553380012,-0.0138836307451128,-0.0130566246807575,-0.6045031547546387,0.7963747978210449,-0.0003607646989588,-0.0395196779524618,0.0909429204742714,-0.1562789678573608,0.0334445238113403,-0.1203641891479492,316,75,17191,15146
16.4,1788351042277,4.535211086273193,5.549295902252197,-0.0146090919151902,-0.0104775223881006,-0.6967830657958984,0.7170565128326416,0.1717370286683012,0.0056214707651881,-4.4985564470003525e-05,0.0072836601175367,0.0115773668512701,0.2139763236045837,-0.0126533610746264,-0.0121627831831574,-0.5950301885604858,0.8035117387771606,0.0243795820437794,0.0241361587475481,0.218401216488616,-0.0284972786903381,0.3704605102539062,0.4506111145019531,404,48,18269,14612
16.5,1788351042377,4.253520965576172,5.633802890777588,-0.0147217977792024,-0.0108590153977274,-0.688917338848114,0.7246090769767761,0.173130610309392,0.000171086206364,0.0001143225333578,0.0009866636246442,-0.0300287138670682,0.1836086809635162,-0.0132501414045691,-0.0127776712179183,-0.5880934596061707,0.8085834980010986,-0.0018039872424647,-0.0182766284567481,0.1736448149551423,-0.1198534369468689,0.0055049061775207,-0.1604213714599609,300,55,19119,14452
16.6,1788351042477,4.563380241394043,5.521126747131348,-0.0142551688477396,-0.0107325073331594,-0.6817479729652405,0.7313694953918457,0.1663708195462907,0.0054086829878067,8.701880477351844e-06,0.0067432112991809,0.0161569416522979,0.1984654366970062,-0.0126092536374926,-0.0122487181797623,-0.5785094499588013,0.8154863119125366,0.0006292486400031,0.0134408465910862,0.1922639851195969,-0.5075653195381165,0.4413071870803833,0.0734663009643554,394,53,18136,14856
16.7,1788351042577,5.014084339141846,5.211267471313477,-0.0147809786722064,-0.0112665453925728,-0.6752066612243652,0.7373944520950317,0.1723403169378014,0.0049409806573656,0.0001055379872703,0.0028361747972667,-0.0335564576089382,0.2010951042175293,-0.0131938690319657,-0.0127636911347508,-0.5717818140983582,0.8202003240585327,-0.009184219646765,0.0196040670416464,0.149057964745355,-0.2937597036361694,-0.4359453916549682,0.0664529800415039,304,47,18611,13528
16.8,1788351042677,5.098591327667236,5.070422649383545,-0.0144657157361507,-0.0111743388697505,-0.6706966757774353,0.7415064573287964,0.1718404815847965,0.000650763513524,-1.731321546555114e-05,0.0125877652317285,-0.0234767217189073,0.0966882407665252,-0.0128514589741826,-0.0129425339400768,-0.5681330561637878,0.8227346539497375,0.0026810946277432,-0.0059665922518038,0.0739274727704117,0.461948812007904,0.0259991884231567,-0.2896289825439453,377,71,18599,14123
16.9,1788351042777,4.760563373565674,5.295774459838867,-0.013408675789833,-0.0101903472095727,-0.6672256588935852,0.7446653246879578,0.1718332811515184,0.0009427567091308,-7.049850490702925e-05,0.0041687493212521,0.0205840524286031,0.1021336689591407,-0.0118115814402699,-0.0118178222328424,-0.5634592771530151,0.8259749412536621,0.0099309809727761,0.0049384161926002,0.1078472971545472,0.1525100469589233,-0.2316616177558899,-0.2106084823608398,318,29,19455,13303
17.0,1788351042877,4.816901206970215,4.985915660858154,-0.0128727983683347,-0.0098310448229312,-0.6643096208572388,0.7472819685935974,0.1640255157470255,0.0017235071970104,-2.1824576342331048e-05,0.0026735141873359,0.0145742036402225,0.0646711289882659,-0.0115647073835134,-0.0112985875457525,-0.5614660978317261,0.8273417949676514,-0.0097081118273228,0.0079382613801476,0.0307950988373268,-0.0768975019454956,0.2682376503944397,-0.1684579849243164,368,47,20575,13234
17.1,1788351042977,4.704225540161133,5.098591327667236,-0.0123440539464354,-0.0092782005667686,-0.6625376343727112,0.7488693594932556,0.1692245679882532,0.0041875597254346,-9.337869212258808e-05,0.0064909607172012,0.0277617871761322,0.072671078145504,-0.0106741245836019,-0.0106379194185137,-0.5589037537574768,0.8290956020355225,0.021826077353074,0.0209144297129964,0.0872711009513065,0.0120512843132019,-0.2911211252212524,-0.2118244171142578,349,26,20908,12886
17.2,1788351043077,5.352112770080566,5.098591327667236,-0.0108748404309153,-0.0081244315952062,-0.6602230072021484,0.7509469389915466,0.1720028801542362,0.0015324467986583,-7.601282012871803e-05,0.0053093200549483,0.029288362711668,0.0503413751721382,-0.0096474476158618,-0.0093818930909037,-0.556959331035614,0.8304307460784912,0.0043056862818851,0.0173122011905155,0.0406692353735687,-0.0118727087974548,0.3188279867172241,-0.1321592330932617,373,33,18691,12640
17.3,1788351043177,5.267605781555176,5.183098793029785,-0.009945573285222,-0.007386268582195,-0.6576045751571655,0.7532614469528198,0.1695309177409084,0.0020764151751088,-7.95382544218801e-05,0.0078269261866807,0.0181420668959617,0.0748868361115455,-0.0090010799467563,-0.0086834700778126,-0.5536997318267822,0.8326224684715271,-0.0017431447126711,-0.0096070613178347,0.0700224921416368,0.0660037994384765,0.3077284097671509,-0.0679893493652343,355,34,19040,12362
17.4,1788351043277,5.070422649383545,5.098591327667236,-0.0093571757897734,-0.0070534730330109,-0.6552254557609558,0.7553424835205078,0.1554619827492584,0.0050223121730934,-5.00248547628664e-05,0.0089509813115,0.0376215167343616,0.0651338174939155,-0.008239516057074,-0.0079608689993619,-0.5513002872467041,0.8342282176017761,0.0039211157877133,0.0459087204203511,0.066019818544791,0.0106645226478576,-0.0777834057807922,0.2412500381469726,422,43,20097,12686
17.5,1788351043377,5.85915470123291,4.478873252868652,-0.0089656747877597,-0.006529682315886,-0.6544315218925476,0.7560399770736694,0.1642355573508743,-0.0025634965948233,1.2919895298881396e-06,0.0022672784980386,0.0024541462771594,-0.014370116405189,-0.0080752084031701,-0.0077030938118696,-0.5511447191238403,0.8343350887298584,0.0068856596131278,-0.0159486373612464,-0.0579970805138869,0.2109336853027343,0.0827752351760864,-0.6887922286987305,420,25,21200,11041
17.6,1788351043477,5.239436626434326,4.535211086273193,-0.0088821267709136,-0.0065689533948898,-0.6571477055549622,0.753680944442749,0.164272578581728,-0.0013810096294745,-3.403190778515584e-05,-0.0007833150448277,0.0131729943677783,-0.0795779228210449,-0.0077916774898767,-0.0075404299423098,-0.5551848411560059,0.831656277179718,0.0034515614361935,0.0100963835787814,-0.0832983761986344,0.1946812272071838,-0.034092366695404,-0.0498104095458984,365,21,23229,11005
17.7,1788351043577,5.605633735656738,4.563380241394043,-0.0083646401762962,-0.0062205772846937,-0.6609298586845398,0.7503753304481506,0.1594935425489744,-0.0081248234820964,-7.290744504005838e-05,0.0001770902454154,0.0143894692882895,-0.0957825481891632,-0.0076281018555164,-0.0075843902304768,-0.5588051676750183,0.8292292356491089,0.0052861428532297,-0.0338798244333311,-0.0988965425734091,0.0160161852836608,0.0683238506317138,-0.2436122894287109,391,24,21834,10864
17.8,1788351043677,5.633802890777588,4.929577350616455,-0.0087717371061444,-0.0068137692287564,-0.6633190512657166,0.7482542395591736,0.1593541871353489,0.0004859758569692,-1.1502095849286027e-06,0.0015100019518285,0.0004136217758059,-0.0278600994497537,-0.0072570946067571,-0.0074883447960019,-0.5608180165290833,0.8278734683990479,0.0071957404695459,0.0145168947182655,-0.0005989680387221,0.0394136905670166,-0.0026138424873352,0.0757951736450195,287,26,18663,12277
17.9,1788351043777,5.436619758605957,4.873239517211914,-0.0085636060684919,-0.0070541696622967,-0.6632952094078064,0.7482755780220032,0.1663223731546951,0.0002372563125044,-1.7350272967779968e-06,0.0006353653152473,-0.0294524747878313,0.007163917645812,-0.0084023624658584,-0.0089157512411475,-0.560875415802002,0.8278096318244934,-0.015501125510224,-0.0754030826643125,-0.0212836608380621,-0.1706500053405761,0.202454388141632,0.3770112991333008,341,45,19278,12341
18.0,1788351043877,4.873239517211914,4.929577350616455,-0.0101349158212542,-0.0087072737514972,-0.6629012227058411,0.7485876083374023,0.1606062511990141,0.0026624249857876,0.000110914568983,0.0058530359528958,-0.0417161621153354,0.0297799166291952,-0.0091394335031509,-0.010606674477458,-0.5595980286598206,0.8286460041999817,0.0120539249964031,-0.055027541183262,0.0462138814518528,0.0688273310661315,-0.2443141341209411,-0.1278238296508789,396,27,21424,12247
18.1,1788351043977,5.577464580535889,4.957746505737305,-0.0114477723836898,-0.0107023417949676,-0.6618624329566956,0.7494615316390991,0.1608920851203998,0.0004351490530016,9.646139225627957e-05,0.0037858004216104,-0.0422055050730705,0.0148099344223737,-0.0103135993704199,-0.0127752283588051,-0.5588910579681396,0.8290785551071167,0.0057002697746563,-0.0378206785698295,0.0094611712015697,0.063804805278778,-0.1971983313560485,0.0785179138183593,405,27,19298,12051
18.2,1788351044077,5.464788913726807,4.760563373565674,-0.0123047726228833,-0.0117570338770747,-0.6616035103797913,0.7496607303619385,0.1630262539367379,-0.0032255917144703,7.143590924344214e-05,0.0034139933995902,-0.0403869748115539,0.0133343636989593,-0.0107209496200084,-0.0132793672382831,-0.558739960193634,0.8291672468185425,-0.0015296677875459,-0.003089828474821,0.0016587843530627,0.1266219019889831,0.0215017199516296,-0.0066919326782226,390,37,19539,12740
18.3,1788351044177,5.915493011474609,4.591549396514893,-0.0125420046970248,-0.0121756559237837,-0.6619161367416382,0.7493740916252136,0.164157316851974,-0.0016481267063164,2.275057285094033e-05,0.0037376184482127,-0.0191240608692169,-0.0173369385302066,-0.0113374022766947,-0.0140837421640753,-0.5598281025886536,0.8284115791320801,-0.0163360479084299,-0.0513116294397663,-0.075397013003855,-0.0763799548149108,-0.2233685851097107,-0.1844902038574218,391,22,20688,10861
18.4,1788351044277,5.352112770080566,4.619718074798584,-0.0134718772023916,-0.0124969966709613,-0.6649060845375061,0.7467008829116821,0.1638787513426565,-0.0029125657693764,1.780155963476225e-05,-0.0148476064205169,0.0099626760929822,-0.0902084782719612,-0.0112213483080267,-0.0134375626221299,-0.5640060305595398,0.8255850672721863,-0.0024405590691189,0.0474854693355941,-0.0784211669196169,0.1649810075759887,0.1167336702346801,0.2273454666137695,324,22,22630,10880
18.5,1788351044377,5.549295902252197,4.450704097747803,-0.0126809682697057,-0.0117343720048666,-0.6677643656730652,0.7441721558570862,0.1692153951077741,-0.0016363524169638,-3.5414930687203374e-05,0.000832604127936,0.0103516299277544,-0.0860728546977043,-0.0110522713512182,-0.0129549903795123,-0.5673968195915222,0.8232684135437012,-0.0135597423168414,0.004638255538577,-0.09363638532772,-0.0264297127723693,-0.1299104690551757,-0.4723539352416992,463,34,21887,11508
18.6,1788351044477,5.183098793029785,4.704225540161133,-0.0124228689819574,-0.0107175251469016,-0.6716048717498779,0.7407277822494507,0.1612596369301181,-0.0070036437145877,-0.0001539777049776,-0.0111601501703262,0.0176590830087661,-0.0832661390304565,-0.0108469929546117,-0.0121066495776176,-0.5706183910369873,0.8210545182228088,-0.000953436675566,0.0020829082083681,-0.0897147124250624,-0.0054942369461059,0.0452598333358764,0.3699445724487304,344,24,22462,10526
18.7,1788351044577,5.239436626434326,4.760563373565674,-0.0129167363047599,-0.0109772281721234,-0.674938440322876,0.7376792430877686,0.1588304881464523,-0.0065912560615601,0.000112066870481,-0.0062197367660701,-0.0295809488743543,-0.1149945110082626,-0.0113763343542814,-0.0125908004119992,-0.5741216540336609,0.8185941576957703,-0.0007942243282811,-0.001801691595855,-0.0941007562046578,-0.0408762693405151,0.0025047659873962,0.1906805038452148,387,63,20113,12875
18.8,1788351044677,5.014084339141846,4.8450703620910645,-0.0121881170198321,-0.0102074611932039,-0.6761264204978943,0.7366141080856323,0.1570638060960349,0.0035976267598391,-9.26450841047237e-05,-0.0019546914845705,0.0437868237495422,-0.0336554422974586,-0.0106846243143081,-0.0114334728568792,-0.5747944712638855,0.818148136138916,-0.0056185695940267,0.0052477283505199,0.003634136055956,-0.093515396118164,-0.1730013489723205,-0.0567026138305664,272,41,19680,13340
18.9,1788351044777,4.676056385040283,5.014084339141846,-0.0124359242618083,-0.0106092728674411,-0.675520658493042,0.7371598482131958,0.1614883842357422,-0.0017149294534547,3.297456364162441e-05,0.0054948315955698,-0.0327981300652027,0.0285956747829914,-0.0112410625442862,-0.0126889273524284,-0.5735192894935608,0.819016695022583,0.0048204677281672,-0.0301498702498805,0.0413941876357704,0.2016577124595642,0.2408463954925537,-0.083444595336914,356,74,21128,12612
19.0,1788351044877,4.929577350616455,4.788732528686523,-0.0132771525532007,-0.0119157806038856,-0.6738601326942444,0.7386434674263,0.1636530814917117,-0.003857764333508,5.426084641102101e-05,0.0060114152729511,-0.0273157209157943,0.0426956415176391,-0.0117132980376482,-0.0135471019893884,-0.5722431540489197,0.8198884725570679,-0.0081144412366621,-0.0252547151127661,0.0046714135721217,-0.307700514793396,0.1782301068305969,-0.0741195678710937,308,37,21298,12875
19.1,1788351044977,5.070422649383545,4.8450703620910645,-0.0141738206148147,-0.0127400616183876,-0.6732601523399353,0.7391600012779236,0.1665177683997454,-0.0004116851590696,0.0001611894815441,0.0013823286863043,-0.0402369759976863,0.0203031972050666,-0.0124307526275515,-0.0141214076429605,-0.5717768669128418,0.8201934695243835,-0.0175028950433865,0.023924554025494,-0.0139429724100735,-0.3501337766647339,0.1346939802169799,0.0575141906738281,274,69,20996,12849
19.2,1788351045077,4.985915660858154,4.8450703620910645,-0.0143744461238384,-0.0129451109096407,-0.6727699041366577,0.7395988702774048,0.1707528786604942,-0.001132860203779,6.846137890587449e-06,0.005216862540692,-0.0239761415868997,0.0186860989779233,-0.0126871895045042,-0.0146585702896118,-0.5710873007774353,0.8206603527069092,-0.0077153443786417,-0.0020266832401673,0.0036003490024001,0.2401714324951172,0.0170677304267883,-0.218759536743164,305,39,21204,12587
19.3,1788351045177,4.985915660858154,4.8450703620910645,-0.0148391658440232,-0.0134741207584738,-0.6723847985267639,0.7399303317070007,0.1664172396148654,-0.0015705758161001,4.340278916024066e-05,0.0057705044746398,-0.0202199667692184,0.0204363614320755,-0.0131954997777938,-0.0157633945345878,-0.5707462430000305,0.8208692073822021,0.0052834707797237,-0.0306011837716339,-6.552332350921368e-06,0.002973735332489,-0.0859577655792236,-0.1355428695678711,289,45,21031,12666
19.4,1788351045277,5.042253494262695,4.676056385040283,-0.0148703753948211,-0.0141835920512676,-0.6719127893447876,0.7403450608253479,0.1675469240453989,-0.0019991889870314,-2.457772998789175e-06,0.006613568868488,0.000643488834612,0.0123936934396624,-0.0129860341548919,-0.015768926590681,-0.5702499747276306,0.8212172389030457,-0.0130641716755731,0.0091663642182004,-0.0049024314948175,-0.1222977042198181,-0.1108787059783935,-0.0656948089599609,361,50,20992,13231
19.5,1788351045377,4.985915660858154,4.985915660858154,-0.0145514225587248,-0.0138187101110816,-0.6717529296875,0.7405033707618713,0.1697075882449485,0.0002846453974858,-2.6595527267544583e-05,0.0078003047965466,0.0140985893085598,0.0121804317459464,-0.0124726565554738,-0.0153283663094043,-0.5700302720069885,0.8213860988616943,-0.0004407557934426,0.0196575128887293,-0.0076004431311587,0.0616671442985534,0.0790023207664489,0.0401782989501953,359,26,21075,12149
19.6,1788351045477,5.211267471313477,5.014084339141846,-0.0137573620304465,-0.0125398701056838,-0.6720278263092041,0.740291953086853,0.1672067787587036,0.0029512840846737,-0.0001430832685392,-0.0102213229984045,0.0554511584341526,-0.0173100363463163,-0.0120422709733247,-0.0138983484357595,-0.5703346729278564,0.8212065696716309,-0.0143055526740622,0.0297452520681722,-0.0048568671125417,-0.0694305896759033,0.0167139172554016,-0.2668714523315429,304,36,20067,12021
19.7,1788351045577,4.2253522872924805,4.619718074798584,-0.0140014933422207,-0.0118648987263441,-0.672109067440033,0.7402245998382568,0.1643385454287478,-0.0010695829335181,1.181615082008788e-05,-0.0032957636285573,-0.0028533637523651,0.0015595181612297,-0.0120303016155958,-0.0128670958802104,-0.5700520873069763,0.8214197158813477,0.0073778930575328,0.0463183491640277,0.0301283862583245,-0.3952664136886596,-0.1394064426422119,-0.4703359603881836,144,26,14262,9519
19.8,1788351045677,1.6619718074798584,3.239436626434326,-0.0082097006961703,-0.0053512221202254,-0.6687694191932678,0.7434054017066956,0.1115855653088099,0.0030933746433839,-0.000404459515491,0.0046549551188945,0.2507742941379547,0.1375481784343719,-0.0054588662460446,-0.0035593565553426,-0.5648688077926636,0.8251549601554871,0.0058435968635366,0.3306535686244052,0.2092876107812346,-0.4035661816596985,-0.017924427986145,0.077850341796875,82,19,6043,7464
19.9,1788351045777,-0.3380281627178192,1.9154930114746092,-0.0022161207161843,0.0007277296390384,-0.6595569849014282,0.7516509294509888,0.0668106435963454,-0.0048290793533795,-7.09961189101283e-05,0.015742452815175,0.039835836738348,0.2936724126338959,-0.0021702582016587,0.0005723414942622,-0.5544406175613403,0.8322202563285828,0.0018494097317464,0.0048883573757304,0.2853044082298768,-0.7763630151748657,0.3149178624153137,1.945770263671875,125,47,-5443,6344
20.0,1788351045877,-2.197183132171631,1.6338027715682983,-0.00198829267174,0.00062024226645,-0.6468623876571655,0.7626038789749146,-0.0038274485615106,-0.0002921775586356,1.131791849275637e-08,0.0083874827250838,-0.0006693509640172,0.4006434977054596,-0.0019568167626857,0.0001679379492998,-0.5334829688072205,0.8458086252212524,0.0084005818494168,-0.0016633906108631,0.5890570987600597,0.0831756591796875,0.2765942811965942,-0.7374286651611328,98,104,-7127,6479
20.1,1788351045977,-1.887323975563049,1.887323975563049,-0.0019855038262903,0.0001725746551528,-0.6269835829734802,0.779029905796051,0.003260764879222,-0.007479607585583,3.787201669135855e-06,0.0044956896454095,-0.0096658645197749,0.6079043745994568,-0.0020288694649934,-0.0002906937152147,-0.5132472515106201,0.8582382798194885,0.0041135880447627,-0.0125669930035419,0.5232927220155971,0.2027233242988586,0.1252763867378235,0.3812122344970703,123,93,-7404,6137
20.2,1788351046077,-1.4647886753082275,1.5211267471313477,-0.0017527665477246,9.320699609816074e-05,-0.6000864505767822,0.7999331951141357,0.0019201802210086,-0.0046761570853009,-6.390583569704799e-07,0.0072266436181962,0.0064302361570298,0.5782344341278076,-0.0017739459872245,-0.0002662856131792,-0.4887103736400604,0.8724442720413208,0.0115419909659582,-0.0170145556858225,0.593547992531134,0.4581406116485595,0.0553067922592163,-0.2888422012329101,73,42,-6605,5109
20.3,1788351046177,-1.4929577112197876,1.6056338548660278,-0.0016545369289815,-0.0003019156865775,-0.5811439156532288,0.8137989640235901,0.0100094390781287,-0.004183300900543,-4.252215870198032e-06,0.008885757997632,-0.0069242366589605,0.4995697140693664,-0.0015826020389795,-0.0007415851578116,-0.4627409875392914,0.8864918351173401,0.0062423113827822,-0.0114107911074359,0.457022971196232,0.1541523337364196,-0.1001472473144531,0.1686868667602539,86,47,-6794,4748
20.4,1788351046277,-1.6619718074798584,1.5211267471313477,-0.0016005127690732,-0.0008467383449897,-0.5625565052032471,0.8267569541931152,-0.0016488036498411,-0.0020772198798128,-4.425329800810247e-06,0.0087544778361916,-0.0080914469435811,0.4677147269248962,-0.0014566956087946,-0.001102183945477,-0.4442455470561981,0.8959032893180847,0.0035836149493978,-0.0030724211034981,0.4678724979419523,-0.031970739364624,0.0447906255722045,-0.0878257751464843,100,80,-5616,4670
20.5,1788351046377,-0.8450704216957092,1.2394366264343262,-0.0015519359149038,-0.0009831642964854,-0.5455251336097717,0.8380925059318542,0.005210140919462,-0.004788275452601,-7.702444961544625e-07,0.0044045546092092,-0.002670215209946,0.4391724765300751,-0.0013837609440088,-0.0012121740728616,-0.4277392327785492,0.9039003252983092,0.003031359232928,-0.0019084761113002,0.3106220651727843,-0.2539103031158447,-0.0554771423339843,-0.1456193923950195,180,36,-6298,4104
20.6,1788351046477,-1.211267590522766,1.183098554611206,-0.0013667939929291,-0.0010891810525208,-0.530301570892334,0.8478072285652161,-0.0044009146770485,0.000465724019833,8.899373047459489e-07,0.0044252471998333,-0.0013683167053386,0.2960695326328277,-0.0011780587956309,-0.0012479666620492,-0.4111789464950561,0.9115530252456664,0.0024860863271083,0.0013492422122987,0.3407587496539832,0.3310761451721191,-0.1003783345222473,-0.0557441711425781,95,102,-5726,4538
20.7,1788351046577,-1.183098554611206,1.1267606019973757,-0.0012584393844008,-0.0011693887645378,-0.516668438911438,0.8561838269233704,0.0009987945458391,-0.0035451147368782,2.4605726516151943e-06,0.0036840664688497,-0.0013192055048421,0.3644717633724212,-0.0010718610137701,-0.0013443985953927,-0.3960608541965484,0.9182226657867432,0.0023161396997356,0.0015423280833368,0.35767440083231,0.2513427734375,-0.0358994603157043,-0.1184644699096679,92,120,-5846,4913
20.8,1788351046677,-1.0985915660858154,1.2394366264343262,-0.0010637723607942,-0.0012431836221367,-0.5008233189582825,0.8655479550361633,0.0025204396309523,-0.0030994410408368,-1.2453947065724122e-06,0.0079974411055445,-0.0018620241899043,0.3706332147121429,-0.0008676359429955,-0.001474829390645,-0.3809238374233246,0.924604833126068,0.0072338452852447,-0.0040771523680621,0.3710701359460511,0.0476752519607543,0.0657634139060974,-0.053598403930664,130,83,-5969,4576
20.9,1788351046777,-0.8732394576072693,0.8732394576072693,-0.0008622443419881,-0.0013833631528541,-0.4867993593215942,0.873512327671051,0.0023909228689777,-0.0033539306116276,-3.3735696069365104e-06,0.0064314841292798,0.0031060047913342,0.3627984821796417,-0.0005487883463501,-0.0013608802109956,-0.3634402453899383,0.9316163659095764,0.0026725940175527,0.0064449380540022,0.2202774332890627,-0.2280941009521484,-0.1346051692962646,0.0284185409545898,49,41,-4205,3513
21.0,1788351046877,0.0,0.0,-0.0007067660335451,-0.0013002807972952,-0.4770934283733368,0.8788513541221619,0.0020733048883399,-0.0024274369437414,3.5129694294838752e-06,-0.0001662261638557,0.0003520778845995,0.1157653778791427,-0.0005486356094479,-0.0013971673324704,-0.3591282665729522,0.9332870841026306,-0.0008906798077948,-0.0016307002197214,0.0054389082445667,0.1340613365173339,-0.1167196035385131,0.0088233947753906,98,195,4592,7430
21.1,1788351046977,2.08450698852539,3.3521127700805664,-0.0007577980286441,-0.0014624812174588,-0.474644273519516,0.8801761269569397,0.0549707285154276,0.0023424723805464,2.8938882603896445e-05,0.0014030705206096,-0.0063885641284286,0.1065783575177192,-0.0005615288391709,-0.0015684058889746,-0.3548204600811004,0.934933066368103,-0.0004966375864474,0.0019724050120835,0.1745403367383481,0.5186948776245117,-0.0356903672218322,0.3127031326293945,144,165,8812,13200
21.2,1788351047077,3.7183098793029785,5.77464771270752,-0.0007980008958838,-0.0021683236118406,-0.464219182729721,0.8857172727584839,0.131304587639333,0.0007566119347627,-1.480371036235204e-07,0.0092828013002872,-0.0205723363906145,0.2588669657707214,-0.0004922645166516,-0.0022537922486662,-0.3439201414585113,0.9389960169792176,0.0123119184102757,-0.0418390506262682,0.29147460567715,0.8746292591094971,0.0818203687667846,0.6688108444213867,93,187,13040,18970
21.3,1788351047177,3.88732385635376,6.02816915512085,-0.0011419386137276,-0.0020660101436078,-0.4462336599826813,0.894913375377655,0.1819899517787886,0.0048533057300042,-2.2061983322396885e-07,-0.0021697913762181,-0.0174784157425165,0.3967373669147491,-0.0008645476773381,-0.0019655395299196,-0.3224700689315796,0.946577250957489,-0.0089991273530834,0.0041477097160673,0.3963529189175708,0.1435211300849914,-0.0506559014320373,-1.3200740814208984,120,62,13732,15980
21.4,1788351047277,4.056337833404541,5.97183084487915,-0.0017244233749806,-0.0017174681415781,-0.4325064122676849,0.9016275405883788,0.1728647610841859,0.0034367162745076,-3.7066446546406616e-05,-0.0173975210636854,-0.0029799521435052,0.274075835943222,-0.001494244672358,-0.0016665086150169,-0.3105767667293548,0.9505457282066344,-0.0139293833815189,-0.0018586597965038,0.2333214169080452,-0.196536898612976,0.0933813452720642,0.5480947494506836,102,73,12953,15701
21.5,1788351047377,4.169013977050781,5.943662166595459,-0.0023133289068937,-0.001673893071711,-0.4235318005084991,0.9058766961097716,0.1632964676773821,0.0016337720423689,2.080655232935884e-05,-0.0099373217672109,-0.0132872825488448,0.217780128121376,-0.0021237079054117,-0.001965545117855,-0.3009869754314422,0.9536238312721252,-0.0046964638047941,-0.0163300095550289,0.2331157324515606,0.035260260105133,0.2278865575790405,-0.2255630493164062,121,91,12489,16334
21.6,1788351047477,3.746478796005249,6.0,-0.0025005696807056,-0.0014683324843645,-0.4110857248306274,0.9115920662879944,0.1658459362540695,0.0066719761961989,-9.62392324838706e-05,-0.0050748004578053,0.0077741462737321,0.2850955128669739,-0.0024100802838802,-0.0015737591311335,-0.2842428982257843,0.9587480425834656,-0.0105728936182362,0.0124361815063717,0.3343085021184069,-0.2043325901031494,0.1445696353912353,-0.8778610229492188,172,73,14293,16102
21.7,1788351047577,4.0,5.6619720458984375,-0.003715856000781,-0.0029549947939813,-0.3911804556846618,0.9203017354011536,0.1631331315006146,0.0109861871734055,5.048797168523325e-05,-0.0099898548796772,-0.0519233271479606,0.4450713992118835,-0.0036928849294781,-0.0043616425246,-0.2662311494350433,0.9638922214508056,-0.0116369578978431,-0.145806514313226,0.4176476472369741,0.8808645606040955,-0.1827571392059326,-0.112741470336914,303,36,18763,14416
21.8,1788351047677,4.788732528686523,5.549295902252197,-0.006230725441128,-0.0074982154183089,-0.3820308446884155,0.9240981340408324,0.1601269885195787,0.0064915201943122,0.0001805120544506,-0.001394678489305,-0.0712583810091018,0.1435062140226364,-0.0052134208381175,-0.0087108798325061,-0.2565731704235077,0.966471552848816,0.008436878926149,-0.0256670044589499,0.1523542500452446,0.1231705546379089,-0.1837427616119384,-0.1313543319702148,310,65,16309,14810
21.9,1788351047777,4.366197109222412,5.464788913726807,-0.0053765387274324,-0.005535677075386,-0.3764049112796783,0.9264231324195862,0.1630453475084815,0.0058839708926602,-0.0001620828115307,-0.0025934660807251,0.0978848487138748,0.126995101571083,-0.0038456637412309,-0.0035267770290374,-0.2500980496406555,0.9682064652442932,0.0061423686170408,0.1685661986493244,0.1875043678481985,0.3651349544525146,0.0649653673171997,-0.1752738952636718,255,88,17596,15354
22.0,1788351047877,4.619718074798584,5.239436626434326,-0.0038625849410891,-0.0012015268439427,-0.3678267002105713,0.9298856258392334,0.1848717328395618,0.0034946231496767,-0.0001154728499667,-0.0042179473675787,0.0145928720012307,0.1985257267951965,-0.0037105195224285,-0.0013724854215979,-0.2431564331054687,0.9699791073799132,-0.0195234384849809,0.0295382089119702,0.1037185683313349,-1.0892527103424072,0.0892485976219177,0.6071662902832031,304,26,17469,12971
22.1,1788351047977,4.873239517211914,4.873239517211914,-0.0041912938468158,-0.0013521077344194,-0.3653575479984283,0.9308568835258484,0.1599643652452514,0.000537561955186,1.1049391251808357e-05,-0.0079398667439818,-0.0027244829107075,0.0088620400056242,-0.0040274914354085,-0.0015353038907051,-0.2412664592266082,0.9704493284225464,0.0050351271359246,0.0027065996645054,0.0244760481071949,0.1726821064949035,-0.0136548280715942,0.0900726318359375,328,42,20565,12898
22.2,1788351048077,4.732394218444824,4.901408672332764,-0.0041912938468158,-0.0013521077344194,-0.3653575479984283,0.9308568835258484,0.1703623485582035,-0.0002928600321879,-3.557293519346144e-07,0.0,0.0,0.0,-0.004101974889636,-0.0014247372746467,-0.2418941557407379,0.9702929854393004,0.0018370003223943,0.0215433661161773,-0.00165630611967,0.1025783419609069,-0.4622793197631836,-0.0224485397338867,329,45,20872,12934
22.3,1788351048177,4.873239517211914,5.126760482788086,-0.003913034684956,-0.0002065170556306,-0.3659163117408752,0.9306395053863524,0.1696873786305151,0.0030442224438918,-7.877440957197521e-05,0.0007876544259488,0.0163854844868183,-0.0126085532829165,-0.0037534618750214,-0.0006034756079316,-0.2423073351383209,0.9701921343803406,0.0007295668223925,0.0054888247139104,-0.0178450997135932,-0.1478312611579895,0.3896363377571106,0.0873193740844726,264,67,19244,13190
22.4,1788351048277,4.901408672332764,4.873239517211914,-0.0037971539422869,0.000193370389752,-0.365573525428772,0.9307746887207032,0.1690816860129141,0.0053591907846797,-1.493749973824226e-06,1.568144369912261e-08,2.3670104098982847e-08,-2.4238186142611085e-06,-0.0042858105152845,-0.0009293900802731,-0.2409570068120956,0.970525860786438,0.0035273107104724,-0.0300486570917915,0.0334443186349901,0.0646151304244995,0.1659506559371948,-0.3764991760253906,297,54,20374,12900
22.5,1788351048377,4.985915660858154,4.873239517211914,-0.0050369473174214,-0.0024171844124794,-0.3654089272022247,0.930830419063568,0.1667179978876909,0.0004604142403375,0.000148365515436,0.0020672793034464,-0.0534559786319732,-0.0217696521431207,-0.0047214571386575,-0.0033027613535523,-0.2416620552539825,0.9703434109687804,0.0071129875733431,-0.0342090469508298,-0.0158699836512812,0.1034350991249084,-0.2081133127212524,0.0503273010253906,272,45,20274,12872
22.6,1788351048477,4.873239517211914,4.957746505737305,-0.0052160499617457,-0.0021173991262912,-0.3659236431121826,0.9306278228759766,0.1598829263741611,0.0054050953029138,-2.306776392731904e-05,-0.0109250620007514,0.0084611130878329,-0.021624069660902,-0.0047098938375711,-0.0018840515986084,-0.2415357530117035,0.9703786969184875,0.0060853050070373,0.0306383875777922,0.0338621424141082,0.0765900015830993,-0.1334319114685058,0.08087158203125,354,52,20641,12744
22.7,1788351048577,5.014084339141846,4.873239517211914,-0.0047538601793348,-0.0007275210227817,-0.3653553426265716,0.930855631828308,0.1680059196320024,0.0022598633296804,-4.0873759590809095e-05,-0.0014694088604301,0.0256784781813621,0.0042759757488965,-0.0045458003878593,-0.0009836964309215,-0.2417474538087844,0.9703280925750732,0.0004157602923136,0.0091499235658685,-0.0130237660143755,0.044276475906372,0.0283101201057434,-0.2169675827026367,337,38,20401,12744
22.8,1788351048677,4.929577350616455,4.929577350616455,-0.0046916985884308,-8.47626943141222e-05,-0.3656158447265625,0.930754005908966,0.1695160542779044,0.0028211747145053,-5.612171530300839e-05,-0.007864567451179,0.0275452397763729,-0.0122465761378407,-0.004588657990098,-0.0006899945437908,-0.2413797974586486,0.9704196453094482,0.0050278109841511,-0.0032915579315845,0.0271599221846434,0.0963265895843505,-0.1028868556022644,-0.017928123474121,345,46,19960,13312
22.9,1788351048777,5.070422649383545,4.816901206970215,-0.0046198242343962,-0.0008019681554287,-0.3628048598766327,0.931853413581848,0.1678369185445983,0.0007104061109191,6.354685207350696e-05,0.006998186931014,-0.0159369073808193,0.0659362897276878,-0.0045907776802778,-0.0020286543294787,-0.2382499128580093,0.9711909294128418,0.00147117779899,-0.0390460992115593,0.0224037089695919,-0.1600459814071655,-0.2326271533966064,0.0908451080322265,280,24,20454,12509
23.0,1788351048877,5.126760482788086,4.901408672332764,-0.0061199888586997,-0.0040101557970047,-0.3626462817192077,0.9318981766700744,0.1643442602597616,-0.0025018355334326,0.0002414254346408,-0.009507100097835,-0.1000831648707389,-0.0196227505803108,-0.0059575866907835,-0.006091721355915,-0.2386025190353393,0.97107994556427,-0.0063107740288448,-0.0908926649677197,0.0113703943728609,0.3339185714721679,0.145214557647705,0.2388563156127929,288,46,20432,12324
23.1,1788351048977,5.183098793029785,4.760563373565674,-0.0080224554985761,-0.0094502847641706,-0.3635747134685516,0.9314825534820556,0.1688384716532446,-0.0040767537090371,0.0003549943392705,0.0084318183362483,-0.1396129727363586,-0.0442555882036685,-0.0071720900014042,-0.0122979674488306,-0.2406527400016784,0.9705069065093994,-0.0021486468755978,-0.1862934105163978,-0.109695951284529,-0.443733274936676,-0.2431948781013488,-0.0112237930297851,229,52,20088,12963
23.2,1788351049077,4.647887229919434,5.014084339141846,-0.0097928848117589,-0.0139364656060934,-0.3654929399490356,0.930658221244812,0.1577089328811423,0.0005652316493738,0.0001888973330378,-0.0097375009208917,-0.0493077784776687,-0.0366599671542644,-0.0077799735590815,-0.0148108238354325,-0.242105558514595,0.970105767250061,0.0028902529577969,0.0199508143406476,-0.02976348256699,0.5759885907173157,-0.3659055829048157,-0.0869178771972656,409,71,21445,13781
23.3,1788351049177,5.126760482788086,5.070422649383545,-0.0094701182097196,-0.0132734458893537,-0.3656581044197082,0.9306063652038574,0.1643793244674985,-7.332949400834904e-05,-5.112375717775904e-06,0.000569773139432,0.0221603978425264,0.0142502663657069,-0.0073270881548523,-0.0140120200812816,-0.2394854575395584,0.9707711935043336,0.0248583613660548,0.0064469091589873,0.1393486439046881,0.011601984500885,-0.3751756548881531,-0.1361913681030273,309,58,20517,12519
23.4,1788351049277,5.098591327667236,4.760563373565674,-0.009105134755373,-0.0137335220351815,-0.3632140755653381,0.9315600395202636,0.1605050665505828,-0.0041900013657664,5.857140252646528e-05,0.0101021453738212,-0.030179388821125,0.003243108978495,-0.0072519639506936,-0.0149417584761977,-0.2393885254859924,0.9707818031311036,0.0007887227915968,-0.013461101639532,-0.0301646690232849,-0.3525465726852417,0.2965566515922546,0.4263086318969726,372,57,20645,12810
23.5,1788351049377,5.492957592010498,4.591549396514893,-0.009105134755373,-0.0137335220351815,-0.3632140755653381,0.9315600395202636,0.1649449148861612,-0.000303839786923,3.877574691266802e-06,0.0,9.467330919221696e-09,0.0,-0.007000015117228,-0.014935802668333,-0.2392526417970657,0.9708172082901,0.0078485212203543,0.0064304381496675,0.0174724083945191,0.5720048546791077,-0.2608936429023742,0.2419204711914062,415,24,21610,11415
23.6,1788351049477,5.605633735656738,4.760563373565674,-0.0088823353871703,-0.0137324389070272,-0.366593986749649,0.9302372336387634,0.1622789077639937,-0.0046709059578187,3.690305281310101e-06,-0.0019400848541408,0.0048836432397365,-0.0997546911239624,-0.0067408308386802,-0.014662972651422,-0.2443094700574875,0.9695630669593812,0.0162610816296473,0.0095831804645038,-0.0808802669059658,0.2584255337715149,-0.0216919779777526,0.1613855361938476,336,37,20132,11515
23.7,1788351049577,5.267605781555176,4.535211086273193,-0.0090523138642311,-0.0142877912148833,-0.3696881532669067,0.9290019273757936,0.1639859628335149,-0.0044666680003088,5.866823496075405e-05,-0.0122624458745121,-0.0309141688048839,-0.0655842423439025,-0.007347222417593,-0.0158587004989385,-0.2470256239175796,0.9688513278961182,-0.0052323773326532,-0.029674334120501,-0.0535640320510439,0.0513205528259277,-0.2800846099853515,-0.1455888748168945,314,25,22327,11458
23.8,1788351049677,5.380281925201416,4.591549396514893,-0.0091910501942038,-0.0142914298921823,-0.3728503286838531,0.9277359247207642,0.1606381046973891,-0.0040952787098354,-2.0293667949252644e-05,-0.0041815959848463,0.0152432424947619,-0.0648119673132896,-0.0072175180539488,-0.0153414122760295,-0.2496944069862365,0.968176245689392,-0.0004662546960829,0.0174496992257869,-0.0701637297873239,-0.0462633371353149,0.0236265063285827,0.1565427780151367,398,24,22361,11075
23.9,1788351049777,5.464788913726807,4.985915660858154,-0.0093664275482296,-0.0145103996619582,-0.3762434124946594,0.9263598918914796,0.1615664942729754,-0.0023224665971468,1.838531409835746e-05,-0.0074887578375637,-0.0120531413704156,-0.0826696753501892,-0.0074462154880166,-0.0154045382514595,-0.253821313381195,0.9670998454093932,-0.006307936028456,0.0151211603393853,-0.0494938848072692,0.0195174217224121,0.1404070258140564,-0.2363882064819336,366,74,18405,13441
24.0,1788351049877,5.014084339141846,5.098591327667236,-0.0087518729269504,-0.0129825137555599,-0.3759762942790985,0.9264970421791076,0.168926786958548,0.0029317318152419,-0.0002447916676861,0.0027113971300423,0.0629947930574417,0.0392484255135059,-0.0068432092666625,-0.0143933882936835,-0.251978725194931,0.9676015377044678,0.0193946217033506,-0.0253958518680746,0.0518522285033144,-0.0175041556358337,0.0499959588050842,-0.165536880493164,417,27,19836,13005
24.1,1788351049977,5.915493011474609,4.704225540161133,-0.0087317721918225,-0.0138274896889925,-0.375125914812088,0.9268295764923096,0.1618147031493719,-0.0006081750975853,-4.272304199119046e-06,0.0,2.1208874656508673e-08,0.0,-0.0069185653701424,-0.0153717501088976,-0.2522639036178589,0.9675117135047911,-0.0007764260567938,-0.0343818347247174,-0.061104918599963,-0.2088789939880371,-0.0182596445083618,-0.1274480819702148,418,21,20511,10546
24.2,1788351050077,5.126760482788086,4.478873252868652,-0.0087525136768817,-0.0141396587714552,-0.3786326348781585,0.9253976345062256,0.1615425994793585,-0.0029272026056034,-3.687388925788868e-05,-0.0024357556831091,0.0310790315270423,-0.0796838477253913,-0.0067462613806128,-0.014915500767529,-0.2564796507358551,0.966410994529724,0.0009377705142584,0.0172741767906194,-0.0759362422072399,-0.1799826025962829,0.0250083208084106,0.2818689346313476,402,30,23259,11519
24.3,1788351050177,5.77464771270752,4.535211086273193,-0.0087866755202412,-0.0142225204035639,-0.3825229108333587,0.923794686794281,0.1638866497609584,-0.005489616903511,1.1529961259508487e-05,-0.0056960145011544,-0.0051562003791332,-0.1037618443369865,-0.0070248581469058,-0.0155808450654149,-0.2605386972427368,0.965312123298645,-0.0077627256523066,-0.0287302115335228,-0.0889296977663812,0.1867653131484985,-0.1290666460990905,-0.3645248413085937,424,35,20816,11430
24.4,1788351050277,4.985915660858154,4.901408672332764,-0.0092222467064857,-0.0147852627560496,-0.3849889934062958,0.9227566123008728,0.166711639615151,-0.001308779014845,7.810483610856171e-06,-0.0019592253956943,-0.0015574190765619,-0.0213914643973112,-0.0070717660710215,-0.0160026717931032,-0.2622098624706268,0.9648523330688475,0.0170793306116109,-0.0054159003440262,0.0105513514627181,-0.340703547000885,-0.1334516406059265,-0.0752506256103515,300,37,18095,12589
24.5,1788351050377,5.521126747131348,5.014084339141846,-0.0089815575629472,-0.0145480735227465,-0.3848313689231872,0.922828495502472,0.1607194461115706,0.0013221524697543,-4.389159494385011e-06,1.3070345517007809e-07,-2.178390801077512e-08,6.9708503360743634e-06,-0.0069582583382725,-0.0159355234354734,-0.2606732547283172,0.9652705192565918,0.0075860893501538,-0.0447884683455774,0.0290450562748298,-0.0892177820205688,-0.5486462116241455,0.2505922317504883,376,24,19846,11259
24.6,1788351050477,5.85915470123291,4.422535419464111,-0.0094573646783828,-0.0161199178546667,-0.384161502122879,0.9230767488479614,0.1670310091629311,-0.0023180856461272,0.0001866771449358,0.0006792176282033,-0.0467829518020153,-0.0097087752074003,-0.0073545519262552,-0.0173005480319261,-0.2617529034614563,0.9649519324302672,-0.0013298144214935,-0.0118527155208999,-0.050939565449312,0.0498547554016113,0.3453806638717651,0.4640588760375976,405,35,21107,11708
24.7,1788351050577,5.408450603485107,4.507042407989502,-0.0098050395026803,-0.0167571753263473,-0.3868394196033478,0.92194265127182,0.1600596222997826,-0.005465279160246,2.757787082172744e-05,0.0005232584080658,-0.0076036984100937,-0.065670222043991,-0.0075388960540294,-0.0179002229124307,-0.2645454704761505,0.9641775488853456,-0.0004394499737802,-0.0027328860727934,-0.069156131146917,0.1041038036346435,-0.1905388832092285,-0.24267578125,337,28,22693,11494
24.8,1788351050677,5.633802890777588,4.507042407989502,-0.0098883807659149,-0.0164613854140043,-0.390271931886673,0.9204993844032288,0.1661217207248187,-0.0012443089132848,-9.289515992444156e-06,-0.0055508422665297,-0.005821906030178,-0.0770100951194763,-0.0078508974984288,-0.0182451326400041,-0.2691683173179626,0.9628883600234984,-0.0008199965585884,-0.0370759121261957,-0.0916717819916735,0.0759674310684204,-0.1235688328742981,-0.2637338638305664,440,32,21763,11385
24.9,1788351050777,5.690140724182129,4.8450703620910645,-0.0101288491860032,-0.0166840199381113,-0.3935027122497558,0.9191162586212158,0.1645415610833676,-0.0040722206491409,-4.951928890414921e-05,-0.0063954023644328,0.0165820214897394,-0.0639788135886192,-0.007825425826013,-0.0177608635276556,-0.2724142074584961,0.9619842767715454,0.0009703697344478,0.0022078952416292,-0.0601665342458037,0.0706955790519714,0.3460647463798523,-0.2826528549194336,334,48,18811,12618
25.0,1788351050877,4.985915660858154,4.957746505737305,-0.0096325734630227,-0.0156032890081405,-0.3945547044277191,0.9186894297599792,0.1649428075720762,-0.0033699858783787,-4.111844974570439e-05,0.0048722838982939,0.0135271064937114,0.0242149420082569,-0.0076511101797223,-0.0168553255498409,-0.2720116376876831,0.9621159434318542,-0.0086454594892851,-0.0198532754578683,0.016275382154742,-0.2166622877120971,-0.0944266319274902,-0.1444454193115234,279,29,20858,12374
25.1,1788351050977,5.183098793029785,4.535211086273193,-0.0105218132957816,-0.0164956208318471,-0.3950767517089844,0.9184397459030152,0.1618396994985741,-0.0029162694014354,3.7282108889503554e-05,-0.0134368939325213,-0.0201138257980346,-0.0203348845243453,-0.0082900496199727,-0.0170404352247715,-0.2736566066741943,0.9616408348083496,-0.0142606903581233,0.0316864862324161,-0.0494922545221448,0.0851746201515197,0.0159044861793518,0.1256427764892578,407,23,23039,11398
25.2,1788351051077,5.295774459838867,4.535211086273193,-0.0101467873901128,-0.0155581962317228,-0.3976846039295196,0.9173340797424316,0.1666103632697959,-0.0043083212817828,-1.041931720033398e-05,0.0039911139756441,0.0112090818583965,-0.0582704730331897,-0.008087602443993,-0.0164465736597776,-0.276496022939682,0.960840344429016,-0.00988701917451,0.018420096814893,-0.0828624233978333,0.012869656085968,-0.0897446870803833,0.0476646423339843,389,26,22242,12003
25.3,1788351051177,5.97183084487915,4.732394218444824,-0.0102714346721768,-0.0151925617828965,-0.4006209969520569,0.9160602688789368,0.1694123540956593,-0.0006012858016333,-1.474482317995551e-05,-0.007074240129441,0.0061786617152392,-0.0564986541867256,-0.0078793615102767,-0.0151609554886817,-0.2788087427616119,0.9601947069168092,-0.0005518103325037,0.0776405050214903,-0.0209673510163414,0.5391583442687988,0.2053161859512329,0.0315399169921875,365,26,19935,10689
25.4,1788351051277,5.126760482788086,4.676056385040283,-0.009927705861628,-0.0144481724128127,-0.4045916795730591,0.9143294095993042,0.1653178133405916,-0.0027282915855878,6.956086262997601e-05,0.0043803555890917,-0.0302222371101379,-0.0933665558695793,-0.0078965527936816,-0.0154902013018727,-0.2834853827953338,0.9588189125061036,0.0011420400748988,0.0094770331386452,-0.0660767541755671,0.1912688612937927,0.2683709859848022,0.1467552185058593,275,55,20294,13074
25.5,1788351051377,5.070422649383545,4.8450703620910645,-0.0094849308952689,-0.0141005078330636,-0.405517578125,0.9139292240142822,0.1656526680995524,0.0031132021329613,-2.691924069634095e-05,0.0091405445709824,0.014279524795711,-0.0006431062356568,-0.0075969388708472,-0.0151180792599916,-0.2833488881587982,0.9588676691055298,-0.0022721614654589,0.0038948504160335,0.0129157902033095,0.0168456435203552,-0.0934389233589172,-0.2173395156860351,259,41,20400,13003
25.6,1788351051477,5.126760482788086,4.873239517211914,-0.0093937627971172,-0.0143694281578063,-0.4048553705215454,0.914219617843628,0.1815014223090945,0.0025111509058684,-4.534901406367192e-05,0.0115960603579878,-0.0095213809981942,0.0305948592722415,-0.0074938470497727,-0.0156019050627946,-0.2829381227493286,0.958981990814209,0.0030190235180759,-0.0184475389944983,-0.0045127724738986,-0.0204766988754272,0.1258637905120849,0.069061279296875,289,50,20321,12607
25.7,1788351051577,5.295774459838867,4.591549396514893,-0.0096713211387395,-0.0145039595663547,-0.4040223360061645,0.914582908153534,0.1706136634673986,-0.0016339180451703,2.8994939179501405e-05,0.0032131201587617,-0.0264541748911142,0.0302398316562175,-0.0077078258618712,-0.0156711619347333,-0.2823968827724457,0.9591386914253236,8.660299531075068e-05,-0.0021318726037562,-0.0320942333885716,-0.2798852324485779,-0.0616059303283691,0.4278192520141601,303,29,22094,11241
25.8,1788351051677,5.464788913726807,4.647887229919434,-0.009504010900855,-0.0148709509521722,-0.4046055972576141,0.914320945739746,0.1655855634922367,0.0002474837532752,4.070993086292839e-06,0.0072975335642695,-0.0048474087379872,0.0039806948043406,-0.0073939785361289,-0.015716765075922,-0.2827919721603393,0.9590239524841307,0.0068253637704837,0.0196904083756333,-0.0166471715040245,0.1574987173080444,-0.3151404857635498,0.1847915649414062,427,24,21946,10893
25.9,1788351051777,5.830986022949219,4.507042407989502,-0.0092885922640562,-0.0145156774669885,-0.4065406322479248,0.9134702086448668,0.1632752134293272,0.0021322952691577,4.465141105092469e-05,0.0020679465960711,0.0085756257176399,-0.0409522056579589,-0.0073399897664785,-0.0151360882446169,-0.2848795354366302,0.958415687084198,-0.0143722924542443,0.0498227884320151,-0.0285572585104568,0.1201810836791992,0.0372591614723205,-0.0769290924072265,406,43,20488,11674
26.0,1788351051877,4.084506988525391,4.676056385040283,-0.0093335434794425,-0.014657437801361,-0.4082437753677368,0.9127075672149658,0.1663777112145777,0.0037286871796751,-3.919850855275536e-05,0.0043483255431056,-0.0280428547412157,-0.0522161833941936,-0.0072975400835275,-0.015697544440627,-0.286356508731842,0.9579668045043944,0.0077207680876095,-0.0327582920927223,0.0016848347016061,0.0199760198593139,-0.1451455950736999,-0.0214052200317382,274,24,16586,12138
26.1,1788351051977,1.7183098793029783,3.859154939651489,-0.0072972569614648,-0.0102976644411683,-0.4054583311080932,0.9140264391899108,0.1262731414915545,0.0032882402333522,-0.0002116352795844,0.003911652136594,0.1585582643747329,0.1308953762054443,-0.004440895281732,-0.0060780262574553,-0.2789874672889709,0.9602652192115784,0.0005306833432308,0.2844442636785433,0.2522648724786775,-0.5335925817489624,0.1989847421646118,-0.5930976867675781,84,33,5457,10331
