time_s,timestamp_ms,wheel_vels__velocity_left,wheel_vels__velocity_right,odom__orient_x,odom__orient_y,odom__orient_z,odom__orient_w,odom__lin_x,odom__lin_y,odom__lin_z,odom__ang_x,odom__ang_y,odom__ang_z,imu__orient_x,imu__orient_y,imu__orient_z,imu__orient_w,imu__angvel_x,imu__angvel_y,imu__angvel_z,imu__acc_x,imu__acc_y,imu__acc_z,wheel_status__current_ma_left,wheel_status__current_ma_right,wheel_status__pwm_left,wheel_status__pwm_right
0.0,1788517338167,0.0,0.0,-0.002265295246616,0.0006429884233511,-0.4630549252033233,0.8863263726234436,2.820171005124754e-05,-4.282082980014132e-05,-2.2319828269028693e-07,-0.0001289736392209,-0.0007074321038089,0.0003510985989123,-0.0022470382973551,0.0006857803091406,-0.4792987704277038,0.8776487112045288,5.035259601356443e-05,-9.995970087317644e-05,0.0003388473498413,0.015315294265747,-0.0087321400642395,-0.0026130676269531,0,0,0,0
0.1,1788517338267,0.0,0.0,-0.002265295246616,0.0006429884233511,-0.4630549252033233,0.8863263726234436,2.820171005124754e-05,-4.282082980014132e-05,-2.2319828269028693e-07,-0.0001289736392209,-0.0007074321038089,0.0003510985989123,-0.0022470382973551,0.0006857803091406,-0.4792987704277038,0.8776487112045288,5.035259601356443e-05,-9.995970087317644e-05,0.0003388473498413,0.015315294265747,-0.0087321400642395,-0.0026130676269531,0,0,0,0
0.2,1788517338367,0.0,0.0,-0.002265295246616,0.0006429884233511,-0.4630549252033233,0.8863263726234436,2.820171005124754e-05,-4.282082980014132e-05,-2.2319828269028693e-07,-0.0001289736392209,-0.0007074321038089,0.0003510985989123,-0.0022470382973551,0.0006857803091406,-0.4792987704277038,0.8776487112045288,5.035259601356443e-05,-9.995970087317644e-05,0.0003388473498413,0.015315294265747,-0.0087321400642395,-0.0026130676269531,0,0,0,0
0.3,1788517338467,0.0,0.0,-0.002265295246616,0.0006429884233511,-0.4630549252033233,0.8863263726234436,2.820171005124754e-05,-4.282082980014132e-05,-2.2319828269028693e-07,-0.0001289736392209,-0.0007074321038089,0.0003510985989123,-0.0022470382973551,0.0006857803091406,-0.4792987704277038,0.8776487112045288,5.035259601356443e-05,-9.995970087317644e-05,0.0003388473498413,0.015315294265747,-0.0087321400642395,-0.0026130676269531,0,0,0,0
0.4,1788517338567,0.0,0.0,-0.002265295246616,0.0006429884233511,-0.4630549252033233,0.8863263726234436,2.820171005124754e-05,-4.282082980014132e-05,-2.2319828269028693e-07,-0.0001289736392209,-0.0007074321038089,0.0003510985989123,-0.0022470382973551,0.0006857803091406,-0.4792987704277038,0.8776487112045288,5.035259601356443e-05,-9.995970087317644e-05,0.0003388473498413,0.015315294265747,-0.0087321400642395,-0.0026130676269531,0,0,0,0
0.5,1788517338667,0.0,0.0,-0.002265295246616,0.0006429884233511,-0.4630549252033233,0.8863263726234436,2.820171005124754e-05,-4.282082980014132e-05,-2.2319828269028693e-07,-0.0001289736392209,-0.0007074321038089,0.0003510985989123,-0.0022470382973551,0.0006857803091406,-0.4792987704277038,0.8776487112045288,5.035259601356443e-05,-9.995970087317644e-05,0.0003388473498413,0.015315294265747,-0.0087321400642395,-0.0026130676269531,0,0,0,0
0.6,1788517338767,0.0,0.0,-0.002265295246616,0.0006429884233511,-0.4630549252033233,0.8863263726234436,2.820171005124754e-05,-4.282082980014132e-05,-2.2319828269028693e-07,-0.0001289736392209,-0.0007074321038089,0.0003510985989123,-0.0022470382973551,0.0006857803091406,-0.4792987704277038,0.8776487112045288,5.035259601356443e-05,-9.995970087317644e-05,0.0003388473498413,0.015315294265747,-0.0087321400642395,-0.0026130676269531,0,0,0,0
0.7,1788517338867,0.0,0.0,-0.002265295246616,0.0006429884233511,-0.4630549252033233,0.8863263726234436,2.820171005124754e-05,-4.282082980014132e-05,-2.2319828269028693e-07,-0.0001289736392209,-0.0007074321038089,0.0003510985989123,-0.0022378172725439,0.0006452463567256,-0.4793042838573456,0.8776456713676453,0.0007186565281391,-0.0012881890763615,-0.0006229199637041,-0.0122634768486022,0.0158544778823852,0.0009641647338867,0,0,0,0
0.8,1788517338967,0.0,0.0,-0.0022698801476508,0.0005918294773437,-0.4630566537380218,0.8863255977630615,0.0,0.0,0.0,-0.0005054236389696,-0.000810079043731,-3.579903477657353e-06,-0.0022573852911591,0.0006341133266687,-0.4793185293674469,0.8776379227638245,5.195448028417133e-05,7.477811759249232e-05,-0.0010760080326833,-0.0108016729354858,-0.0162053108215332,-0.0099382400512695,0,0,0,0
0.9,1788517339067,0.0,0.0,-0.002286038827151,0.0006065434427,-0.4630765914916992,0.886315107345581,-4.106881131097004e-05,4.702161717127682e-05,2.578057193577858e-07,-0.0006844355957582,3.028023820661474e-05,-0.0004873820580542,-0.0022573852911591,0.0006341133266687,-0.4793185293674469,0.8776379227638245,5.195448028417133e-05,7.477811759249232e-05,-0.0010760080326833,-0.0108016729354858,-0.0162053108215332,-0.0099382400512695,0,0,0,0
1.0,1788517339167,0.0,0.0,-0.0023062210530042,0.0006063035107217,-0.4630910158157348,0.8863075375556946,-5.969221351929018e-05,6.481649642960288e-05,3.612728282322785e-07,-0.0007129635778255,-0.000381671852665,-0.0006523025804199,-0.0022573852911591,0.0006341133266687,-0.4793185293674469,0.8776379227638245,5.195448028417133e-05,7.477811759249232e-05,-0.0010760080326833,-0.0108016729354858,-0.0162053108215332,-0.0099382400512695,0,0,0,0
1.1,1788517339267,0.0,0.0,-0.0023062210530042,0.0006063035107217,-0.4630910158157348,0.8863075375556946,-5.969221351929018e-05,6.481649642960288e-05,3.612728282322785e-07,-0.0007129635778255,-0.000381671852665,-0.0006523025804199,-0.0022573852911591,0.0006341133266687,-0.4793185293674469,0.8776379227638245,5.195448028417133e-05,7.477811759249232e-05,-0.0010760080326833,-0.0108016729354858,-0.0162053108215332,-0.0099382400512695,0,0,0,0
1.2,1788517339367,0.0,0.0,-0.0023062210530042,0.0006063035107217,-0.4630910158157348,0.8863075375556946,-5.969221351929018e-05,6.481649642960288e-05,3.612728282322785e-07,-0.0007129635778255,-0.000381671852665,-0.0006523025804199,-0.0022573852911591,0.0006341133266687,-0.4793185293674469,0.8776379227638245,5.195448028417133e-05,7.477811759249232e-05,-0.0010760080326833,-0.0108016729354858,-0.0162053108215332,-0.0099382400512695,0,0,0,0
1.3,1788517339467,0.0,0.0,-0.0023062210530042,0.0006063035107217,-0.4630910158157348,0.8863075375556946,-5.969221351929018e-05,6.481649642960288e-05,3.612728282322785e-07,-0.0007129635778255,-0.000381671852665,-0.0006523025804199,-0.0022573852911591,0.0006341133266687,-0.4793185293674469,0.8776379227638245,5.195448028417133e-05,7.477811759249232e-05,-0.0010760080326833,-0.0108016729354858,-0.0162053108215332,-0.0099382400512695,0,0,0,0
1.4,1788517339567,0.0,0.0,-0.0022577715571969,0.0004536014748737,-0.4631410837173462,0.8862816095352173,0.0001019818547847,-0.000120456689645,-6.767540536576932e-07,0.0016075629973784,0.0007699895650148,0.0011933257337659,-0.00224903319031,0.0004951134324073,-0.4793879985809326,0.8776000142097473,0.0011813949592873,0.0008016056079434,0.0012529466926663,-0.0221306085586547,0.0038549304008483,0.0044727325439453,0,0,0,0
1.5,1788517339667,0.0,0.0,-0.002229977864772,0.00045966822654,-0.4631711840629577,0.8862659335136414,-0.0001452422325338,0.0001541725939039,8.584193183911196e-07,0.000538021849934,-0.0003026976773981,-0.0015968026127666,-0.00224903319031,0.0004951134324073,-0.4793879985809326,0.8776000142097473,0.0011813949592873,0.0008016056079434,0.0012529466926663,-0.0221306085586547,0.0038549304008483,0.0044727325439453,0,0,0,0
1.6,1788517339767,0.0,0.0,-0.002229977864772,0.00045966822654,-0.4631711840629577,0.8862659335136414,-0.0001452422325338,0.0001541725939039,8.584193183911196e-07,0.000538021849934,-0.0003026976773981,-0.0015968026127666,-0.0022549238055944,0.000468554906547,-0.4794863164424896,0.8775463700294495,-0.001216300658309,-0.000686350584848,-0.0003303912326835,-0.0136496424674987,-0.04477459192276,0.0079107284545898,0,0,0,0
1.7,1788517339867,0.0,0.0,-0.002229977864772,0.00045966822654,-0.4631711840629577,0.8862659335136414,-0.0001452422325338,0.0001541725939039,8.584193183911196e-07,0.000538021849934,-0.0003026976773981,-0.0015968026127666,-0.0022543566301465,0.0004496844485402,-0.4794942438602447,0.8775420188903809,0.0002127487906055,-0.001028104925279,0.0001657423719947,0.014845073223114,0.0071947574615478,-0.0061159133911132,0,0,0,0
1.8,1788517339967,0.0,0.0,-0.002238257555291,0.0004059064667671,-0.4632231891155243,0.8862387537956238,0.0001255394136935,-0.0001362080537108,-7.708842494977665e-07,0.0010266812751069,0.0004395704017952,0.0013951351866126,-0.0022401195019483,0.0004433207213878,-0.4794770181179046,0.8775514364242554,0.0006276516569692,4.836477056074236e-05,0.000792293717181,-0.0102866291999816,-0.0110739469528198,-0.0027132034301757,0,0,0,0
1.9,1788517340067,0.0,0.0,-0.0022464741487056,0.0004011146374978,-0.4632724523544311,0.886212944984436,-9.328941482274948e-05,0.0001190115149236,6.398121714133918e-07,-0.0009599087643437,-0.0003092358529102,-0.0011312373680993,-0.0022401195019483,0.0004433207213878,-0.4794770181179046,0.8775514364242554,0.0006276516569692,4.836477056074236e-05,0.000792293717181,-0.0102866291999816,-0.0110739469528198,-0.0027132034301757,0,0,0,0
2.0,1788517340167,0.0,0.0,-0.0022687376476824,0.0004171974724158,-0.4632505178451538,0.8862243294715881,7.934131245209662e-05,-0.0001012074605147,-5.493365258773228e-07,-0.0010772412642836,0.0001540631637908,0.0009797698585316,-0.0022401195019483,0.0004433207213878,-0.4794770181179046,0.8775514364242554,0.0006276516569692,4.836477056074236e-05,0.000792293717181,-0.0102866291999816,-0.0110739469528198,-0.0027132034301757,0,0,0,0
2.1,1788517340267,0.0,0.0,-0.0022297305986285,0.0004415109287947,-0.4631944000720978,0.886253833770752,7.513988765147012e-05,-9.198405674855414e-05,-5.007396831493472e-07,-0.0003749797178898,0.0011774606537073,0.0008575517567805,-0.0022032195702195,0.0004848334938287,-0.4794538021087646,0.8775642514228821,0.0005415388869923,0.0009468129506495,-0.0004503303671323,-0.0217158198356628,-0.0022563934326171,-0.0117225646972656,0,0,0,0
2.2,1788517340367,0.0,0.0,-0.0022059399634599,0.0004336321726441,-0.4632132649421692,0.886243999004364,-7.195120214649573e-05,9.634643306860312e-05,5.125082954490098e-07,0.0009856792166829,0.0001628226164029,-0.0008484582067467,-0.002194277010858,0.0004406329244375,-0.4794891774654388,0.8775449991226196,0.0005182342518692,-0.0004886105610662,-0.001291721210511,0.0135403871536254,-0.0100017189979553,-0.0115938186645507,0,0,0,0
2.3,1788517340467,0.0,0.0,-0.0022023413330316,0.0003853109665215,-0.463240385055542,0.8862298727035522,0.0,0.0,0.0,1.3525521813662067e-09,-5.410208725464827e-09,0.0,-0.0021925251930952,0.0004260521382093,-0.4794892072677612,0.8775449395179749,0.0005365956246643,-0.0007521936275707,-5.631717161079009e-06,-0.0209300518035888,0.0005651116371154,0.0080595016479492,0,0,0,0
2.4,1788517340567,0.0,0.0,-0.0022023413330316,0.0003853109665215,-0.463240385055542,0.8862298727035522,0.0,0.0,0.0,1.3525521813662067e-09,-5.410208725464827e-09,0.0,-0.0021925680339336,0.0003915047273039,-0.4795145094394684,0.8775311708450317,0.0009294270841998,-0.0013243886596654,0.0003513895615687,-0.0232548713684082,-0.0051422119140625,0.0008497238159179,0,0,0,0
2.5,1788517340667,0.0,0.0,-0.0022023413330316,0.0003853109665215,-0.463240385055542,0.8862298727035522,0.0,0.0,0.0,1.3525521813662067e-09,-5.410208725464827e-09,0.0,-0.0021925680339336,0.0003915047273039,-0.4795145094394684,0.8775311708450317,0.0009294270841998,-0.0013243886596654,0.0003513895615687,-0.0232548713684082,-0.0051422119140625,0.0008497238159179,0,0,0,0
2.6,1788517340767,0.0,0.0,-0.0021751292515546,0.0003523892955854,-0.4632371366024017,0.8862316608428955,-7.036858264089762e-05,7.317286625138651e-05,4.041554024185061e-07,0.0002338208141736,-0.0001517667406005,-0.0007378985174,-0.0021605705842375,0.000385177321732,-0.4794557690620422,0.8775632381439209,0.0005171799689388,-0.0001368548617398,0.0015806706393512,-0.0124706029891967,0.0012570619583129,0.047616958618164,0,0,0,0
2.7,1788517340867,0.0,0.0,-0.0021751292515546,0.0003523892955854,-0.4632371366024017,0.8862316608428955,-7.036858264089762e-05,7.317286625138651e-05,4.041554024185061e-07,0.0002338208141736,-0.0001517667406005,-0.0007378985174,-0.0021947091445326,0.0004192013293504,-0.4793878197669983,0.877600371837616,-0.0002634241899716,0.0004870106587778,0.0009065656580105,-0.0101402401924133,0.020386517047882,-0.0115690231323242,0,0,0,0
2.8,1788517340967,0.0,0.0,-0.0022066810633987,0.0003765339497476,-0.4631406366825104,0.8862820267677307,0.0002351441067758,-0.000279601973095,-3.0146922145087616e-07,-0.0018389909528195,0.0003163533401675,0.0027094378601759,-0.002214784733951,0.0003696838393807,-0.4793550372123718,0.8776181936264038,2.4335627935439197e-05,-0.0017061570953582,0.0014621103368309,-0.0074753761291503,0.006011962890625,-0.0367631912231445,0,0,0,0
2.9,1788517341067,0.0,0.0,-0.0022174315527081,0.0003343418356962,-0.4631138443946838,0.8862959742546082,8.586419364232817e-05,-9.827810981861408e-05,4.522126759462381e-07,0.000333002069965,-0.0014084429712966,0.0009999768808484,-0.0022000186145305,0.0003620330244302,-0.4793464541435241,0.8776229619979858,0.0010285336327374,-5.455877838780996e-05,0.0019924064344969,0.001401662826538,0.0019945502281188,-0.0097999572753906,0,0,0,0
3.0,1788517341167,0.0,0.0,-0.0022111006546765,0.000331679591909,-0.4631027281284332,0.8863018751144409,9.297075004351167e-05,-0.0001098356845895,5.552905512157292e-07,0.0005932580679655,7.277795702975709e-06,0.0010752310045063,-0.0022000186145305,0.0003620330244302,-0.4793464541435241,0.8776229619979858,0.0010285336327374,-5.455877838780996e-05,0.0019924064344969,0.001401662826538,0.0019945502281188,-0.0097999572753906,0,0,0,0
3.1,1788517341267,0.0,0.0,-0.0021807623561471,0.0003520173486322,-0.4630520045757293,0.886328399181366,0.0002184481491038,-0.0002539274133877,-8.439386025247964e-08,0.0007684784941375,0.0014022237155586,0.0025148841086775,-0.0022157914936542,0.0004062457010149,-0.4792995452880859,0.8776484727859497,-0.0013632412997775,0.00027475290533,8.242007911455355e-05,-0.0106785893440246,-0.0405343770980834,0.0222892761230468,0,0,0,0
3.2,1788517341367,0.0,0.0,-0.0022228988818824,0.000365360348951,-0.4630513191223144,0.8863286375999451,0.0,0.0,0.0,-0.0017536281375214,-0.0003096914151683,2.7616928491625004e-05,-0.0022119684144854,0.0003806222230195,-0.4793036878108978,0.8776463270187378,-0.0006781810791543,0.0018515512530527,-0.0014983070729078,-0.0199602246284484,-0.0012221932411193,0.000859260559082,0,0,0,0
3.3,1788517341467,0.0,0.0,-0.0022270267363637,0.0003078510053455,-0.4630292654037475,0.8863401412963867,8.401805241143547e-05,-0.0001029307958163,-5.589730984015296e-07,0.0008798888884484,-0.0020261551253497,0.0009479071013629,-0.0022422187030315,0.0004142513498663,-0.479304552078247,0.8776456713676453,-0.0005764979180907,-0.0005463512938495,-5.024219735083261e-05,0.0089508295059204,0.0300362706184387,0.029855728149414,0,0,0,0
3.4,1788517341567,0.0,0.0,-0.0022775246761739,0.0003471879754215,-0.463051825761795,0.8863281607627869,3.49786637228036e-05,-4.686751384371462e-05,-2.507080624891076e-07,-0.0012704972177743,-0.0015314518241211,0.0004357555299066,-0.0022421674802899,0.0004039462655782,-0.4792701303958893,0.8776644468307495,0.0009180110571126,0.0013614688060707,0.0017406982592258,-0.0126782059669494,0.0084834694862365,0.0081195831298828,0,0,0,0
3.5,1788517341667,0.0,0.0,-0.0022775246761739,0.0003471879754215,-0.463051825761795,0.8863281607627869,3.49786637228036e-05,-4.686751384371462e-05,-2.507080624891076e-07,-0.0012704972177743,-0.0015314518241211,0.0004357555299066,-0.0022599659860134,0.0003733588382601,-0.4792153835296631,0.877694308757782,-0.0001534079412235,-0.0001206295783389,8.738448224012566e-05,-0.0025915503501892,0.0067144632339477,0.008152961730957,0,0,0,0
3.6,1788517341767,0.0,0.0,-0.0022714231163263,0.0003297920338809,-0.4629696905612945,0.8863711357116699,0.0,0.0,0.0,0.0,0.0,0.0,-0.0022611394524574,0.0003640074282884,-0.4792225956916809,0.8776904344558716,0.0001901440230967,-0.0009355526960797,-0.0005274504645324,-0.0206590890884399,-0.011249840259552,-0.0063734054565429,0,0,0,0
3.7,1788517341867,0.0,0.0,-0.0022674610372632,0.0003222937812097,-0.4629737138748169,0.8863690495491028,-1.5436171474581878e-05,1.07451082372422e-05,6.998951904349782e-08,0.0002753091393969,-0.0001894107699627,-0.0001786751963663,-0.0022549387067556,0.0003735106438398,-0.4791944921016693,0.8777057528495789,-0.0001671737400622,-0.0003917403944476,0.001553559930334,-0.0061407685279846,0.0030336380004882,0.011697769165039,0,0,0,0
3.8,1788517341967,0.0,0.0,-0.0022548281121999,0.0003372593782842,-0.462973028421402,0.8863694071769714,0.0,0.0,0.0,0.0,0.0,0.0,-0.0022718850523233,0.0004139551892876,-0.4792236387729645,0.8776897192001343,-0.00014314197193,-0.0002388800227162,0.0003372161762788,-0.0072647333145141,0.0146179795265197,-0.018803596496582,0,0,0,0
3.9,1788517342067,0.0,0.0,-0.0022866528015583,0.0003611082793213,-0.4629740715026855,0.8863687515258789,0.0,0.0,0.0,-1.356757817205789e-09,0.0,0.0,-0.0022718850523233,0.0004139551892876,-0.4792236387729645,0.8776897192001343,-0.00014314197193,-0.0002388800227162,0.0003372161762788,-0.0072647333145141,0.0146179795265197,-0.018803596496582,0,0,0,0
4.0,1788517342167,0.0,0.0,-0.0023074287455528,0.0003636282053776,-0.4629711210727691,0.8863702416419983,1.561891173032127e-05,-1.087207820997994e-05,-7.077928675463835e-08,-0.000781412993092,-0.0002950368507299,0.0001320236624451,-0.0023099733516573,0.0004213219508528,-0.4792350232601166,0.8776834607124329,-0.0002889251545356,-0.0003815912452959,-0.0014011232391376,-0.0129472017288208,-0.0224319100379943,-0.0028247833251953,0,0,0,0
4.1,1788517342267,0.0,0.0,-0.0023074287455528,0.0003636282053776,-0.4629711210727691,0.8863702416419983,1.561891173032127e-05,-1.087207820997994e-05,-7.077928675463835e-08,-0.000781412993092,-0.0002950368507299,0.0001320236624451,-0.0023009357973933,0.0004416164010763,-0.4792280793190002,0.8776873350143433,0.0005294892199136,0.0006077875740833,0.0003412207624623,0.0127021074295043,0.0423187613487243,-0.0168228149414062,0,0,0,0
4.2,1788517342367,0.0,0.0,-0.0023063123226165,0.0004011371638625,-0.462973803281784,0.8863688707351685,4.997546633345136e-05,-5.7239153672714086e-05,-3.270772700080057e-07,5.561406214837916e-05,0.0001690013305051,0.0005736173479817,-0.0022975904867053,0.0004556262865662,-0.47920623421669,0.8776992559432983,0.0003620463821832,0.0002741560656411,0.0007046183524254,-0.0014636516571044,0.0243652462959289,-0.000798225402832,0,0,0,0
4.3,1788517342467,0.0,0.0,-0.0023306412622332,0.0004204783472232,-0.4629614055156708,0.8863752484321594,0.0,0.0,0.0,1.6855624451750373e-08,-5.393800073250077e-09,0.0,-0.0023567248135805,0.0004481198266148,-0.4792410433292389,0.8776800632476807,-0.0006294425371442,0.0001010940062014,-0.0008284085795164,-0.0021696090698242,0.0127279162406921,0.0027418136596679,0,0,0,0
4.4,1788517342567,0.0,0.0,-0.0023658080026507,0.0004006632370874,-0.4629845321178436,0.8863630890846252,-8.794120712075702e-05,0.000107784839043,-5.827084343038162e-07,-0.0008822092786431,-0.0013538297498598,-0.0010497189359739,-0.0023700390011072,0.0004591550678014,-0.4792616367340088,0.8776687979698181,-0.0006521672655837,1.8462544139765117e-05,-0.0006866708593873,-0.0253052711486816,-0.0011666417121887,-0.0315494537353515,0,0,0,0
4.5,1788517342667,0.0,0.0,-0.002370938193053,0.0004160703974775,-0.4630054831504822,0.8863521814346313,-6.727644877463297e-05,8.593239497568217e-05,4.91877211987407e-07,-0.0003936825087293,0.0003814860829152,-0.0007943623932078,-0.0023700390011072,0.0004591550678014,-0.4792616367340088,0.8776687979698181,-0.0006521672655837,1.8462544139765117e-05,-0.0006866708593873,-0.0253052711486816,-0.0011666417121887,-0.0315494537353515,0,0,0,0
4.6,1788517342767,0.0,0.0,-0.002370938193053,0.0004160703974775,-0.4630054831504822,0.8863521814346313,-6.727644877463297e-05,8.593239497568217e-05,4.91877211987407e-07,-0.0003936825087293,0.0003814860829152,-0.0007943623932078,-0.0023700390011072,0.0004591550678014,-0.4792616367340088,0.8776687979698181,-0.0006521672655837,1.8462544139765117e-05,-0.0006866708593873,-0.0253052711486816,-0.0011666417121887,-0.0315494537353515,0,0,0,0
4.7,1788517342867,0.0,0.0,-0.002370938193053,0.0004160703974775,-0.4630054831504822,0.8863521814346313,-6.727644877463297e-05,8.593239497568217e-05,4.91877211987407e-07,-0.0003936825087293,0.0003814860829152,-0.0007943623932078,-0.0023700390011072,0.0004591550678014,-0.4792616367340088,0.8776687979698181,-0.0006521672655837,1.8462544139765117e-05,-0.0006866708593873,-0.0253052711486816,-0.0011666417121887,-0.0315494537353515,0,0,0,0
4.8,1788517342967,0.0,0.0,-0.002370938193053,0.0004160703974775,-0.4630054831504822,0.8863521814346313,-6.727644877463297e-05,8.593239497568217e-05,4.91877211987407e-07,-0.0003936825087293,0.0003814860829152,-0.0007943623932078,-0.0023700390011072,0.0004591550678014,-0.4792616367340088,0.8776687979698181,-0.0006521672655837,1.8462544139765117e-05,-0.0006866708593873,-0.0253052711486816,-0.0011666417121887,-0.0315494537353515,0,0,0,0
4.9,1788517343067,0.0,0.0,-0.002370938193053,0.0004160703974775,-0.4630054831504822,0.8863521814346313,-6.727644877463297e-05,8.593239497568217e-05,4.91877211987407e-07,-0.0003936825087293,0.0003814860829152,-0.0007943623932078,-0.002402001991868,0.0006105490028858,-0.4793531894683838,0.8776185512542725,0.0003664500209537,0.0004511460858712,0.0003502907108781,0.0020521879196166,-0.0083112120628356,-0.0045423507690429,0,0,0,0
5.0,1788517343167,0.0,0.0,-0.002370938193053,0.0004160703974775,-0.4630054831504822,0.8863521814346313,-6.727644877463297e-05,8.593239497568217e-05,4.91877211987407e-07,-0.0003936825087293,0.0003814860829152,-0.0007943623932078,-0.002402001991868,0.0006105490028858,-0.4793531894683838,0.8776185512542725,0.0003664500209537,0.0004511460858712,0.0003502907108781,0.0020521879196166,-0.0083112120628356,-0.0045423507690429,0,0,0,0
5.1,1788517343267,0.0,0.0,-0.0024192207492887,0.000564687186852,-0.4631471037864685,0.8862779140472412,0.0,0.0,0.0,0.0,0.0,0.0,-0.002402001991868,0.0006105490028858,-0.4793531894683838,0.8776185512542725,0.0003664500209537,0.0004511460858712,0.0003502907108781,0.0020521879196166,-0.0083112120628356,-0.0045423507690429,0,0,0,0
5.2,1788517343367,0.0,0.0,-0.0024079754948616,0.0005477360100485,-0.4631748795509338,0.8862634897232056,-0.0001129471814748,0.000125706098314,-4.646954938187404e-07,0.00072235125117,-0.000395304581616,-0.00127244356554,-0.0023692427203059,0.0006398474797606,-0.4793809056282043,0.8776035308837891,0.0009082166176671,0.0001051782905183,0.0008954430475741,-0.0079580545425415,0.0380293726921081,0.0081787109375,0,0,0,0
5.3,1788517343467,0.0,0.0,-0.0024079754948616,0.0005477360100485,-0.4631748795509338,0.8862634897232056,-0.0001129471814748,0.000125706098314,-4.646954938187404e-07,0.00072235125117,-0.000395304581616,-0.00127244356554,-0.0023446632549166,0.0006310176104307,-0.4794702529907226,0.8775547742843628,0.0002479497164946,-0.000108985272003,-0.0011201234986531,0.0154036283493042,-0.0182258486747741,0.0224132537841796,0,0,0,0
5.4,1788517343567,0.0,0.0,-0.0023869052529335,0.0005805102991871,-0.4631687998771667,0.8862666487693787,0.0,0.0,0.0,5.871467756435322e-09,1.4091522615444774e-08,0.0,-0.0023327926173806,0.0006376020610332,-0.4794741868972778,0.8775526285171509,-0.0009472627815908,0.0005508635930752,0.0004882681120629,0.0012833476066589,-0.0111638307571411,0.0169887542724609,0,0,0,0
5.5,1788517343667,0.0,0.0,-0.0023869052529335,0.0005805102991871,-0.4631687998771667,0.8862666487693787,0.0,0.0,0.0,5.871467756435322e-09,1.4091522615444774e-08,0.0,-0.0023327926173806,0.0006376020610332,-0.4794741868972778,0.8775526285171509,-0.0009472627815908,0.0005508635930752,0.0004882681120629,0.0012833476066589,-0.0111638307571411,0.0169887542724609,0,0,0,0
5.6,1788517343767,0.0,0.0,-0.0023869052529335,0.0005805102991871,-0.4631687998771667,0.8862666487693787,0.0,0.0,0.0,5.871467756435322e-09,1.4091522615444774e-08,0.0,-0.0023421347141265,0.0007025506347417,-0.4794760048389435,0.8775516152381897,0.0004625531682828,0.0001919112369574,0.0011659577637911,-0.0210872292518615,0.0075142979621887,0.0277214050292968,0,0,0,0
5.7,1788517343867,0.0,0.0,-0.0023869052529335,0.0005805102991871,-0.4631687998771667,0.8862666487693787,0.0,0.0,0.0,5.871467756435322e-09,1.4091522615444774e-08,0.0,-0.0023541627451777,0.0007329517975449,-0.4795231521129608,0.877525806427002,0.0004209946081789,0.0018421039968357,-0.000762879021022,0.0135111808776855,-0.0206645727157592,0.011580467224121,0,0,0,0
5.8,1788517343967,0.0,0.0,-0.0023413423914462,0.0006883136811666,-0.4632736444473266,0.8862119317054749,-6.489540108326252e-05,6.747020728716455e-05,3.934118887877991e-07,0.0008994008530862,0.0016708930488675,-0.0006873316015116,-0.0023284656926989,0.0006984937936067,-0.4795247316360473,0.8775250315666199,0.0006027601841491,-0.001816728535253,-0.0002035012518316,-0.0173401236534118,0.0037460327148437,0.0025634765625,0,0,0,0
5.9,1788517344067,0.0,0.0,-0.0023245401680469,0.0006473318208009,-0.4632894992828369,0.8862037062644958,-6.282043655271187e-05,9.528627401282284e-05,5.158397908256604e-07,0.0015053114620968,-0.0012663662200793,-0.0007974170148372,-0.0023284656926989,0.0006984937936067,-0.4795247316360473,0.8775250315666199,0.0006027601841491,-0.001816728535253,-0.0002035012518316,-0.0173401236534118,0.0037460327148437,0.0025634765625,0,0,0,0
6.0,1788517344167,0.0,0.0,-0.0023367395624518,0.0006604155059903,-0.4632839262485504,0.8862066268920898,2.3606648814706724e-05,-1.640725336332579e-05,-1.0120163171887413e-07,-0.0006780393305234,0.0002382662059972,0.0002539459965191,-0.0023411335423588,0.0006531970575451,-0.4796361625194549,0.8774641156196594,0.0001298313754219,-0.000645425114034,-0.0030381772399216,0.0033167004585266,0.0107353925704956,-0.0027217864990234,0,0,0,0
6.1,1788517344267,0.0,0.0,-0.0023515296634286,0.0006150737171992,-0.4633542597293854,0.8861698508262634,-0.0002329959900788,0.0002815904503114,-4.763838131755898e-07,0.0002698856696952,-0.0016085269162431,-0.0027364185079932,-0.0023344904184341,0.0006509181112051,-0.4798369407653808,0.8773543834686279,0.0006320612336818,0.0016788029897696,-0.0067755847074501,0.0051360726356506,-0.0217201709747314,-0.0064525604248046,0,0,0,0
6.2,1788517344367,0.0,0.0,-0.0023515296634286,0.0006150737171992,-0.4633542597293854,0.8861698508262634,-0.0002329959900788,0.0002815904503114,-4.763838131755898e-07,0.0002698856696952,-0.0016085269162431,-0.0027364185079932,-0.002308327704668,0.0006537027657032,-0.480289101600647,0.8771070241928101,-7.505147571658414e-06,0.0001114651602724,-0.0100810432323585,7.700920104980469e-05,-0.0238855481147766,-0.0208616256713867,0,0,0,0
6.3,1788517344467,0.0,0.0,-0.0023515296634286,0.0006150737171992,-0.4633542597293854,0.8861698508262634,-0.0002329959900788,0.0002815904503114,-4.763838131755898e-07,0.0002698856696952,-0.0016085269162431,-0.0027364185079932,-0.002308327704668,0.0006537027657032,-0.480289101600647,0.8771070241928101,-7.505147571658414e-06,0.0001114651602724,-0.0100810432323585,7.700920104980469e-05,-0.0238855481147766,-0.0208616256713867,0,0,0,0
6.4,1788517344567,0.0,0.0,-0.0023515296634286,0.0006150737171992,-0.4633542597293854,0.8861698508262634,-0.0002329959900788,0.0002815904503114,-4.763838131755898e-07,0.0002698856696952,-0.0016085269162431,-0.0027364185079932,-0.0023081861436367,0.0006416840478777,-0.4805172383785248,0.8769819736480713,0.0012628921717357,-0.0002697790198553,-4.786094553698424e-05,0.0104402303695678,0.0225138068199157,0.022475242614746,0,0,0,0
6.5,1788517344667,0.0,0.0,-0.0023515296634286,0.0006150737171992,-0.4633542597293854,0.8861698508262634,-0.0002329959900788,0.0002815904503114,-4.763838131755898e-07,0.0002698856696952,-0.0016085269162431,-0.0027364185079932,-0.0023081861436367,0.0006416840478777,-0.4805172383785248,0.8769819736480713,0.0012628921717357,-0.0002697790198553,-4.786094553698424e-05,0.0104402303695678,0.0225138068199157,0.022475242614746,0,0,0,0
6.6,1788517344767,0.0,0.0,-0.0023349830880761,0.000589000119362,-0.4642730355262756,0.885688841342926,-7.2585837322202e-05,7.253612788391962e-05,4.2634549344630564e-07,-0.0004339202132541,0.0017638480057939,-0.0007893422734923,-0.0023081861436367,0.0006416840478777,-0.4805172383785248,0.8769819736480713,0.0012628921717357,-0.0002697790198553,-4.786094553698424e-05,0.0104402303695678,0.0225138068199157,0.022475242614746,0,0,0,0
6.7,1788517344867,2.253521203994751,0.0,-0.0023152902722358,0.0005487247835844,-0.4642651677131653,0.8856929540634155,3.15110670356782e-05,-4.7562298753137554e-05,-2.581832492534619e-07,0.0016062115319073,-0.0011797837214544,0.0003906798083335,-0.0021400563418865,0.000552387908101,-0.485740453004837,0.8741003274917603,0.006012309627081,0.0036016894042272,-0.2353565660546346,0.2932627201080322,-0.509815514087677,0.1670875549316406,0,0,0,0
6.8,1788517344967,5.492957592010498,1.2676056623458862,-0.0020496295765042,0.0003832750953733,-0.471864640712738,0.8816685676574707,0.0372620309433938,-0.0012450616626294,-5.87445964627599e-06,0.0104766692966222,0.0050953682512044,-0.3135609030723572,-0.0012752562761306,0.0006131445989012,-0.5084040760993958,0.8611175417900085,0.0192482468771064,0.0246107195598948,-0.5637556891629688,0.5043104887008667,-0.3324452042579651,-0.1366214752197265,204,153,18853,5476
6.9,1788517345067,5.492957592010498,1.2676056623458862,-0.0009184710797853,0.000471310922876,-0.512313723564148,0.8587976694107056,0.1454218033721235,-0.010613507283914,2.2728548579226344e-06,0.0126987108960747,0.0079558538272976,-0.7296007871627808,-0.0009302236139774,0.000495090149343,-0.5304800271987915,0.8476967215538025,0.0067866275627155,0.0311512595197291,-0.8121124702668113,0.2391033172607422,0.0053126215934753,1.1640377044677734,204,153,18853,5476
7.0,1788517345167,8.253520965576172,1.9154930114746092,-0.0008392703020945,8.428253931924701e-05,-0.5311558842658997,0.8472736477851868,0.1653826115353426,-0.0080396030880402,6.536909970676424e-05,0.0105818575248122,-0.0107607329264283,-0.8832759261131287,-0.0022417176514863,0.0012942953035235,-0.5782766342163086,0.8158367276191711,-0.0718141896776545,0.0075749153095955,-1.0125161716591595,0.126700758934021,-0.2267442345619201,0.2447500228881836,45,150,20124,7431
7.1,1788517345267,8.253520965576172,1.9154930114746092,-0.0013683170545846,0.0029316772706806,-0.5865504145622253,0.8099063038825989,0.1578853979221662,-0.0081004543812333,-0.0001354295868126,0.0173481628298759,0.0844887644052505,-0.8494401574134827,-0.0022417176514863,0.0012942953035235,-0.5782766342163086,0.8158367276191711,-0.0718141896776545,0.0075749153095955,-1.0125161716591595,0.126700758934021,-0.2267442345619201,0.2447500228881836,45,150,20124,7431
7.2,1788517345367,2.7887322902679443,-1.380281686782837,-0.0003508439986035,0.0030144806951284,-0.6159018278121948,0.787817120552063,0.0659542592851339,-0.0016594179471908,-1.1676644597130992e-05,0.0102481078356504,0.0122611951082944,-0.725736677646637,-0.0022417176514863,0.0012942953035235,-0.5782766342163086,0.8158367276191711,-0.0718141896776545,0.0075749153095955,-1.0125161716591595,0.126700758934021,-0.2267442345619201,0.2447500228881836,24,278,5217,-10014
7.3,1788517345467,1.7183098793029783,-2.507042169570923,0.0002309947158209,0.0014459469821304,-0.64486163854599,0.7642979025840759,-0.0157401590134945,-0.0002982706775566,-1.0478963300076886e-05,0.0440109297633171,-0.0331472046673297,-0.6511182188987732,0.0002207150682806,0.0019285371527075,-0.6557413935661316,0.7549830079078674,0.0409362080283599,-0.0267800103258845,-0.6753702876467849,-0.2991999387741089,0.0780341029167175,0.7451906204223633,57,84,6772,-8130
7.4,1788517345567,1.8591549396514893,-1.8028168678283687,0.0002465589786879,0.0008256514556705,-0.6550940871238708,0.7555467486381531,-0.0194390592355666,0.0047828141412096,-5.218955164327438e-06,0.0168482195585966,-0.0178325083106756,-0.5291140079498291,0.00077551510185,0.0014690244570374,-0.6831168532371521,0.7303072214126587,0.0014075203095148,0.0127724714695108,-0.5516379401155956,-0.011296808719635,0.2271974682807922,0.6339530944824219,57,84,6772,-8130
7.5,1788517345667,1.8591549396514893,-1.8028168678283687,0.0006447151536121,0.001531756366603,-0.6842148900032043,0.7292785048484802,0.0270699738608784,0.0005923346111842,-8.019393186664558e-08,-0.0018100267043337,0.0013976877089589,-0.6318674683570862,0.00077551510185,0.0014690244570374,-0.6831168532371521,0.7303072214126587,0.0014075203095148,0.0127724714695108,-0.5516379401155956,-0.011296808719635,0.2271974682807922,0.6339530944824219,57,84,6772,-8130
7.6,1788517345767,5.352112770080566,1.6901408433914185,0.0006447151536121,0.001531756366603,-0.6842148900032043,0.7292785048484802,0.0270699738608784,0.0005923346111842,-8.019393186664558e-08,-0.0018100267043337,0.0013976877089589,-0.6318674683570862,0.0003554429858922,0.0013259062543511,-0.715887725353241,0.6982141733169556,-0.0055806343065599,-0.0160628994518399,-0.5955548300962221,0.8127161264419556,-0.194657027721405,-0.7580051422119141,131,164,18249,9920
7.7,1788517345867,5.352112770080566,1.6901408433914185,0.0006447151536121,0.001531756366603,-0.6842148900032043,0.7292785048484802,0.0270699738608784,0.0005923346111842,-8.019393186664558e-08,-0.0018100267043337,0.0013976877089589,-0.6318674683570862,-0.001142487861216,0.0018258830532431,-0.7353922724723816,0.6776382923126221,-0.0429711701823898,0.0349114255313352,-0.4996897201002273,-0.2856488823890686,-0.0195922255516052,-0.7656641006469727,131,164,18249,9920
7.8,1788517345967,5.352112770080566,1.6901408433914185,0.0006447151536121,0.001531756366603,-0.6842148900032043,0.7292785048484802,0.0270699738608784,0.0005923346111842,-8.019393186664558e-08,-0.0018100267043337,0.0013976877089589,-0.6318674683570862,-0.0002959184348583,0.0034189829602837,-0.755443811416626,0.6552045345306396,0.0082439802453379,0.0104005678370209,-0.3977129191455739,-0.670059323310852,0.0715445876121521,1.5733308792114258,131,164,18249,9920
7.9,1788517346067,5.352112770080566,1.6901408433914185,-0.0007053872104734,0.00323441112414,-0.7469757795333862,0.6648430228233337,0.1652560174501954,-0.0020784580364179,-9.08932261660584e-05,-0.0054187183268368,0.0072006462141871,-0.3844696879386902,-0.0007054721936583,0.0031831730157136,-0.7602636814117432,0.6496065258979797,-0.0033188420650529,-0.0204320661090677,-0.3400978479847799,-0.1821871995925903,0.2741844654083252,-0.4461088180541992,131,164,18249,9920
8.0,1788517346167,5.352112770080566,1.6901408433914185,-0.0002885792637243,0.0036293459124863,-0.75738525390625,0.6529582142829895,0.180289698065396,-0.00264679953228,-1.781004078716377e-05,0.0002385642583249,0.0259653832763433,-0.3251745700836181,4.907604306936264e-05,0.0031530857086181,-0.779740035533905,0.6260954737663269,0.0202311345113826,-0.0235209626088244,-0.375012313141435,0.0443689823150634,0.0122192502021789,1.2403278350830078,61,97,17156,11935
8.1,1788517346267,6.732394218444824,3.577464818954468,-0.0002885792637243,0.0036293459124863,-0.75738525390625,0.6529582142829895,0.180289698065396,-0.00264679953228,-1.781004078716377e-05,0.0002385642583249,0.0259653832763433,-0.3251745700836181,-0.0003212010487914,0.0030119866132736,-0.7929413318634033,0.6092904210090637,-0.0054477311879438,0.0047843835010374,-0.4278670674342362,0.215839147567749,0.3313995599746704,-0.4746675491333008,61,97,17156,11935
8.2,1788517346367,6.619718074798584,3.4647886753082275,-0.0001071067526936,0.0032282969914376,-0.7834111452102661,0.6214954257011414,0.1808583416423738,-0.002171966263605,-6.104822380743222e-06,-0.0044733663089573,0.0222226381301879,-0.4192573130130768,-0.0003714151680469,0.0030345562845468,-0.8053520917892456,0.5927889943122864,-0.0037919466574436,-0.0148729348175962,-0.478115865954178,0.0739006996154785,0.0796989202499389,0.8150701522827148,79,49,18118,9588
8.3,1788517346467,6.619718074798584,3.4647886753082275,-0.0001071067526936,0.0032282969914376,-0.7834111452102661,0.6214954257011414,0.1808583416423738,-0.002171966263605,-6.104822380743222e-06,-0.0044733663089573,0.0222226381301879,-0.4192573130130768,-0.0003021024167537,0.0025817910209298,-0.8161206841468811,0.5778757929801941,0.0202452123783255,-0.004948162896841,-0.4087319122982866,-0.7463560700416565,0.1333484649658203,0.3680658340454101,79,49,18118,9588
8.4,1788517346567,6.619718074798584,3.4647886753082275,-0.0003388359909877,0.0028296906966716,-0.8181968927383423,0.5749310255050659,0.1051279954704774,-0.0042797837627066,-4.5423079651451655e-05,-0.0006555521395057,0.0182399563491344,-0.5224798321723938,-0.0003021024167537,0.0025817910209298,-0.8161206841468811,0.5778757929801941,0.0202452123783255,-0.004948162896841,-0.4087319122982866,-0.7463560700416565,0.1333484649658203,0.3680658340454101,79,49,18118,9588
8.5,1788517346667,6.619718074798584,3.4647886753082275,-0.0001413776772096,0.0030129086226224,-0.8296700716018677,0.5582457184791565,0.0051745310556422,-0.0004407144925617,9.514579801218818e-07,0.0013646319275721,0.0100576095283031,-0.3187021613121032,-4.693400114774704e-05,0.0029881335794925,-0.8444110751152039,0.5356875658035278,0.0017525490224797,0.0026952623443818,-0.3937083052463649,-0.003009021282196,0.1303202509880066,0.1952791213989257,79,49,18118,9588
8.6,1788517346767,1.154929518699646,-0.9577465057373048,-9.621225763112308e-05,0.002976679475978,-0.8348103761672974,0.5505294799804688,-0.024607631176579,-0.0014599192159766,-1.2624251614008629e-06,0.002780863083899,0.0016454471042379,-0.3700756728649139,1.3883225619792938e-05,0.0030260374769568,-0.8523437976837158,0.5229731202125549,-0.0002135935486068,0.0041256759954446,-0.3165432485025057,0.0443528294563293,-0.1045679450035095,-0.2186050415039062,55,146,5512,-6390
8.7,1788517346867,1.211267590522766,-1.2676056623458862,-4.1869934648275375e-05,0.0030257801990956,-0.8425641059875488,0.5385876893997192,0.0066120359254258,-0.0007057827708316,-1.1972010523573983e-06,0.0001591618201928,0.003493228694424,-0.3186127543449402,0.0005327695980668,0.0032694591209292,-0.8623899221420288,0.5062336921691895,0.0036736259223068,0.0118542397988762,-0.3537282328420438,-0.054449439048767,0.2979350686073303,0.0646352767944336,55,146,5512,-6390
8.8,1788517346967,0.9014084339141846,-0.8450704216957092,0.0004232851788401,0.0032770186662673,-0.8515315055847168,0.5242931246757507,0.0005163095891425,-0.0008919633975272,8.431506843060267e-07,0.0002422754914732,0.0177913233637809,-0.3581461906433105,0.0005597453564405,0.0031322799623012,-0.8671693801879883,0.498003214597702,0.0034758265405037,-0.0026956231660052,-0.2233967355379227,-0.1716720461845398,-0.0267155170440673,-0.138406753540039,29,143,3683,-4615
8.9,1788517347067,1.887323975563049,-1.6338027715682983,0.0004232851788401,0.0032770186662673,-0.8515315055847168,0.5242931246757507,0.0005163095891425,-0.0008919633975272,8.431506843060267e-07,0.0002422754914732,0.0177913233637809,-0.3581461906433105,0.0005798013880848,0.0030549280345439,-0.8695315718650818,0.4938674867153168,0.0043416602593508,-0.0004542545997549,-0.2381600696160661,0.149064302444458,0.0041654109954833,-0.1081361770629882,62,64,4582,-4370
9.0,1788517347167,2.0,-1.887323975563049,0.0006907472852617,0.0030931532382965,-0.8683880567550659,0.4958751499652862,0.010133016839298,-0.0057521619140067,-1.138417775722544e-06,0.0018829747568815,0.0086764665320515,-0.523133397102356,0.0015503372997045,0.0030726920813322,-0.8940728306770325,0.4479085206985473,0.0172222805169075,0.0183261602745162,-0.6166257717798493,0.0605063438415527,-0.0334190130233764,0.0906906127929687,32,133,6252,-7527
9.1,1788517347267,1.4929577112197876,-1.6338027715682983,0.0016514182789251,0.0030354589689522,-0.8891658186912537,0.4575720429420471,-0.0024732474478038,-0.0004901322789964,-1.653608185547985e-07,0.0147789642214775,0.016280734911561,-0.5993614792823792,0.0017911354079842,0.0029998952522873,-0.8993866443634033,0.4371402561664581,0.0099430210066356,0.0102624144828168,-0.5867921576093206,0.1225764155387878,0.2275079488754272,-0.2420186996459961,38,44,5521,-5540
9.2,1788517347367,1.5492957830429075,-1.5211267471313477,0.0019358948338776,0.0031382937449961,-0.8951203227043152,0.4458093643188476,0.0055653317293931,0.0016778308332537,-1.0213044787013742e-06,0.0030498234555125,0.013037396594882,-0.5274166464805603,0.0024722255766391,0.0033218301832675,-0.9108977913856506,0.4126114547252655,0.0037272594375177,0.0111318900107175,-0.4520077154187861,-0.093159019947052,0.0196425914764404,0.066925048828125,62,118,4702,-5426
9.3,1788517347467,1.1267606019973757,-1.042253494262695,0.0024648155085742,0.003385568736121,-0.90455424785614,0.4263379871845245,-0.0042639987261166,0.0008886827208697,-3.265123337339305e-07,0.002967681037262,0.0106024770066142,-0.439433604478836,0.0028747459873557,0.0035762963816523,-0.9192675948143004,0.3936066627502441,-0.0013676304993218,0.0029058075906867,-0.3386202889613116,-0.041834533214569,-0.0422295928001403,0.1046361923217773,62,118,4702,-5426
9.4,1788517347567,1.154929518699646,-1.0985915660858154,0.0024648155085742,0.003385568736121,-0.90455424785614,0.4263379871845245,-0.0042639987261166,0.0008886827208697,-3.265123337339305e-07,0.002967681037262,0.0106024770066142,-0.439433604478836,0.0028728069737553,0.0038307579234242,-0.9251773953437804,0.3795046806335449,-0.0053797507338403,0.0009479474660053,-0.3626742122535406,0.0477916598320007,-0.1850687861442566,0.0092449188232421,62,118,4702,-5426
9.5,1788517347667,1.154929518699646,-1.0985915660858154,0.0028418661095201,0.0038185589946806,-0.9163667559623718,0.400311529636383,-0.000514445833979,0.0013601985829886,5.893549404138711e-07,-0.0041806828230619,0.0037441621534526,-0.3434315621852875,0.0031888308003544,0.0039388695731759,-0.9321768283843994,0.3619680106639862,0.0038933046318591,0.0062616143159176,-0.3741506486494993,-0.0118222832679748,0.0760596990585327,0.1412172317504882,62,118,4702,-5426
9.6,1788517347767,1.154929518699646,-1.0985915660858154,0.0030887362081557,0.003985219169408,-0.9262980222702026,0.3767578601837158,-0.0002705163476075,-0.0005595877047565,-4.425706675452827e-07,0.0032930388115346,0.0037330756895244,-0.3696469962596893,0.0036373874172568,0.0041035301983356,-0.9378449320793152,0.3470112681388855,0.0011274964172438,0.0118957171290002,-0.2338241871958928,-0.0607868432998657,0.0288623571395874,0.1534223556518554,62,118,4702,-5426
9.7,1788517347867,1.154929518699646,-1.0985915660858154,0.0030887362081557,0.003985219169408,-0.9262980222702026,0.3767578601837158,-0.0002705163476075,-0.0005595877047565,-4.425706675452827e-07,0.0032930388115346,0.0037330756895244,-0.3696469962596893,0.0036885906010866,0.0042318133637309,-0.9404146671295166,0.3399836421012878,-0.001650170228026,0.0039408906327938,-0.2146909986466575,0.045454204082489,-0.003705084323883,0.0046815872192382,62,118,4702,-5426
9.8,1788517347967,1.97183096408844,-2.05633807182312,0.0035208943299949,0.0043806000612676,-0.9401503801345824,0.340713620185852,0.0044602798773485,-0.0030054118828402,-5.840185598687687e-07,-0.0008119679405353,-0.0009548516245558,-0.5418620109558105,0.0036543384194374,0.0043376125395298,-0.945667326450348,0.3250864148139953,-0.0007288233958346,0.000757313374633,-0.510274914509712,0.0657975673675537,-0.5248435139656067,0.0923948287963867,111,150,7590,-7972
9.9,1788517348067,1.5774648189544678,-1.4929577112197876,0.0032064646948128,0.0041586607694625,-0.9454042315483092,0.3258578479290008,0.0034409793693116,-0.0048788075431248,6.388957515395771e-07,0.0077785262838006,-0.0142796421423554,-0.6930803060531616,0.0038645360618829,0.004391448572278,-0.9582515358924866,0.285866916179657,0.0047175736039804,0.0013068211674945,-0.5297105605435805,-0.3630818128585815,0.2659034132957458,0.0112266540527343,111,150,7590,-7972
10.0,1788517348167,1.1267606019973757,-1.154929518699646,0.0039441045373678,0.0044480827637016,-0.9566971063613892,0.2910247147083282,-0.0040206010081264,0.0024983540469317,1.615123636997162e-06,0.0038951523602008,0.0047737285494804,-0.4078433215618133,0.0040491018444299,0.0044077020138502,-0.9605672955513,0.2779832184314728,0.0038052843273833,0.0103888616715132,-0.4107283915223157,-0.2063688039779663,0.1107596158981323,0.1962814331054687,76,141,4810,-5617
10.1,1788517348267,1.1267606019973757,-1.1267606019973757,0.0039441045373678,0.0044480827637016,-0.9566971063613892,0.2910247147083282,-0.0040206010081264,0.0024983540469317,1.615123636997162e-06,0.0038951523602008,0.0047737285494804,-0.4078433215618133,0.0041203135624527,0.0043096169829368,-0.967734158039093,0.2519027292728424,0.0019434649346095,6.905761236939358e-05,-0.3038522159686522,-0.0522136688232421,0.2033228874206543,0.0805931091308593,31,63,2701,-3389
10.2,1788517348367,1.1267606019973757,-1.1267606019973757,0.0040173735469579,0.0044402019120752,-0.9651228189468384,0.2617286741733551,-0.0004252550708195,-9.691545321753215e-06,3.431227770129976e-07,-0.0005648076767101,-0.0005419710068963,-0.2169512063264846,0.0040016025304794,0.0043757986277341,-0.9704588651657104,0.2411939799785614,-0.0015030860274357,-0.0067487973178011,-0.2100051946794232,0.1465919017791748,-0.0880584120750427,0.0173673629760742,31,63,2701,-3389
10.3,1788517348467,0.8732394576072693,-0.8732394576072693,0.0038552461192011,0.0045032035559415,-0.9679059386253356,0.2512430250644684,0.0006091028573328,-0.0017449985698431,1.0734052439294175e-06,-0.0001672187208896,-0.0007056235917843,-0.2576037645339966,0.0040201991796493,0.0044374894350767,-0.971908688545227,0.2352819740772247,-0.001036169193062,0.0021300352762196,-0.2453876494281409,0.0057491064071655,-0.0353203415870666,-0.1662263870239257,74,86,4399,-4510
10.4,1788517348567,0.8169013857841492,-0.8169013857841492,0.0040333326905965,0.0045541930012404,-0.9696251153945924,0.2445197850465774,-0.0005851502812372,-0.0007766468340786,-2.287993697609693e-07,0.0011619835859164,0.0083526000380516,-0.2775314748287201,0.0041635604575276,0.0044882409274578,-0.9764811992645264,0.2155158072710037,0.0020975655070843,0.0024884600055745,-0.2681751093732692,0.0115185976028442,-0.0018371939659118,0.1123523712158203,56,90,4043,-4520
10.5,1788517348667,0.8169013857841492,-0.7887324094772339,0.0040333326905965,0.0045541930012404,-0.9696251153945924,0.2445197850465774,-0.0005851502812372,-0.0007766468340786,-2.287993697609693e-07,0.0011619835859164,0.0083526000380516,-0.2775314748287201,0.0041635604575276,0.0044882409274578,-0.9764811992645264,0.2155158072710037,0.0020975655070843,0.0024884600055745,-0.2681751093732692,0.0115185976028442,-0.0018371939659118,0.1123523712158203,27,117,3890,-4603
10.6,1788517348767,0.8169013857841492,-0.8169013857841492,0.0040333326905965,0.0045541930012404,-0.9696251153945924,0.2445197850465774,-0.0005851502812372,-0.0007766468340786,-2.287993697609693e-07,0.0011619835859164,0.0083526000380516,-0.2775314748287201,0.0046759666875004,0.0045287068933248,-0.982207179069519,0.1876879930496215,0.0011514909572516,0.0048592061380551,-0.2499946782247888,0.1849470138549804,-0.079048216342926,0.0769195556640625,66,75,4093,-4788
10.7,1788517348867,0.8450704216957092,-0.9014084339141846,0.0047313380055129,0.0046193054877221,-0.979713261127472,0.2002953141927719,0.0018810461764675,-0.0013327010623901,2.049368782905707e-07,0.002427129773423,0.0071096974425017,-0.250999242067337,0.0049581564962863,0.0045544672757387,-0.9843311309814452,0.1762015521526336,0.0018879489514155,0.0092219820559376,-0.2500729226945485,0.0821817517280578,0.0513133406639099,0.0105934143066406,92,106,3902,-4322
10.8,1788517348967,0.9014084339141846,-0.9014084339141846,0.0049883001483976,0.0047371229156851,-0.9824414253234864,0.1864444762468338,0.0028006615448029,-0.0002298722281263,-1.0049284519536616e-06,-0.0006037568091414,0.006831070408225,-0.2929258644580841,0.005285371094942,0.0046453364193439,-0.987073302268982,0.160115361213684,0.0035484961515512,0.0100770483188405,-0.2894101251841353,-0.0793832540512085,0.091595709323883,0.004714012145996,53,63,3563,-3704
10.9,1788517349067,2.05633807182312,0.2535211145877838,0.0053710173815488,0.0047704437747597,-0.9851295948028564,0.1716625392436981,0.0014345858562713,0.0005426964493303,8.312796431455378e-07,0.0017917143413797,0.0077477232553064,-0.2572253048419952,0.0054621985182166,0.0046747811138629,-0.988077700138092,0.1537879705429077,0.0021147397030469,0.0091010057112645,-0.2077708316678763,-0.0530874133110046,0.0653480291366577,0.0263004302978515,224,250,11317,7663
11.0,1788517349167,3.774647951126098,2.9577465057373047,0.0058306856080889,0.00472331373021,-0.9872111082077026,0.1592418402433395,0.0860114665009342,-0.0063153610784159,-4.045277169203984e-05,0.0052409651689231,0.0185934100300073,-0.2440544068813324,0.0056089209392666,0.0046804957091808,-0.9894620180130004,0.144608125090599,-0.0006105441921389,0.0159502638488593,-0.3162041197028047,1.461956024169922,-0.2045251131057739,-0.1010951995849609,148,151,13038,10712
11.1,1788517349267,5.605633735656738,5.070422649383545,0.0046245292760431,0.0044366740621626,-0.9880003333091736,0.154318630695343,0.1597440765947923,-0.0057702100478856,8.119497364001739e-05,0.008022679015994,-0.014026066288352,-0.0757137537002563,0.0044364295899868,0.0040570478886365,-0.9908358454704284,0.1349381357431411,0.013945181701924,-0.0059239789298852,-0.0685781807586537,0.3943049907684326,0.1605938673019409,0.4829006195068359,185,178,16728,15828
11.2,1788517349367,5.267605781555176,4.901408672332764,0.0043609729036688,0.0041380519978702,-0.9881831407546996,0.153160348534584,0.1949292293935018,-0.0105191558288266,5.9925510384638246e-05,0.0105405487120151,-0.0122255478054285,-0.0474319607019424,0.0045654447749257,0.0039866724982857,-0.9913692474365234,0.1309594213962555,0.0023329549674493,-0.0116510467322879,-0.1100635033172861,-0.1346082687377929,-0.2657361626625061,0.3261365890502929,67,91,14679,14354
11.3,1788517349467,5.211267471313477,4.8450703620910645,0.0043390169739723,0.0043003484606742,-0.9893598556518556,0.1453606635332107,0.1835850920703529,-0.0062422579359788,1.835580059412512e-06,-0.0021279754582792,-0.0011958261020481,-0.0831038579344749,0.0041382163763046,0.0040159495547413,-0.9920743107795716,0.1255206763744354,0.0091843811200682,-0.0272762777662965,-0.0422308075185118,0.3020618557929992,-0.0718554854393005,-1.2769136428833008,70,105,14449,14406
11.4,1788517349567,5.295774459838867,4.8450703620910645,0.0039177718572318,0.0040774154476821,-0.9896241426467896,0.1435692310333252,0.1819317652946298,-0.0026267654942284,4.0773203079466543e-05,0.0007875155424699,-0.0065474896691739,-0.010485160164535,0.0039036180824041,0.0044417046010494,-0.992186427116394,0.1246242821216583,-0.0210809350831384,0.0086417376948291,-0.023010199525196,-0.1286032795906067,0.230741262435913,1.5082693099975586,52,68,14314,13772
11.5,1788517349667,5.295774459838867,4.8450703620910645,0.0038714392576366,0.0046392087824642,-0.9897430539131165,0.1427315175533294,0.1783686184061378,0.001035748727615,1.0506157588391677e-07,0.0,0.0,0.0,0.0040187360718846,0.0043137306347489,-0.9920490980148317,0.1257133334875106,0.0060679074979114,-0.038048593378873,0.0508131725306539,-0.0276582837104797,-0.3304842710494995,1.8817472457885744,52,68,14314,13772
11.6,1788517349767,4.985915660858154,5.014084339141846,0.0038625309243798,0.0043735615909099,-0.9895458221435548,0.1441009789705276,0.1900138487544299,0.0013049910726196,-7.544039593082705e-05,0.0102223409339785,-0.002093932358548,0.0554097779095172,0.0036870762705802,0.0044326018542051,-0.9918314814567566,0.1274242997169494,-0.0111341288832027,-0.0261920401545648,0.0242229325600805,-0.0482137203216552,-0.0677512288093566,-0.953333854675293,52,68,14314,13772
11.7,1788517349867,5.267605781555176,4.929577350616455,0.0027002743445336,0.004867723211646,-0.9893383979797364,0.1455288380384445,0.1845098241229104,-0.0042540451063221,3.728049090957177e-05,-0.0121417948976159,-0.0141073977574706,-0.0104035614058375,0.0013994704931974,0.0051413895562291,-0.9919877052307128,0.126222550868988,-0.0068025571237768,-0.0887019374967441,-0.0449761785515818,-0.7349422574043274,-0.4311892986297607,1.7147769927978516,57,24,14535,12342
11.8,1788517349967,5.098591327667236,4.760563373565674,0.002997004892677,0.0062883063219487,-0.9898462295532228,0.1419716775417328,0.1817437968087724,-0.0057736748967228,-9.346064814127744e-05,-0.0150588005781173,0.0080324755981564,-0.0562846325337886,0.0031122881919145,0.0062320539727807,-0.9922927021980286,0.1237207204103469,-0.0138046974164774,0.0068523509944566,-0.0544839897771104,0.135539174079895,-0.414661169052124,0.5800790786743164,78,74,15549,13600
11.9,1788517350067,5.014084339141846,5.042253494262695,0.0034379558637738,0.006325239315629,-0.9900342226028442,0.1406423300504684,0.1804356301432242,-0.01169709623351,-3.955577041729739e-05,0.0031192984897643,0.0151812769472599,-0.026784274727106,0.0038163196295499,0.0062507465481758,-0.9925466775894164,0.1216447204351425,0.0017797996576477,0.0279825763088039,-0.0443401335696461,0.0088797807693481,-0.3757892251014709,-0.7894258499145508,64,60,14717,13930
12.0,1788517350167,4.985915660858154,4.873239517211914,0.0034433838445693,0.006302454508841,-0.9901911616325378,0.1395345479249954,0.177114744480654,-0.0025666822445332,-4.306290106507157e-05,0.0011266256915405,0.0003459982690401,-0.0448172874748706,0.0039889151230454,0.0063964994624257,-0.9928145408630372,0.1194255575537681,-0.0109674986376044,0.0337247780105052,-0.0566762104967351,0.404468834400177,0.3682563304901123,0.954925537109375,82,112,14869,14756
12.1,1788517350267,4.985915660858154,4.873239517211914,0.0036432645283639,0.0066737956367433,-0.9905349612236024,0.137050062417984,0.180331568202736,-0.0042180954426869,-5.296219221777354e-05,-0.0134841511026024,0.0036501677241176,-0.0514551065862178,0.0034542651847004,0.00666468963027,-0.9929513335227966,0.1182850897312164,0.0094264057875911,-0.0090742521649577,-0.0117926056430254,-0.0098334550857543,0.0790393948554992,0.8201045989990234,52,108,14610,15041
12.2,1788517350367,5.070422649383545,4.929577350616455,0.0035864864476025,0.0069644819013774,-0.9906770586967468,0.136005699634552,0.1854655589149786,-0.004252996974592,-8.878369098240737e-05,-0.0077920076437294,-0.0007114713662303,-0.0281295198947191,0.0041617350652813,0.0069573922082781,-0.9930394291877748,0.1175032407045364,-0.0036165276479321,0.0206066683873313,-0.0240961900896704,-0.1891537308692932,-0.0100384354591369,0.7157373428344727,67,82,14247,14813
12.3,1788517350467,5.042253494262695,5.070422649383545,0.0037458818405866,0.006611960940063,-0.9907417893409728,0.1355471760034561,0.1756553306438335,-0.0077407346556157,1.986178639444845e-05,0.0152080440893769,-0.0082302903756499,-0.0119086755439639,0.003622269257903,0.0064485566690564,-0.9930447936058044,0.1175048649311065,0.0041889185813515,-0.017013647987872,0.0149352680581549,0.289293885231018,0.1033164262771606,0.9954462051391602,82,66,14374,14421
12.4,1788517350567,5.042253494262695,5.183098793029785,0.0036051720380783,0.0065389429219067,-0.9906910061836244,0.1359245926141739,0.1803209282220316,-0.0007795423434953,2.359172648759599e-07,0.0020471510943025,-0.0060242996551096,0.0151052176952362,0.0040963739156723,0.0063365651294589,-0.9928691387176514,0.1189701929688453,0.0057851068884888,-0.0050179259998802,0.0538420037143578,-0.041107177734375,0.2094631791114807,-0.0787353515625,66,40,14508,13680
12.5,1788517350667,5.126760482788086,5.211267471313477,0.0042167422361671,0.0066751693375408,-0.9904080629348756,0.1379476934671402,0.1891146104490974,-0.0042742456814743,-2.01993998883258e-05,-0.0090394122526049,0.0125876553356647,0.0411197058856487,0.0042815580964088,0.0064436867833137,-0.9925698041915894,0.1214307025074958,0.0051244578284748,-0.0175090557314662,0.0429235112580865,-0.1673622727394104,-0.0911387801170349,-1.643232345581055,62,45,14061,13124
12.6,1788517350767,5.126760482788086,5.211267471313477,0.0043862694874405,0.0065966174006462,-0.9902170896530152,0.1393105536699295,0.1843985972627619,-0.002962017681511,-2.379538879108224e-05,0.0029434929601848,0.004650579765439,0.0430627167224884,0.0042815580964088,0.0064436867833137,-0.9925698041915894,0.1214307025074958,0.0051244578284748,-0.0175090557314662,0.0429235112580865,-0.1673622727394104,-0.0911387801170349,-1.643232345581055,96,42,14546,13432
12.7,1788517350867,5.154929637908936,4.816901206970215,0.0045797424390912,0.0065515185706317,-0.9901573657989502,0.1397299766540527,0.1768376657231181,-0.0114175347014387,1.5425062339768118e-06,-0.00399104738608,0.017528124153614,-0.011380705051124,0.0042815580964088,0.0064436867833137,-0.9925698041915894,0.1214307025074958,0.0051244578284748,-0.0175090557314662,0.0429235112580865,-0.1673622727394104,-0.0911387801170349,-1.643232345581055,90,40,15449,13225
12.8,1788517350967,5.408450603485107,5.154929637908936,0.0002594334655441,0.0054120230488479,-0.9904065132141112,0.1380783021450042,0.180824664819691,-0.0044651046143599,2.252415425863078e-05,-0.0071433582343161,-0.0122787402942776,-0.0608253069221973,-0.0006725043058395,0.0054754419252276,-0.992840588092804,0.1193194463849067,-0.0120899994727793,-0.0962675037011638,-0.0354667403819781,-0.5899389386177063,-0.2113512754440307,1.9455547332763672,49,23,14663,12135
12.9,1788517351067,5.239436626434326,4.929577350616455,-0.0005014276830479,0.0054500764235854,-0.9905533194541932,0.1370183825492859,0.1842351670753816,-0.0106402885957892,0.0001566984944842,-0.0056613911874592,-0.0296744592487812,-0.0429227426648139,-0.0015426725149154,0.005620845593512,-0.9933810234069824,0.1147175729274749,0.0013327738326369,0.0255441483047676,-0.0617601937673047,-0.0872136950492858,0.1704074144363403,-0.6318349838256836,99,56,14953,13061
13.0,1788517351167,5.098591327667236,5.042253494262695,-0.0018026693724095,0.0055901738815009,-0.9911264777183532,0.1327923983335495,0.1763809148493926,-0.0072702565123128,0.0001404428744091,-0.0020632878877222,-0.0191956236958503,-0.072265550494194,-0.002561854198575,0.0056639714166522,-0.9937831163406372,0.1111597865819931,0.0052262593665245,-0.0350290134066599,-0.0682073913047066,0.4134438037872314,0.1822108626365661,-1.5078210830688477,60,95,14316,14566
13.1,1788517351267,4.873239517211914,5.014084339141846,-0.0023105011787265,0.005703407805413,-0.9916144609451294,0.1290850937366485,0.1846316886888481,-0.0095845973785466,2.343082542123643e-07,0.0,0.0,0.0,-0.0023068357259035,0.0061440728604793,-0.9937352538108826,0.1115666925907135,0.0028404034241171,0.0057124022817873,0.0558857599720437,-0.0333184003829956,0.3566241860389709,0.7109909057617188,76,58,14956,14436
13.2,1788517351367,5.098591327667236,5.042253494262695,-0.0035145541187375,0.0057575893588364,-0.9910387992858888,0.1334036737680435,0.1956096205799123,-0.0002296566447731,7.033668251926467e-05,0.0041916072368621,-0.0331787876784801,0.0959760770201683,-0.0035195117816329,0.005811259150505,-0.9932944774627686,0.1154125332832336,-0.0030499251463463,-0.0513677134556389,0.1050273708210439,0.2021867632865905,-0.0671784877777099,0.3440485000610351,110,53,14521,13859
13.3,1788517351467,4.901408672332764,5.183098793029785,-0.0037695933133363,0.0055070025846362,-0.9908687472343444,0.1346646696329116,0.1868303872209888,-0.0055349276348949,3.669303640468976e-05,0.0072011947631835,-0.0097232814878225,0.0419969484210014,-0.0044587170705199,0.0060440683737397,-0.9931416511535645,0.1166758984327316,-0.027117748275911,-0.0220160308615091,0.0349021659180217,0.1802863478660583,0.2328705787658691,-0.4858932495117187,49,47,13935,14238
13.4,1788517351567,4.704225540161133,5.211267471313477,-0.0040409816429018,0.0038098499644547,-0.9901673197746276,0.1397778987884521,0.1807659046191529,-0.0082859770163937,3.507935400201531e-05,0.0369250141084194,-0.0016056991880759,0.1184154972434043,-0.0034367395564913,0.0040969680994749,-0.9925687909126282,0.1215673983097076,-0.021485483412481,0.054833520724418,0.0415777177337856,0.1971659660339355,-0.2213500142097473,0.0717525482177734,129,18,15529,13671
13.5,1788517351667,5.042253494262695,5.070422649383545,-0.0025017652660608,0.0048898998647928,-0.9901147484779358,0.140152022242546,0.1814907515579253,0.0095074138837333,-7.10418314222272e-05,-0.0182512030005455,0.0280069671571254,0.0117264604195952,-0.0021318197250366,0.0051871910691261,-0.9924896359443665,0.1222006827592849,-0.0143937971992904,0.0204814820350831,0.020609675359163,-0.093240737915039,-0.0674954652786254,-0.4337377548217773,111,45,15202,13844
13.6,1788517351767,5.014084339141846,4.760563373565674,-0.0025017652660608,0.0048898998647928,-0.9901147484779358,0.140152022242546,0.1830335979985535,-0.0056688106525645,-6.824653291407841e-07,0.0,0.0,0.0,-0.0027744295075535,0.005145575851202,-0.992803990840912,0.1196078360080719,0.006519265107094,-0.0348024922042996,-0.1210063369870963,0.1371193528175354,-0.1608377695083618,-1.0221710205078125,58,104,14966,14933
13.7,1788517351867,5.521126747131348,4.788732528686523,-0.002780342940241,0.0051215202547609,-0.9903895854949952,0.1381828784942627,0.1695823996145386,-0.009973653264183,-3.3048229875088216e-05,-0.0108008300885558,-0.0092554539442062,-0.0789928138256073,-0.0142821436747908,0.0041047623381018,-0.9937288165092468,0.1108250096440315,-0.0117205532204287,-0.4574179970750476,-0.2479623269156017,-1.3090558052062988,-0.4644809365272522,0.3425455093383789,7,298,12366,18667
13.8,1788517351967,4.647887229919434,5.014084339141846,-0.0252840481698513,0.0015796965453773,-0.9916273951530457,0.1266229301691055,0.1642759112381267,-0.0073826305202665,0.0013978559228262,0.0302145015448331,-0.4986979961395263,-0.130672737956047,-0.0279308333992958,-0.0003291759639978,-0.9935063719749452,0.1102944165468216,0.1072264253057286,-0.0674330050000076,0.180589063283927,0.2609129548072815,-0.4092759490013122,-0.7708520889282227,172,370,15758,20054
13.9,1788517352067,4.929577350616455,5.352112770080566,-0.0228505078703165,0.0002753438893705,-0.99162495136261,0.1271137297153473,0.175598435713058,-0.0115658424793274,-0.0004650214958448,-0.0475778728723526,0.1731131672859192,-0.0812374725937843,-0.0231338664889335,0.0003139562904834,-0.9937704801559448,0.1090187802910804,-0.0555144252055374,0.2031759321549906,-0.0811500509474688,0.6477580070495605,0.0756253600120544,-0.4659481048583984,64,357,14114,20499
14.0,1788517352167,5.070422649383545,5.352112770080566,-0.0160742700099945,0.0034479526802897,-0.9920411109924316,0.1248371377587318,0.1804827695445855,-0.0019181170412584,-0.0007480305819662,-0.0934632197022438,0.2853147983551025,-0.0894422978162765,-0.0083181569352746,0.0046408381313085,-0.9942145943641664,0.1069890186190605,0.0028519797119959,0.2026797763496063,0.0380729723874571,-0.1890459060668945,-0.2558684945106506,0.1201982498168945,17,281,12682,19156
14.1,1788517352267,4.901408672332764,5.295774459838867,-0.0047454610466957,0.0051046502776443,-0.99200177192688,0.1260312348604202,0.1825123421192831,-0.0045147045623039,-0.0004525479797614,-0.0038563914131373,0.0625960752367973,0.0112244114279747,-0.004173070192337,0.0054125636816024,-0.9941089749336244,0.1081701591610908,-0.0045661399076506,0.0057555338637457,0.0164529107131788,-0.115937054157257,-0.0936939716339111,0.148895263671875,36,249,13180,18803
14.2,1788517352367,4.8450703620910645,5.183098793029785,-0.0062186475843191,0.0049885846674442,-0.9919228553771972,0.1265917122364044,0.179108471099603,-0.003236921716773,0.0002240071628698,0.0042525962926447,-0.0859679877758026,0.0055317427031695,-0.0066271629184484,0.0050388034433126,-0.994072437286377,0.1084002628922462,0.0066588657410441,-0.089268649961285,0.0105846234782666,-0.2168266177177429,-0.2722251415252685,0.1984815597534179,31,302,13464,19381
14.3,1788517352467,5.042253494262695,5.098591327667236,-0.0109826521947979,0.0044299750588834,-0.9920751452445984,0.1250866800546646,0.1776141616436665,-0.0072207770662481,0.0003025197385575,-0.0070378463715314,-0.1084315553307533,-0.0590461380779743,-0.0119073102250695,0.0046156011521816,-0.994248628616333,0.1063320711255073,-0.0151004086723961,-0.1214936363960467,-0.0739630480916667,-0.1123437285423278,-0.0398189425468444,-0.2650003433227539,19,315,12717,19821
14.4,1788517352567,5.070422649383545,5.042253494262695,-0.0142584387212991,0.0041112434118986,-0.9920631647109984,0.1248620897531509,0.1779092488776055,-0.0032062988074403,0.0003695749616305,-0.003845888422802,-0.1316575556993484,-0.009580691345036,-0.0177641250193119,0.0039685750380158,-0.994191348552704,0.1060774400830268,0.002093267040062,-0.1459268016209911,-0.0213679194377052,-0.0544455647468566,0.0826718211174011,-0.0755720138549804,49,322,13564,19342
14.5,1788517352667,5.014084339141846,5.014084339141846,-0.0194811038672924,0.0035121967084705,-0.992129385471344,0.1236415803432464,0.1791213445149193,-0.0077033299874197,0.0002863361220356,-0.0034939693287014,-0.0897853821516037,-0.0345779433846473,-0.0179637521505355,0.0039019184187054,-0.994392454624176,0.1041434034705162,-0.0061030458022877,0.0529790080536486,-0.0407560384133441,0.2002623081207275,0.2037002444267273,-0.2046594619750976,52,336,14113,20028
14.6,1788517352767,5.042253494262695,5.070422649383545,-0.0175672881305217,0.0035968122538179,-0.9923840761184692,0.1218698546290397,0.1817034225655463,-0.0048443784616811,-7.658003419985467e-05,-0.0013550862204283,0.0309947486966848,-0.0398366339504718,-0.0166563875973224,0.0036527859047055,-0.9945743680000304,0.1026214435696601,0.0205069229812696,0.0262396400495413,-0.0182494076899553,-0.047085165977478,-0.2862542867660522,0.3536033630371094,45,314,13672,19068
14.7,1788517352867,5.014084339141846,5.042253494262695,-0.016043122857809,0.0034769352059811,-0.9926459789276124,0.119934856891632,0.1772514942975902,-0.0113860643562123,-5.670484254703861e-05,0.0007826713263057,0.0414896011352539,-0.0451743490993976,-0.016559287905693,0.0036005796864628,-0.9949172735214232,0.0992598682641983,-0.0116922232299017,-0.0476176582174082,-0.0976889603027096,-0.0350074172019958,0.4586701393127441,-0.0544767379760742,10,379,12371,20697
14.8,1788517352967,4.760563373565674,5.211267471313477,-0.0182781089097261,0.002910814480856,-0.9929715991020204,0.1168968230485916,0.1736593697832681,-0.0052328283674465,0.000239222400781,0.0049862214364111,-0.0738899260759353,-0.0392531640827655,-0.0184252467006444,0.0028306879103183,-0.9949626922607422,0.098497986793518,0.0282440897902085,0.0009817895417242,0.0017451461241876,0.0363649129867553,-0.271730899810791,0.0070867538452148,61,361,13622,20697
14.9,1788517353067,4.873239517211914,5.070422649383545,-0.0159872453659772,0.0027822346892207,-0.9931487441062928,0.1157251000404357,0.1761522566489554,-0.0107376520785528,-0.0003457628657565,0.0013140240916982,0.0691329687833786,-0.0125393038615584,-0.0156318675726652,0.0028878981247544,-0.9951525330543518,0.0970509052276611,0.0132031498567176,-0.0012747713168269,-0.0169003699472606,-0.540817141532898,-0.0547745823860168,-0.1740760803222656,20,361,13019,21081
15.0,1788517353167,4.929577350616455,5.070422649383545,-0.0142920175567269,0.0034370482899248,-0.9933056831359864,0.1145765110850334,0.1750607817137577,0.001055559758607,-5.494392098205329e-05,-0.0157406795769929,0.0474322438240051,-0.0103925438597798,-0.0138021949678659,0.0037763314321637,-0.9952501058578492,0.0962939709424972,-0.0161568997828972,0.0802987815751597,-0.0071632716209015,0.2409659028053283,-0.26467365026474,0.4382381439208984,21,329,12224,20425
15.1,1788517353267,5.014084339141846,5.464788913726807,-0.0131886890158057,0.0017510900506749,-0.9931280612945556,0.1162735521793365,0.1816317794559328,-0.0042435920485242,5.3689415137459545e-06,0.0365533530712127,-0.0040367385372519,0.0372122302651405,-0.0134954033419489,0.0017550038173794,-0.9951126575469972,0.097803808748722,0.0227287769483921,-0.0351128014060167,-0.0068361099602698,0.0284919738769531,0.4038662314414978,-0.1546754837036132,32,290,12857,18785
15.2,1788517353367,4.985915660858154,5.154929637908936,-0.0124903414398431,0.0012338856467977,-0.9932260513305664,0.1155180782079696,0.1717341218991377,-0.0061855359229692,4.687474205775908e-05,0.0233865268528461,0.0254239067435264,-0.0306703466922044,-0.0132835926488041,0.0024047968909144,-0.995408833026886,0.0947574526071548,-0.0493937717685467,-0.0840501069211682,-0.0939188389430095,-0.6200677156448364,-0.0856232643127441,0.2408733367919922,13,379,11977,21028
15.3,1788517353467,5.126760482788086,5.211267471313477,-0.0176773946732282,0.0019849024247378,-0.9933983087539672,0.1133283078670501,0.1705999108337889,0.0024686884360862,0.0006361974427115,-0.0097407633438706,-0.129415288567543,0.0079580200836062,-0.0175081565976142,0.0030096927657723,-0.995481014251709,0.093284785747528,-0.0124919421596003,0.0013818886551236,-0.0614337509016896,-0.3596866726875305,-0.5275843143463135,-0.3120002746582031,40,321,13552,19804
15.4,1788517353567,4.985915660858154,5.183098793029785,-0.0179180745035409,0.0031929919496178,-0.9938201904296876,0.1095000728964805,0.1791709803868925,-0.0041845072661615,-3.433915552661467e-05,-0.0260064043104648,-0.0109887346625328,-0.0940088257193565,-0.019236447289586,0.0039940550923347,-0.995721399784088,0.0902930349111557,-0.0342881221796118,-0.0606459125820805,-0.0482806324902633,0.0226995944976806,0.3738213181495666,0.5390405654907227,15,377,12074,20863
15.5,1788517353667,4.732394218444824,5.295774459838867,-0.0173879321664571,0.0033483679872006,-0.9936999082565308,0.11066535115242,0.1709000847061841,-0.0028184589722833,-0.000340933242131,-0.0019027402158826,0.1089300513267517,0.0273158997297287,-0.0167561098933219,0.0037084389477968,-0.995605170726776,0.0920640155673027,0.003455297660643,0.0789435047217511,-0.0121440015898911,0.043986976146698,-0.2695518136024475,0.0801534652709961,67,322,13946,20454
15.6,1788517353767,4.901408672332764,5.070422649383545,-0.0166545808315277,0.0034994995221495,-0.993808388710022,0.1097970530390739,0.1858908813205964,-0.0048190176404951,-0.0001584803783435,-0.0033488075714558,0.0299966614693403,-0.034774612635374,-0.0147664686664938,0.0035832915455102,-0.9956961274147034,0.0914242044091224,0.0076377691744121,0.0627454049119896,0.0053940881389483,-0.3137946128845215,-0.1636554598808288,-0.1072959899902343,25,358,12603,20687
15.7,1788517353867,4.901408672332764,5.126760482788086,-0.0163965988904237,0.0029375702142715,-0.9937612414360046,0.1102774515748024,0.1772924782934358,0.0022601628936719,0.0002690288876769,0.006729622837156,-0.0562147684395313,0.0227116961032152,-0.016678337007761,0.0031731240451335,-0.9956080317497252,0.0920678451657295,0.0056147528610161,-0.0499901153185538,0.0169676245334912,0.0358176827430725,-0.1127064824104309,-0.0306711196899414,37,325,12567,20211
15.8,1788517353967,4.816901206970215,5.154929637908936,-0.0169517416507005,0.0028825832996517,-0.9937551021575928,0.1102506220340728,0.1730897159384261,-0.0040204744714818,0.0001304307176628,-0.0002764251839835,-0.0219206102192401,-0.0011208903742954,-0.0168744157999753,0.0034381421282887,-0.9957199096679688,0.0908041447401046,-0.0061780097101268,0.016409250087989,-0.0265592847034595,0.0172380208969116,0.2796135544776916,-0.2804136276245117,20,381,13151,20750
15.9,1788517354067,4.8450703620910645,5.295774459838867,-0.0165259484201669,0.0030565042980015,-0.9939035177230836,0.1089649721980094,0.1784766127112455,-0.0019324389300908,-1.8175401168182293e-05,0.0040243337862193,0.0074728978797793,-0.0074209771119058,-0.0162000954151153,0.0033917296677827,-0.9957305192947388,0.0908120721578598,-0.0003132710775973,0.0179588641195362,0.0106741124887301,-0.1191198229789733,-0.3226776123046875,-0.2139549255371093,29,357,12847,20294
16.0,1788517354167,4.619718074798584,5.183098793029785,-0.0165259484201669,0.0030565042980015,-0.9939035177230836,0.1089649721980094,0.178435945586157,-0.0017066257579844,6.878662247342476e-07,0.0,0.0,0.0,-0.0165818724781274,0.0031167771667242,-0.9955530762672424,0.0926795154809951,0.0066497804933583,-0.019371509541684,0.0921779135379257,0.1581284999847412,0.5641331672668457,-0.1025762557983398,41,327,13568,20526
16.1,1788517354267,4.985915660858154,5.211267471313477,-0.0165442992001771,0.0028733685612678,-0.993620216846466,0.1115208566188812,0.1749607713029775,-0.0003135021940535,5.77930952815356e-06,-0.0009496743441559,0.002206597244367,0.0337356850504875,-0.0178883168846368,0.00265309587121,-0.9955266118049622,0.0927350968122482,-0.0018326277575686,-0.069743862682505,-0.0175505672303774,0.0459324121475219,0.3458653688430786,-0.180241584777832,13,323,12488,20278
16.2,1788517354367,5.126760482788086,5.126760482788086,-0.0174739900976419,0.0023922130931168,-0.9938757419586182,0.1090867966413497,0.181192455934959,-0.0100169081098049,-2.1309017529763667e-05,-0.0036606220528483,0.0097259804606437,-0.0670511648058891,-0.0174777284264564,0.0026974864304065,-0.9957427382469176,0.0904641300439834,-0.0045623443602392,-0.0010456505938541,-0.0655251183133035,-0.3970029950141907,-0.4970747828483581,0.2288780212402343,29,340,13314,19747
16.3,1788517354467,5.126760482788086,4.873239517211914,-0.0154079291969537,0.0027772434987127,-0.9942336678504944,0.106086827814579,0.178259958272668,-0.0052132872176921,-0.0001660635317533,0.0022778054699301,0.0565889403223991,-0.05169228464365,-0.0151871461421251,0.0030637010931968,-0.9960337281227112,0.0876170173287391,0.0070955711860604,0.0553026859800829,-0.046930247773975,0.2171380519866943,0.5269147753715515,0.7155895233154297,16,330,12926,20415
16.4,1788517354567,5.070422649383545,5.042253494262695,-0.0150049980729818,0.0029080216772854,-0.9943337440490724,0.1051985919475555,0.1779925622865501,-0.0040274062851195,-8.543985563597256e-05,-0.0040307999588549,0.0167535599321126,-0.0356535539031028,-0.0149757387116551,0.0034893685951828,-0.9961984753608704,0.0857456102967262,-0.0095351438785042,0.0048615901787001,-0.0451578980851112,-0.0565914511680603,-0.5056923627853394,0.3040151596069336,28,322,13182,19537
16.5,1788517354667,4.816901206970215,5.098591327667236,-0.0148766906931996,0.0035196598619222,-0.9946176409721376,0.1024793162941932,0.1773746754799706,-0.009608233355103,-2.2531588582653632e-05,-0.0105102388188242,0.0054792598821222,-0.0535760819911956,-0.0154829425737261,0.0038559790700674,-0.9963443279266356,0.0839257910847663,-0.0085783467035551,-0.0339059683316203,0.0119951293945145,-0.2752937078475952,-0.3016531467437744,-0.3135862350463867,28,369,12667,20860
16.6,1788517354767,4.732394218444824,5.183098793029785,-0.0163520015776157,0.0035957947839051,-0.9946062564849854,0.1023626700043678,0.1757658363438215,-2.9070038296162805e-05,8.420711027232381e-05,-0.0060424651019275,-0.0458755120635032,0.0063915983773767,-0.0167177580296993,0.0040001375600695,-0.9963001608848572,0.0842059776186943,-0.0116556812519128,-0.0265251278118195,0.0083687596295542,-0.1291908621788025,-0.3297058939933777,-0.1559171676635742,31,336,13249,20567
16.7,1788517354867,4.873239517211914,5.126760482788086,-0.0163955464959144,0.0042944438755512,-0.9946788549423218,0.1016209423542022,0.1755995225139484,0.0016750276000789,-2.0301727854058574e-05,-0.0081438152119517,0.0083741443231701,-0.0119470674544572,-0.0157019216567277,0.0046517634764313,-0.9963865280151368,0.0833417996764183,-0.0033385804762364,0.0492580269692805,-0.0029265861636927,-0.0039839744567871,-0.2109350562095642,-0.2076311111450195,31,357,12587,20748
16.8,1788517354967,4.873239517211914,5.211267471313477,-0.0148460324853658,0.0045967283658683,-0.99467933177948,0.1018404886126518,0.178843033538359,0.0018977857913995,-0.0001526115485223,-0.005583856254816,0.062835119664669,0.009196282364428,-0.0164740178734064,0.0037177251651883,-0.9962306618690492,0.0850836634635925,0.0283660499344516,-0.0828786848511757,0.0504115121583889,-0.0442770719528198,-0.0519065856933593,0.2770652770996094,38,367,12467,20252
16.9,1788517355067,4.957746505737305,5.070422649383545,-0.0171038042753934,0.0029645054601132,-0.9944477677345276,0.1037900000810623,0.1781635851932657,0.0062430087109519,0.0001507147488171,0.0273460112512111,-0.048579417169094,0.0341143682599067,-0.0126734534278512,0.0015956312417984,-0.9961502552032472,0.0867264047265052,0.0800312387377144,0.1919073201541973,0.051566803127614,-0.2540781497955322,-0.6616587042808533,0.944072723388672,36,308,13072,19868
17.0,1788517355167,5.014084339141846,5.070422649383545,-0.0092550115659832,0.0019414724083617,-0.9946134686470032,0.103221371769905,0.178445864459819,-0.0067303581279796,-0.0004938482032303,-0.0059204064309597,0.1209756359457969,-0.0592373758554458,-0.009264213964343,0.0024889465421438,-0.9963904023170472,0.0843455269932746,-0.0108488932173085,-0.0412265056774633,-0.0149230566966206,-0.1905052661895752,-0.0860596895217895,-0.0835037231445312,11,308,13239,19258
17.1,1788517355267,4.8450703620910645,4.985915660858154,-0.0113297002390027,0.0025108275003731,-0.9947747588157654,0.1014319732785224,0.1768690914106399,-0.0051607575527558,0.0002408447009469,-0.0083072911947965,-0.0552302226424217,-0.02920987829566,-0.011075903661549,0.0030192350968718,-0.9965141415596008,0.082630343735218,-0.0191566375538727,0.0154225096139966,-0.0317900442417404,0.212590217590332,-0.4030425548553467,-0.2449703216552734,37,382,12552,21043
17.2,1788517355367,4.901408672332764,5.126760482788086,-0.0108934296295046,0.0028778619598597,-0.9948265552520752,0.10096126049757,0.1728586348710823,-0.0015631229422031,-8.605530948757068e-05,-0.0129438517615199,0.0187761224806308,-0.0185882020741701,-0.0115506825968623,0.0031197443604469,-0.9964887499809264,0.0828680470585823,4.933899578350142e-05,-0.0124675684657045,0.0317890831548011,0.5027344822883606,0.4280296564102173,-0.5223417282104492,32,337,12615,20548
17.3,1788517355467,4.816901206970215,5.183098793029785,-0.0086977928876876,0.0032471513841301,-0.99484384059906,0.1009930595755577,0.1760452937529046,0.0002368085246279,-4.848323302488978e-05,-0.0059906942769885,0.0361962281167507,-0.0113204820081591,-0.0083484929054975,0.0035010213032364,-0.9965376257896424,0.08264971524477,0.0015594713716614,0.0434443817867756,0.0105272088782213,-0.0208833813667297,0.3804401159286499,0.1391859054565429,29,337,12789,20264
17.4,1788517355567,4.8450703620910645,5.183098793029785,-0.0084115015342831,0.0033468070905655,-0.9948479533195496,0.1009730324149131,0.1784769372096274,-0.0014631533797492,-7.079837326866539e-05,-0.002837055362761,0.0118892062455415,-0.000747439044062,-0.0092766005545854,0.0037649627774953,-0.996557354927063,0.0822993889451026,-0.019973800582152,-0.0316840353486053,-0.0240844991311531,0.2263861894607544,-0.0510432720184326,-0.5532598495483398,21,337,12844,19983
17.5,1788517355667,4.985915660858154,5.323943614959717,-0.0094442488625645,0.0036689504049718,-0.9949249029159546,0.1001086309552192,0.176558576528187,0.003019348745616,1.3725839182211297e-05,-0.0055337524972856,-0.005009741988033,-0.0240497756749391,-0.0091116176918149,0.0039040660485625,-0.9966306686401368,0.081419363617897,-0.0083870328142247,0.0268922788385861,-0.0280854798655583,0.2914267778396606,0.4314477443695068,0.5558452606201172,27,312,12617,19840
17.6,1788517355767,4.8450703620910645,5.267605781555176,-0.0091159222647547,0.0037632032763212,-0.9949601292610168,0.0997851863503456,0.1823621992053809,-0.0043698684996905,-5.082871634370725e-05,-0.0025528233963996,0.0135022765025496,-0.0129271913319826,-0.009973794221878,0.0041923746466636,-0.9966726899147034,0.0807874724268913,-0.0047879024076908,-0.0801418086977713,0.0080370588440703,-0.2360172271728515,-0.3825411796569824,-0.1919355392456054,15,294,12463,19881
17.7,1788517355867,4.478873252868652,5.521126747131348,-0.0118027338758111,0.0039506847970187,-0.995006024837494,0.0990357473492622,0.1723124612386181,-0.0043096653061623,0.000241231765138,-0.0070877098478376,-0.0869314074516296,-0.0051522455178201,-0.0122087635099887,0.0042540524154901,-0.9965031743049622,0.0825485363602638,-0.0016947807786366,0.0029588892842209,0.0800962700241319,0.2516505122184753,0.3085075616836548,0.3017520904541015,11,391,11518,21947
17.8,1788517355967,4.647887229919434,5.802816867828369,-0.012258730828762,0.0042129606008529,-0.9945789575576782,0.1031730622053146,0.1749065016888142,0.0065962108735049,3.8098085798491365e-05,-0.005055992398411,0.0042728688567876,0.0855428650975227,-0.0124895302578806,0.004250256344676,-0.9960765838623048,0.0875073000788688,0.0044106483263722,-0.0390951475260612,0.0832112421577185,-0.1953014731407165,0.2954906225204468,-0.0772953033447265,9,347,10630,20711
17.9,1788517356067,4.957746505737305,5.408450603485107,-0.0122252171859145,0.00412552151829,-0.9940224289894104,0.1084113791584968,0.1774955253086172,-0.0002507042097722,-9.448432370788638e-05,-0.0011251929681748,0.0232240688055753,0.03904290497303,-0.0121486335992813,0.0045420797541737,-0.995842456817627,0.0901644229888916,-0.0172149912809088,0.0133464034416135,0.0067633153298124,0.2032469511032104,-0.2307796478271484,0.4339675903320312,29,283,12459,19376
18.0,1788517356167,4.873239517211914,5.154929637908936,-0.0124939605593681,0.0048891883343458,-0.9940197467803956,0.10837272554636,0.1752472244659296,-0.0036167140189061,5.109298747211142e-05,-0.009849146939814,-0.0085522169247269,-0.0013245558366179,-0.0133433733135461,0.0051008155569434,-0.9958277940750122,0.0901277139782905,-0.0041162071671046,-0.0290494571344163,0.0150083520705456,-0.2186347246170044,-0.3515383005142212,0.2096414566040039,25,325,12642,20050
18.1,1788517356267,4.8450703620910645,5.267605781555176,-0.0146505609154701,0.0044227386824786,-0.9939448833465576,0.1088085621595382,0.1759351987594851,-0.0001675253308161,5.582511498606335e-07,0.0090776355937123,-0.0096081038936972,0.0110537456348538,-0.0146502098068594,0.0045979609712958,-0.9957684874534608,0.0906056985259056,0.0165367585222303,-0.0214855413157678,0.0058906501293956,-0.2502840757369995,0.224807322025299,-0.2147903442382812,37,313,13117,19992
18.2,1788517356367,4.929577350616455,5.211267471313477,-0.0154019054025411,0.0042171031236648,-0.9939334392547609,0.108817808330059,0.1783608860020712,-0.00078770390632,9.963064242014924e-05,0.0009942919714376,-0.026032967492938,-0.0033333164174109,-0.0153216877952218,0.0044998321682214,-0.9957676529884338,0.0905078276991844,-0.0012490439165565,-0.0022455401785137,0.0040902709651983,-0.1545730233192443,-0.3655217289924621,0.3224306106567383,23,322,12498,20007
18.3,1788517356467,4.788732528686523,5.070422649383545,-0.0155132934451103,0.0040145316161215,-0.9938843846321106,0.1092569977045059,0.1831601223998252,-0.0072338439151282,-2.5860999464864945e-05,0.0067369872704148,0.009809841401875,0.0185716394335031,-0.0157530661672353,0.0044226674363017,-0.9957371354103088,0.0907727926969528,-0.0106602967902108,-0.0123475313694186,-0.0095193710293731,-0.0894621014595031,-0.1704921126365661,-0.0856943130493164,17,359,12920,20383
18.4,1788517356567,4.929577350616455,5.239436626434326,-0.0155132934451103,0.0040145316161215,-0.9938843846321106,0.1092569977045059,0.1779924739582762,-0.0030648997950698,4.287640205668029e-07,0.0,3.690772842901424e-08,0.0,-0.0145785929635167,0.0049755461513996,-0.9958496689796448,0.0897007063031196,-0.0144740245977717,0.0342468820896321,-0.028579045870143,-0.2797719836235046,0.0028246045112609,-0.0075082778930664,18,338,12212,20115
18.5,1788517356667,4.816901206970215,5.352112770080566,-0.0136251877993345,0.0050673382356762,-0.9940664172172546,0.1077987104654312,0.176014087507694,0.0007559044898215,-0.0002012043694291,-0.0196981932967901,0.0734897181391716,-0.0270482897758483,-0.013565314002335,0.0037400340661406,-0.9957891702651978,0.0905868336558342,0.0315868321718752,-0.0365530758334695,0.0410187611591877,0.0634760856628418,-0.0527774095535278,0.7060823440551758,32,340,12915,19601
18.6,1788517356767,4.873239517211914,4.676056385040283,-0.0152206681668758,0.0023300666362047,-0.9938561916351318,0.1096030175685882,0.1775544712716064,0.0014789738651961,0.0001960812746517,0.0402355603873729,-0.0629612728953361,0.0299462601542472,-0.0124736605212092,0.0025318730622529,-0.9958497881889344,0.0901180133223533,-0.0373251653296363,0.1153797633462819,-0.1177686024275515,0.5560150146484375,0.1542068123817443,0.0582265853881835,57,488,13528,22017
18.7,1788517356867,4.985915660858154,5.267605781555176,-0.0165187511593103,0.002418918069452,-0.9940476417541504,0.1076595485210418,0.1828124963354358,0.0006610934312903,0.0003494867518161,-0.012423756532371,-0.1266270875930786,0.0036746256519109,-0.0172730423510074,0.0027830973267555,-0.9958475828170776,0.0893401354551315,-0.0156521369940947,-0.1179311124762444,0.0062595901939093,-0.0719333887100219,0.1121877431869506,-0.5049448013305664,16,294,12262,19921
18.8,1788517356967,4.8450703620910645,5.549295902252197,-0.0178978871554136,0.0027463980950415,-0.9940268397331238,0.10762270539999,0.1730559881702757,-0.003693348606613,0.0001588882167868,-0.0188237763941288,-0.0529786050319671,-0.0012814378133043,-0.0202441290020942,0.003314446657896,-0.9958385229110718,0.0887964442372322,-0.0090036620302199,-0.1088665801222203,-0.0074423565481062,-0.0984837412834167,-0.3645695447921753,-0.0705204010009765,9,349,10495,21555
18.9,1788517357067,4.507042407989502,5.436619758605957,-0.0213318914175033,0.0030761314556002,-0.9938666224479676,0.1084647104144096,0.1761885442006367,-0.0008698110756783,0.000199244107989,-0.0101273506879806,-0.0565447211265563,0.0583787709474563,-0.0192884113639593,0.0028945105150341,-0.995431661605835,0.0934634879231453,-0.0050515749371972,0.1345582658077023,0.082366254957792,0.3248624205589294,-0.1976255774497985,-0.2717695236206054,34,386,11891,22028
19.0,1788517357167,4.788732528686523,5.521126747131348,-0.0134310880675911,0.0030060899443924,-0.99319326877594,0.1156626641750335,0.185083780621496,0.0071783606446027,-0.0002333531080198,0.0025593638420104,0.0807736441493034,0.0913666188716888,-0.0124067524448037,0.003452505916357,-0.995126247406006,0.0977653339505195,-0.0074266025820385,0.0911510474406338,0.0515842050158726,0.4024549126625061,-0.2095804214477539,0.2679481506347656,27,299,12675,19455
19.1,1788517357267,4.8450703620910645,5.352112770080566,-0.0091093461960554,0.003497494617477,-0.9930688142776488,0.1171287149190902,0.1795657198148867,-0.0026108358691988,-0.0003547139798199,0.0038564938586205,0.0835655480623245,0.0205092690885067,-0.0089015047997236,0.0035407254472374,-0.995007872581482,0.0993364155292511,0.0094618270952733,0.0084493228369298,0.0340567341457232,-0.2212507724761963,0.4403463006019592,0.057861328125,31,288,12739,19130
19.2,1788517357367,4.788732528686523,5.126760482788086,-0.0099570378661155,0.0034623416140675,-0.992974817752838,0.1178552433848381,0.1771576435362939,-0.0007665140447691,1.0675971295164756e-05,-0.0023011239245533,-0.0336442925035953,0.028886305168271,-0.0106190741062164,0.0036117574200034,-0.9949514269828796,0.0997295081615448,-0.0003443378221445,0.0094645624389922,-0.0076114604688217,0.334699809551239,-0.4293946623802185,0.0215177536010742,27,364,13414,20009
19.3,1788517357467,5.098591327667236,5.098591327667236,-0.0114688267931342,0.0033680801279842,-0.9929859042167664,0.117626778781414,0.1777093056693082,-0.0035878275354646,8.521543729644175e-05,-0.0021935279946774,-0.0504915118217468,-0.0249632783234119,-0.011619902215898,0.0034942356869578,-0.994965434074402,0.0994811356067657,0.0109841059330363,-0.0147294032889499,0.0109079443038218,-0.037400484085083,0.1697438359260559,-0.3183526992797851,47,311,13227,19112
19.4,1788517357567,4.788732528686523,5.323943614959717,-0.0123707894235849,0.0030801114626228,-0.99303537607193,0.1171244084835052,0.176533398812959,0.0008356846223786,2.661692004695085e-07,2.983878403028939e-05,-0.0293561406433582,0.0021594048012048,-0.0125390356406569,0.0032651694491505,-0.9950148463249208,0.0988822281360626,0.0021729005690593,-0.035032056301017,0.0165439017191776,0.3126523494720459,0.3809938430786133,0.0312118530273437,24,336,12827,19541
19.5,1788517357667,4.985915660858154,5.211267471313477,-0.0122798830270767,0.0028734295628964,-0.9930312037467957,0.1171742007136344,0.1778587794600946,-0.0041128149431981,-6.766418533577492e-06,0.0086415912955999,0.0026288996450603,0.0019021668704226,-0.0117843309417366,0.0032371394336223,-0.9950466752052308,0.0986552685499191,-0.0041672752650955,0.0382354055818919,-0.0191293401382564,-0.0978550314903259,0.101198673248291,0.7301092147827148,24,358,12370,20271
19.6,1788517357767,4.760563373565674,5.380281925201416,-0.0115984203293919,0.0030858684331178,-0.99307119846344,0.116899773478508,0.1776075179371537,-0.0022085705761208,-0.0001510253447372,-0.0053240489214658,0.0278512984514236,-0.0108031090348958,-0.0123322661966085,0.0032269209623336,-0.9950536489486694,0.0985169485211372,-0.0006006068177064,-0.0313285506815391,0.0065689721039739,0.0923398733139038,0.0261229872703552,-0.443735122680664,25,357,12967,19698
19.7,1788517357867,4.816901206970215,5.211267471313477,-0.012019389308989,0.0030382329132407,-0.9930573105812072,0.1169768646359443,0.1784697082114563,0.0009128905450754,-6.5116795932659e-07,0.000164573881193,0.0098792146891355,0.0084340944886207,-0.0110670523717999,0.0031593851745128,-0.995026469230652,0.0989443957805633,0.0006570551608816,0.0404367775325086,0.0040216453487912,0.0292720794677734,-0.1404896378517151,0.2928142547607422,25,333,13013,20085
19.8,1788517357967,4.901408672332764,5.408450603485107,-0.0107552893459796,0.0029222122393548,-0.9930434226989746,0.117220290005207,0.1793727572812052,0.0013181225407979,-8.665398496285815e-05,0.0029097741935402,0.0143251866102218,5.257197335595265e-05,-0.0102872969582676,0.0027055153623223,-0.9950154423713684,0.099152036011219,0.0108448043289846,0.0068238100136149,0.0031214495611477,0.1572470664978027,0.0297933220863342,0.4174976348876953,31,318,12816,19134
19.9,1788517358067,5.098591327667236,5.126760482788086,-0.0100539531558752,0.0019430391257628,-0.9930208921432496,0.1174934059381485,0.1774075702004397,-0.0036384049961436,3.2979849736698405e-06,0.0137814907357096,-0.0019397150026634,-0.005645572207868,-0.0100158583372831,0.0020270496606826,-0.9950159192085266,0.0991915017366409,0.0111290842260578,-0.013941332569129,-0.0057736758301732,-0.0295771956443786,0.0801419019699096,-0.5810642242431641,36,267,13405,18809
20.0,1788517358167,4.704225540161133,5.521126747131348,-0.0106161599978804,0.0016869661631062,-0.9931830167770386,0.1160690784454345,0.1804417817504398,-0.005491956017104,1.985567373531486e-06,0.0070151328109204,-0.0235135145485401,-0.057864673435688,-0.0118314502760767,0.0020417021587491,-0.99528306722641,0.0962680056691169,-0.0139006639268594,-0.0548642075525634,-0.0558512642706591,0.1249505877494812,-0.2533147931098938,-0.0642757415771484,7,380,10855,21232
20.1,1788517358267,4.929577350616455,5.098591327667236,-0.012285460717976,0.0021611666306853,-0.9933281540870668,0.1146459951996803,0.1723623179231631,0.00159901682465,-1.362037669560729e-06,-0.0189002435654401,-0.0177145525813102,0.0038887185510247,-0.0122775519266724,0.0028734691441059,-0.9951929450035096,0.0971187800168991,-0.0181938287323825,0.0696147063867702,-0.0248640203190474,0.2142107486724853,-0.2942357063293457,-0.32244873046875,35,393,12640,20797
20.2,1788517358367,4.760563373565674,5.521126747131348,-0.008627749979496,0.002632487565279,-0.9932410717010498,0.1157184466719627,0.180428508123595,0.0101364303564845,-0.0002924489220276,0.0526569485664367,0.0803354457020759,0.0421098284423351,-0.008577830158174,0.0027908589690923,-0.9952029585838318,0.0974154323339462,0.0899333569754674,0.0564161638026189,0.073261215853344,-0.430835485458374,-0.1919630169868469,-0.6373720169067383,24,264,13075,18949
20.3,1788517358467,4.901408672332764,4.957746505737305,-0.0089070731773972,0.0016241308767348,-0.9931043386459352,0.1168835237622261,0.1714687694783711,-0.0069629101257271,-7.423953916528758e-05,0.0104601169005036,0.0608850121498107,-0.0017915058415383,-0.0091725653037428,0.0023977402597665,-0.9951854944229126,0.0975496098399162,-0.0590655001836004,-0.0088024244548148,-0.0943044539166647,-0.0128824114799499,0.2444196939468383,-0.4592418670654297,26,458,13081,21211
20.4,1788517358567,4.901408672332764,5.183098793029785,-0.0106549067422747,0.002349373884499,-0.9932149648666382,0.1157796084880828,0.1828204948219904,-0.0005729726294471,0.0001068394402663,-0.0370183512568473,-0.0653132945299148,-0.0438110344111919,-0.0109560564160346,0.002493823878467,-0.9951443672180176,0.0977829322218895,0.0016356330070325,0.0173321736228224,-0.0061835744083541,0.0819021463394165,-0.1416699290275573,-0.0608654022216796,25,358,12614,20272
20.5,1788517358667,4.873239517211914,5.211267471313477,-0.0131322816014289,0.0021716756746172,-0.9931294322013856,0.1162615641951561,0.1753987985250018,0.0021894357965086,0.0002572974197963,-0.0052046426571905,-0.0363510511815547,0.0002124935708707,-0.0134434001520276,0.0023422036319971,-0.9950780272483826,0.098151184618473,-0.0036392940753023,-0.056908547846582,0.0146908851605869,-0.0295467972755432,-0.3927587866783142,0.3071804046630859,52,316,13878,19004
20.6,1788517358767,5.098591327667236,5.239436626434326,-0.0143428901210427,0.002194870263338,-0.9932502508163452,0.1150804534554481,0.1803845901601194,-0.0074380827185422,0.0001611746269369,-0.0071784160099923,-0.0479324236512184,-0.0476887635886669,-0.0158215798437595,0.0023961868137121,-0.9953400492668152,0.0950897783041,-0.0031471671666428,-0.0614055296927023,-0.0502790465194133,-0.202294647693634,-0.3975428938865661,0.4265022277832031,21,331,12997,18724
20.7,1788517358867,5.098591327667236,5.183098793029785,-0.015224871225655,0.0020887553691864,-0.9936559796333312,0.1114072650671005,0.1735964519846949,-0.0013123736409774,-0.0001114172411411,0.0019830269739031,0.0293913371860981,-0.0765340104699134,-0.0151245882734656,0.0023522581905126,-0.9955525994300842,0.0929556190967559,0.006151647982337,0.0124692627159454,-0.0603003518104556,0.0954005122184753,0.5915684103965759,-0.1073598861694336,34,341,13427,19358
20.8,1788517358967,4.901408672332764,5.126760482788086,-0.0147723127156496,0.0022813449613749,-0.9938064813613892,0.1101147234439849,0.1769811502634439,-0.0058886180323523,-3.5101639193797014e-05,-0.0063434103503823,0.0188399963080883,-0.0513293109834194,-0.0142656657844781,0.0025978330522775,-0.9957850575447084,0.0905642062425613,-0.0013265631178002,0.0145055716915541,-0.0388664145019656,-0.1210132837295532,-0.1942808628082275,-0.124730110168457,16,371,12519,20622
20.9,1788517359067,4.732394218444824,5.070422649383545,-0.014347362332046,0.0021747620776295,-0.9939584732055664,0.1087928786873817,0.1793459779306198,0.0010226161825687,-1.1318347265913221e-08,0.0064669172279536,0.0007496763137169,-0.0120402015745639,-0.0146367894485592,0.0024155201390385,-0.995777428150177,0.0905945375561714,-0.0018447138513161,0.0241434908267535,0.0036275595593953,0.2282145619392395,-0.1979690194129943,0.8489484786987305,35,403,13322,21014
21.0,1788517359167,4.873239517211914,5.295774459838867,-0.0145309567451477,0.0021389964967966,-0.9939465522766112,0.1088787317276001,0.1804184705322372,-0.0045308518231346,-9.5458435002053e-05,-0.0002013818157138,0.0159477684646844,0.0021648521069437,-0.0140379378572106,0.0025657238438725,-0.9958325624465942,0.0900766849517822,0.0015288761603646,-0.0101067089438737,-0.0065995932605257,-0.1785038113594055,-0.012591540813446,-0.0356130599975585,26,325,12727,19933
21.1,1788517359267,4.309859275817871,6.056337833404541,-0.0140750128775835,0.0018755684141069,-0.9937264323234558,0.1109332889318466,0.176517237412634,0.0038787438061871,-2.6529999858045804e-05,0.0181231722235679,-0.0033856756053864,0.1010461002588272,-0.0142127517610788,0.0020157163962721,-0.9954763054847716,0.0939198583364486,0.0135725644086304,-0.0281126255967224,0.1633010338934778,0.0266512632369995,0.1041946411132812,-0.5719032287597656,6,382,9468,22496
21.2,1788517359367,3.94366192817688,6.084506988525391,-0.0144485337659716,0.0017818958731368,-0.9927915930747986,0.1189660131931305,0.1729193031833348,0.0110679044949713,3.2168514359386485e-05,-0.0039696763269603,-0.0093517042696475,0.1659467965364456,-0.0145244700834155,0.0019834572449326,-0.9946558475494384,0.1022000759840011,0.0046991468798894,-0.0095287647427202,0.1955712261714262,0.0715954303741455,-0.2901635766029358,-0.2175378799438476,15,407,10871,22594
21.3,1788517359467,4.2816901206970215,5.915493011474609,-0.0145211303606629,0.0017536404775455,-0.9922678470611572,0.1232502460479736,0.1726052065245589,0.011532722911426,2.917328049664022e-05,0.0035048113204538,-0.0039518740959465,0.1881455928087234,-0.0154047030955553,0.0016807271167635,-0.9937185049057008,0.1108310371637344,0.00254095669945,-0.047080013946938,0.1732494024973049,-0.1425590515136718,-0.1151210069656372,-0.3572635650634765,6,370,9974,22614
21.4,1788517359567,4.14084529876709,5.943662166595459,-0.0156559683382511,0.0014687029179185,-0.9902291297912598,0.1385605782270431,0.1749246844580942,0.0067318222166314,2.8053733111678616e-05,0.0026002097874879,-0.0037944815121591,0.1924189329147339,-0.0156262647360563,0.0017567900940775,-0.9926130175590516,0.1203000470995903,-0.0017070713311313,0.0021340025593371,0.1872540474522852,0.1881864666938781,0.0228371620178222,0.0184917449951171,6,355,10521,22382
21.5,1788517359667,4.535211086273193,5.7183098793029785,-0.0141490725800395,0.0017709699459373,-0.9891431927680968,0.146261066198349,0.179713782000107,0.0056169433502881,-9.992116201124636e-05,-0.0079950969666242,0.0419202260673046,0.1417770236730575,-0.014230822212994,0.0020067514851689,-0.991696834564209,0.12779201567173,-0.0066097172085343,0.0436234070805247,0.1174432873642935,-0.10341477394104,0.1160924434661865,0.0597763061523437,31,324,11886,20155
21.6,1788517359767,4.309859275817871,5.577464580535889,-0.014535617083311,0.0016177464276552,-0.9887338876724244,0.1489680260419845,0.1794731492456298,0.0026504908871558,-2.4372974139694884e-05,0.0052536129951477,-0.0164559055119752,0.1083444654941558,-0.015738783404231,0.0016873711720108,-0.9908992052078248,0.1336719393730163,0.0037687756905182,-0.0423380918237871,0.1116098340469403,-0.0345174074172973,0.3450620174407959,-0.2989873886108398,8,441,9951,23434
21.7,1788517359867,4.450704097747803,5.97183084487915,-0.0158063806593418,0.0013281439896672,-0.9877679347991944,0.1551222801208496,0.1653726168939021,0.010827404329361,9.045890300290409e-06,0.0046423096209764,-0.0068202805705368,0.1397498697042465,-0.0156546104699373,0.001692428253591,-0.9895529747009276,0.1433077156543731,0.0054105665269153,-0.0076415879501925,0.1799929551560768,0.1451401710510254,0.0204508900642395,-0.1775016784667968,7,374,9098,22507
21.8,1788517359967,4.169013977050781,6.084506988525391,-0.015435523353517,0.0011871561873704,-0.986135959625244,0.165215864777565,0.1751985027258652,0.0084412114783185,-2.50661611249175e-05,0.014455584809184,0.009180225431919,0.2133256196975708,-0.0149312056601047,0.0011105434969067,-0.9885832667350768,0.1499297767877578,0.0330320960529359,0.0244288975421453,0.2099202511097305,0.3265864253044128,-0.0864201784133911,-0.5404453277587891,15,319,10623,21603
21.9,1788517360067,4.535211086273193,5.549295902252197,-0.0134333614259958,0.0021334423217922,-0.9843894243240356,0.1754779070615768,0.1788424795115512,0.0047434843895614,5.647861431954633e-06,-0.008156313560903,-0.0015590748516842,0.0821610391139984,-0.0134845729917287,0.0024660434573888,-0.987302839756012,0.1582569181919098,-0.0057618764261286,-0.0054891171254428,0.0643124097030257,-0.0077100992202758,0.2370583415031433,-0.3924293518066406,28,319,11825,20689
22.0,1788517360167,4.676056385040283,5.464788913726807,-0.0135246198624372,0.0023147144820541,-0.9839203357696532,0.1780803352594375,0.1766835361414888,-0.0016682884750039,6.341372218979656e-06,-0.0063743600621819,-0.0027752520982176,0.1051037535071373,-0.0143605293706059,0.00236152485013,-0.9865263104438782,0.1629546284675598,0.0041235204850526,-0.0301220482529806,0.0991746283512891,0.1208778023719787,-0.3249833583831787,-0.3811178207397461,15,377,11223,21220
22.1,1788517360267,4.957746505737305,5.211267471313477,-0.0147432340309023,0.0018760091625154,-0.9830894470214844,0.1825221329927444,0.174743997035914,0.0010994958791861,9.756276263953912e-05,0.0091698477044701,-0.0295637212693691,0.0956423208117485,-0.0148623436689376,0.0018425062298774,-0.9858115911483764,0.1671860218048095,0.0137300149228073,-0.0169896629731947,0.0915511034324071,-0.0523107051849365,0.1881353259086609,-0.2554664611816406,87,244,14689,17772
22.2,1788517360367,5.295774459838867,4.676056385040283,-0.0117955962195992,0.0018111618701368,-0.9831774830818176,0.1822626739740371,0.1692444315158707,-0.0055921844215009,-0.0002178456328819,0.0074737407267093,0.0756363868713378,-0.1056516915559768,-0.0118914479389786,0.0020590266212821,-0.9863182306289672,0.1644105911254882,0.0076299781554357,0.0844932823950536,-0.1113365822231409,-0.1826139688491821,-0.5754470825195312,0.4682178497314453,27,310,13796,18588
22.3,1788517360467,5.549295902252197,4.478873252868652,-0.0111446566879749,0.0020136882085353,-0.9842584133148192,0.1763721257448196,0.1734261567266099,-0.0092953284908105,-2.454890051069732e-05,-0.010296625085175,0.0049588978290557,-0.1605039238929748,-0.0112841119989752,0.0022375574335455,-0.9877734780311584,0.1554713398218155,-0.0067829150324532,-0.0138969913225488,-0.231402913911615,-0.0916744470596313,-0.4750657081604004,-0.0126333236694335,69,274,15337,17109
22.4,1788517360567,5.492957592010498,4.619718074798584,-0.0117600141093134,0.001971423625946,-0.9851976037025452,0.1710075885057449,0.1783852778495719,-0.008904611992818,4.049325875224382e-05,-0.0050401436164975,-0.0238972939550876,-0.2199510782957077,-0.0137222800403833,0.0019916724413633,-0.9891635179519652,0.1461622267961502,-0.000638660852452,-0.0759435514574943,-0.1914120612137282,-0.1987306475639343,-0.2421342134475708,0.6035346984863281,49,274,15062,17204
22.5,1788517360667,5.6619720458984375,4.732394218444824,-0.0142563832923769,0.0016544887330383,-0.9868690967559814,0.1608831882476806,0.1657452169222198,-0.0070568559417756,8.030602422685473e-05,-0.0024675366003066,-0.0338042490184307,-0.1962411552667617,-0.0139817940071225,0.001965332776308,-0.9904481768608092,0.1371607929468155,0.0046263839137182,0.0164369065706362,-0.188476388515185,0.1985926628112793,0.3094888925552368,-0.3980684280395508,41,286,14950,17277
22.6,1788517360767,5.211267471313477,5.098591327667236,-0.0136449355632066,0.0018788324669003,-0.9885669350624084,0.1501525789499282,0.1761660111807516,-0.0080417793795609,-2.289713314148768e-05,-0.0037970880512148,0.0142618827521801,-0.1964913606643676,-0.0135410856455564,0.0022611878812313,-0.9915023446083068,0.1293624490499496,-0.0100556703240485,-0.0002670215245151,-0.1358114077655849,-0.100226879119873,0.038627803325653,-0.3055791854858398,31,305,13723,18290
22.7,1788517360867,5.183098793029785,4.929577350616455,-0.0136357108131051,0.0020523082930594,-0.9892168641090392,0.1458071917295456,0.1753369541108471,-0.0079279424259119,-5.826231405106239e-06,-0.0066056875512003,0.021229438483715,-0.0675155520439148,-0.0128416623920202,0.002562241628766,-0.9921533465385436,0.1243392005562782,-0.0145988765689998,-0.0098376461629953,-0.1282457052520345,0.2819545269012451,0.2767974138259887,-0.314091682434082,36,293,14293,18460
22.8,1788517360967,5.183098793029785,4.816901206970215,-0.0128503870218992,0.0024568233639001,-0.9899020195007324,0.1411483436822891,0.1833526159490035,-0.0064732335539894,9.436279758996025e-06,-0.0100560002028942,9.045617480296642e-05,-0.0994796827435493,-0.0121692661195993,0.0026406310498714,-0.9927451610565186,0.1195916086435318,0.0112943728542869,0.0112134393618575,-0.0809836313391849,-0.3594226241111755,-0.1629641652107238,0.613072395324707,24,323,14059,18760
22.9,1788517361067,5.126760482788086,4.873239517211914,-0.0124060660600662,0.0023102278355509,-0.9909269213676452,0.1338078379631042,0.1748217570856373,-0.007010656766227,4.3114081594362845e-05,-0.0015252244193106,0.0107012428343296,-0.0848818719387054,-0.0124356467276811,0.0024856841191649,-0.9931986927986144,0.1157392263412475,-0.0006014142706407,0.0387631216898752,-0.1025052358796814,0.0213127136230468,0.1843622922897339,0.5193567276000977,42,342,14439,18663
23.0,1788517361167,5.183098793029785,4.957746505737305,-0.0124038951471447,0.0027049102354794,-0.9915559887886048,0.1290564835071563,0.1666861855851165,-0.005664286314287,1.471675875688841e-06,-0.0026267915964126,-0.0016613501356914,-0.0766944140195846,-0.0123323174193501,0.0029351869598031,-0.9937360882759094,0.1110315695405006,0.0034786761834454,-0.0012408852117205,-0.0652127631840284,-0.1010317802429199,-0.1703899502754211,-0.0646553039550781,38,319,13864,18560
23.1,1788517361267,5.239436626434326,4.873239517211914,-0.0121368058025836,0.0028364271856844,-0.9920167922973632,0.1254885643720626,0.1773331853349895,-0.0061948698355567,-1.8428237697606115e-05,-0.0044550946913659,0.0052346712909638,-0.1078153401613235,-0.012116733007133,0.0030225859954953,-0.9941360950469972,0.1074128597974777,-0.002734179656813,-0.0035866154093858,-0.1005761115269063,0.0627884268760681,0.2968782782554626,-0.0369453430175781,46,292,13887,18533
23.2,1788517361367,4.901408672332764,5.042253494262695,-0.0117848683148622,0.0032494100742042,-0.9923896193504332,0.1225291639566421,0.1770123841199589,-0.0087713138118192,-5.106622767159002e-05,-0.0161395166069269,0.0166832841932773,-0.1199857220053672,-0.0122875412926077,0.0035510165616869,-0.9946882128715516,0.102136418223381,-0.0050943288520661,-0.0341889547247252,-0.0765816917438322,-0.3025219440460205,0.0101597905158996,-0.0881195068359375,28,341,13419,19708
23.3,1788517361467,5.239436626434326,5.098591327667236,-0.0128232343122363,0.0033055269159376,-0.9927518963813782,0.1194503903388977,0.1777749809711287,-0.0026475222043158,-5.62361466800549e-09,0.0021814010106027,0.0056998152285814,-0.0113411806523799,-0.01253870036453,0.0035647377371788,-0.9947566986083984,0.1014359667897224,0.0036256538473936,0.0200409083648827,-0.0057352126639872,0.1292210221290588,-0.0320532321929931,0.2711648941040039,26,308,12937,19048
23.4,1788517361567,5.070422649383545,5.070422649383545,-0.0131759699434041,0.0033795090857893,-0.992952287197113,0.1177319660782814,0.1786798388442764,-0.0063188175654336,2.827759641918983e-05,-0.0054659764282405,-0.013294075615704,-0.0690513625741005,-0.0129761816933751,0.0036820620298385,-0.9951112866401672,0.0978350937366485,-0.00245015984459,0.0377349866588544,-0.0623025620349947,0.1947346329689026,0.2522646784782409,0.4463796615600586,28,337,13273,19322
23.5,1788517361667,5.014084339141846,5.239436626434326,-0.0106287486851215,0.0030696846079081,-0.993310570716858,0.1149421483278274,0.1795503736155715,0.003589020108377,-0.0002812709351513,0.0273028668016195,0.0882783457636833,-0.0337910652160644,-0.010425204411149,0.0030842022970318,-0.9952561855316162,0.0966797024011612,0.0602662100733759,0.0890993830588504,-0.0054642312198301,-0.1430344581604004,-0.4445249438285827,-0.4797372817993164,35,270,13617,18635
23.6,1788517361767,5.126760482788086,4.478873252868652,-0.0107166767120361,0.002022267319262,-0.9933488368988036,0.1146261692047119,0.1827688006263382,-0.0101782791572573,2.148613619647253e-05,0.041186187416315,-0.0082750264555215,-0.0132199050858616,-0.009941971860826,0.0028065154328942,-0.9956207275390624,0.092912808060646,-0.0406090219202493,0.0326538705691756,-0.1526671103709546,0.3485094904899597,0.3435031771659851,0.0225296020507812,30,476,13056,21461
23.7,1788517361867,4.929577350616455,4.901408672332764,-0.0135922897607088,0.0026487754657864,-0.9938130974769592,0.1101985052227974,0.182349864502933,-0.003520013700543,0.0002976325127456,-0.0247365310788154,-0.1561111360788345,-0.0646774619817733,-0.0194146130234003,0.0028289621695876,-0.9956471920013428,0.0911144688725471,-0.0061063127853947,-0.1420611427718048,-0.0183670642845132,0.2057064771652221,0.0344550013542175,-0.5956611633300781,65,362,13863,20362
23.8,1788517361967,5.042253494262695,5.352112770080566,-0.0210479460656642,0.0027139836456626,-0.993993043899536,0.1073662117123603,0.1741136547588982,3.03662561247912e-05,0.0001331215412441,-0.0059184771962463,-0.0254537742584943,-0.031100770458579,-0.0212866123765707,0.0031302701681852,-0.995807647705078,0.0889052972197532,-0.0056844203382618,-0.0317827808795891,-0.0213756169541106,-0.0604892373085022,-0.0024989247322082,0.2161283493041992,21,360,12679,20518
23.9,1788517362067,4.704225540161133,5.154929637908936,-0.021779790520668,0.0023339411709457,-0.9940131902694702,0.1070416048169136,0.1725359931487618,-0.0032879688470949,8.727840113624572e-05,0.0115607408806681,0.0241978373378515,-0.0143237132579088,-0.0200493726879358,0.002924826927483,-0.9959093928337096,0.0880573987960815,-0.0109844083526327,0.1393088238213727,-0.0505898074302833,0.4875316619873047,-0.0998755693435669,-1.0967321395874023,39,393,13794,20499
24.0,1788517362167,5.070422649383545,5.239436626434326,-0.0199342258274555,0.0026281611062586,-0.9941921830177308,0.1057242155075073,0.1837770148679182,-0.0044652182002674,-0.0003552412725617,-0.0049705491401255,0.0755777433514595,-0.0531812347471714,-0.0189827848225832,0.0032478887587785,-0.996036410331726,0.0868365913629531,-0.0112553645312706,0.0454317780101301,-0.0115089391242374,-0.0332956314086914,-0.2343194484710693,0.7713499069213867,39,302,13294,18729
24.1,1788517362267,5.070422649383545,5.098591327667236,-0.0188596583902835,0.002785351127386,-0.9942998290061952,0.1049023643136024,0.1703244737034494,-0.0051515832974408,-9.728923581696492e-05,0.0043407292105257,0.026170901954174,-0.0242345780134201,-0.0190356150269508,0.0028850343078374,-0.9961546063423156,0.0854708477854728,0.0039387348020469,-0.0211255121674083,-0.0325451273956888,0.046388030052185,-0.0002132058143615,-0.560429573059082,30,315,13287,18975
24.2,1788517362367,5.014084339141846,4.985915660858154,-0.018256414681673,0.0029366239905357,-0.994715452194214,0.1009908393025398,0.1666571352005988,-0.0035086719200523,1.023000693197868e-05,-0.0147127071395516,0.0079108905047178,-0.0659214183688163,-0.0184625480324029,0.0032507870346307,-0.9963879585266112,0.0828237161040306,-0.0217008353592291,-0.0144482904438407,-0.0718345296811795,-0.0952423214912414,0.3623217344284057,-0.3480672836303711,39,353,13462,19617
24.3,1788517362467,4.8450703620910645,5.183098793029785,-0.0175849702209234,0.0027696769684553,-0.9948443174362184,0.0998389050364494,0.1777783021147214,-0.0041073182530991,3.199073494973035e-05,0.0047604800201952,-0.0061646001413464,-0.023753672838211,-0.0173441711813211,0.0030520036816596,-0.9965816736221312,0.0807141289114952,0.0001752550461698,0.0059355042755385,-0.0234603318533866,0.0982255339622497,0.4367269873619079,-0.1021289825439453,30,369,12899,20487
24.4,1788517362567,4.901408672332764,5.295774459838867,-0.0174406934529542,0.0027408660389482,-0.994908094406128,0.0992282480001449,0.1740766431987744,-0.0009704643798175,-3.0377270277738308e-05,0.0012793574715033,0.0056468113325536,-0.0241654943674802,-0.016752403229475,0.0031379712745547,-0.996616542339325,0.0804058834910392,-0.0002561617822605,0.0209717265587502,-0.0070687257194381,-0.0416763424873352,-0.2485505938529968,0.2942533493041992,18,332,12591,20091
24.5,1788517362667,4.873239517211914,5.239436626434326,-0.0167494378983974,0.0027299178764224,-0.9949558973312378,0.0988669022917747,0.1786892383138438,-0.0026364693499885,-9.471266916765816e-05,0.0032622760627418,0.0108148027211427,-0.0001280106807826,-0.0163468159735202,0.0029860790818929,-0.9965962171554564,0.0807460695505142,0.0003223050950769,-2.2690249624335872e-05,0.0095285573088618,-0.1111298203468322,0.2045504450798034,-0.1772603988647461,28,362,12769,20302
24.6,1788517362767,4.8450703620910645,5.239436626434326,-0.0160897243767976,0.0027037430554628,-0.9949318170547484,0.0992194637656211,0.1786530659298603,-0.000241657032113,-0.0001417728353114,0.0039037843234837,0.0262284781783819,0.0142524605616927,-0.0166043248027563,0.0031472090631723,-0.9965838193893432,0.0808399468660354,-0.0021459276652697,-0.0508145201666251,0.0077813156101633,0.0667263269424438,0.4267874956130981,-0.4562368392944336,31,343,12973,20139
24.7,1788517362867,4.816901206970215,5.323943614959717,-0.0170743558555841,0.0030192374251782,-0.9949442744255066,0.0989202708005905,0.1771144545566039,-0.0069577585847785,2.33965073935218e-05,-0.0060004256665706,-0.0129106054082512,-0.0080407802015542,-0.0167913045734167,0.0034528151154518,-0.996616005897522,0.0803914964199066,-0.0053180657722773,0.0145016269886981,-0.0155686674641509,0.0699355602264404,0.0499192476272583,0.0899629592895507,18,348,13167,19993
24.8,1788517362967,4.873239517211914,5.239436626434326,-0.0170743558555841,0.0030192374251782,-0.9949442744255066,0.0989202708005905,0.1836748889834835,-0.000482123155298,-1.0970858676923369e-07,0.0,0.0,0.0,-0.0159026179462671,0.0036309398710727,-0.9966319799423218,0.08036520332098,-0.0073238700148555,0.0241008711299003,-0.0047269197722789,-0.101702332496643,-0.0378363728523254,0.131174087524414,21,374,12810,20180
24.9,1788517363067,4.873239517211914,5.408450603485107,-0.0165664479136466,0.003131539793685,-0.994966208934784,0.0987830534577369,0.1778989182953478,-0.0017164648415249,1.1187108377212109e-06,0.0,0.0,0.0,-0.0154039273038506,0.0038939770311117,-0.9965998530387878,0.0808483958244323,-0.0026577561631204,0.0189455408389641,0.0113800918741156,-0.0948575735092163,-0.3221416473388672,0.0396108627319335,39,313,13110,19414
25.0,1788517363167,4.591549396514893,5.408450603485107,-0.0173068083822727,0.003182022832334,-0.994747757911682,0.1008328795433044,0.1668770753006069,0.0033019890635849,0.0001802022991138,0.0040256325155496,-0.0511984266340732,0.0519288443028926,-0.0173813011497259,0.0034854765981435,-0.9963961839675904,0.0829489305615425,-0.0026775985976318,-0.0257242573012138,0.0570429522073097,0.1448926925659179,-0.0186254382133483,0.5223960876464844,15,405,11524,22197
25.1,1788517363267,4.732394218444824,5.295774459838867,-0.0174851771444082,0.0025668554008007,-0.994594931602478,0.1023162379860878,0.1778877549260258,0.0064710522024641,8.336277235606525e-06,0.0317900665104389,-0.0126734003424644,0.0759793892502784,-0.0193952918052673,0.0020867548882961,-0.9960135817527772,0.0870424583554267,0.0145300204603258,-0.0221011893621539,0.0991862138846317,0.149895966053009,0.0158114433288574,-0.205087661743164,53,327,13522,20318
25.2,1788517363367,5.239436626434326,4.816901206970215,-0.0169519297778606,0.0022823533508926,-0.9943591356277466,0.1046775206923484,0.1726356401694978,-0.0097763361655877,-0.0001900520954162,-0.0298847369849681,0.0536365285515785,-0.0674059092998504,-0.0174870118498802,0.0028614858165383,-0.9961482882499696,0.0858754515647888,-0.0559447531096882,-0.0342282028103077,-0.095164274980665,-0.4187918901443481,0.018243134021759,-0.1911258697509765,8,480,11969,22018
25.3,1788517363467,4.873239517211914,5.014084339141846,-0.0190830715000629,0.0028055827133357,-0.9943695664405824,0.104197509586811,0.1788177252282019,-0.0048742536870041,9.067624693454158e-07,-0.0060347570106387,0.0278950352221727,-0.0086560240015387,-0.0185359138995409,0.0030671255663037,-0.996128797531128,0.0858746394515037,0.0108395855397274,0.046546407634329,-0.008298017327022,-0.1503440141677856,0.143709659576416,-0.4634037017822265,37,390,13157,21233
25.4,1788517363567,4.873239517211914,5.211267471313477,-0.018446672707796,0.0027721803635358,-0.9943804144859314,0.1042095869779586,0.1807698473456667,-0.0026598141124504,8.985694131303266e-07,0.0039714556187391,0.0250542573630809,0.0004786007048096,-0.0185049697756767,0.0032734125852584,-0.996135115623474,0.0858005806803703,-0.011480817253883,-0.033396209384313,-0.0064371351348269,-0.0930492281913757,0.2220160961151123,-0.2059965133666992,35,348,12915,20453
25.5,1788517363667,4.957746505737305,4.901408672332764,-0.0153038837015628,0.0033277745824307,-0.994477927684784,0.103770837187767,0.1751346276929711,-0.0074939279756601,-0.0003098214334372,-0.0094295162707567,0.1290574520826339,-0.0173161830753088,-0.0141080562025308,0.0036173583939671,-0.996266782283783,0.0850914269685745,-0.0016316465228266,0.1577650809815953,-0.0528985672796899,0.0272850394248962,-0.3518463373184204,0.229034423828125,72,388,14234,20511
25.6,1788517363767,4.901408672332764,5.267605781555176,-0.0131230615079402,0.0031934771686792,-0.994620144367218,0.1027049496769905,0.1860167117105221,-0.0079451474494277,-0.0003569469948828,0.0137545308098196,0.0863826349377632,-0.0427623055875301,-0.0126290554180741,0.0034181904047727,-0.9963367581367492,0.0845096856355667,0.0023987020642336,0.0337954147266004,0.0191257636872411,0.0804502964019775,-0.0911786556243896,0.337228775024414,12,309,12432,19885
25.7,1788517363867,4.929577350616455,5.267605781555176,-0.012652019970119,0.0031911961268633,-0.994601309299469,0.10294671356678,0.1703776605194266,-0.0027581467550342,-6.476643844108863e-05,0.002067141002044,0.0179666224867105,0.0093772653490304,-0.0121962875127792,0.0033627497032284,-0.9963204860687256,0.0847679525613784,-0.0010285952911126,0.0199371446832268,0.0045262764832634,0.108457326889038,-0.0751569867134094,-0.0436077117919921,46,337,12769,20032
25.8,1788517363967,4.929577350616455,5.126760482788086,-0.0121013596653938,0.0029956041835248,-0.9945988655090332,0.1030420213937759,0.1738119677536911,-0.0009263501804242,-0.000109519553824,0.0100819738581776,0.0210574753582477,0.0037676882930099,-0.0115700485184788,0.0031800717115402,-0.9963220953941344,0.0848435387015342,-0.0071690870244626,0.0101145749922611,-0.0060099054056711,-0.0071967840194702,-0.1678130626678466,-0.0304813385009765,23,381,12777,20699
25.9,1788517364067,5.014084339141846,5.126760482788086,-0.0121013596653938,0.0029956041835248,-0.9945988655090332,0.1030420213937759,0.1772545251505901,-0.004175717914986,-2.15810211502136e-07,0.0,0.0,0.0,-0.0115392683073878,0.0034046126529574,-0.9963509440422058,0.0844997316598892,-0.0065780514919304,0.0210084482869937,-0.0157553213237693,0.1013972759246826,0.2650020122528076,0.5005521774291992,37,368,12653,20625
26.0,1788517364167,4.873239517211914,5.211267471313477,-0.01062164735049,0.0031352918595075,-0.99465012550354,0.102705217897892,0.1799504219316309,-0.0017997580920418,-0.0002002503966287,0.0003896866110153,0.0602823086082935,-0.0135395769029855,-0.0099389739334583,0.0031791701912879,-0.996369242668152,0.0844955742359161,0.0085372600275486,0.0195201488991452,0.0116322128445118,-0.0508726835250854,-0.1218904256820678,-0.1202306747436523,29,329,12862,20150
26.1,1788517364267,4.507042407989502,5.323943614959717,-0.0110197057947516,0.0028393007814884,-0.9946320652961732,0.1028478071093559,0.1809431591007117,-0.0003942097723177,5.732971086985076e-05,0.0061154942959547,-0.035620205104351,0.006441110279411,-0.011522059328854,0.0028997315093874,-0.9963513016700744,0.0845159515738487,-0.0011054356291562,-0.0093081760894792,3.482909195250662e-05,0.2374834418296814,-0.128572404384613,-0.0220947265625,16,419,11831,22273
26.2,1788517364367,4.591549396514893,5.633802890777588,-0.011251232586801,0.0023429738357663,-0.9942694306373596,0.1062836199998855,0.1712855642441063,0.011005251913334,2.3492774340230372e-05,0.0090405531227588,-0.0055576721206307,0.0718230977654457,-0.0112153580412268,0.0024391869083046,-0.9959977269172668,0.0886382982134819,0.0156187980677103,0.0038136206219822,0.0869773055215852,0.0411644577980041,-0.2779074311256408,0.1271228790283203,15,371,11326,21507
26.3,1788517364467,4.366197109222412,5.577464580535889,-0.0110371615737676,0.0023390091955661,-0.993820309638977,0.1104267686605453,0.1755068260771154,0.0077353645139504,-5.4416124657582e-05,-0.0017425923142582,0.0211865827441215,0.0954406484961509,-0.0107595343142747,0.0024874722585082,-0.9956205487251282,0.0928316265344619,0.012240091472615,0.0255559307721456,0.0957257570702765,-0.1301788687705993,0.1423581838607788,-0.0535097122192382,31,378,12202,21778
26.4,1788517364567,4.901408672332764,5.323943614959717,-0.0104806656017899,0.00244796811603,-0.9935508370399476,0.1128750666975975,0.1764334299449733,0.0088800079974989,-7.698940592444943e-05,-0.0008174139657057,0.022248713299632,0.0985872223973274,-0.0099940616637468,0.0029027285054326,-0.9953927397727966,0.095315434038639,-0.0122145323733747,0.0161391172553387,0.009302890427982,0.027605652809143,-0.1647580862045288,-0.0580673217773437,49,337,13060,20000
