time_s,timestamp_ms,wheel_vels__velocity_left,wheel_vels__velocity_right,odom__orient_x,odom__orient_y,odom__orient_z,odom__orient_w,odom__lin_x,odom__lin_y,odom__lin_z,odom__ang_x,odom__ang_y,odom__ang_z,imu__orient_x,imu__orient_y,imu__orient_z,imu__orient_w,imu__angvel_x,imu__angvel_y,imu__angvel_z,imu__acc_x,imu__acc_y,imu__acc_z,wheel_status__current_ma_left,wheel_status__current_ma_right,wheel_status__pwm_left,wheel_status__pwm_right
0.0,1788346152089,0.0,0.0,-0.0061106081120669,-0.0017178879352286,0.2982539236545563,0.954465389251709,-8.103190702020042e-05,9.492524917477416e-05,1.1726416942727896e-06,-0.0002944173756986,-0.0003234004834666,-0.000938988814596,-0.0036064805462956,-0.0051757944747805,0.8332740068435669,0.5528243184089661,0.0008698382937637,-0.0016418271205839,0.0009739790474961,0.0214809775352478,-0.0001633763313293,-0.0094232559204101,0,0,0,0
0.1,1788346152189,0.0,0.0,-0.0061106081120669,-0.0017178879352286,0.2982539236545563,0.954465389251709,-8.103190702020042e-05,9.492524917477416e-05,1.1726416942727896e-06,-0.0002944173756986,-0.0003234004834666,-0.000938988814596,-0.0036064805462956,-0.0051757944747805,0.8332740068435669,0.5528243184089661,0.0008698382937637,-0.0016418271205839,0.0009739790474961,0.0214809775352478,-0.0001633763313293,-0.0094232559204101,0,0,0,0
0.2,1788346152289,0.0,0.0,-0.0061106081120669,-0.0017178879352286,0.2982539236545563,0.954465389251709,-8.103190702020042e-05,9.492524917477416e-05,1.1726416942727896e-06,-0.0002944173756986,-0.0003234004834666,-0.000938988814596,-0.0036064805462956,-0.0051757944747805,0.8332740068435669,0.5528243184089661,0.0008698382937637,-0.0016418271205839,0.0009739790474961,0.0214809775352478,-0.0001633763313293,-0.0094232559204101,0,0,0,0
0.3,1788346152389,0.0,0.0,-0.0061106081120669,-0.0017178879352286,0.2982539236545563,0.954465389251709,-8.103190702020042e-05,9.492524917477416e-05,1.1726416942727896e-06,-0.0002944173756986,-0.0003234004834666,-0.000938988814596,-0.0036064805462956,-0.0051757944747805,0.8332740068435669,0.5528243184089661,0.0008698382937637,-0.0016418271205839,0.0009739790474961,0.0214809775352478,-0.0001633763313293,-0.0094232559204101,0,0,0,0
0.4,1788346152489,0.0,0.0,-0.0061106081120669,-0.0017178879352286,0.2982539236545563,0.954465389251709,-8.103190702020042e-05,9.492524917477416e-05,1.1726416942727896e-06,-0.0002944173756986,-0.0003234004834666,-0.000938988814596,-0.0036064805462956,-0.0051757944747805,0.8332740068435669,0.5528243184089661,0.0008698382937637,-0.0016418271205839,0.0009739790474961,0.0214809775352478,-0.0001633763313293,-0.0094232559204101,0,0,0,0
0.5,1788346152589,0.0,0.0,-0.0061106081120669,-0.0017178879352286,0.2982539236545563,0.954465389251709,-8.103190702020042e-05,9.492524917477416e-05,1.1726416942727896e-06,-0.0002944173756986,-0.0003234004834666,-0.000938988814596,-0.0036064805462956,-0.0051757944747805,0.8332740068435669,0.5528243184089661,0.0008698382937637,-0.0016418271205839,0.0009739790474961,0.0214809775352478,-0.0001633763313293,-0.0094232559204101,0,0,0,0
0.6,1788346152689,0.0,0.0,-0.0061106081120669,-0.0017178879352286,0.2982539236545563,0.954465389251709,-8.103190702020042e-05,9.492524917477416e-05,1.1726416942727896e-06,-0.0002944173756986,-0.0003234004834666,-0.000938988814596,-0.0036064805462956,-0.0051757944747805,0.8332740068435669,0.5528243184089661,0.0008698382937637,-0.0016418271205839,0.0009739790474961,0.0214809775352478,-0.0001633763313293,-0.0094232559204101,0,0,0,0
0.7,1788346152789,0.0,0.0,-0.0061106081120669,-0.0017178879352286,0.2982539236545563,0.954465389251709,-8.103190702020042e-05,9.492524917477416e-05,1.1726416942727896e-06,-0.0002944173756986,-0.0003234004834666,-0.000938988814596,-0.0036064805462956,-0.0051757944747805,0.8332740068435669,0.5528243184089661,0.0008698382937637,-0.0016418271205839,0.0009739790474961,0.0214809775352478,-0.0001633763313293,-0.0094232559204101,0,0,0,0
0.8,1788346152889,0.0,0.0,-0.0061106081120669,-0.0017178879352286,0.2982539236545563,0.954465389251709,-8.103190702020042e-05,9.492524917477416e-05,1.1726416942727896e-06,-0.0002944173756986,-0.0003234004834666,-0.000938988814596,-0.0036064805462956,-0.0051757944747805,0.8332740068435669,0.5528243184089661,0.0008698382937637,-0.0016418271205839,0.0009739790474961,0.0214809775352478,-0.0001633763313293,-0.0094232559204101,0,0,0,0
0.9,1788346152989,0.0,0.0,-0.0061106081120669,-0.0017178879352286,0.2982539236545563,0.954465389251709,-8.103190702020042e-05,9.492524917477416e-05,1.1726416942727896e-06,-0.0002944173756986,-0.0003234004834666,-0.000938988814596,-0.0036064805462956,-0.0051757944747805,0.8332740068435669,0.5528243184089661,0.0008698382937637,-0.0016418271205839,0.0009739790474961,0.0214809775352478,-0.0001633763313293,-0.0094232559204101,0,0,0,0
1.0,1788346153089,0.0,0.0,-0.0061106081120669,-0.0017178879352286,0.2982539236545563,0.954465389251709,-8.103190702020042e-05,9.492524917477416e-05,1.1726416942727896e-06,-0.0002944173756986,-0.0003234004834666,-0.000938988814596,-0.0036064805462956,-0.0051757944747805,0.8332740068435669,0.5528243184089661,0.0008698382937637,-0.0016418271205839,0.0009739790474961,0.0214809775352478,-0.0001633763313293,-0.0094232559204101,0,0,0,0
1.1,1788346153189,0.0,0.0,-0.0061106081120669,-0.0017178879352286,0.2982539236545563,0.954465389251709,-8.103190702020042e-05,9.492524917477416e-05,1.1726416942727896e-06,-0.0002944173756986,-0.0003234004834666,-0.000938988814596,-0.0036064805462956,-0.0051757944747805,0.8332740068435669,0.5528243184089661,0.0008698382937637,-0.0016418271205839,0.0009739790474961,0.0214809775352478,-0.0001633763313293,-0.0094232559204101,0,0,0,0
1.2,1788346153289,0.0,0.0,-0.0061106081120669,-0.0017178879352286,0.2982539236545563,0.954465389251709,-8.103190702020042e-05,9.492524917477416e-05,1.1726416942727896e-06,-0.0002944173756986,-0.0003234004834666,-0.000938988814596,-0.0036064805462956,-0.0051757944747805,0.8332740068435669,0.5528243184089661,0.0008698382937637,-0.0016418271205839,0.0009739790474961,0.0214809775352478,-0.0001633763313293,-0.0094232559204101,0,0,0,0
1.3,1788346153389,0.0,0.0,-0.0061106081120669,-0.0017178879352286,0.2982539236545563,0.954465389251709,-8.103190702020042e-05,9.492524917477416e-05,1.1726416942727896e-06,-0.0002944173756986,-0.0003234004834666,-0.000938988814596,-0.0036064805462956,-0.0051757944747805,0.8332740068435669,0.5528243184089661,0.0008698382937637,-0.0016418271205839,0.0009739790474961,0.0214809775352478,-0.0001633763313293,-0.0094232559204101,0,0,0,0
1.4,1788346153489,0.0,0.0,-0.0061106081120669,-0.0017178879352286,0.2982539236545563,0.954465389251709,-8.103190702020042e-05,9.492524917477416e-05,1.1726416942727896e-06,-0.0002944173756986,-0.0003234004834666,-0.000938988814596,-0.0036064805462956,-0.0051757944747805,0.8332740068435669,0.5528243184089661,0.0008698382937637,-0.0016418271205839,0.0009739790474961,0.0214809775352478,-0.0001633763313293,-0.0094232559204101,0,0,0,0
1.5,1788346153589,0.0,0.0,-0.0061106081120669,-0.0017178879352286,0.2982539236545563,0.954465389251709,-8.103190702020042e-05,9.492524917477416e-05,1.1726416942727896e-06,-0.0002944173756986,-0.0003234004834666,-0.000938988814596,-0.0036064805462956,-0.0051757944747805,0.8332740068435669,0.5528243184089661,0.0008698382937637,-0.0016418271205839,0.0009739790474961,0.0214809775352478,-0.0001633763313293,-0.0094232559204101,0,0,0,0
1.6,1788346153689,0.0,0.0,-0.0061106081120669,-0.0017178879352286,0.2982539236545563,0.954465389251709,-8.103190702020042e-05,9.492524917477416e-05,1.1726416942727896e-06,-0.0002944173756986,-0.0003234004834666,-0.000938988814596,-0.0036064805462956,-0.0051757944747805,0.8332740068435669,0.5528243184089661,0.0008698382937637,-0.0016418271205839,0.0009739790474961,0.0214809775352478,-0.0001633763313293,-0.0094232559204101,0,0,0,0
1.7,1788346153789,0.0,0.0,-0.0061106081120669,-0.0017178879352286,0.2982539236545563,0.954465389251709,-8.103190702020042e-05,9.492524917477416e-05,1.1726416942727896e-06,-0.0002944173756986,-0.0003234004834666,-0.000938988814596,-0.0036064805462956,-0.0051757944747805,0.8332740068435669,0.5528243184089661,0.0008698382937637,-0.0016418271205839,0.0009739790474961,0.0214809775352478,-0.0001633763313293,-0.0094232559204101,0,0,0,0
1.8,1788346153889,0.0,0.0,-0.0061106081120669,-0.0017178879352286,0.2982539236545563,0.954465389251709,-8.103190702020042e-05,9.492524917477416e-05,1.1726416942727896e-06,-0.0002944173756986,-0.0003234004834666,-0.000938988814596,-0.0036064805462956,-0.0051757944747805,0.8332740068435669,0.5528243184089661,0.0008698382937637,-0.0016418271205839,0.0009739790474961,0.0214809775352478,-0.0001633763313293,-0.0094232559204101,0,0,0,0
1.9,1788346153989,0.0,0.0,-0.0061106081120669,-0.0017178879352286,0.2982539236545563,0.954465389251709,-8.103190702020042e-05,9.492524917477416e-05,1.1726416942727896e-06,-0.0002944173756986,-0.0003234004834666,-0.000938988814596,-0.0036064805462956,-0.0051757944747805,0.8332740068435669,0.5528243184089661,0.0008698382937637,-0.0016418271205839,0.0009739790474961,0.0214809775352478,-0.0001633763313293,-0.0094232559204101,0,0,0,0
2.0,1788346154089,0.0,0.0,-0.0061106081120669,-0.0017178879352286,0.2982539236545563,0.954465389251709,-8.103190702020042e-05,9.492524917477416e-05,1.1726416942727896e-06,-0.0002944173756986,-0.0003234004834666,-0.000938988814596,-0.0036064805462956,-0.0051757944747805,0.8332740068435669,0.5528243184089661,0.0008698382937637,-0.0016418271205839,0.0009739790474961,0.0214809775352478,-0.0001633763313293,-0.0094232559204101,0,0,0,0
2.1,1788346154189,0.0,0.0,-0.0061106081120669,-0.0017178879352286,0.2982539236545563,0.954465389251709,-8.103190702020042e-05,9.492524917477416e-05,1.1726416942727896e-06,-0.0002944173756986,-0.0003234004834666,-0.000938988814596,-0.0036064805462956,-0.0051757944747805,0.8332740068435669,0.5528243184089661,0.0008698382937637,-0.0016418271205839,0.0009739790474961,0.0214809775352478,-0.0001633763313293,-0.0094232559204101,0,0,0,0
2.2,1788346154289,0.0,0.0,-0.0061106081120669,-0.0017178879352286,0.2982539236545563,0.954465389251709,-8.103190702020042e-05,9.492524917477416e-05,1.1726416942727896e-06,-0.0002944173756986,-0.0003234004834666,-0.000938988814596,-0.0036064805462956,-0.0051757944747805,0.8332740068435669,0.5528243184089661,0.0008698382937637,-0.0016418271205839,0.0009739790474961,0.0214809775352478,-0.0001633763313293,-0.0094232559204101,0,0,0,0
2.3,1788346154389,0.0,0.0,-0.0061106081120669,-0.0017178879352286,0.2982539236545563,0.954465389251709,-8.103190702020042e-05,9.492524917477416e-05,1.1726416942727896e-06,-0.0002944173756986,-0.0003234004834666,-0.000938988814596,-0.0036064805462956,-0.0051757944747805,0.8332740068435669,0.5528243184089661,0.0008698382937637,-0.0016418271205839,0.0009739790474961,0.0214809775352478,-0.0001633763313293,-0.0094232559204101,0,0,0,0
2.4,1788346154489,0.0,0.0,-0.0061106081120669,-0.0017178879352286,0.2982539236545563,0.954465389251709,-8.103190702020042e-05,9.492524917477416e-05,1.1726416942727896e-06,-0.0002944173756986,-0.0003234004834666,-0.000938988814596,-0.0036064805462956,-0.0051757944747805,0.8332740068435669,0.5528243184089661,0.0008698382937637,-0.0016418271205839,0.0009739790474961,0.0214809775352478,-0.0001633763313293,-0.0094232559204101,0,0,0,0
2.5,1788346154589,0.0,0.0,-0.0061106081120669,-0.0017178879352286,0.2982539236545563,0.954465389251709,-8.103190702020042e-05,9.492524917477416e-05,1.1726416942727896e-06,-0.0002944173756986,-0.0003234004834666,-0.000938988814596,-0.0036064805462956,-0.0051757944747805,0.8332740068435669,0.5528243184089661,0.0008698382937637,-0.0016418271205839,0.0009739790474961,0.0214809775352478,-0.0001633763313293,-0.0094232559204101,0,0,0,0
2.6,1788346154689,0.0,0.0,-0.0061106081120669,-0.0017178879352286,0.2982539236545563,0.954465389251709,-8.103190702020042e-05,9.492524917477416e-05,1.1726416942727896e-06,-0.0002944173756986,-0.0003234004834666,-0.000938988814596,-0.0036064805462956,-0.0051757944747805,0.8332740068435669,0.5528243184089661,0.0008698382937637,-0.0016418271205839,0.0009739790474961,0.0214809775352478,-0.0001633763313293,-0.0094232559204101,0,0,0,0
2.7,1788346154789,0.0,0.0,-0.0061106081120669,-0.0017178879352286,0.2982539236545563,0.954465389251709,-8.103190702020042e-05,9.492524917477416e-05,1.1726416942727896e-06,-0.0002944173756986,-0.0003234004834666,-0.000938988814596,-0.0036064805462956,-0.0051757944747805,0.8332740068435669,0.5528243184089661,0.0008698382937637,-0.0016418271205839,0.0009739790474961,0.0214809775352478,-0.0001633763313293,-0.0094232559204101,0,0,0,0
2.8,1788346154889,0.0,0.0,-0.0061106081120669,-0.0017178879352286,0.2982539236545563,0.954465389251709,-8.103190702020042e-05,9.492524917477416e-05,1.1726416942727896e-06,-0.0002944173756986,-0.0003234004834666,-0.000938988814596,-0.0036064805462956,-0.0051757944747805,0.8332740068435669,0.5528243184089661,0.0008698382937637,-0.0016418271205839,0.0009739790474961,0.0214809775352478,-0.0001633763313293,-0.0094232559204101,0,0,0,0
2.9,1788346154989,0.0,0.0,-0.0061106081120669,-0.0017178879352286,0.2982539236545563,0.954465389251709,-8.103190702020042e-05,9.492524917477416e-05,1.1726416942727896e-06,-0.0002944173756986,-0.0003234004834666,-0.000938988814596,-0.0036064805462956,-0.0051757944747805,0.8332740068435669,0.5528243184089661,0.0008698382937637,-0.0016418271205839,0.0009739790474961,0.0214809775352478,-0.0001633763313293,-0.0094232559204101,0,0,0,0
3.0,1788346155089,0.0,0.0,-0.0061106081120669,-0.0017178879352286,0.2982539236545563,0.954465389251709,-8.103190702020042e-05,9.492524917477416e-05,1.1726416942727896e-06,-0.0002944173756986,-0.0003234004834666,-0.000938988814596,-0.0036064805462956,-0.0051757944747805,0.8332740068435669,0.5528243184089661,0.0008698382937637,-0.0016418271205839,0.0009739790474961,0.0214809775352478,-0.0001633763313293,-0.0094232559204101,0,0,0,0
3.1,1788346155189,0.0,0.0,-0.0061106081120669,-0.0017178879352286,0.2982539236545563,0.954465389251709,-8.103190702020042e-05,9.492524917477416e-05,1.1726416942727896e-06,-0.0002944173756986,-0.0003234004834666,-0.000938988814596,-0.0036064805462956,-0.0051757944747805,0.8332740068435669,0.5528243184089661,0.0008698382937637,-0.0016418271205839,0.0009739790474961,0.0214809775352478,-0.0001633763313293,-0.0094232559204101,0,0,0,0
3.2,1788346155289,0.0,0.0,-0.0061106081120669,-0.0017178879352286,0.2982539236545563,0.954465389251709,-8.103190702020042e-05,9.492524917477416e-05,1.1726416942727896e-06,-0.0002944173756986,-0.0003234004834666,-0.000938988814596,-0.0036064805462956,-0.0051757944747805,0.8332740068435669,0.5528243184089661,0.0008698382937637,-0.0016418271205839,0.0009739790474961,0.0214809775352478,-0.0001633763313293,-0.0094232559204101,0,0,0,0
3.3,1788346155389,0.0,0.0,-0.0061106081120669,-0.0017178879352286,0.2982539236545563,0.954465389251709,-8.103190702020042e-05,9.492524917477416e-05,1.1726416942727896e-06,-0.0002944173756986,-0.0003234004834666,-0.000938988814596,-0.0036064805462956,-0.0051757944747805,0.8332740068435669,0.5528243184089661,0.0008698382937637,-0.0016418271205839,0.0009739790474961,0.0214809775352478,-0.0001633763313293,-0.0094232559204101,0,0,0,0
3.4,1788346155489,0.0,0.0,-0.0061106081120669,-0.0017178879352286,0.2982539236545563,0.954465389251709,-8.103190702020042e-05,9.492524917477416e-05,1.1726416942727896e-06,-0.0002944173756986,-0.0003234004834666,-0.000938988814596,-0.0036064805462956,-0.0051757944747805,0.8332740068435669,0.5528243184089661,0.0008698382937637,-0.0016418271205839,0.0009739790474961,0.0214809775352478,-0.0001633763313293,-0.0094232559204101,0,0,0,0
3.5,1788346155589,0.0,0.0,-0.0061106081120669,-0.0017178879352286,0.2982539236545563,0.954465389251709,-8.103190702020042e-05,9.492524917477416e-05,1.1726416942727896e-06,-0.0002944173756986,-0.0003234004834666,-0.000938988814596,-0.0036064805462956,-0.0051757944747805,0.8332740068435669,0.5528243184089661,0.0008698382937637,-0.0016418271205839,0.0009739790474961,0.0214809775352478,-0.0001633763313293,-0.0094232559204101,0,0,0,0
3.6,1788346155689,0.0,0.0,-0.0061106081120669,-0.0017178879352286,0.2982539236545563,0.954465389251709,-8.103190702020042e-05,9.492524917477416e-05,1.1726416942727896e-06,-0.0002944173756986,-0.0003234004834666,-0.000938988814596,-0.0036064805462956,-0.0051757944747805,0.8332740068435669,0.5528243184089661,0.0008698382937637,-0.0016418271205839,0.0009739790474961,0.0214809775352478,-0.0001633763313293,-0.0094232559204101,0,0,0,0
3.7,1788346155789,0.0,0.0,-0.0061106081120669,-0.0017178879352286,0.2982539236545563,0.954465389251709,-8.103190702020042e-05,9.492524917477416e-05,1.1726416942727896e-06,-0.0002944173756986,-0.0003234004834666,-0.000938988814596,-0.0036064805462956,-0.0051757944747805,0.8332740068435669,0.5528243184089661,0.0008698382937637,-0.0016418271205839,0.0009739790474961,0.0214809775352478,-0.0001633763313293,-0.0094232559204101,0,0,0,0
3.8,1788346155889,0.0,0.0,-0.0061040669679641,-0.0017122229328379,0.2982864081859588,0.954455316066742,9.018999819361552e-05,-0.0001045973558073,1.0999447616733297e-06,0.0002774306922219,-0.0013504539383575,0.0010145866544917,-0.0036024609580636,-0.0052096154540777,0.8332738280296326,0.5528241991996765,-0.0019905981300604,-0.0006374701393233,8.424242196305018e-05,0.0012944936752319,-0.0068134665489196,-0.0148639678955078,0,0,0,0
3.9,1788346155989,0.0,0.0,-0.0060538877733051,-0.0017627961933612,0.2983017861843109,0.954450786113739,1.5679885817937424e-05,-1.892095244247341e-05,-2.3438446723743378e-07,-5.418813452706672e-05,-0.0002607612113934,0.0001845835358835,-0.0035786051303148,-0.0051685441285371,0.8332778215408325,0.5528186559677124,6.537429183615333e-05,-0.0005124647115737,-0.0002205148563788,-0.0327798128128051,0.0227853655815124,-0.013005256652832,0,0,0,0
4.0,1788346156089,0.0,0.0,-0.006034861318767,-0.0017616753466427,0.2982960641384125,0.9544526934623718,-1.9982082399502077e-05,2.362736833311604e-05,2.929854510896373e-07,0.0007132621249184,-0.0001761550083756,-0.0002333050506422,-0.0035974327474832,-0.0051229102537035,0.8332751393318176,0.5528231263160706,0.0008229114015635,0.000600804695899,-0.0009799347895418,-0.0068547129631042,0.0024192929267883,0.0048961639404296,0,0,0,0
4.1,1788346156189,0.0,0.0,-0.006034861318767,-0.0017616753466427,0.2982960641384125,0.9544526934623718,-1.9982082399502077e-05,2.362736833311604e-05,2.929854510896373e-07,0.0007132621249184,-0.0001761550083756,-0.0002333050506422,-0.0036350460723042,-0.0051319627091288,0.8332662582397461,0.5528361201286316,-0.0011283378569092,0.0010526511076096,-0.0006194931906793,-0.0027798414230346,-0.0061021447181701,0.0300178527832031,0,0,0,0
4.2,1788346156289,0.0,0.0,-0.0060393284074962,-0.0016688683535903,0.2983346581459045,0.9544407725334167,0.0001358004218657,-0.0001574375374949,-1.615910805231787e-07,0.0007048674742691,0.0004862295463681,0.0015678411582484,-0.0036279540508985,-0.0051192827522754,0.8332841992378235,0.5528092384338379,-0.0006491873076576,-0.0003131069794693,-0.0012587111898246,-0.0063163042068481,0.020657479763031,0.0049648284912109,0,0,0,0
4.3,1788346156389,0.0,0.0,-0.0060458299703896,-0.0016395599814131,0.2983261048793793,0.9544435143470764,0.0,0.0,0.0,2.5347954846211e-08,0.0,0.0,-0.0036563593894243,-0.0050736367702484,0.8332931995391846,0.5527958869934082,0.0003568770988642,0.0001010577980993,-0.0010523660717602,0.0126503109931945,0.0149627327919006,-0.0291671752929687,0,0,0,0
4.4,1788346156489,0.0,0.0,-0.0060299909673631,-0.0016108351992443,0.2983654141426086,0.9544312953948976,0.0001402447423876,-0.0001623519705457,6.518130739039059e-07,0.0005787094123661,0.0008380535873584,0.0016147949500009,-0.0036672856658697,-0.0050486428663134,0.8333172798156738,0.5527597665786743,0.000685018514972,-0.0009918194753763,0.0012195016453459,-0.0192636847496032,0.0073742866516113,-0.0005111694335937,0,0,0,0
4.5,1788346156589,0.0,0.0,-0.0060299909673631,-0.0016108351992443,0.2983654141426086,0.9544312953948976,0.0,0.0,0.0,0.0,5.445768724854361e-09,0.0,-0.0036910315975546,-0.0050277411937713,0.8333089351654053,0.5527722835540771,0.0007900389614239,0.0019034277973145,0.0007933732673801,-0.0132725834846496,0.0162363648414611,0.0067052841186523,0,0,0,0
4.6,1788346156689,0.0,0.0,-0.0060313874855637,-0.0015903983730822,0.2983793914318084,0.9544269442558287,0.0001073180540913,-0.0001241297358339,8.448130116584818e-07,0.0003009620122611,0.0006454478716477,0.0012372970813885,-0.0036791488528251,-0.0050369519740343,0.8333216905593872,0.5527532696723938,-7.434109498353728e-05,-0.0010107549335003,0.0015224328668382,-0.0135963559150695,-4.172325134277344e-07,0.0299863815307617,0,0,0,0
4.7,1788346156789,0.0,0.0,-0.0060255248099565,-0.0015740540111437,0.298355758190155,0.9544343948364258,-7.31193994503502e-05,8.489609578196516e-05,-9.9152729856552e-07,0.0003530760877765,0.0004718454438261,-0.00083141005598,-0.0036843679845333,-0.0050534475594758,0.8333057165145874,0.552777111530304,-0.0012356948130385,-0.0009424436069996,-0.001263432738723,0.0169087648391723,0.0185133218765258,-0.0273780822753906,0,0,0,0
4.8,1788346156889,0.0,0.0,-0.0060255248099565,-0.0015740540111437,0.298355758190155,0.9544343948364258,-7.31193994503502e-05,8.489609578196516e-05,-9.9152729856552e-07,0.0003530760877765,0.0004718454438261,-0.00083141005598,-0.0036843679845333,-0.0050534475594758,0.8333057165145874,0.552777111530304,-0.0012356948130385,-0.0009424436069996,-0.001263432738723,0.0169087648391723,0.0185133218765258,-0.0273780822753906,0,0,0,0
4.9,1788346156989,0.0,0.0,-0.0060431212186813,-0.0015811186749488,0.2983515858650207,0.9544355869293212,-2.375769177723519e-05,2.757301163290957e-05,3.310873699529788e-07,0.000226990043302,0.0006088103982619,-0.0002688153181225,-0.0036819698289036,-0.0050210580229759,0.8333046436309814,0.5527790784835815,0.0006436072746724,0.0027218045164558,-0.0011504297205006,-0.0169363617897033,-0.0216358304023742,-0.0078315734863281,0,0,0,0
5.0,1788346157089,0.0,0.0,-0.0060113938525319,-0.0015588270034641,0.298376053571701,0.9544281959533693,3.324338234716849e-05,-3.8777372040142845e-05,-4.663683755387667e-07,0.0010447714012116,0.0021192075219005,0.000407061073929,-0.0036819698289036,-0.0050210580229759,0.8333046436309814,0.5527790784835815,0.0006436072746724,0.0027218045164558,-0.0011504297205006,-0.0169363617897033,-0.0216358304023742,-0.0078315734863281,0,0,0,0
5.1,1788346157189,0.0,0.0,-0.0059705302119255,-0.0015650875866413,0.298332005739212,0.9544422030448914,0.0,0.0,0.0,0.0,-3.6126006630610155e-09,0.0,-0.0036655105650424,-0.0049322722479701,0.8333163857460022,0.5527621507644653,0.0002488809823048,0.0001951203500454,0.001093756975962,-0.0036521553993225,0.0019441246986389,-0.0239076614379882,0,0,0,0
5.2,1788346157289,0.0,0.0,-0.0059705302119255,-0.0015650875866413,0.298332005739212,0.9544422030448914,0.0,0.0,0.0,0.0,-3.6126006630610155e-09,0.0,-0.0036395229399204,-0.0049348622560501,0.8333114385604858,0.5527698993682861,0.0008146820817165,-0.0015365465309298,-0.0006223512286653,-0.0149138569831848,-0.0289145708084106,-0.0024957656860351,0,0,0,0
5.3,1788346157389,0.0,0.0,-0.0059086154215037,-0.0015691227745264,0.2983605861663818,0.9544336199760436,7.30618746659974e-05,-8.551134066170229e-05,-9.965694638888548e-07,-1.086490465240786e-05,-0.0025423059705644,0.0008115076343528,-0.0035844463855028,-0.0049751717597246,0.8333016633987427,0.5527845621109009,-0.0013231012400933,-0.0019038474844755,-0.0011733565597538,0.0196297168731689,0.0052096843719482,0.0156450271606445,0,0,0,0
5.4,1788346157489,0.0,0.0,-0.0059305396862328,-0.0015977886505424,0.2983648478984833,0.9544320702552797,1.6446357336534455e-05,-1.87555217998327e-05,-2.2039132406500093e-07,-0.0011970025952905,-0.0008464016136713,0.0001778783480403,-0.003583587706089,-0.0049960920587182,0.8333033323287964,0.5527817606925964,-5.8746346776677885e-05,-0.0013057922019735,-0.0012721382666046,-0.0021279454231262,-0.0356095433235168,-0.0204696655273437,0,0,0,0
5.5,1788346157589,0.0,0.0,-0.0059456164017319,-0.001602487755008,0.2983385622501373,0.954440176486969,0.0,0.0,0.0,0.0,4.592221269916763e-09,0.0,-0.0036030858755111,-0.0049978289753198,0.8333065509796143,0.5527768731117249,-0.0005043186934874,0.000629099920779,0.0002458533428699,0.0035414695739746,-0.0192500948905944,-0.0078248977661132,0,0,0,0
5.6,1788346157689,0.0,0.0,-0.0059170629829168,-0.0016046302625909,0.2983841896057129,0.9544261693954468,0.0001670160017138,-0.0001944454730258,8.512753992241226e-08,0.0010695172240957,-0.0004364887136034,0.0019170271698385,-0.003575668670237,-0.004990336485207,0.8333104252815247,0.552771270275116,-6.33769519916218e-05,0.001018874639142,-0.0003477250378475,-0.0058119297027587,0.0037087798118591,-0.0113410949707031,0,0,0,0
5.7,1788346157789,0.0,0.0,-0.005920544732362,-0.001619782182388,0.2983452677726745,0.9544382095336914,0.0,0.0,0.0,0.0,5.296763916362579e-09,0.0,-0.003511369228363,-0.0050114020705223,0.8333156108856201,0.5527635216712952,0.0003550814749433,0.000281511854292,-0.0007891647802403,0.0072405338287353,-0.0218549370765686,0.008331298828125,0,0,0,0
5.8,1788346157889,0.0,0.0,-0.005891365930438,-0.0016775229014456,0.2983855903148651,0.9544256925582886,0.0001486813921335,-0.0001731078947053,3.417734982300984e-07,0.0004273589293006,-0.0025798841379582,0.0016847427468746,-0.0035127811133861,-0.0049825413152575,0.8333325982093811,0.5527381896972656,6.365054378482521e-05,-0.0004007007466791,-0.000488687410059,0.0021829605102539,0.020803153514862,0.0102853775024414,0,0,0,0
5.9,1788346157989,0.0,0.0,-0.0058578983880579,-0.0016506265383213,0.2983972132205963,0.954422414302826,5.917050562074031e-05,-6.939241185890877e-05,-8.246292772686907e-07,0.0015024293679744,-0.0015127811348065,0.0006612144061364,-0.0035153497010469,-0.0049494924023747,0.8333380222320557,0.5527303218841553,0.0004607022504005,0.0010295850100636,0.0006688527183516,-0.0045848488807678,-0.0065805912017822,-0.0042057037353515,0,0,0,0
6.0,1788346158089,0.0,0.0,-0.0058491039089858,-0.0016257769893854,0.2984069287776947,0.9544194340705872,3.4603686492382445e-05,-3.99062051335973e-05,-4.736258348033095e-07,0.0006312329205684,0.0008398370700888,0.000408201245591,-0.0035592122003436,-0.0049283439293503,0.8333398699760437,0.5527274012565613,-0.0006031056549245,0.0011913109059757,-7.750680783012049e-05,-0.0180234313011169,0.0078905224800109,0.0066051483154296,0,0,0,0
6.1,1788346158189,0.0,0.0,-0.0058491039089858,-0.0016257769893854,0.2984069287776947,0.9544194340705872,3.4603686492382445e-05,-3.99062051335973e-05,-4.736258348033095e-07,0.0006312329205684,0.0008398370700888,0.000408201245591,-0.0035657929256558,-0.0049410099163651,0.8333701491355896,0.5526817440986633,-0.0005114596532668,0.0004234982624033,0.0001964292893211,-4.3392181396484375e-05,-0.0024505257606506,-0.0293378829956054,0,0,0,0
6.2,1788346158289,0.0,0.0,-0.0058818832039833,-0.001558645744808,0.2984509468078613,0.9544055461883544,-2.5164484814382188e-05,2.87097504283506e-05,3.371263491538061e-07,-0.0001730822405079,0.0011497869854792,-0.0002722351637203,-0.0035897521302103,-0.0049209259450435,0.8333675265312195,0.5526857972145081,0.0001403007436913,0.0012476081894349,-0.0001865230157548,-0.0228393077850341,-0.0260339975357055,0.0136375427246093,0,0,0,0
6.3,1788346158389,0.0,0.0,-0.0058818832039833,-0.001558645744808,0.2984509468078613,0.9544055461883544,-2.5164484814382188e-05,2.87097504283506e-05,3.371263491538061e-07,-0.0001730822405079,0.0011497869854792,-0.0002722351637203,-0.0035722963511943,-0.0049350624904036,0.8333719372749329,0.5526789426803589,-0.0001775442349247,0.0009090419379922,2.698888176379585e-05,-0.0286271572113037,-0.018653929233551,-0.0204725265502929,0,0,0,0
6.4,1788346158489,0.0,0.0,-0.0058632511645555,-0.0015836743405088,0.2984761595726013,0.9543977975845336,0.0,0.0,0.0,0.0,4.645554607662916e-09,0.0,-0.0035500498488545,-0.0049286503344774,0.8333697319030762,0.5526824593544006,0.0003088494273381,0.0011996698576497,-0.0014424819083158,-0.0199811458587646,-0.0155053734779357,0.0082836151123046,0,0,0,0
6.5,1788346158589,0.0,0.0,-0.0058632511645555,-0.0015836743405088,0.2984761595726013,0.9543977975845336,0.0,0.0,0.0,0.0,4.479549620128864e-09,0.0,-0.0035526566207408,-0.0049097277224063,0.8333773612976074,0.5526710748672485,0.0003624858483628,6.404142854546239e-05,-0.0004029857817067,0.0105645060539245,-0.0239239335060119,0.0681209564208984,0,0,0,0
6.6,1788346158689,1.2394366264343262,1.97183096408844,-0.0058632511645555,-0.0015836743405088,0.2984761595726013,0.9543977975845336,0.0,0.0,0.0,0.0,3.266843684457399e-09,0.0,-0.0035526566207408,-0.0049097277224063,0.8333773612976074,0.5526710748672485,0.0003624858483628,6.404142854546239e-05,-0.0004029857817067,0.0105645060539245,-0.0239239335060119,0.0681209564208984,290,243,6697,12347
6.7,1788346158789,2.169013977050781,4.169013977050781,-0.0071153207682073,-0.0014131101779639,0.3096697032451629,0.950816571712494,0.0936012029382491,-0.002741062335906,-2.2000875074900223e-05,-0.0460594668984413,0.0313620120286941,0.2448024153709411,-0.0056538870558142,-0.0056135868653655,0.8408849239349365,0.5411553382873535,-0.0658184837785439,0.0577814263271626,0.2602142746291265,1.0164978504180908,0.4573014378547668,0.0213918685913085,150,383,10272,20994
6.8,1788346158889,3.183098554611206,7.85915470123291,-0.0055005112662911,-0.0017531180055812,0.3330143392086029,0.9429041147232056,0.1660121820924979,-0.0038259185195976,0.0002472594854058,0.0755761116743087,-0.0782341808080673,0.598084568977356,-0.0030049616470932,-0.0049848621711134,0.8520597815513611,0.5234122276306152,0.0883655510796174,-0.1081161587828251,0.6227094484657401,0.5714585185050964,0.0424444675445556,0.7408208847045898,123,143,12129,18445
6.9,1788346158989,3.436619758605957,7.549295902252197,-0.0051739141345024,-0.0010134330950677,0.3591043651103973,0.9332825541496276,0.1772973229599835,-0.0015129960465515,-2.8409259138810804e-05,0.0176438447088003,0.0153898922726511,0.6664524674415588,-0.0031036436557769,-0.0041480530053377,0.8772023320198059,0.4800929129123688,-0.0047529548525675,-0.0087409167926398,0.6048633889225937,-0.425712525844574,-0.2100068926811218,-1.0666580200195312,24,96,8618,21251
7.0,1788346159089,3.323943614959717,7.098591327667236,-0.0051310239359736,-0.0010523707605898,0.3742779791355133,0.9273017644882202,0.1816048316147773,-0.0008715048019488,4.192676088369032e-05,0.0004248764307703,-0.0055265948176383,0.6612260341644287,-0.0029712999239563,-0.0037351883947849,0.8871698379516602,0.4614183604717254,-0.0041605973247833,-0.0034495898565261,0.4772096371808511,-0.0893303751945495,0.2480360269546508,-0.0999479293823242,77,40,10316,18616
7.1,1788346159189,3.436619758605957,6.929577350616455,-0.0051310239359736,-0.0010523707605898,0.3742779791355133,0.9273017644882202,0.1816048316147773,-0.0008715048019488,4.192676088369032e-05,0.0004248764307703,-0.0055265948176383,0.6612260341644287,-0.0029712999239563,-0.0037351883947849,0.8871698379516602,0.4614183604717254,-0.0041605973247833,-0.0034495898565261,0.4772096371808511,-0.0893303751945495,0.2480360269546508,-0.0999479293823242,21,74,8523,14735
7.2,1788346159289,3.436619758605957,6.929577350616455,-0.0051310239359736,-0.0010523707605898,0.3742779791355133,0.9273017644882202,0.1816048316147773,-0.0008715048019488,4.192676088369032e-05,0.0004248764307703,-0.0055265948176383,0.6612260341644287,-0.0024202056229114,-0.0038033239543437,0.8961034417152405,0.443822294473648,0.003215059636794,-0.0120351878167515,0.4768104254818919,-0.3839432597160339,0.2333366870880127,0.3414335250854492,21,74,8523,14735
7.3,1788346159389,0.0,0.0,-0.0051310239359736,-0.0010523707605898,0.3742779791355133,0.9273017644882202,0.1816048316147773,-0.0008715048019488,4.192676088369032e-05,0.0004248764307703,-0.0055265948176383,0.6612260341644287,-0.0020338175818324,-0.0037232646718621,0.9040299654006958,0.4274480938911438,-0.0005154050764819,3.912280144561342e-05,0.0858991327288638,-0.7942336797714233,-0.0815969705581665,0.1815748214721679,0,0,0,0
7.4,1788346159489,0.0,0.0,-0.0051310239359736,-0.0010523707605898,0.3742779791355133,0.9273017644882202,0.1816048316147773,-0.0008715048019488,4.192676088369032e-05,0.0004248764307703,-0.0055265948176383,0.6612260341644287,-0.001875827088952,-0.0037758266553282,0.9040906429290771,0.4273198246955871,0.000560457022075,-0.0046590596991925,0.0039645752784567,0.1494180560111999,0.0411860346794128,-0.0807428359985351,0,0,0,0
7.5,1788346159589,0.0,0.0,-0.0039110402576625,-0.0016094320453703,0.4323726296424866,0.901685118675232,-0.0020204002557546,-3.0050377217239915e-05,-1.2229017925803824e-06,0.0,0.0,0.0,-0.0017833402380347,-0.00376658141613,0.9040799736976624,0.4273431003093719,-0.0004387637459586,0.0009076732708297,0.0005934559717623,-0.0050220489501953,0.01266610622406,0.0805902481079101,0,0,0,0
7.6,1788346159689,0.0,0.0,-0.0039110402576625,-0.0016094320453703,0.4323726296424866,0.901685118675232,-0.0002030740091309,0.0001977123228424,-8.116856438202384e-07,0.0,0.0,0.0,-0.0018008146435022,-0.003698457032442,0.9040863513946532,0.4273300468921661,0.0015344375482628,-0.0001830463759665,-9.46890240652234e-05,0.0444141626358032,0.0135863423347473,0.0339536666870117,0,0,0,0
7.7,1788346159789,0.0,0.0,-0.003713377052918,-0.0017419554060325,0.4323827624320984,0.901680827140808,2.019731816485882e-05,-2.326219390152147e-05,-1.8971465529682882e-07,-0.0002440156240481,0.0005741968634538,0.0002403571706963,-0.0017605973407626,-0.0037050107493996,0.9041013717651368,0.4272984564304352,-0.0002459880306484,-0.0005932094754958,0.00129502101998,0.0166686177253723,-0.0208807587623596,0.0643148422241211,0,0,0,0
7.8,1788346159889,0.0,0.0,-0.003713377052918,-0.0017419554060325,0.4323827624320984,0.901680827140808,2.019731816485882e-05,-2.326219390152147e-05,-1.8971465529682882e-07,-0.0002440156240481,0.0005741968634538,0.0002403571706963,-0.0017817663028836,-0.0037489887326955,0.904085099697113,0.4273321330547333,-0.0023628454886386,0.0001979440084317,-0.0017127597144152,-0.0047971010208129,-0.0358322858810424,-0.0004253387451171,0,0,0,0
7.9,1788346159989,0.0,0.0,-0.003713377052918,-0.0017419554060325,0.4323827624320984,0.901680827140808,2.019731816485882e-05,-2.326219390152147e-05,-1.8971465529682882e-07,-0.0002440156240481,0.0005741968634538,0.0002403571706963,-0.0017817663028836,-0.0037489887326955,0.904085099697113,0.4273321330547333,-0.0023628454886386,0.0001979440084317,-0.0017127597144152,-0.0047971010208129,-0.0358322858810424,-0.0004253387451171,0,0,0,0
8.0,1788346160089,0.0,0.0,-0.0037567922845482,-0.0018142863409593,0.4323490858078003,0.9016966223716736,-0.0001071848693544,0.0001242190763385,-1.28951554824884e-06,-3.0957427952671424e-05,-0.0004676613316405,-0.0012360623804852,-0.0017817663028836,-0.0037489887326955,0.904085099697113,0.4273321330547333,-0.0023628454886386,0.0001979440084317,-0.0017127597144152,-0.0047971010208129,-0.0358322858810424,-0.0004253387451171,0,0,0,0
8.1,1788346160189,0.0,0.0,-0.0037545589730143,-0.0017894121119752,0.4323624670505523,0.9016903042793274,5.003694943848736e-05,-5.858005254583575e-05,-4.899662874489224e-07,0.0004999066586606,0.0008378912461921,0.0005822213715873,-0.0017817663028836,-0.0037489887326955,0.904085099697113,0.4273321330547333,-0.0023628454886386,0.0001979440084317,-0.0017127597144152,-0.0047971010208129,-0.0358322858810424,-0.0004253387451171,0,0,0,0
8.2,1788346160289,-0.8732394576072693,0.7605633735656738,-0.0037354698870331,-0.0018200287595391,0.4323666393756866,0.9016883373260498,-0.0001930017217872,-0.0002379979084754,5.545960219452035e-07,0.0001692644436843,-0.0015278117498382,0.0001903574302559,-0.0019376529380679,-0.0038320831954479,0.9126157164573668,0.408796101808548,3.496089344432369e-05,0.0072169499549524,0.245531940448496,-0.1752211451530456,0.0764868259429931,-0.0109729766845703,60,155,-4344,6056
8.3,1788346160389,-0.9295774698257446,0.9295774698257446,-0.0038650259375572,-0.0018637393368408,0.4474004209041595,0.894323468208313,0.0041249616164109,-0.0028028438001034,1.0426787619664313e-06,-0.0029869410209357,-0.0004225108714308,0.2661217749118805,-0.0018951352685689,-0.0038669994100928,0.9155597686767578,0.4021589756011963,-0.0005293976594807,-0.0026701033173357,0.2305267499865478,-0.1038960814476013,0.0100143551826477,0.0589065551757812,90,128,-4678,5026
8.4,1788346160489,-0.9577465057373048,0.7605633735656738,-0.003786631161347,-0.0017734135035425,0.4694737195968628,0.8829365968704224,0.0035036548257756,-0.0025657864260808,1.1248941263049891e-06,0.0022022039629518,-0.0015879583079367,0.2632659673690796,-0.0018650293350219,-0.0037046903744339,0.9225907921791076,0.3857577741146087,0.0021322179294397,0.0057421786597489,0.2703897294910791,-0.1394082903861999,0.2744477987289428,0.0455245971679687,100,74,-4326,5091
8.5,1788346160589,-0.9577465057373048,0.7605633735656738,-0.003786631161347,-0.0017734135035425,0.4694737195968628,0.8829365968704224,0.0035036548257756,-0.0025657864260808,1.1248941263049891e-06,0.0022022039629518,-0.0015879583079367,0.2632659673690796,-0.0018112892284989,-0.003728711977601,0.9276174902915956,0.3735087513923645,0.0008627757346833,-0.0041800615993493,0.2585453853802993,0.1048844456672668,0.0627908110618591,-0.0358238220214843,78,128,-4637,4770
8.6,1788346160689,-0.7042253613471985,0.7605633735656738,-0.0037482595071196,-0.0017638446297496,0.481158584356308,0.8766237497329712,-0.0025908270731563,-0.0010716903484511,1.8069154801034852e-06,0.000614954624325,-0.0024987042415887,0.2642868161201477,-0.0016797129064798,-0.0038229897618293,0.9316914677619934,0.3632267415523529,-0.0015582336843271,-0.0057483354299039,0.2270661636755077,0.1206256747245788,-0.0156472325325012,-0.0037803649902343,78,128,-4637,4770
8.7,1788346160789,-0.7323943376541138,0.98591548204422,-0.0037482595071196,-0.0017638446297496,0.481158584356308,0.8766237497329712,-0.0025908270731563,-0.0010716903484511,1.8069154801034852e-06,0.000614954624325,-0.0024987042415887,0.2642868161201477,-0.0017047394067049,-0.0038522630929946,0.9345070123672484,0.3559198975563049,-0.0013173546082053,-0.0006818061939658,0.2712570973016643,-0.0437595248222351,-0.0114941596984863,0.026559829711914,72,99,-5054,4479
8.8,1788346160889,-0.9295774698257446,0.9577465057373048,-0.0037482595071196,-0.0017638446297496,0.481158584356308,0.8766237497329712,-0.0025908270731563,-0.0010716903484511,1.8069154801034852e-06,0.000614954624325,-0.0024987042415887,0.2642868161201477,-0.0018533263355493,-0.0038186516612768,0.9402272701263428,0.3405213356018066,-0.0003774656377868,-0.0012270195848465,0.2686062193492356,0.0538651347160339,-0.1946753859519958,0.0942096710205078,72,99,-5054,4479
8.9,1788346160989,-0.8169013857841492,0.8450704216957092,-0.0037482595071196,-0.0017638446297496,0.481158584356308,0.8766237497329712,-0.0025908270731563,-0.0010716903484511,1.8069154801034852e-06,0.000614954624325,-0.0024987042415887,0.2642868161201477,-0.0021027326583862,-0.0036998707801103,0.9459161758422852,0.3243832588195801,0.0003976139133095,0.0040938664324549,0.2698283723943053,0.1891652941703796,-0.0664066076278686,0.0666170120239257,119,110,-4790,4399
9.0,1788346161089,-0.8169013857841492,0.8450704216957092,-0.0037482595071196,-0.0017638446297496,0.481158584356308,0.8766237497329712,-0.0025908270731563,-0.0010716903484511,1.8069154801034852e-06,0.000614954624325,-0.0024987042415887,0.2642868161201477,-0.0021191267296671,-0.003715275786817,0.9478557705879213,0.3186708092689514,-0.0009960644109734,-0.0005842247983628,0.2421634003827966,0.1930565237998962,0.1053992509841919,-0.0547542572021484,47,104,-4551,4500
9.1,1788346161189,-0.8169013857841492,0.8450704216957092,-0.0037482595071196,-0.0017638446297496,0.481158584356308,0.8766237497329712,-0.0025908270731563,-0.0010716903484511,1.8069154801034852e-06,0.000614954624325,-0.0024987042415887,0.2642868161201477,-0.0021984092891216,-0.003770699724555,0.9545460939407348,0.2980314195156097,-0.0014670534511663,-0.0022279986273799,0.2446976768874902,-0.0120692253112792,0.0672119855880737,-0.0160980224609375,47,104,-4551,4500
9.2,1788346161289,-0.7042253613471985,0.7323943376541138,-0.0037482595071196,-0.0017638446297496,0.481158584356308,0.8766237497329712,-0.0025908270731563,-0.0010716903484511,1.8069154801034852e-06,0.000614954624325,-0.0024987042415887,0.2642868161201477,-0.0021169688552618,-0.0038048326969146,0.9571183919906616,0.2896642982959747,-0.0005385553239652,-0.0037183381487878,0.2604552306911267,0.1918630599975586,0.0981478691101074,-0.1002359390258789,70,40,-4818,4498
9.3,1788346161389,-0.8169013857841492,0.6760563254356384,-0.0040920050814747,-0.0016413095872849,0.5682833194732666,0.8228211402893066,-0.0013987153421424,-0.0015479118408465,-1.420584897996139e-06,-0.0012395267840474,-0.0021617442835122,0.2483997195959091,-0.0021169688552618,-0.0038048326969146,0.9571183919906616,0.2896642982959747,-0.0005385553239652,-0.0037183381487878,0.2604552306911267,0.1918630599975586,0.0981478691101074,-0.1002359390258789,108,79,-4633,5067
9.4,1788346161489,-0.8732394576072693,1.0140844583511353,-0.0041447216644883,-0.0017026818823069,0.5755063891410828,0.8177850246429443,0.002313980999706,-0.0015875886757583,-7.315135450830773e-07,-0.0024549460504204,-0.0016467740060761,0.2484426349401474,-0.0021150661632418,-0.0039545930922031,0.96308034658432,0.2691770493984222,-0.0020127880964077,-0.003324497711151,0.2448620453883917,0.0905588269233703,-0.0952450037002563,0.0155200958251953,84,73,-4491,3999
9.5,1788346161589,-0.8732394576072693,0.8169013857841492,-0.0042868857271969,-0.0017306566005572,0.5902584791183472,0.807201087474823,0.0049025690863782,-0.0018984583405606,-2.386854505354837e-06,-0.0019752534572035,-0.0003150188131257,0.2677086591720581,-0.0021863933652639,-0.0039980392903089,0.9647471308708192,0.2631392478942871,-0.0027514543636812,0.001232065307117,0.257100351829972,-0.0192851424217224,0.1849841475486755,0.0128660202026367,84,73,-4491,3999
9.6,1788346161689,-0.8732394576072693,0.8169013857841492,-0.0042140525765717,-0.0019319265848025,0.6009982824325562,0.7992368936538696,0.0783512918727676,0.002576878260389,-3.444739237174766e-06,-0.0010079048806801,0.001545779639855,0.2394475191831588,-0.0021628895774483,-0.0041113635525107,0.9705979824066162,0.2406614422798156,-0.0007481628220398,0.0072732264016911,0.1403005458004188,0.732825517654419,-0.3305515646934509,0.4609870910644531,84,73,-4491,3999
9.7,1788346161789,5.126760482788086,5.211267471313477,-0.0042290249839425,-0.0017665363848209,0.6033191084861755,0.7974867820739746,0.1162721296328428,-0.0012045367278054,-1.904019069789353e-05,0.0041169882752001,0.0062344563193619,0.1415855139493942,-0.0019014505669474,-0.0038403002545237,0.9719206690788268,0.235270008444786,0.0112788011714926,-0.0151548342297714,0.0613646909368534,0.7281751036643982,0.0772371292114257,0.1644096374511718,208,40,17966,16133
9.8,1788346161889,5.323943614959717,5.042253494262695,-0.0039625852368772,-0.0018225252861157,0.6060003042221069,0.7954524159431458,0.1963989380847628,-0.0016818898640346,0.0001074668680967,0.0045118615962564,-0.0105801178142428,0.0186078548431396,-0.0020882859826087,-0.0037367837503552,0.9717972874641418,0.2357792407274246,0.0066295702100457,-0.0123228652754286,0.0123307230765444,-0.0546523928642272,0.0938087105751037,-1.1207542419433594,110,100,15772,13505
9.9,1788346161989,5.126760482788086,5.464788913726807,-0.0041048792190849,-0.0016821997705847,0.60555100440979,0.7957941889762878,0.1916374446297824,0.0052699832911267,-1.1505395845842489e-06,-0.0018297787755727,0.0132689019665122,-0.0373513586819171,-0.0020882859826087,-0.0037367837503552,0.9717972874641418,0.2357792407274246,0.0066295702100457,-0.0123228652754286,0.0123307230765444,-0.0546523928642272,0.0938087105751037,-1.1207542419433594,72,45,16288,11523
10.0,1788346162089,5.267605781555176,5.183098793029785,-0.0064027654007077,-0.0008628345094621,0.5985633730888367,0.8010494709014893,0.1696643452123621,0.0013504609583379,-0.0002604026969305,-0.0376920588314533,0.0476187579333782,-0.1591494679450988,-0.0028307912871241,-0.0034539941698312,0.969641923904419,0.244488388299942,0.0645907376629971,-0.0586347251720278,-0.0258216874254307,0.0366697907447814,-0.2116633653640747,0.7694721221923828,66,30,14575,14689
10.1,1788346162189,5.042253494262695,5.352112770080566,-0.0040059550665318,-0.0010653355857357,0.5987852811813354,0.8008989095687866,0.179011156513738,-0.0031495003547563,8.882709879063126e-05,0.0877130627632141,-0.0779769867658615,0.0129046570509672,-0.0024113096296787,-0.0026660207659006,0.9697529673576356,0.2440623193979263,0.0026149442412909,0.0154159261354919,-0.0262176706589859,0.0587519407272338,-0.2809507250785827,-0.0857868194580078,67,85,14770,14069
10.2,1788346162289,5.126760482788086,5.352112770080566,-0.0034591308794915,-0.000640426762402,0.5984504222869873,0.8011521100997925,0.1736457214129923,0.0010798374112541,-8.407881510614648e-05,0.0069242352619767,0.0141125405207276,-0.0276174768805503,-0.002079457975924,-0.0025808177888393,0.969502568244934,0.2450589388608932,0.0066221452572677,-0.011895883221438,-0.0411069179552727,0.1383299231529235,-0.0078043937683105,0.436253547668457,78,45,14833,13793
10.3,1788346162389,5.098591327667236,5.154929637908936,-0.0031764386221766,-0.0006731675239279,0.5981749892234802,0.8013589382171631,0.1790929964694669,0.0011986936321563,5.605879859586946e-05,0.0069221621379256,-0.0064849094487726,-0.011505072005093,-0.0020153103396296,-0.0021693361923098,0.9693793654441832,0.2455503195524215,0.0049502462995458,-0.0006185574969592,-0.0043458757919247,-0.1056035757064819,0.036747932434082,0.7432355880737305,78,128,14732,14586
10.4,1788346162489,5.042253494262695,4.985915660858154,-0.0031542193610221,-0.0002551175421103,0.5977833867073059,0.8016514778137207,0.1730760092655924,0.0025237196960333,-7.667401520423716e-07,0.0107471402734518,0.0129330605268478,-0.0195092391222715,-0.0023781564086675,-0.0021885754540562,0.96922367811203,0.2461603730916977,-0.0053244539037336,0.0247366962608402,-0.0237271500133857,-0.0882239937782287,-0.2633650302886963,0.8696098327636719,91,174,14935,15474
10.5,1788346162589,5.070422649383545,4.760563373565674,-0.0031609295401722,-0.000298862461932,0.5972375869750977,0.8020580410957336,0.1781801246339159,-0.0015400595438234,-1.6511648448781393e-06,0.0,0.0,0.0,-0.0021161278709769,-0.0019438136368989,0.9693350195884703,0.245726466178894,-0.0077187581613899,-0.0186906180952799,0.0073483719729528,0.1808893680572509,0.0892509818077087,-0.2066841125488281,99,159,14948,16350
10.6,1788346162689,5.154929637908936,5.492957592010498,-0.0029371473938226,0.0001333031104877,0.5973474979400635,0.8019772171974182,0.1722691781732216,-0.0012043514469751,-2.096666984288829e-05,0.0122776050120592,0.0059679765254259,0.0038650722708553,-0.0024901013821363,-0.0018266150727868,0.9692601561546326,0.2460189014673233,0.0002225008131603,0.0012113014079011,0.0044740981934384,-0.0438676476478576,0.1276769042015075,0.3607892990112304,62,140,14778,13911
10.7,1788346162789,4.901408672332764,5.436619758605957,-0.0028030155226588,2.2186897695064545e-05,0.5988062024116516,0.8008890748023987,0.1729894155869298,-0.0001209660025577,2.707435865507828e-05,0.0014921784168109,-0.0068431440740823,0.0718166977167129,-0.0024569509550929,-0.0017637973651289,0.9694027304649352,0.2454573214054107,0.0041559874897239,-0.0011077731707285,0.0354723824424824,-0.0057533383369445,-0.1398746371269226,-0.3246793746948242,62,140,14778,13911
10.8,1788346162889,4.957746505737305,5.605633735656738,-0.0027213480789214,0.0003277109935879,0.6000648736953735,0.7999466061592102,0.1715478937442126,-0.0006602056634534,-4.504857115033051e-07,0.0,0.0,0.0,-0.0018561566248536,-0.001759298145771,0.9701192378997804,0.2426154166460037,-0.0076539722662762,-0.0125691222534287,-0.0017494874643531,0.2830007672309875,0.0415459871292114,-0.529205322265625,80,136,15025,16005
10.9,1788346162989,4.563380241394043,5.239436626434326,-0.0028450335375964,0.0001138566294685,0.6018478274345398,0.798605740070343,0.1766256120482889,-0.0018510080342476,-1.092210317940758e-06,-0.0092326682060956,-0.0040386314503848,0.0889452546834945,-0.0023865047842264,-0.0017257956787943,0.9703433513641356,0.2417131066322326,0.0049554791057748,0.0026690991121109,0.082169259021395,0.2259802818298339,0.0484574437141418,-1.2032537460327148,58,199,13270,17091
11.0,1788346163089,4.478873252868652,5.577464580535889,-0.0026186793111264,-0.0002392152091488,0.604684591293335,0.796460747718811,0.1781744760789515,0.0025444754436525,3.615703674927664e-05,-0.0015503732720389,-0.0173116438090801,0.1444762647151947,-0.002312634140253,-0.0020274240523576,0.9731578826904296,0.2301178574562072,-0.0093317271138757,0.0171403108565309,0.1855977412761711,0.107005774974823,0.2635030746459961,0.1732616424560547,71,159,13527,16350
11.1,1788346163189,4.394366264343262,6.084506988525391,-0.0031384075991809,-0.00020237499848,0.6116033792495728,0.7911582589149475,0.1803685210401615,0.0012376273493787,-1.3998034567776888e-05,-0.0134392296895384,0.0031946203671395,0.1860599219799041,-0.001846338622272,-0.0023880098015069,0.975467324256897,0.2201236188411712,0.0001207184416043,-0.0061852975291407,0.159486663523349,0.1541863083839416,-0.0113652348518371,0.4236745834350586,71,159,13527,16350
11.2,1788346163289,4.563380241394043,5.154929637908936,-0.0032000837381929,-0.0007204867433756,0.6188493371009827,0.7855028510093689,0.1739709509074999,-0.0029573302532705,6.620006910148724e-05,-0.00865173432976,-6.034779653418809e-05,0.160762071609497,-0.001846338622272,-0.0023880098015069,0.975467324256897,0.2201236188411712,0.0001207184416043,-0.0061852975291407,0.159486663523349,0.1541863083839416,-0.0113652348518371,0.4236745834350586,87,148,13683,18385
11.3,1788346163389,4.535211086273193,6.056337833404541,-0.0038913425523787,-0.0009375296067446,0.623960554599762,0.7814456224441528,0.1823706806101157,-0.0005453587270219,0.000141029126661,0.0634437650442123,-0.0907172858715057,0.2083435803651809,-0.0021058609709143,-0.0027239164337515,0.9786208271980286,0.2056437730789184,-0.0057935709089688,-0.0003966037120241,0.1325953077778926,-0.3217023015022278,-0.347561240196228,-1.776686668395996,87,148,13683,18385
11.4,1788346163489,4.788732528686523,5.267605781555176,-0.0033779768273234,-0.0007175361970439,0.62843918800354,0.7778509855270386,0.1811192540778679,-0.0005448387923453,0.0001563293127161,0.0215265229344367,-0.0068900533951818,0.233858123421669,-0.001769121736288,-0.0027820719406008,0.9796925783157348,0.2004784643650055,0.00062871043653,0.0041959710299054,0.0810033924913825,0.199146032333374,0.0213251113891601,-1.135146141052246,98,113,15646,14728
11.5,1788346163589,4.732394218444824,5.85915470123291,-0.0029426566325128,-0.0011591160437092,0.6327965259552002,0.7743116617202759,0.162289095208365,0.0031422225296369,6.301579328838036e-05,0.0018816093215718,-0.0270132310688495,0.0915077477693557,-0.001769121736288,-0.0027820719406008,0.9796925783157348,0.2004784643650055,0.00062871043653,0.0041959710299054,0.0810033924913825,0.199146032333374,0.0213251113891601,-1.135146141052246,99,82,15452,12736
11.6,1788346163689,4.873239517211914,5.267605781555176,-0.0030330908484756,-0.001453697332181,0.6352093815803528,0.7723326683044434,0.163972293324207,0.0032202343862323,1.7479503859068364e-06,0.0,-4.604887138270897e-09,0.0,-0.0013486891984939,-0.0031295409426093,0.980126142501831,0.1983461827039718,-0.0027128088746702,0.0181580058051326,0.0278072885448024,0.1259525418281555,-0.0431906580924987,-1.7246131896972656,84,97,15028,15366
11.7,1788346163789,4.676056385040283,4.873239517211914,-0.0028376905247569,-0.0017384382663294,0.6369588971138,0.7708905935287476,0.1692620258102014,-0.0005758682525553,-5.959384940493243e-06,-0.0018490822985768,-0.0086411479860544,0.0528356805443763,-0.0011740894988179,-0.0031371749937534,0.9804387092590332,0.1967965066432953,-0.0066632564036858,-0.0108262946246094,0.0461907868964661,-0.0748166441917419,-0.0274427533149719,-0.3992872238159179,64,37,14449,14190
11.8,1788346163889,3.1549296379089355,3.436619758605957,-0.0034004393965005,-0.0010485814418643,0.6379187703132629,0.7700954079627991,0.1539106172908317,0.0011261643699785,-7.379445550047322e-07,0.0001274567475775,0.044178981333971,0.0184317305684089,-0.0018431516364216,-0.0030337693169713,0.9808863401412964,0.1945494413375854,-0.0033276790730163,-0.0124995507134995,0.0700220094053,-1.5865561962127686,-0.0727355480194091,1.193528175354004,9,51,5925,10461
11.9,1788346163989,0.0,1.154929518699646,-0.0032103147823363,-0.0012665956746786,0.6401086449623108,0.7682766914367676,0.1146049553551273,-0.0016692239255896,1.4280129633458196e-05,0.0001361207687295,-0.0117764882743358,0.1122559607028961,-0.0012679882347583,-0.0031756395474076,0.9831570982933044,0.182730421423912,-0.0014291732558421,-0.0111217447990676,0.2248158986727694,-0.0259838700294494,-0.3871618509292602,-0.0414247512817382,9,51,5925,10461
12.0,1788346164089,0.0,0.4507042169570923,-0.0031104711815714,-0.0015351637266576,0.6453642845153809,0.7638671398162842,0.0565067637991493,0.0021712875774829,1.2926833250237332e-05,-0.00343421055004,-0.009787336923182,0.2293629646301269,-0.001351049169898,-0.0031599039211869,0.983660101890564,0.180003136396408,-5.457475886889547e-05,0.0030211605601298,0.1113644025189355,-0.3221930861473083,0.0495526194572448,-0.1191062927246093,9,51,5925,10461
12.1,1788346164189,-1.042253494262695,0.3098591566085815,-0.0029544450808316,-0.0017142561264336,0.6577057242393494,0.753267228603363,0.0007226932493722,0.000175216849271,-3.177135462300215e-07,0.0007875595474615,0.0016127107664942,0.2283369749784469,-0.0012499941512942,-0.0032126111909747,0.9851829409599304,0.1714721173048019,0.0001489735440217,0.0079324579181681,0.2196271371623799,0.4251716732978821,-0.0631927847862243,-0.0844583511352539,108,138,-4238,7285
12.2,1788346164289,-0.7887324094772339,0.7323943376541138,-0.0029212539084255,-0.0017119984840974,0.6676324605941772,0.7444833517074585,-0.000281616831825,0.0016138253221891,2.4224927785190672e-06,-0.001051218365319,-0.0034372254740446,0.2328276932239532,-0.001161316409707,-0.0031627137213945,0.98782217502594,0.1555510908365249,0.0003335077812454,-0.0072730950556444,0.2507225142499081,-0.0874409675598144,-0.0527832508087158,0.0927286148071289,74,133,-5064,4870
12.3,1788346164389,0.0,1.3521126508712769,-0.0029839575290679,-0.0018350792815908,0.6780296564102173,0.7350262403488159,-0.0007307085935423,-0.0020725891434635,3.140685282418154e-06,-0.0044698929414153,0.0004401364130899,0.2473387271165847,-0.0011610016226768,-0.0033076088875532,0.989721655845642,0.142964482307434,-0.0048821451229832,0.001432753104623,0.2428432595219571,0.3386780619621277,-0.0679981708526611,0.0662860870361328,25,204,1648,8480
12.4,1788346164489,3.211267709732056,3.746478796005249,-0.0029812061693519,-0.0017874913755804,0.683760941028595,0.7296977639198303,0.0217955732689263,-0.0011768363578933,2.5714104317497727e-06,0.0011357086477801,0.0002448885934427,0.307470440864563,-0.0009551830589771,-0.003045224584639,0.9917880296707152,0.1278528869152069,0.0063873322843851,-0.0048195301531904,0.169719183940697,0.9731730222702026,0.1375733017921447,-0.7026214599609375,235,232,13287,13806
12.5,1788346164589,5.521126747131348,5.492957592010498,-0.0027247301768511,-0.0018877129768952,0.6880882978439331,0.725619375705719,0.0726005765893697,0.0039853193619845,2.955137378838629e-05,0.0046393806114792,-0.0109156779944896,0.2415413856506347,-0.0005341107025742,-0.0029277484863996,0.9919711351394652,0.1264293789863586,0.0084934101323898,-0.0067474288133342,0.0062589668753301,0.2507276535034179,-0.023312509059906,0.5261363983154297,133,138,17253,13815
12.6,1788346164689,5.549295902252197,4.929577350616455,-0.0025831526145339,-0.0019656952936202,0.690152108669281,0.7236570715904236,0.1960867633745859,-0.0017939345962015,7.777341542912937e-07,0.0,0.0,0.0,-0.0008575143292546,-0.0021552583202719,0.9918533563613892,0.1273640841245651,0.0179446474384748,-0.0009947035982269,6.70084565517192e-05,-0.1334608197212219,0.1630997061729431,-0.2423782348632812,102,120,15132,13960
12.7,1788346164789,5.464788913726807,4.676056385040283,-0.002498357091099,-0.0017262543551623,0.6898977160453796,0.723900556564331,0.1865026940786791,0.0023786716242571,-2.952771979514784e-05,0.0151538662612438,0.007745062932372,-0.02350296638906,-0.0005899770185351,-0.0020398208871483,0.9918094873428344,0.1277088969945907,0.0062277520201573,-0.0104516907981645,-0.014563205433475,-0.0059048533439636,-0.1769876480102539,0.0869216918945312,96,102,15107,14553
12.8,1788346164889,5.295774459838867,4.507042407989502,-0.0014150623464956,-0.0011172250378876,0.6865252256393433,0.7271037101745605,0.1749080991531608,0.0010468034583733,0.0001048975603224,0.0135316457599401,-0.023785812780261,-0.0703320056200027,-0.0001757452264428,-0.0018919948488473,0.9911541938781738,0.1327017247676849,-0.0068219046008996,-0.0154636370736334,-0.0756260229641145,-0.1587857604026794,0.256869375705719,1.112234115600586,101,98,15508,15157
12.9,1788346164989,5.070422649383545,5.239436626434326,-0.00181134568993,-0.0013328675413504,0.6851153373718262,0.7284311056137085,0.1640083220474591,-0.0003963209246608,3.622238089340917e-05,-0.0212864093482494,0.0057988297194242,-0.0945580527186393,-0.0024081133306026,-0.003137725405395,0.9905114769935608,0.1373731344938278,0.0122902407394881,-0.0176199797803147,-0.0678169792730123,-0.1702194809913635,-0.3749046921730041,0.4577922821044922,51,66,15105,15284
13.0,1788346165089,5.126760482788086,4.929577350616455,-0.000592507654801,-0.0014784334925934,0.682870626449585,0.7305376529693604,0.1886309548517084,-0.0027945686528016,0.0002813146058867,0.0639824047684669,-0.0837427154183387,0.0075231692753732,0.0003096060827374,-0.0014428561553359,0.9906580448150636,0.1363615095615387,0.0309451685217911,-0.0537413628897877,0.047998764680564,-0.2108643054962158,0.4390668869018554,0.1968984603881836,58,108,15416,13629
13.1,1788346165189,5.549295902252197,4.535211086273193,-0.0006592106074094,-0.0013188233133405,0.6830522418022156,0.7303680777549744,0.1763603249243822,0.0009498106569392,2.363517276053896e-06,0.0040194825269281,0.0107612079009413,0.0165416616946458,0.0010087424889206,-0.0010444493964314,0.990107536315918,0.1403029710054397,0.0041638053535189,-0.0220443995309781,-0.1010706399687352,0.4152888059616089,0.3645600080490112,-0.6700534820556641,87,63,14579,15769
13.2,1788346165289,5.211267471313477,5.408450603485107,0.0004121545352973,-0.0014720881590619,0.6790693402290344,0.7340724468231201,0.1695614749137442,-0.0005337278798838,5.158738769560609e-05,0.0051738773472607,-0.0291778575628995,-0.0343644432723522,0.0011213673278689,-0.0007474888116121,0.9895896911621094,0.1439117193222046,0.0110720659581247,0.0040033687374327,-0.0398397336496584,-0.1372042894363403,-0.1346670985221862,0.4713907241821289,66,85,14439,13853
13.3,1788346165389,5.183098793029785,4.816901206970215,0.0008568277116864,-0.0019593252800405,0.6769903302192688,0.7359887957572937,0.1715709518810259,0.0010691284393714,0.0001052184658034,-0.000555919657927,-0.0186558235436677,-0.0289350282400846,0.0020081670954823,-0.0009939409792423,0.9895198345184326,0.1443797796964645,-0.0053447326578218,-0.0419100797501115,-0.0217409602516141,0.0065087676048278,0.2681347727775574,-0.8899917602539062,90,138,14354,15862
13.4,1788346165489,5.126760482788086,4.760563373565674,0.0007171193137764,-0.0024690725840628,0.6751384735107422,0.7376865148544312,0.1659190857397937,-0.0028537908933997,8.282554597343205e-06,-0.0130147449672222,-0.0080113057047128,-0.0721573233604431,0.0025713825598359,-0.0017497949302196,0.9891776442527772,0.146690085530281,-0.0066603821901536,-0.010218890776422,0.0143361710864416,-0.039036750793457,-0.0775268673896789,0.4101572036743164,63,168,14423,16614
13.5,1788346165589,5.183098793029785,4.619718074798584,0.0009459679713472,-0.003492783056572,0.6754621267318726,0.7373858690261841,0.168528204512446,-0.0014233136391544,-2.2792444880285867e-06,-0.0103548839688301,0.0007490489515475,-0.0061928615905344,0.0032451841980218,-0.0024576531723141,0.9891340136528016,0.1469606906175613,-0.0147546241785472,-0.0177576039244692,-0.0215734740213076,0.0885748863220214,-0.0292550921440124,-1.318511962890625,63,168,14423,16614
13.6,1788346165689,5.211267471313477,4.647887229919434,0.0009573569986969,-0.0045216782018542,0.6748367547988892,0.7379525303840637,0.1701170843099256,4.156964635981915e-05,-1.021221310620836e-08,-0.0110324397683143,-0.0118757709860801,-0.0092059895396232,0.0036926567554473,-0.0028508584946393,0.989068865776062,0.1473805606365203,-0.0123680399706666,-0.0190471885450866,-0.0161822713078781,-0.2073449492454528,-0.0847564339637756,-0.8165016174316406,84,88,14185,16533
13.7,1788346165789,4.647887229919434,5.070422649383545,0.0009573569986969,-0.0045216782018542,0.6748367547988892,0.7379525303840637,0.1701170843099256,4.156964635981915e-05,-1.021221310620836e-08,-0.0110324397683143,-0.0118757709860801,-0.0092059895396232,0.0038942648097872,-0.0031039025634527,0.989404022693634,0.1451033651828766,-0.0001840570973615,-0.0366959478416156,0.0816208471880262,-0.0722213983535766,0.2568570375442505,-1.336573600769043,64,194,14703,15184
13.8,1788346165889,4.422535419464111,5.6619720458984375,0.0006492394022643,-0.0047802152112126,0.6793794631958008,0.7337713241577148,0.1819452655697063,0.0025515529830438,-2.2271252862050523e-05,0.0039230231195688,0.0156547278165817,0.1272107809782028,0.0035552661865949,-0.0032385708764195,0.9900760054588318,0.1404506117105484,0.0025626390632068,0.0116289206970687,0.127969339646174,-0.1473406553268432,-0.0473657846450805,-0.1512012481689453,68,149,13758,16636
13.9,1788346165989,4.563380241394043,5.943662166595459,0.0011084341676905,-0.0049778022803366,0.6869077682495117,0.7267267107963562,0.174319586365941,-0.0003116053662894,4.42631259727525e-05,0.0087129194289445,-0.0115727027878165,0.201594740152359,0.0041178287938237,-0.0031515900045633,0.9914866089820862,0.1301058381795883,0.0039543887051606,-0.0169741983137589,0.1947681668777949,-0.0323641300201416,0.1767084002494812,-1.076859474182129,111,46,12636,16826
14.0,1788346166089,4.901408672332764,5.211267471313477,0.0011084341676905,-0.0049778022803366,0.6869077682495117,0.7267267107963562,0.174319586365941,-0.0003116053662894,4.42631259727525e-05,0.0087129194289445,-0.0115727027878165,0.201594740152359,0.0041412655264139,-0.0031596524640917,0.992518186569214,0.1219856292009353,-0.0009761868661811,-0.0063067235078198,0.1718062178314283,-0.044293463230133,-0.0432778000831604,1.158407211303711,82,69,12576,17292
14.1,1788346166189,4.901408672332764,5.211267471313477,-0.000558856409043,-0.0047976514324545,0.6980254054069519,0.7160567045211792,0.1687490138640943,-0.0028074621055901,-0.0001027414979027,-0.0576333738863468,0.0700952634215354,0.1063356101512909,0.0033341730013489,-0.0033133821561932,0.993762731552124,0.1114165633916854,0.1097593882671567,-0.1000758728002717,0.2260289650016048,0.2349973917007446,-0.4794475436210632,-1.100809097290039,82,69,12576,17292
14.2,1788346166289,4.788732528686523,5.77464771270752,-0.000558856409043,-0.0047976514324545,0.6980254054069519,0.7160567045211792,0.1687490138640943,-0.0028074621055901,-0.0001027414979027,-0.0576333738863468,0.0700952634215354,0.1063356101512909,0.003946897573769,-0.0023400317877531,0.994198739528656,0.1074613034725189,0.0031457375643356,0.0375553230386084,0.0322697504741152,-0.1168493032455444,-0.180887222290039,1.006821632385254,93,18,15606,15997
14.3,1788346166389,4.985915660858154,4.760563373565674,0.0018383393762633,-0.0045359134674072,0.7038471102714539,0.7103346586227417,0.1879878184758232,-0.0076066237756781,7.689972402720593e-05,0.0285613145679235,-0.0138741172850131,0.164757490158081,0.00409881118685,-0.0021539134904742,0.994138240814209,0.1080176159739494,0.0074529442525902,0.0003815759925247,-0.0354449254513636,-0.0298993587493896,0.0550917983055114,-0.1739397048950195,117,54,14623,15952
14.4,1788346166489,4.619718074798584,5.492957592010498,0.0015756943030282,-0.0037464434280991,0.7061633467674255,0.708037257194519,0.1755103508767093,0.0013664081758217,-6.559081011720627e-05,1.2672121556533966e-05,0.0238971021026372,0.1303870379924774,0.0035097328945994,-0.001918725669384,0.9946041703224182,0.103666290640831,0.0017780413853578,0.0253684814904049,0.1458728954527447,0.0450552105903625,-0.0395768880844116,-0.1617565155029297,117,54,14623,15952
14.5,1788346166589,4.366197109222412,5.126760482788086,0.0016137672355398,-0.0036515349056571,0.708289384841919,0.7059108018875122,0.1821727925205461,-0.000875101650407,-2.5795415450020244e-05,0.0050055314786732,0.0016969584394246,0.142936035990715,0.0029705287888646,-0.001794091425836,0.9954512119293212,0.0952096804976463,0.0041714831670774,0.0309033811823603,0.1448952750021064,0.1949706673622131,0.0315096378326416,-0.6283550262451172,84,113,14155,18444
14.6,1788346166689,4.366197109222412,5.126760482788086,0.0016137672355398,-0.0036515349056571,0.708289384841919,0.7059108018875122,0.1821727925205461,-0.000875101650407,-2.5795415450020244e-05,0.0050055314786732,0.0016969584394246,0.142936035990715,0.0024755606427788,-0.0017340341582894,0.995901584625244,0.0903932154178619,0.0010170440106704,0.0165627079152357,0.1632073489347319,-0.0350462794303894,0.3667147159576416,-1.4446067810058594,84,113,14155,18444
14.7,1788346166789,4.591549396514893,5.746479034423828,0.0006277108332142,-0.0027366620488464,0.7195485830307007,0.6944364905357361,0.1694169200696227,0.0015914749404026,3.720367910021383e-06,-0.0001653781800996,0.0081419106572866,0.1600951254367828,0.0010450780391693,-0.0018833940848708,0.9968473315238952,0.0793144777417182,-0.0041885273902153,0.0154150795734712,0.1524260050053489,-0.2092915773391723,-0.1345781087875366,-0.3333959579467773,84,113,14155,18444
14.8,1788346166889,4.507042407989502,5.408450603485107,-0.0007146907737478,-0.0017963822465389,0.7275336384773254,0.6860693097114563,0.1640827428020401,0.0031663652457795,-4.409179464868405e-05,-0.0012758516240864,0.0134447617456316,0.1484093815088272,0.0007144398987293,-0.0018785698339343,0.9971581101417542,0.0753109827637672,-0.0006216955399774,0.0130751755445037,0.1626622158182441,0.1204662322998046,0.1061257123947143,-0.2170867919921875,94,141,15295,15608
14.9,1788346166989,5.239436626434326,4.732394218444824,-0.0016889333492144,-0.0011756451567634,0.7280573844909668,0.6855130791664124,0.1758364750506277,0.0017096896728532,-0.0001415355011142,-0.0072819269262254,0.0358794294297695,-0.0139278564602136,-0.0005698129534721,-0.0019773598760366,0.9973217248916626,0.0731110349297523,-0.0096365819145536,0.0285511066351516,-0.0152623614723926,-0.0303648710250854,-0.0477967262268066,1.0590944290161133,86,145,15099,15252
15.0,1788346167089,5.295774459838867,4.422535419464111,-0.0024835136719048,-0.0011027955915778,0.7270610928535461,0.6865673065185547,0.1797929217014404,-0.0002272196637238,-6.145464622753073e-05,-0.0144957033917307,0.018637778237462,-0.0427873209118843,-0.0014947326853871,-0.0024049179628491,0.9971930980682372,0.0748191326856613,-0.0037905367949562,0.0488392392587319,-0.0557740439189851,0.0409768819808959,-0.0323280692100524,-0.3883981704711914,106,99,15554,15855
15.1,1788346167189,5.014084339141846,4.422535419464111,-0.0038272934034466,-0.0001697593834251,0.7248029112815857,0.6889456510543823,0.1830666311588095,0.0032085969583439,-5.281451991158659e-05,-0.0110538871958851,0.0222961511462926,-0.0518965385854244,-0.002999142743647,-0.002636045217514,0.9969341158866882,0.0781443789601326,-0.0175092720661195,0.0223075963302601,-0.0552248989927436,0.2374436259269714,-0.0578532218933105,-0.8156299591064453,101,93,16319,15575
15.2,1788346167289,5.436619758605957,5.239436626434326,-0.0047498480416834,0.0005466358270496,0.7240579724311829,0.6897225379943848,0.1823080061577335,-0.000464052497265,-0.0001514940611746,-0.0047508440911769,0.0487739220261573,-0.0449329540133476,-0.0046284673735499,-0.002461246214807,0.9966892600059508,0.0811357572674751,0.0043614870119227,0.004078500335695,-0.052580101348628,-0.1348397731781005,0.0476852655410766,0.6303606033325195,111,112,14751,12693
15.3,1788346167389,5.295774459838867,5.014084339141846,-0.0070937797427177,0.0008765740785747,0.7206912636756897,0.6932194232940674,0.162396112605015,-0.0027502716832908,-7.396763226994776e-05,-0.0568696483969688,0.0573930516839027,-0.1188880205154419,-0.0070860842242836,-0.0044185603037476,0.9963567852973938,0.0848731100559234,-0.0889574923557565,0.1132355433405685,-0.1273997076920833,0.1432114839553833,-0.2281471490859985,0.6266355514526367,58,205,15023,16107
15.4,1788346167489,5.154929637908936,4.591549396514893,-0.0070937797427177,0.0008765740785747,0.7206912636756897,0.6932194232940674,0.162396112605015,-0.0027502716832908,-7.396763226994776e-05,-0.0568696483969688,0.0573930516839027,-0.1188880205154419,-0.0053427815437316,-0.0025679217651486,0.996376931667328,0.084840603172779,0.0226208539259437,0.0067511853924133,0.0289027814289067,-0.2271623611450195,0.1783881783485412,0.5895671844482422,80,58,14524,15685
15.5,1788346167589,4.957746505737305,4.760563373565674,-0.0051499484106898,0.0007225102744996,0.7199227213859558,0.69403475522995,0.1839647631014178,-0.0074674905431935,0.0001689170855652,0.0668384805321693,-0.0948781222105026,0.0511217303574085,-0.0051523633301258,-0.0025485521182417,0.9962173700332642,0.0867065638303756,0.0014253129817714,-0.0192560211713714,0.0199669491367524,0.1427861452102661,0.4046617150306701,0.4687728881835937,81,59,14404,13519
15.6,1788346167689,4.957746505737305,4.760563373565674,-0.00491379853338,0.0007958966307342,0.7191798686981201,0.6948060393333435,0.1792141007713653,0.0025738888275818,3.4145771859582387e-06,0.0046411622315645,-0.0354794561862945,0.0473143272101879,-0.0043160049244761,-0.002480112016201,0.9962895512580872,0.0859205350279808,0.0087232187195535,-0.053150484301257,0.0504395058080948,-0.0946511030197143,-0.2996958494186401,0.7349605560302734,83,90,13850,17033
15.7,1788346167789,5.042253494262695,5.633802890777588,-0.0042774258181452,0.0003791631897911,0.7210140228271484,0.6929071545600891,0.1660578560938996,0.0012093682984264,0.0001279231404116,0.0096585806459188,-0.0296797938644886,0.0389625132083892,-0.0031230421736836,-0.0025503477081656,0.9965558052062988,0.0828277766704559,-0.0013731996154999,-0.0219156064697289,0.0364552239432901,-0.1068106293678283,0.0632382035255432,0.4991626739501953,85,107,13750,14071
15.8,1788346167889,4.816901206970215,5.802816867828369,-0.0040493411943316,-0.0002814508043229,0.721805214881897,0.6920843720436096,0.1773720688875038,0.0012557854109083,0.0001164163476504,-0.0096250148490071,-0.0186849161982536,0.0340283066034317,-0.0026844684034585,-0.0026660962030291,0.9966667890548706,0.0814921483397483,0.0086338028938005,-0.0187517660226089,0.0453416604066101,-0.2970545291900635,-0.1297441720962524,0.6220512390136719,67,164,14499,13516
15.9,1788346167989,4.788732528686523,5.577464580535889,-0.0034699421375989,-0.0007047614781185,0.7234333157539368,0.6903852820396423,0.1769686898281161,0.0001789200209988,3.696007226045415e-05,-0.0011808936251327,-0.0141640733927488,0.0538513474166393,-0.002374717965722,-0.0025992607697844,0.9968496561050416,0.0792367979884147,0.0109622140359969,-0.0078379198039312,0.0548411890992966,-0.0572200417518615,-0.1005659103393554,0.938568115234375,87,128,14679,14338
16.0,1788346168089,4.985915660858154,4.788732528686523,-0.0033596863504499,-0.0008117598481476,0.7253634929656982,0.6883573532104492,0.1772089116297877,0.0019144570335447,3.905327169358891e-06,-0.0058894427493214,-0.0108473971486091,0.0469730235636234,-0.0016654757782816,-0.0028141308575868,0.9972070455551147,0.074615329504013,-0.0015481243054351,-0.0036182297286563,0.0613451282841775,0.157086431980133,-0.0433274507522583,0.8402595520019531,91,75,14032,16897
16.1,1788346168189,4.732394218444824,5.352112770080566,-0.0024971473030745,-0.0012173412833362,0.7281939387321472,0.6853654980659485,0.1762008320265368,-0.0006948711579733,2.198042313431032e-05,0.0093550365418195,-0.0220437608659267,0.0519781410694122,-0.0015200208872556,-0.0025107497349381,0.9973114132881165,0.0732218697667121,0.0123924476909548,-0.0050552967395336,0.0556502120509919,-0.1038592457771301,-0.1374555826187133,0.8251657485961914,77,124,15059,14995
16.2,1788346168289,4.873239517211914,5.183098793029785,-0.0022381665185093,-0.0015620104968547,0.7289237976074219,0.6845893859863281,0.1729604889591529,0.001338164403421,7.406778191611055e-05,-0.0030245971865952,-0.0173500552773475,0.0431816317141056,-0.0004256954416632,-0.002825946547091,0.9976187348365784,0.0689112693071365,-0.003000889914922,0.0031487121738585,0.077144699722908,-0.2142319083213806,0.2708083391189575,1.0257043838500977,77,124,15059,14995
16.3,1788346168389,4.619718074798584,4.816901206970215,-0.0019998191855847,-0.0019279387779533,0.7296198010444641,0.6838473677635193,0.1788826898288115,0.0015820448166939,6.58196573565691e-05,-0.0044057909399271,-0.0180637743324041,0.042990293353796,-0.0006666472181677,-0.0026382319629192,0.9977838397026062,0.0664842501282692,-0.0024552984722165,0.0080823903860853,0.0554776459539401,0.4547832608222961,-0.2492532730102539,0.427347183227539,113,82,15748,16578
16.4,1788346168489,4.8450703620910645,5.211267471313477,-0.0021240678615868,-0.0017162591684609,0.7338676452636719,0.6792871356010437,0.1789524590190644,0.0012812755671447,2.105588086061613e-05,0.0031955724116414,-0.0098218685016036,0.0502837710082531,-0.000566741451621,-0.0026713320985436,0.9979067444801332,0.0646130815148353,0.0077213269382892,-0.0101275993150607,0.053950429346419,-0.4415374994277954,-0.0766264796257019,-0.0309867858886718,65,122,14842,14953
16.5,1788346168589,4.901408672332764,5.464788913726807,-0.0023943367414176,-0.0016224905848503,0.7353540062904358,0.6776769757270813,0.1723585851735627,-0.005818719435596,-2.294543490224191e-05,-0.0054408251307904,0.0238900892436504,0.055642582476139,-0.0016615502536296,-0.0035107834264636,0.9980349540710448,0.0625387206673622,-0.047894131736816,0.055139538403608,0.0191054429546126,-0.0405579805374145,0.0408915281295776,0.2024955749511718,113,38,14774,13971
16.6,1788346168689,5.126760482788086,5.746479034423828,-0.0023943367414176,-0.0016224905848503,0.7353540062904358,0.6776769757270813,0.1723585851735627,-0.005818719435596,-2.294543490224191e-05,-0.0054408251307904,0.0238900892436504,0.055642582476139,-0.0025759143754839,-0.0043675089254975,0.9980263113975524,0.0625923946499824,-0.0597627743878363,0.0562860165742077,-0.0034791562177011,0.0723947882652282,-0.0341333746910095,-0.5377359390258789,81,101,15091,12689
16.7,1788346168789,4.929577350616455,4.929577350616455,-0.001496501150541,-0.0019268438918516,0.7369754910469055,0.675915002822876,0.1735535599431507,0.0007749718733759,0.0001136908595234,0.0092918826267123,-0.0143969375640153,0.0209713317453861,0.0004695001989603,-0.0023215347900986,0.9980900883674622,0.0617309138178825,0.0023613384658638,-0.0012989231287766,-0.0333007285869098,0.1903971433639526,0.2939933538436889,-0.9558887481689452,72,79,14966,12938
16.8,1788346168889,5.239436626434326,5.239436626434326,-0.0013324714964255,-0.0017861421220004,0.7353742122650146,0.6776576042175293,0.1739878329272811,0.0009975974825396,1.3955180003130486e-05,0.0021327044814825,0.014536396600306,-0.0392627939581871,-2.754293382167816e-05,-0.0023107137531042,0.998038411140442,0.0625615417957305,-0.0135815212885229,0.0100908310699677,-0.0189556033855361,-0.2324409484863281,-0.199601948261261,0.157475471496582,97,49,14625,14222
16.9,1788346168989,5.042253494262695,4.985915660858154,-0.0012207955587655,-0.0018384652212262,0.7349528670310974,0.6781145930290222,0.1734813769341781,0.0011427815025249,2.1298374200028008e-05,0.0014954950893297,-0.0046895202249288,-0.0250957533717155,0.0001309420913457,-0.0020667314529418,0.9980044960975648,0.0631098970770835,0.0086105253759396,0.0061323174223226,-0.0063338703175794,0.027371346950531,0.1251368522644043,0.6387109756469727,97,46,15007,15033
17.0,1788346169089,5.098591327667236,4.619718074798584,-0.0015107045182958,-0.0014177473494783,0.7344249486923218,0.6786867380142212,0.1763040652600851,-0.0004918307937102,-3.076478150547356e-05,0.0033643194474279,0.014975075609982,-0.0232811197638511,0.0003645401448011,-0.0022660866379737,0.9979287981987,0.0642883479595184,-0.0010544290013464,-0.0115173265155175,-0.0107383684339506,0.0934507846832275,0.1818262338638305,0.5657072067260742,87,73,14682,16979
17.1,1788346169189,4.985915660858154,4.8450703620910645,-0.001145694986917,-0.0019888244569301,0.7340889573097229,0.6790494918823242,0.1680833211894509,0.0001983527110281,1.2501927869530476e-08,0.0,-3.540368886945089e-09,0.0,0.0007029864937067,-0.0022508176043629,0.997951328754425,0.0639337748289108,-0.0069391083668264,-0.009760454100256,0.0050656757403319,0.1487100720405578,0.3576021790504455,0.2864980697631836,81,149,15135,15977
17.2,1788346169289,5.154929637908936,4.619718074798584,-0.0009898418793454,-0.0023700660094618,0.7342631816864014,0.6788600087165833,0.1804317424029972,0.0003032246419487,-1.5375738729993322e-06,-0.0088588064536452,-0.0027802851982414,-0.001254713977687,0.000495464541018,-0.0024460544809699,0.9979541897773744,0.0638848170638084,-0.0039070555631189,0.0058484587520508,0.0044709852740355,0.0517652630805969,-0.0019060373306274,0.6550521850585938,74,122,14538,16849
17.3,1788346169389,3.3521127700805664,4.676056385040283,-0.0009898418793454,-0.0023700660094618,0.7342631816864014,0.6788600087165833,0.1712991994667919,-0.0003983839604699,-1.3443684137990514e-06,0.0,-2.6168152089667274e-09,0.0,-0.0002970248460769,-0.0021540699526667,0.998055100440979,0.0623014010488987,0.0066291576963548,0.0103852634838982,0.0898977428811499,-1.3638536930084229,-0.081999659538269,0.4842805862426758,117,82,4226,10737
17.4,1788346169489,0.6197183132171631,2.929577350616455,-0.0014515348011627,-0.0015850021736696,0.7378565073013306,0.6749541163444519,0.1179422003892211,-0.0017767409587901,-1.2034062384556553e-05,0.0042743259109556,-0.0010923545341938,0.1584984809160232,-0.0003055213019251,-0.00230332929641,0.9986770153045654,0.0513690747320652,-0.0057856823194098,-0.0074058763406005,0.3124648181964592,-0.8069105744361877,-0.1788912415504455,0.7360734939575195,1,65,0,7722
17.5,1788346169589,-1.887323975563049,1.94366192817688,-0.0021760861855,-0.0012329348828643,0.756615936756134,0.6538547277450562,0.0188015731697824,0.0001974340574178,1.3141565669689426e-06,-0.0014991593779996,0.0108698913827538,0.4517515003681183,-0.0009018378332257,-0.0022960770875215,0.9996598362922668,0.0259660836309194,0.0006253074198759,0.0074541402606576,0.502464777895011,-0.7195109128952026,0.1149473190307617,0.0260896682739257,1,65,0,7722
17.6,1788346169689,-2.197183132171631,1.6619718074798584,-0.0021760861855,-0.0012329348828643,0.756615936756134,0.6538547277450562,0.0188015731697824,0.0001974340574178,1.3141565669689426e-06,-0.0014991593779996,0.0108698913827538,0.4517515003681183,-0.00070695951581,-0.0022792480885982,0.9999745488166808,0.0067217145115137,-0.0016092450602591,-0.0070747830823775,0.6167920843467265,0.3372144699096679,-0.1983208656311035,0.0423793792724609,1,65,0,7722
17.7,1788346169789,-1.887323975563049,2.0,-0.0017987552564591,-0.0015768551966175,0.7918726801872253,0.6106815338134766,-0.0025640144074807,-0.0072846252776096,-2.1489281237625026e-07,-0.0049712499603629,-0.0098361987620592,0.5459639430046082,-0.00070695951581,-0.0022792480885982,0.9999745488166808,0.0067217145115137,-0.0016092450602591,-0.0070747830823775,0.6167920843467265,0.3372144699096679,-0.1983208656311035,0.0423793792724609,89,79,-7568,6503
17.8,1788346169889,-1.6056338548660278,1.6338027715682983,-0.001638897228986,-0.0016271213535219,0.8040185570716858,0.594599723815918,0.0038876659055485,-0.0034848258880564,1.5646794620343843e-06,0.001444362103939,-0.0061477767303586,0.605839192867279,-0.0002036094665527,0.0021595954895019,-0.9977604746818542,0.0668525174260139,0.0014217353289861,-0.0129971987596998,0.4942031132058781,-0.0366180539131164,-0.03865247964859,-0.029306411743164,71,23,-5925,5084
17.9,1788346169989,-1.380281686782837,1.4647886753082275,-0.0010875068837776,-0.0018048677593469,0.8251609206199646,0.5648938417434692,0.0037472290528538,-0.0042228258168765,1.289296096053342e-06,0.003154577454552,-0.0101529154926538,0.4703210294246673,-0.0002712784335017,0.0021260399371385,-0.9969232678413392,0.0783543214201927,0.0011359447775598,-0.0038045554883344,0.4613315648348641,-0.1633160710334777,0.050339937210083,0.0391349792480468,71,23,-5925,5084
18.0,1788346170089,-1.4647886753082275,1.2676056623458862,-0.0011699774768203,-0.0017479006201028,0.831916868686676,0.5548962354660034,0.0012882885207601,0.0022015657400594,1.8299677813498657e-06,6.930108065716922e-05,0.0029790659900754,0.4803033471107483,-0.0001893686130642,0.0020270431414246,-0.9945725798606871,0.1040251478552818,0.0037206858444954,-0.0019730609730495,0.4452782073808822,0.0582396388053894,-0.0703957676887512,0.0730648040771484,78,80,-6827,6333
18.1,1788346170189,-1.5492957830429075,1.2957746982574463,-0.0007687769830226,-0.0018996740691363,0.8484159708023071,0.5293260812759399,-0.0040851274525072,-0.0026217077937859,-4.0541286521221424e-08,0.0006291377940215,-0.0111988130956888,0.443678468465805,-0.0008277539163827,0.0018070545047521,-0.9901222586631776,0.1401924341917038,0.0035078048313636,-0.0089349883815308,0.4894062555582322,0.1427174806594848,-0.1604900360107422,0.0566720962524414,44,90,-5798,5924
18.2,1788346170289,-1.0704225301742554,1.0985915660858154,-0.000314264500048,-0.0019275352824479,0.8604161739349365,0.5095882415771484,0.0078801191491203,-0.0013772823898262,-1.0902483148349598e-07,0.0056201391853392,-0.0100769400596618,0.3996557295322418,-0.0010332278907299,0.0016762362793087,-0.9885390996932985,0.1509526073932647,0.0010847589999346,-0.0047442716956776,0.2986879122738163,-0.2069014906883239,-0.1052437424659729,0.0600414276123046,55,77,-5166,5166
18.3,1788346170389,-1.1267606019973757,1.2394366264343262,-0.0002546154428273,-0.0019562246743589,0.8638274073600769,0.5037838816642761,0.0027538073103988,-0.0032149762613686,5.989361241321102e-07,0.0004743423487525,-0.0035453655291348,0.3052125871181488,-0.0009010126814246,0.0016205580905079,-0.9866872429847716,0.1626187860965728,0.0026308947014119,0.0051514326194522,0.3204554797933228,-0.1106652021408081,0.0731616616249084,0.03033447265625,128,105,-5628,5205
18.4,1788346170489,-1.154929518699646,1.3239436149597168,-0.0001365204225294,-0.0018686850089579,0.8782262802124023,0.4782417714595794,0.0046067471540165,0.0016224914610104,1.7244495390151034e-07,0.0024490640498697,-0.0089241322129964,0.4011316895484924,-0.0010974667966365,0.0015280432999134,-0.9828554391860962,0.1843681037425995,0.0015294847606879,-0.0075049306104843,0.3743101132018534,0.0481712222099304,-0.1248815059661865,-0.0438776016235351,47,30,-4966,4481
18.5,1788346170589,-1.154929518699646,1.3239436149597168,0.0001049933489412,-0.0018155267462134,0.8859435319900513,0.4637896418571472,-0.0023411029959309,-0.0061953794152991,3.499441479205818e-07,0.0037817107513546,-0.0040898527950048,0.322164386510849,-0.0012253271415829,0.0013446453958749,-0.9802547097206116,0.1977304965257644,0.0035502159909189,-0.0055029786132219,0.3255122112058253,0.1365326046943664,0.0462470054626464,0.0144033432006835,47,30,-4966,4481
18.6,1788346170689,-0.7042253613471985,0.6478873491287231,0.0001446382375434,-0.0018672535661607,0.8908578753471375,0.4542783498764038,0.0013572015038664,-0.0015869228860783,-1.940320367211433e-06,-0.0005435866769403,-0.0023539427202194,0.3321728110313415,-0.0013446509838104,0.0015776418149471,-0.9754626750946044,0.2201550751924514,-0.0080954040414816,-0.0083718007428985,0.2016669444989851,0.2921758890151977,-0.3454470634460449,0.0489711761474609,47,30,-4966,4481
18.7,1788346170789,-0.6760563254356384,0.7605633735656738,-0.0001802254701033,-0.0020973505452275,0.8983485102653503,0.4392784833908081,-5.581046003839384e-05,-0.001146986565441,1.3540028867908062e-06,-0.0036338553763926,0.0056297550909221,0.1638312190771103,-0.0012747645378112,0.0016716197133064,-0.9748231768608092,0.2229693233966827,-0.0036731869930374,0.0041997877141426,0.1446941011046976,-0.0005303621292114,0.2290542125701904,0.0490694046020507,47,30,-4966,4481
18.8,1788346170889,1.154929518699646,1.774647831916809,-1.7743033822625875e-05,-0.002222872339189,0.8985278010368347,0.4389108419418335,-0.0010212932854005,0.0003155522160644,2.7902575599546037e-06,-0.0016543917590752,-0.0081318113952875,0.0164594668895006,-0.0015584556385874,0.0020824177190661,-0.9740106463432312,0.2264873534440994,-0.0156044389679896,-0.0021289283557653,0.0432083949486866,2.040156126022339,0.4058401584625244,-0.09844970703125,217,371,7909,13402
18.9,1788346170989,4.14084529876709,6.8450703620910645,-0.0013369584921747,-0.0031242598779499,0.9017388820648192,0.432267814874649,0.1106829093308534,-0.0034311187041668,-3.233990512749585e-05,-0.0078158834949135,-0.0044204490259289,0.2130331397056579,-0.0021403655409812,0.0010466240346431,-0.97010999917984,0.2426540106534958,0.0499105944463149,-0.0490458345309051,0.3143699932192961,1.1846842765808103,-0.3875012993812561,-0.3415212631225586,146,243,10020,16703
19.0,1788346171089,4.478873252868652,6.816901206970215,0.0010015564039349,-0.0021618218161165,0.9060065746307372,0.423256903886795,0.1566508065613962,0.0035439526442788,0.0002890499439512,0.0579290129244327,-0.0532003976404666,0.3070286810398102,-0.0011970298364758,0.0014012539759278,-0.9676096439361572,0.252444326877594,-0.0006700459771987,0.0071496280372361,0.2577963188488864,-0.2957627177238464,-0.0530435442924499,0.1714973449707031,215,201,15190,15958
19.1,1788346171189,4.309859275817871,6.3380279541015625,0.0001392178819514,-0.002002504421398,0.9136484265327454,0.4065004587173462,0.1779413704695455,0.0036882471377828,3.204385688579761e-05,-0.0042029544711112,-0.0035694807302206,0.253347635269165,-0.0012931497767567,0.0015201950445771,-0.9649749994277954,0.262334406375885,-0.0071628670186429,0.0029518492392653,0.2418194158556497,-0.0632882118225097,-0.2337825894355774,0.282440185546875,93,141,13761,14712
19.2,1788346171289,4.169013977050781,6.309859275817871,1.5057099517434835e-05,-0.0015415740199387,0.9188337326049804,0.3946418166160583,0.1758060296125083,-0.0018469010971262,-6.579658821605233e-06,0.0124295661225914,-0.0061243064701557,0.2629661858081817,-0.000877090729773,0.0012357179075479,-0.9625985026359558,0.2709277868270874,0.0172352477903098,0.0023010498857006,0.2589722409380272,0.0293796062469482,-0.0963431596755981,0.4375581741333008,97,110,13067,18089
19.3,1788346171389,4.0,6.056337833404541,-0.0001584216952323,-0.0010827634250745,0.923095703125,0.3845687210559845,0.1780505162568195,-0.0019817930271038,-1.5229666061177462e-05,0.0102692237123847,0.0025585619732737,0.2498774379491806,-0.001114129088819,0.0005548559129238,-0.956981122493744,0.2901477813720703,0.011273992965627,-0.0347595638296841,0.2556017622353951,0.2426238059997558,-0.1055273413658142,0.3749723434448242,94,48,13649,16690
19.4,1788346171489,4.0,6.056337833404541,-0.0001584216952323,-0.0010827634250745,0.923095703125,0.3845687210559845,0.1780505162568195,-0.0019817930271038,-1.5229666061177462e-05,0.0102692237123847,0.0025585619732737,0.2498774379491806,-0.0010749697685241,0.0006111757829785,-0.9538928270339966,0.3001448512077331,-0.0010074435596818,0.0062447786180796,0.2661909985655575,0.0258909463882446,0.1521355509757995,0.8750276565551758,94,48,13649,16690
19.5,1788346171589,4.253520965576172,5.690140724182129,-0.0001584216952323,-0.0010827634250745,0.923095703125,0.3845687210559845,0.1780505162568195,-0.0019817930271038,-1.5229666061177462e-05,0.0102692237123847,0.0025585619732737,0.2498774379491806,-0.0010749697685241,0.0006111757829785,-0.9538928270339966,0.3001448512077331,-0.0010074435596818,0.0062447786180796,0.2661909985655575,0.0258909463882446,0.1521355509757995,0.8750276565551758,94,48,13649,16690
19.6,1788346171689,4.253520965576172,5.492957592010498,0.0020706201903522,-0.0011210163356736,0.9358460903167723,0.3524010777473449,0.1695519540391345,0.0068720700565184,0.0001042337273773,0.0118425656110048,-0.0280160959810018,0.2746196985244751,-0.0026519680395722,-0.000463780015707,-0.9445229172706604,0.328434556722641,0.0014312552306496,-0.0068084379488364,0.2628070212834371,-0.1592673659324646,-0.2751268148422241,-1.5137367248535156,123,87,12788,18721
19.7,1788346171789,4.2816901206970215,5.88732385635376,0.0020969435572624,-0.0011249535018578,0.9423298835754396,0.3346771895885467,0.1756372621793803,-0.0005615192015053,1.6793368320685884e-05,0.0056190467439591,0.0095520373433828,0.2763879597187042,-0.0024407124146819,-0.0005868235602974,-0.9396456480026244,0.3421399295330047,-0.0028415692789168,0.0072423026111128,0.2570776116304791,-0.0070620775222778,-0.0161446332931518,-0.0738420486450195,123,87,12788,18721
19.8,1788346171889,4.450704097747803,6.169013977050781,0.0025856590364128,-0.0011953824432566,0.9466021060943604,0.322391539812088,0.1729333836104462,0.0061567537103285,5.359798667175418e-05,0.0009656952461227,-0.0151212522760033,0.2584482133388519,-0.0028212685137987,-0.0007713921368122,-0.9374400973320008,0.3481343686580658,0.0022457919326811,-0.0168272816440593,0.2541005585743406,0.4970260262489319,-0.0297159552574157,-0.3964862823486328,144,96,14447,13537
19.9,1788346171989,4.507042407989502,5.633802890777588,0.0025537018664181,-0.0012828543549403,0.9482132196426392,0.3176219165325165,0.1731462423543885,0.0035402117160044,4.833560691232706e-05,-0.0030953686218708,2.021910040639341e-05,0.1976531445980072,-0.0027322154492139,3.297440707683563e-05,-0.9343841075897216,0.3562566936016083,-0.0259643972691653,0.0127520866872166,0.1375850868181835,-0.3818647861480713,-0.2184543013572693,0.1529445648193359,106,39,14158,15277
20.0,1788346172089,4.478873252868652,5.408450603485107,0.0024887272156774,-0.0018597766757011,0.9513320922851562,0.3081519603729248,0.1779336219644484,0.0061283874386563,9.768321056109836e-05,0.0633981823921203,-0.0672297179698944,0.176635056734085,-0.0028240848332643,0.0003818552941083,-0.9330546855926514,0.3597234785556793,0.0452655753051208,-0.050856754272547,0.1544559136963453,-0.0176954865455627,-0.3012901544570923,-0.2384834289550781,106,39,14158,15277
20.1,1788346172189,4.619718074798584,5.88732385635376,0.0023951067123562,-0.001825446030125,0.9531821012496948,0.3023819625377655,0.1723900636733998,0.0051704412599521,4.898162169386127e-05,-0.0058878320269286,-0.0110950544476509,0.0784176662564277,-0.0030959378927946,-0.0001301290467381,-0.930621325969696,0.3659703731536865,-0.0136386622660139,-0.0129488545341944,0.1040752088876821,-0.2669463753700256,-0.3733934164047241,-0.1420316696166992,78,98,13295,14711
20.2,1788346172289,4.563380241394043,5.126760482788086,0.002040427410975,-0.0020182044245302,0.9555152654647828,0.294927567243576,0.1596549033649408,0.0092705647020711,5.218887936803596e-06,-0.0077765886671841,0.0147419739514589,0.154588833451271,-0.0027716802433133,0.0003731157630681,-0.926892638206482,0.3753160834312439,-0.0067999459618128,0.017164555538558,0.1486798760130005,-0.0280463099479675,-0.1745210289955139,0.4732580184936523,95,63,13544,17940
20.3,1788346172389,4.535211086273193,6.11267614364624,0.0021246864926069,-0.0022199938539415,0.95778226852417,0.2874780595302582,0.1702314048855714,-0.0003203115112211,8.121823117310896e-06,-0.0025544420350342,0.0037021555472165,0.1291497349739074,-0.00298972427845,0.000514792278409,-0.9243663549423218,0.3814940750598907,-0.0144320512404358,0.0177356207599898,0.1258460744981314,0.0304676294326782,0.0549797415733337,0.3539152145385742,83,127,13723,14336
20.4,1788346172489,5.070422649383545,4.788732528686523,0.0021246864926069,-0.0022199938539415,0.95778226852417,0.2874780595302582,0.1702314048855714,-0.0003203115112211,8.121823117310896e-06,-0.0025544420350342,0.0037021555472165,0.1291497349739074,-0.0030654277652502,0.0006507690995931,-0.9234275817871094,0.3837599158287048,0.0052671319278442,0.0261151423825086,-0.0188166259733869,0.0833718180656433,-0.152265727519989,-0.4874143600463867,93,136,15363,15492
20.5,1788346172589,5.098591327667236,5.211267471313477,0.0019293972291052,-0.0027929379139095,0.9581711292266846,0.2861756384372711,0.1756406865265974,-0.0007463080638454,-5.992927153371065e-06,-0.0108545199036598,-0.0018988230731338,-0.0668677166104316,-0.0035109128803014,0.0007465733215212,-0.9235968589782716,0.3833483159542084,-0.013078432397647,-0.0187798161754382,-0.0223472727431462,0.0721664428710937,-0.1892930269241333,-0.2917509078979492,93,136,15363,15492
20.6,1788346172689,5.042253494262695,4.704225540161133,0.001807676628232,-0.0031903870403766,0.9575515985488892,0.2882386445999145,0.1732862647899663,-0.0012677449257813,-2.9817223034590304e-05,-0.0167505145072937,0.0002963702136185,-0.0855819433927536,-0.0036540022119879,0.0013613766059279,-0.9251388907432556,0.3796087205410003,-0.0187084831189422,-0.027836540428525,-0.055614961109297,-0.1126664280891418,0.0779347419738769,-0.0323095321655273,74,165,14931,16574
20.7,1788346172789,4.816901206970215,5.633802890777588,0.0010526059195399,-0.0032420363277196,0.9574671983718872,0.2885219752788543,0.1772259501739531,-0.0001281836665186,1.5534889989988293e-05,-0.0108460579067468,0.028701739385724,-0.0118686715140938,-0.0032072849571704,0.0023869117721915,-0.9244035482406616,0.3813950419425964,-0.0112735824622495,0.0019145690217847,0.0499111093848315,0.040164291858673,0.0499237775802612,0.6268949508666992,62,34,14015,15989
20.8,1788346172889,5.014084339141846,5.6619720458984375,0.0003944780910387,-0.0041126878932118,0.9583051204681396,0.2857169806957245,0.1765950674905883,0.0012677157625853,-2.509467066952595e-05,-0.0056067369878292,0.0068086865358054,0.018057681620121,-0.0027997447177767,0.0029975026845932,-0.92400062084198,0.3823688924312591,-0.0151603427270392,0.0226332626758121,0.0394364159161503,-0.1025387644767761,-0.3577419519424438,0.8316154479980469,77,80,14925,12824
20.9,1788346172989,4.816901206970215,5.85915470123291,0.0004518334753811,-0.0041040149517357,0.958556830883026,0.2848714590072632,0.1724315846040854,-0.0010807303686806,4.225291697133207e-05,0.0013012243434786,-0.0027885728050023,0.0440238714218139,-0.0029288902878761,0.0029024519026279,-0.9226238131523132,0.3856789767742157,0.0040128927502853,0.0075312708403161,0.0690931480419069,0.1562418341636657,0.2179137468338012,1.3479299545288086,66,116,14737,13293
21.0,1788346173089,4.929577350616455,4.816901206970215,0.0004937176126986,-0.0040940856561064,0.9592762589454652,0.2824396789073944,0.1809057827310684,0.0018756630730999,-2.648916984029475e-05,0.0029637974221259,0.0069505898281931,0.0569981001317501,-0.0023144651204347,0.0029689967632293,-0.9213117361068726,0.3888067007064819,0.0117562547485625,0.030405494515881,0.0640700325919817,0.2394106984138488,-0.079728364944458,0.367919921875,77,58,14343,16535
21.1,1788346173189,4.929577350616455,4.816901206970215,0.0004937176126986,-0.0040940856561064,0.9592762589454652,0.2824396789073944,0.1809057827310684,0.0018756630730999,-2.648916984029475e-05,0.0029637974221259,0.0069505898281931,0.0569981001317501,-0.0018678018823266,0.0032323049381375,-0.9208024740219116,0.3900114893913269,-0.0088073897281684,0.0141320982199194,0.0175381952109513,-0.2213129997253418,0.0571696758270263,0.6121139526367188,77,58,14343,16535
21.2,1788346173289,5.154929637908936,5.211267471313477,-0.0012889220379292,-0.0036358719225972,0.9602773785591124,0.2790206670761108,0.1829059868663653,0.0021682866307059,2.494808556351939e-05,0.0561348535120487,-0.0249294862151145,0.0347545035183429,-0.0012348676100373,0.0042217131704092,-0.9214783310890198,0.3884050548076629,0.0697285190217072,-0.0345340072969261,0.0493102584046284,0.0448213219642639,-0.0865967869758606,-0.1336383819580078,77,58,14343,16535
21.3,1788346173389,5.014084339141846,5.436619758605957,-0.0004528515273705,-0.0031961826607584,0.9612155556678772,0.2757789492607116,0.1709488143863145,0.0065846436730298,3.859642303272173e-05,-0.0009025927283801,-0.0081615196540951,0.0266087222844362,-0.0017480114474892,0.0023862794041633,-0.9199433326721193,0.3920402824878692,0.0132579482759903,-0.0115968276324852,-0.0165262745762931,0.1773350238800048,0.0382057428359985,0.3846263885498047,89,98,15051,12832
21.4,1788346173489,5.211267471313477,5.098591327667236,6.146554369479418e-06,-0.002885972848162,0.9609400033950806,0.2767419815063476,0.1702838461210567,-0.0010950010945504,4.662746101635174e-05,0.0120945675298571,-0.0100459521636366,-0.0285899639129638,-0.0016446048393845,0.0023666471242904,-0.920874297618866,0.389848917722702,-0.0070671793016518,0.0075266328546524,-0.0598760809255663,-0.0144550800323486,-0.0477573871612548,1.1640148162841797,117,61,16301,13203
21.5,1788346173589,5.211267471313477,5.098591327667236,6.146554369479418e-06,-0.002885972848162,0.9609400033950806,0.2767419815063476,0.1702838461210567,-0.0010950010945504,4.662746101635174e-05,0.0120945675298571,-0.0100459521636366,-0.0285899639129638,-0.001188475638628,0.0023132842034101,-0.9213667511940002,0.3886858522891998,0.0047729489750426,0.0201318839870321,-0.0192293332014061,-0.2223418951034546,0.065877079963684,0.1172647476196289,117,61,16301,13203
21.6,1788346173689,4.873239517211914,5.6619720458984375,-0.0001545919221825,-0.0027525755576789,0.9603393077850342,0.2788204550743103,0.1660186199319593,0.0052588359665732,-1.4523854342522563e-06,0.0,1.1601789529080975e-09,0.0,-0.0015319921076297,0.0024387016892433,-0.9208732843399048,0.3898513615131378,0.0035694355089642,-0.0089596508847009,0.0362986701302324,-0.0932709574699401,-0.0480253100395202,0.602081298828125,73,112,14268,14376
21.7,1788346173789,4.732394218444824,5.830986022949219,-0.0001545919221825,-0.0027525755576789,0.9603393077850342,0.2788204550743103,0.1660186199319593,0.0052588359665732,-1.4523854342522563e-06,0.0,1.1601789529080975e-09,0.0,-0.0011506211012601,0.0027903104200959,-0.9201194047927856,0.3916264176368713,-0.0011720187608227,-0.0036309964996769,0.0444347855375337,-0.1603441834449768,0.0225346684455871,0.0635862350463867,72,191,14506,17191
21.8,1788346173889,4.676056385040283,4.929577350616455,-0.000568791758269,-0.0035086583811789,0.961585521697998,0.2744823694229126,0.1706934878911611,0.0066151229731105,-2.680813921574206e-06,-0.0150247933343052,-0.0207674168050289,0.0400030985474586,-0.0014055129140615,0.002928290516138,-0.9197177290916444,0.3925670981407165,-0.0114151900241067,-0.0092198442334181,0.051408180447504,0.2653288841247558,0.162773847579956,0.2175331115722656,78,159,15034,16795
21.9,1788346173989,5.605633735656738,4.2816901206970215,-0.0004346609348431,-0.0037329737097024,0.9613889455795288,0.2751678824424743,0.1740903615027968,-0.0021403548443968,-2.594597595711533e-06,-0.0033348503056913,-0.0095414919778704,-0.0588069073855876,-0.002069478854537,0.003091056831181,-0.9201818704605104,0.3914735317230224,0.0067629186571787,-0.0131355146529043,-0.1367722284996092,-0.0960220694541931,-0.1521838307380676,0.164224624633789,62,117,16657,13905
22.0,1788346174089,5.183098793029785,4.422535419464111,-0.0006793669890612,-0.0035648189950734,0.9603418707847596,0.2788015305995941,0.1662123784561425,-0.0046319012505381,6.532933027602844e-06,0.0034158010967075,0.0109734926372766,-0.1403678655624389,-0.0016333172097802,0.0032266126945614,-0.9215726256370544,0.388189285993576,0.0016957888546115,0.0189494928206642,-0.1444691439010676,-0.3745513558387756,0.0971373319625854,0.0175495147705078,74,64,15407,15829
22.1,1788346174189,5.577464580535889,4.591549396514893,-0.0003397168475203,-0.0040347059257328,0.9593387246131896,0.2822283208370209,0.1689664377170977,-0.0011827797430999,1.3197645978890783e-05,-0.0045036901719868,-0.015545206144452,-0.0520424917340278,-0.0021205050870776,0.0033650025725364,-0.9237269759178162,0.3830309212207794,-0.0041461473564491,0.0070008107139273,-0.1145160133405828,0.1273515224456787,-0.1230651140213012,0.024550437927246,105,116,16643,13097
22.2,1788346174289,5.605633735656738,4.704225540161133,-0.0004716381663456,-0.0037922132760286,0.9581368565559388,0.2862853109836578,0.182089182150417,0.0018942856241728,-2.1464721278839765e-05,0.004466441925615,0.0079733030870556,-0.1279844790697097,-0.0023697214201092,0.003117524087429,-0.9251534938812256,0.3795729279518127,0.0052793277499201,-0.0124137035309598,-0.1499213650459843,-0.0012418031692504,0.3310326337814331,-0.1192884445190429,87,42,16253,12307
22.3,1788346174389,5.577464580535889,4.197183132171631,6.137695163488388e-05,-0.0040012742392718,0.9570459127426147,0.2899089157581329,0.1724910150786343,-0.0022902282031285,5.065481694622156e-05,-0.0020088590681552,-0.0222867392003536,-0.1516916155815124,-0.0021905219182372,0.0030371854081749,-0.9288586378097534,0.370415449142456,0.0041203926706044,0.0097489798092483,-0.137804557981343,-0.1073123216629028,-0.0266513228416442,1.4633026123046875,88,53,16461,14196
22.4,1788346174489,5.211267471313477,4.394366264343262,-0.0006660117069259,-0.0038874687161296,0.9524295926094056,0.3047330677509308,0.1679140560549465,-0.0013866876365808,-4.065777788451655e-05,-0.0196919571608304,0.0284916572272777,-0.1758522689342498,-0.0017132367938756,0.0040840096771717,-0.9318960309028624,0.3626985251903534,-0.0664569513821306,0.0566159607063851,-0.208239812066926,-0.1082447171211242,0.0885915160179138,0.3358316421508789,88,53,16461,14196
22.5,1788346174589,5.126760482788086,4.873239517211914,-0.0025906015653163,-0.0046312874183058,0.9515790343284608,0.3073583245277405,0.1647379458494683,0.0039692716764249,-0.0001794841296815,-0.0634447261691093,0.079136736690998,-0.1346988677978515,-0.0016891863197088,0.0023845210671424,-0.9318508505821228,0.3628297746181488,0.0550081617658753,-0.0384357798745157,0.0590685784777081,-0.0541028380393981,-0.0577333569526672,-0.5286827087402344,151,22,15536,14132
22.6,1788346174689,5.239436626434326,4.450704097747803,-0.0003220453509129,-0.0027713044546544,0.9517325162887572,0.3069160580635071,0.1736779392069432,0.0042075276769204,-1.9015980993878309e-06,0.0066823633387684,0.0122109465301036,-0.072364367544651,-0.0018491484224796,0.0020215883851051,-0.9328588843345642,0.3602317273616791,0.0067443001308036,-0.0184219804150959,-0.0742232714411159,0.31988525390625,0.2654954791069031,0.3549785614013672,71,48,15338,15287
22.7,1788346174789,5.070422649383545,4.676056385040283,7.243140134960413e-05,-0.0026908225845545,0.9511178135871888,0.3088164031505584,0.1634595778074181,-0.0028008864746533,8.745964192136859e-05,0.0079109938815236,-0.0138949835672974,-0.0804216563701629,-0.0017407601699233,0.0018336651846766,-0.933221697807312,0.3592923283576965,0.0135698530224407,0.0023028631385881,-0.0640691185964614,0.0873255133628845,-0.1220935583114624,0.1034755706787109,35,142,13978,17252
22.8,1788346174889,4.788732528686523,5.577464580535889,-1.0402931366115808e-05,-0.0023590626660734,0.9511960744857788,0.3085783123970032,0.1697522930300661,0.0012081123574363,4.535620840373188e-05,-0.0031467748340219,-0.0138604082167148,0.0133253401145339,-0.0015450492501258,0.0018652472645044,-0.9324036240577698,0.3614106178283691,-0.0061393581586609,0.0026842902617429,0.0480288921846839,-0.0097692012786865,0.1273089051246643,0.4276266098022461,63,146,14655,14447
22.9,1788346174989,5.042253494262695,5.408450603485107,-0.0001501730293966,-0.0023923111148178,0.951998233795166,0.3060941696166992,0.1714931183994077,0.0007159138001869,-6.399351231584849e-05,-0.0007761475862935,0.005882441997528,0.0527940988540649,-0.0014870138838887,0.0017316071316599,-0.9314885139465332,0.3637635409832001,0.0069548011911188,-0.0072221804272022,0.0449555290376021,0.0349395275115966,-0.000585913658142,-0.6415061950683594,123,112,16123,13133
23.0,1788346175089,4.957746505737305,5.295774459838867,0.0003910803352482,-0.00244982377626,0.9521533250808716,0.3056105077266693,0.1712921164454599,-0.0011540191190469,-4.8678518050701626e-08,-0.0021141818724572,-0.0149474367499351,-0.02725775167346,-0.0019389344379305,0.0017524231225252,-0.9316588044166564,0.3633250594139099,-0.0065967743082932,-0.0061119705957637,0.0313171036848502,-0.2191364169120788,0.1074024438858032,0.660797119140625,59,164,14089,15515
23.1,1788346175189,5.239436626434326,5.464788913726807,0.000532682868652,-0.0027543576434254,0.9529781937599182,0.303025871515274,0.1735987090970306,0.0002108660068864,4.691320428721148e-05,-0.0056353504769504,-0.0132530927658081,0.0729816630482673,-0.0025943759828805,0.0017807474359869,-0.9311159253120422,0.3647097051143646,-0.011806032381139,-0.0308030331974111,-0.0632740377976345,0.1389803290367126,-0.1572259068489074,-0.5844345092773438,107,103,15816,12418
23.2,1788346175289,5.014084339141846,5.323943614959717,0.0004189889295957,-0.0029560164548456,0.9522229433059692,0.3053891360759735,0.1707248739748652,0.0005085037134939,-5.375728202042236e-05,-0.003935198765248,0.0170583594590425,-0.0636230632662773,-0.0021957727149128,0.0021947426721453,-0.9318777322769164,0.3627593219280243,-0.0057101594968484,-0.0001065396849925,-0.0162177012654745,-0.0199991464614868,-0.1050068736076355,1.0086736679077148,94,50,15209,13885
23.3,1788346175389,5.014084339141846,5.915493011474609,0.0004502640222199,-0.0032190864440053,0.9520653486251832,0.3058773577213287,0.1666611701695145,1.5794276664645405e-05,2.3259830836792345e-05,-0.0096500199288129,-0.0043430346995592,-0.0204892456531524,-0.001361190341413,0.0027552237734198,-0.9314866065979004,0.3637628257274627,0.0018861209296972,0.0221341178127495,0.0438137130043191,-0.0513268113136291,-0.0495046973228454,-0.1245346069335937,73,133,13819,13430
23.4,1788346175489,5.014084339141846,4.901408672332764,-0.0007415257859975,-0.0030725479591637,0.9526249766349792,0.3041312098503113,0.1802265370331442,-0.0029283224492379,-6.498526168446028e-05,-0.0050588054582476,0.0146309863775968,0.067414753139019,-0.001533449627459,0.0029502436518669,-0.9311314225196838,0.3646685779094696,-0.0056679353317321,0.0205442163334574,-0.0138598949561499,-0.140596330165863,-0.1871955394744873,0.9309301376342772,85,51,15189,15331
23.5,1788346175589,4.985915660858154,5.323943614959717,-0.001148237963207,-0.0030141349416226,0.9526818990707396,0.3039520680904388,0.1793362647574261,-0.0003148150685356,-3.4628995709556245e-06,-0.0045821573585271,0.0272625181823968,0.012751049362123,-0.000931809656322,0.002985781058669,-0.9305516481399536,0.3661473989486694,0.01154418121326,-0.0309712141268445,0.0724720202968416,-0.1575519442558288,0.0080963373184204,0.5832109451293945,67,41,15118,13688
23.6,1788346175689,4.873239517211914,4.732394218444824,-0.0005811168812215,-0.0028177285566926,0.9536099433898926,0.301031082868576,0.1757522731798566,0.0006422320623133,1.7806710446158197e-05,0.0081454459577798,-0.0210656430572271,0.0338958166539669,-0.0013828966766595,0.002617921680212,-0.9297890067100524,0.3680808842182159,-0.004299558301855,-0.0048603161814724,0.0425245043555731,-0.0916672945022583,0.1017019152641296,-0.3413171768188476,74,117,14506,16819
23.7,1788346175789,4.647887229919434,4.535211086273193,-0.0031530656851828,-0.0041334275156259,0.9537829756736756,0.300451248884201,0.1686493841867241,0.0051571198105414,-0.0002604970950028,-0.0581929795444011,0.0649898052215576,-0.0104155614972114,-0.0015861112624406,0.0022441847249865,-0.928555965423584,0.3711823225021362,0.086395837189172,-0.0934160215722576,0.1175661460348168,-0.1153275966644287,0.2739061117172241,0.6418094635009766,105,217,16289,17754
23.8,1788346175889,5.183098793029785,5.267605781555176,-0.0005463234847411,-0.002466122386977,0.95466285943985,0.2976782917976379,0.1733992267176139,0.0022292268475715,-0.0001038740115997,0.0096973814070224,0.0135119138285517,-0.0109652681276202,-0.0009842617437243,0.0022027529776096,-0.929431140422821,0.3689879179000854,0.0087062768705155,0.0107014005629486,-0.0908050830323022,-0.0897936224937439,-0.1244513988494873,0.1570816040039062,125,69,15997,12241
23.9,1788346175989,5.323943614959717,4.619718074798584,6.93146139383316e-05,-0.0025371233932673,0.9528312683105468,0.3034899830818176,0.1675096201651153,0.0058544200423563,3.216021230437747e-05,0.0002356404729653,-0.0144838159903883,-0.1437368988990783,-0.0011121379211544,0.0020015500485897,-0.9324169754981996,0.3613771498203277,-0.0041637031807861,0.0153831253151404,-0.1591078010141234,-0.0214619040489196,0.3345062732696533,-0.3331365585327148,85,44,15343,15006
24.0,1788346176089,5.183098793029785,5.267605781555176,-0.0001883748918771,-0.0023205238394439,0.9511632323265076,0.3086796402931213,0.1840922215315314,-0.0001751758349979,4.98479229805816e-05,-0.0001346259086858,-0.0086331339552998,-0.0594513975083828,-0.0014767609536647,0.0018127597868442,-0.9337054491043092,0.3580344915390014,0.0041482763722469,-0.0092305457895257,-0.0783271313287139,0.0265946984291076,-0.3384209275245666,0.6395606994628906,94,139,15360,13316
24.1,1788346176189,5.211267471313477,4.422535419464111,3.573723370209336e-05,-0.0023350866977125,0.9500371813774108,0.312127947807312,0.1722341634897496,-0.0044389293944655,1.012692007206957e-05,0.0006645926623605,-0.0008018584921956,-0.0602159574627876,-0.0011972179636359,0.0018312465399503,-0.9350716471672058,0.3544520735740661,0.0108424097746964,-0.0018965055750569,-0.0544562040048733,-0.0871065855026245,-0.2724572420120239,-0.5601367950439453,82,125,15320,16449
24.2,1788346176289,5.183098793029785,5.211267471313477,-0.0001870456908363,-0.0021441397257149,0.9492612481117249,0.314481258392334,0.1837129196596571,-0.000791459186877,-1.6063958435991738e-06,0.0064100152812898,-0.0003357287787366,-0.0254259221255779,-0.0008793976157903,0.0021166773512959,-0.9359339475631714,0.3521680235862732,0.0030575614027256,-0.0075772961278885,-0.0536788572327333,-0.2982449531555176,0.0402461290359497,0.6082878112792969,23,39,12278,13129
24.3,1788346176389,1.6619718074798584,4.563380241394043,-0.0007109214784577,-0.002214764477685,0.9483370184898376,0.3172563016414642,0.163844539380085,0.0039588055208258,-8.975771242347578e-06,-0.0012518408475443,0.0017028358997777,-0.0263290125876665,-0.0010709790512919,0.002213004976511,-0.9347423315048218,0.3553179204463959,-0.0002216178013319,-0.0147562852438581,0.2374844406686774,-0.7684574723243713,0.7548530101776123,-0.3593778610229492,40,86,1010,9968
24.4,1788346176489,-0.2535211145877838,3.0422534942626958,-0.0007484862580895,-0.0023380958009511,0.953368604183197,0.3017981648445129,0.0850283435381304,-0.0011399664410841,1.251881876655684e-05,0.0009029547800309,0.0045337714254856,0.4370278716087341,-0.0006792834028601,0.0023582959547638,-0.923677623271942,0.3831628859043121,-0.0040636356554696,0.0095697774981942,0.5927005049851876,-0.1679940819740295,-0.1130819320678711,-0.3063774108886719,259,120,-8147,11541
24.5,1788346176589,-2.929577350616455,2.253521203994751,-0.0010416875593364,-0.002198226749897,0.961390256881714,0.2751778364181518,0.0456120311013362,-0.0010957238053628,-4.402031251692627e-06,-1.0472279427631292e-05,0.0060527538880705,0.64230877161026,-0.0006934385746717,0.0022350326180458,-0.9100767374038696,0.4144331216812134,0.0008758622573501,-0.0019288801060992,0.7810521726863462,-0.2828357815742492,-0.1521110534667968,-0.1019248962402343,146,109,-10379,8949
24.6,1788346176689,-2.6478872299194336,2.873239517211914,-0.0009735320345498,-0.0020901637617498,0.9717559218406676,0.2359767854213714,-0.0018017034321851,-0.0024668810683173,-5.94192162315224e-07,0.0025491940323263,0.0042447545565664,0.8449898958206177,-0.0006958246231079,0.0022242534905672,-0.8924149870872498,0.4512094855308532,-0.0012594783495589,-0.0046683590576171,0.7782202048583784,0.2124493718147277,-0.3655746579170227,0.1708755493164062,71,87,-9420,7515
24.7,1788346176789,-2.450704336166382,2.309859037399292,-0.000889690418262,-0.0021419816184788,0.976280152797699,0.2164986729621887,-0.0053832682916541,-0.0042612478027934,1.2405316727357354e-07,-0.0016316395485773,-0.0056518353521823,0.8140890002250671,-0.0006616590544581,0.0021959468722343,-0.887100100517273,0.4615713655948639,0.0023712848947546,-0.00062301708624,0.7679818510041224,0.0009109377861022,0.0434184074401855,0.5296478271484375,96,153,-9739,9661
24.8,1788346176889,-2.1408450603485107,2.0,-0.0013040481135249,-0.0019358330173417,0.9875447750091552,0.1573207676410675,0.0089983420511574,-0.0083970194715896,2.814826315067437e-06,0.006877277046442,0.0015008024638518,0.6872031688690186,-0.0003596171736717,0.0022773938253521,-0.8589324951171875,0.5120837092399597,-0.0035954753775646,-0.0030789640281374,0.648301260455103,-0.1354638338088989,0.0863518714904785,0.0141572952270507,103,102,-8422,8125
24.9,1788346176989,-2.281690120697021,2.08450698852539,-0.0009908623760566,-0.0021039715502411,0.9917546510696412,0.1281297951936721,0.0025560942819341,0.0027864357916728,2.0832963656900005e-06,-0.0044785882346332,-0.0072902967222034,0.6408796906471252,-0.0003274716436862,0.0023311441764235,-0.8419914841651917,0.53948575258255,0.004055632270282,0.0181141938130665,0.6556434751198819,-0.0394771695137023,0.1281011700630188,-0.1005020141601562,96,115,-7947,8448
25.0,1788346177089,-2.05633807182312,2.197183132171631,-0.0013107729610055,-0.0019884128123521,0.9954516887664796,0.0952382013201713,-0.0016678126842351,-0.0095607583877839,4.171235443918518e-07,6.986747030168772e-05,0.0027876908425241,0.6796959638595581,-0.0001336298882961,0.0024774074554443,-0.819304883480072,0.5733526945114136,-0.0020818089298613,-0.0014072907123725,0.705682096146789,0.2416274547576904,-0.3040559291839599,0.0113096237182617,4,28,-6397,5529
25.1,1788346177189,-1.887323975563049,1.8309859037399288,-0.0015102841425687,-0.001957481727004,0.9981834292411804,0.0601973310112953,0.0095753961980763,-0.004720972781506,2.002277571651749e-06,0.0006338246748782,-0.0013764225877821,0.6052303910255432,-0.0001053158193826,0.00252256821841,-0.8050864934921265,0.5931521058082581,-0.004330351954333,-0.007670342745471,0.4850864589040702,-0.0834364891052246,-0.0137939453125,0.1251964569091797,96,99,-6872,6939
25.2,1788346177289,-1.6056338548660278,1.6619718074798584,-0.0014881389215588,-0.0020174293313175,0.999450385570526,0.0330556184053421,0.0016091091562186,-0.0031073041394652,1.0642567884582985e-06,-0.0005627099890261,-0.0021676127798855,0.5725557804107666,-2.9820948839187625e-05,0.0025896113365888,-0.7896199226379395,0.6135908365249634,-0.0013697031977743,0.0073834601336026,0.555004947816814,0.0938197970390319,-0.1238912940025329,0.1106252670288086,48,45,-5786,5314
25.3,1788346177389,-1.4929577112197876,1.436619758605957,-0.0015469342470169,-0.0019786485936492,0.9999610781669616,0.0084507465362548,0.0092302067281068,-0.0014590445936985,1.4144352405826525e-06,0.0010665224399417,-0.0024189928080886,0.5134274959564209,-7.048249244689941e-06,0.0026026973500847,-0.7744278311729431,0.6326568722724915,-0.003068822167934,0.0010638053104252,0.4546180911602314,-0.0966540575027465,-0.0809442996978759,-0.0618724822998046,87,106,-6189,5661
25.4,1788346177489,-1.5211267471313477,1.6619718074798584,0.001660619629547,0.0020558449905365,-0.999904990196228,0.0135237658396363,-0.0037372672841399,-0.0010630822750675,-6.164288440779854e-08,-0.001925332355313,0.0001512044254923,0.4223002791404724,-1.821666955947876e-05,0.0026782769709825,-0.7619508504867554,0.6476292610168457,-0.0021651176279424,0.0006904796104843,0.4046854188551249,-0.005370557308197,-0.0446293950080871,-0.0005397796630859,87,82,-6306,5629
25.5,1788346177589,-1.5492957830429075,1.408450722694397,0.0015307295834645,0.0019814022816717,-0.999245584011078,0.0387542322278022,0.0051870919920412,0.0019661115521602,2.1327799547601327e-07,0.0028378129936754,-0.0060273851267993,0.473867654800415,-0.0003585359081625,0.0022058831527829,-0.7416182160377502,0.6708185076713562,0.0014823526115699,-0.0113110691532495,0.4616398836038877,-0.0314640402793884,-0.127093493938446,-0.0045099258422851,85,108,-6122,6152
25.6,1788346177689,-1.2957746982574463,1.0985915660858154,0.0010209656320512,0.0019219561945647,-0.998047649860382,0.0624188780784606,0.0002572143529678,-0.0031905893896749,4.594694513894758e-07,0.0005039907991886,-0.0063847224228084,0.4660568237304687,-0.0005118492990732,0.0021361010149121,-0.7294706702232361,0.6840086579322815,-0.0031164050687906,-0.0035114567801964,0.3093272797534911,0.1006336212158203,-0.3082929253578186,0.1009092330932617,28,56,-4392,5176
25.7,1788346177789,-1.183098554611206,0.8169013857841492,0.0009630272397771,0.0020915537606924,-0.997122049331665,0.0757781118154525,0.0007447674222996,-0.0024392781174887,-4.778298559498905e-07,-0.0052453801035881,1.7824757378548384e-05,0.2469289153814315,-0.0006460733711719,0.0024612238630652,-0.7213484644889832,0.6925677061080933,-0.0101558779199942,0.0054441851971169,0.2935314215484586,-0.0885807275772094,-0.0650098323822021,0.0926532745361328,103,243,-5506,7603
25.8,1788346177889,-1.1267606019973757,1.154929518699646,0.0013135778717696,0.002827419899404,-0.9958266019821168,0.0912119522690773,0.0016530803672553,0.0019050303588039,-2.7458547341818044e-06,-0.0239969380199909,0.0187846459448337,0.3436675369739532,-0.0008368957787752,0.0040951343253254,-0.7062010765075684,0.707999050617218,-0.0247092637650961,0.0225646146883604,0.4342489487688068,-0.0532529354095459,-0.1857919692993164,0.0994939804077148,69,142,-5731,7371
25.9,1788346177989,-1.183098554611206,1.3239436149597168,0.0019941159989684,0.0039376867935061,-0.9936625361442566,0.1123180463910102,0.0031314968058803,-0.0031755178574607,-3.479991265727968e-07,-0.0133963702246546,0.0048121265135705,0.4009891152381897,-0.0008548656478524,0.0043932301923632,-0.6935712695121765,0.7203741669654846,-0.0011972269789525,0.0105525989374185,0.3984836013125076,0.011354923248291,-0.163809061050415,-0.033217430114746,99,60,-5301,5706
26.0,1788346178089,-0.98591548204422,1.154929518699646,0.001711378688924,0.00359663576819,-0.9913033843040466,0.1315359771251678,0.0062042396915143,-0.0036623420888565,2.7032674865479266e-06,0.0110462931916117,-0.0187803879380226,0.3875348567962646,-0.0009390190243721,0.0031064730137586,-0.6809805035591125,0.7322943806648254,0.0263862380950382,-0.0305546845051893,0.3669282476725781,-0.271386981010437,-0.1512369513511657,0.2465648651123047,27,7,-3227,2171
26.1,1788346178189,0.0,0.0,0.0006805717130191,0.0023709763772785,-0.9892519116401672,0.1462005972862243,0.0017361506846516,0.0002385045236989,2.3182330076475394e-06,0.0219711754471063,-0.0267466437071561,0.2897690832614898,-0.0009830137714743,0.0021318979561328,-0.6744508743286133,0.738315999507904,-0.0075901872265372,0.0065285933737322,-0.0763502082649544,0.0936522483825683,-0.2563630938529968,0.0436296463012695,33,190,1949,5693
26.2,1788346178289,0.98591548204422,2.873239517211914,0.0003943291376344,0.0021208869293332,-0.9889963865280152,0.1479237377643585,0.0083382213258452,-0.0028106499190892,-9.784892091815704e-07,0.0083638876676559,-0.0139510594308376,0.002209746511653,-0.0010917549952864,0.0014062169939279,-0.6721835136413574,0.7403824925422668,0.0187467660917171,-0.0272381802116264,0.2021499414465878,1.0659427642822266,0.5685672163963318,0.1505374908447265,145,262,6180,11282
26.3,1788346178389,1.887323975563049,6.169013977050781,-0.0003068812948185,0.0016256516100838,-0.9866268634796144,0.1629864424467086,0.0891741125527153,0.000211809459,-3.3063615259964727e-06,0.0032257847487926,-0.0053435089066624,0.3239026069641113,-0.001366070471704,0.0009388020262122,-0.6562181711196899,0.754569411277771,0.0003626396567088,-0.0130217565699227,0.5154067598358044,0.5049606561660767,0.2345894575119018,0.0515108108520507,107,271,8195,18589
26.4,1788346178489,2.563380241394043,7.464788913726807,-0.0003974612918682,0.0014163096202537,-0.981568455696106,0.191105306148529,0.147935136429245,0.0010103068628295,-1.0438954595578668e-05,0.0069315494038164,-0.0011190198129042,0.6614049673080444,-0.0013191727921366,0.0008556554093956,-0.623691201210022,0.7816693186759949,-0.0019295889124873,-0.0157901183072671,0.7758950283099821,-0.0746902227401733,0.1839277744293213,0.1924524307250976,120,181,9440,24667
