time_s,timestamp_ms,wheel_vels__velocity_left,wheel_vels__velocity_right,odom__orient_x,odom__orient_y,odom__orient_z,odom__orient_w,odom__lin_x,odom__lin_y,odom__lin_z,odom__ang_x,odom__ang_y,odom__ang_z,imu__orient_x,imu__orient_y,imu__orient_z,imu__orient_w,imu__angvel_x,imu__angvel_y,imu__angvel_z,imu__acc_x,imu__acc_y,imu__acc_z,wheel_status__current_ma_left,wheel_status__current_ma_right,wheel_status__pwm_left,wheel_status__pwm_right
0.0,1788346602172,0.0,0.0,-0.0038827774114906,-0.0024856475647538,0.5584582090377808,0.8295198082923889,0.0,0.0,0.0,-7.923808276188993e-09,-6.339046620951194e-08,8.113979674817529e-06,-0.0022470084950327,-0.0040451548993587,0.8947362303733826,0.4465710818767547,0.0006271662386004,0.0006299958892549,5.941749092561137e-05,-0.0097105503082275,-0.0295309424400329,-0.0180540084838867,0,0,0,0
0.1,1788346602272,0.0,0.0,-0.0038827774114906,-0.0024856475647538,0.5584582090377808,0.8295198082923889,0.0,0.0,0.0,-7.923808276188993e-09,-6.339046620951194e-08,8.113979674817529e-06,-0.0022470084950327,-0.0040451548993587,0.8947362303733826,0.4465710818767547,0.0006271662386004,0.0006299958892549,5.941749092561137e-05,-0.0097105503082275,-0.0295309424400329,-0.0180540084838867,0,0,0,0
0.2,1788346602372,0.0,0.0,-0.0038827774114906,-0.0024856475647538,0.5584582090377808,0.8295198082923889,0.0,0.0,0.0,-7.923808276188993e-09,-6.339046620951194e-08,8.113979674817529e-06,-0.0022470084950327,-0.0040451548993587,0.8947362303733826,0.4465710818767547,0.0006271662386004,0.0006299958892549,5.941749092561137e-05,-0.0097105503082275,-0.0295309424400329,-0.0180540084838867,0,0,0,0
0.3,1788346602472,0.0,0.0,-0.0038827774114906,-0.0024856475647538,0.5584582090377808,0.8295198082923889,0.0,0.0,0.0,-7.923808276188993e-09,-6.339046620951194e-08,8.113979674817529e-06,-0.0022470084950327,-0.0040451548993587,0.8947362303733826,0.4465710818767547,0.0006271662386004,0.0006299958892549,5.941749092561137e-05,-0.0097105503082275,-0.0295309424400329,-0.0180540084838867,0,0,0,0
0.4,1788346602572,0.0,0.0,-0.0038827774114906,-0.0024856475647538,0.5584582090377808,0.8295198082923889,0.0,0.0,0.0,-7.923808276188993e-09,-6.339046620951194e-08,8.113979674817529e-06,-0.0022470084950327,-0.0040451548993587,0.8947362303733826,0.4465710818767547,0.0006271662386004,0.0006299958892549,5.941749092561137e-05,-0.0097105503082275,-0.0295309424400329,-0.0180540084838867,0,0,0,0
0.5,1788346602672,0.0,0.0,-0.0038827774114906,-0.0024856475647538,0.5584582090377808,0.8295198082923889,0.0,0.0,0.0,-7.923808276188993e-09,-6.339046620951194e-08,8.113979674817529e-06,-0.0022470084950327,-0.0040451548993587,0.8947362303733826,0.4465710818767547,0.0006271662386004,0.0006299958892549,5.941749092561137e-05,-0.0097105503082275,-0.0295309424400329,-0.0180540084838867,0,0,0,0
0.6,1788346602772,0.0,0.0,-0.0038827774114906,-0.0024856475647538,0.5584582090377808,0.8295198082923889,0.0,0.0,0.0,-7.923808276188993e-09,-6.339046620951194e-08,8.113979674817529e-06,-0.0022470084950327,-0.0040451548993587,0.8947362303733826,0.4465710818767547,0.0006271662386004,0.0006299958892549,5.941749092561137e-05,-0.0097105503082275,-0.0295309424400329,-0.0180540084838867,0,0,0,0
0.7,1788346602872,0.0,0.0,-0.0038827774114906,-0.0024856475647538,0.5584582090377808,0.8295198082923889,0.0,0.0,0.0,-7.923808276188993e-09,-6.339046620951194e-08,8.113979674817529e-06,-0.0022470084950327,-0.0040451548993587,0.8947362303733826,0.4465710818767547,0.0006271662386004,0.0006299958892549,5.941749092561137e-05,-0.0097105503082275,-0.0295309424400329,-0.0180540084838867,0,0,0,0
0.8,1788346602972,0.0,0.0,-0.0038827774114906,-0.0024856475647538,0.5584582090377808,0.8295198082923889,0.0,0.0,0.0,-7.923808276188993e-09,-6.339046620951194e-08,8.113979674817529e-06,-0.0022470084950327,-0.0040451548993587,0.8947362303733826,0.4465710818767547,0.0006271662386004,0.0006299958892549,5.941749092561137e-05,-0.0097105503082275,-0.0295309424400329,-0.0180540084838867,0,0,0,0
0.9,1788346603072,0.0,0.0,-0.0038827774114906,-0.0024856475647538,0.5584582090377808,0.8295198082923889,0.0,0.0,0.0,-7.923808276188993e-09,-6.339046620951194e-08,8.113979674817529e-06,-0.0022470084950327,-0.0040451548993587,0.8947362303733826,0.4465710818767547,0.0006271662386004,0.0006299958892549,5.941749092561137e-05,-0.0097105503082275,-0.0295309424400329,-0.0180540084838867,0,0,0,0
1.0,1788346603172,0.0,0.0,-0.0038827774114906,-0.0024856475647538,0.5584582090377808,0.8295198082923889,0.0,0.0,0.0,-7.923808276188993e-09,-6.339046620951194e-08,8.113979674817529e-06,-0.0022470084950327,-0.0040451548993587,0.8947362303733826,0.4465710818767547,0.0006271662386004,0.0006299958892549,5.941749092561137e-05,-0.0097105503082275,-0.0295309424400329,-0.0180540084838867,0,0,0,0
1.1,1788346603272,0.0,0.0,-0.0038827774114906,-0.0024856475647538,0.5584582090377808,0.8295198082923889,0.0,0.0,0.0,-7.923808276188993e-09,-6.339046620951194e-08,8.113979674817529e-06,-0.0022470084950327,-0.0040451548993587,0.8947362303733826,0.4465710818767547,0.0006271662386004,0.0006299958892549,5.941749092561137e-05,-0.0097105503082275,-0.0295309424400329,-0.0180540084838867,0,0,0,0
1.2,1788346603372,0.0,0.0,-0.0038827774114906,-0.0024856475647538,0.5584582090377808,0.8295198082923889,0.0,0.0,0.0,-7.923808276188993e-09,-6.339046620951194e-08,8.113979674817529e-06,-0.0022470084950327,-0.0040451548993587,0.8947362303733826,0.4465710818767547,0.0006271662386004,0.0006299958892549,5.941749092561137e-05,-0.0097105503082275,-0.0295309424400329,-0.0180540084838867,0,0,0,0
1.3,1788346603472,0.0,0.0,-0.0038827774114906,-0.0024856475647538,0.5584582090377808,0.8295198082923889,0.0,0.0,0.0,-7.923808276188993e-09,-6.339046620951194e-08,8.113979674817529e-06,-0.0022470084950327,-0.0040451548993587,0.8947362303733826,0.4465710818767547,0.0006271662386004,0.0006299958892549,5.941749092561137e-05,-0.0097105503082275,-0.0295309424400329,-0.0180540084838867,0,0,0,0
1.4,1788346603572,0.0,0.0,-0.0038827774114906,-0.0024856475647538,0.5584582090377808,0.8295198082923889,0.0,0.0,0.0,-7.923808276188993e-09,-6.339046620951194e-08,8.113979674817529e-06,-0.0022470084950327,-0.0040451548993587,0.8947362303733826,0.4465710818767547,0.0006271662386004,0.0006299958892549,5.941749092561137e-05,-0.0097105503082275,-0.0295309424400329,-0.0180540084838867,0,0,0,0
1.5,1788346603672,0.0,0.0,-0.0038827774114906,-0.0024856475647538,0.5584582090377808,0.8295198082923889,0.0,0.0,0.0,-7.923808276188993e-09,-6.339046620951194e-08,8.113979674817529e-06,-0.0022470084950327,-0.0040451548993587,0.8947362303733826,0.4465710818767547,0.0006271662386004,0.0006299958892549,5.941749092561137e-05,-0.0097105503082275,-0.0295309424400329,-0.0180540084838867,0,0,0,0
1.6,1788346603772,0.0,0.0,-0.0038827774114906,-0.0024856475647538,0.5584582090377808,0.8295198082923889,0.0,0.0,0.0,-7.923808276188993e-09,-6.339046620951194e-08,8.113979674817529e-06,-0.0022470084950327,-0.0040451548993587,0.8947362303733826,0.4465710818767547,0.0006271662386004,0.0006299958892549,5.941749092561137e-05,-0.0097105503082275,-0.0295309424400329,-0.0180540084838867,0,0,0,0
1.7,1788346603872,0.0,0.0,-0.0038827774114906,-0.0024856475647538,0.5584582090377808,0.8295198082923889,0.0,0.0,0.0,-7.923808276188993e-09,-6.339046620951194e-08,8.113979674817529e-06,-0.0022470084950327,-0.0040451548993587,0.8947362303733826,0.4465710818767547,0.0006271662386004,0.0006299958892549,5.941749092561137e-05,-0.0097105503082275,-0.0295309424400329,-0.0180540084838867,0,0,0,0
1.8,1788346603972,0.0,0.0,-0.0038827774114906,-0.0024856475647538,0.5584582090377808,0.8295198082923889,0.0,0.0,0.0,-7.923808276188993e-09,-6.339046620951194e-08,8.113979674817529e-06,-0.0022470084950327,-0.0040451548993587,0.8947362303733826,0.4465710818767547,0.0006271662386004,0.0006299958892549,5.941749092561137e-05,-0.0097105503082275,-0.0295309424400329,-0.0180540084838867,0,0,0,0
1.9,1788346604072,0.0,0.0,-0.0038827774114906,-0.0024856475647538,0.5584582090377808,0.8295198082923889,0.0,0.0,0.0,-7.923808276188993e-09,-6.339046620951194e-08,8.113979674817529e-06,-0.0022470084950327,-0.0040451548993587,0.8947362303733826,0.4465710818767547,0.0006271662386004,0.0006299958892549,5.941749092561137e-05,-0.0097105503082275,-0.0295309424400329,-0.0180540084838867,0,0,0,0
2.0,1788346604172,0.0,0.0,-0.0038827774114906,-0.0024856475647538,0.5584582090377808,0.8295198082923889,0.0,0.0,0.0,-7.923808276188993e-09,-6.339046620951194e-08,8.113979674817529e-06,-0.0022470084950327,-0.0040451548993587,0.8947362303733826,0.4465710818767547,0.0006271662386004,0.0006299958892549,5.941749092561137e-05,-0.0097105503082275,-0.0295309424400329,-0.0180540084838867,0,0,0,0
2.1,1788346604272,0.0,0.0,-0.0038827774114906,-0.0024856475647538,0.5584582090377808,0.8295198082923889,0.0,0.0,0.0,-7.923808276188993e-09,-6.339046620951194e-08,8.113979674817529e-06,-0.0022470084950327,-0.0040451548993587,0.8947362303733826,0.4465710818767547,0.0006271662386004,0.0006299958892549,5.941749092561137e-05,-0.0097105503082275,-0.0295309424400329,-0.0180540084838867,0,0,0,0
2.2,1788346604372,0.0,0.0,-0.0038827774114906,-0.0024856475647538,0.5584582090377808,0.8295198082923889,0.0,0.0,0.0,-7.923808276188993e-09,-6.339046620951194e-08,8.113979674817529e-06,-0.0022470084950327,-0.0040451548993587,0.8947362303733826,0.4465710818767547,0.0006271662386004,0.0006299958892549,5.941749092561137e-05,-0.0097105503082275,-0.0295309424400329,-0.0180540084838867,0,0,0,0
2.3,1788346604472,0.0,0.0,-0.0038827774114906,-0.0024856475647538,0.5584582090377808,0.8295198082923889,0.0,0.0,0.0,-7.923808276188993e-09,-6.339046620951194e-08,8.113979674817529e-06,-0.0022470084950327,-0.0040451548993587,0.8947362303733826,0.4465710818767547,0.0006271662386004,0.0006299958892549,5.941749092561137e-05,-0.0097105503082275,-0.0295309424400329,-0.0180540084838867,0,0,0,0
2.4,1788346604572,0.0,0.0,-0.0038827774114906,-0.0024856475647538,0.5584582090377808,0.8295198082923889,0.0,0.0,0.0,-7.923808276188993e-09,-6.339046620951194e-08,8.113979674817529e-06,-0.0022470084950327,-0.0040451548993587,0.8947362303733826,0.4465710818767547,0.0006271662386004,0.0006299958892549,5.941749092561137e-05,-0.0097105503082275,-0.0295309424400329,-0.0180540084838867,0,0,0,0
2.5,1788346604672,0.0,0.0,-0.0038827774114906,-0.0024856475647538,0.5584582090377808,0.8295198082923889,0.0,0.0,0.0,-7.923808276188993e-09,-6.339046620951194e-08,8.113979674817529e-06,-0.0022470084950327,-0.0040451548993587,0.8947362303733826,0.4465710818767547,0.0006271662386004,0.0006299958892549,5.941749092561137e-05,-0.0097105503082275,-0.0295309424400329,-0.0180540084838867,0,0,0,0
2.6,1788346604772,0.0,0.0,-0.0038827774114906,-0.0024856475647538,0.5584582090377808,0.8295198082923889,0.0,0.0,0.0,-7.923808276188993e-09,-6.339046620951194e-08,8.113979674817529e-06,-0.0022470084950327,-0.0040451548993587,0.8947362303733826,0.4465710818767547,0.0006271662386004,0.0006299958892549,5.941749092561137e-05,-0.0097105503082275,-0.0295309424400329,-0.0180540084838867,0,0,0,0
2.7,1788346604872,0.0,0.0,-0.0038827774114906,-0.0024856475647538,0.5584582090377808,0.8295198082923889,0.0,0.0,0.0,-7.923808276188993e-09,-6.339046620951194e-08,8.113979674817529e-06,-0.0022470084950327,-0.0040451548993587,0.8947362303733826,0.4465710818767547,0.0006271662386004,0.0006299958892549,5.941749092561137e-05,-0.0097105503082275,-0.0295309424400329,-0.0180540084838867,0,0,0,0
2.8,1788346604972,0.0,0.0,-0.0038827774114906,-0.0024856475647538,0.5584582090377808,0.8295198082923889,0.0,0.0,0.0,-7.923808276188993e-09,-6.339046620951194e-08,8.113979674817529e-06,-0.0022470084950327,-0.0040451548993587,0.8947362303733826,0.4465710818767547,0.0006271662386004,0.0006299958892549,5.941749092561137e-05,-0.0097105503082275,-0.0295309424400329,-0.0180540084838867,0,0,0,0
2.9,1788346605072,0.0,0.0,-0.0038827774114906,-0.0024856475647538,0.5584582090377808,0.8295198082923889,0.0,0.0,0.0,-7.923808276188993e-09,-6.339046620951194e-08,8.113979674817529e-06,-0.0022470084950327,-0.0040451548993587,0.8947362303733826,0.4465710818767547,0.0006271662386004,0.0006299958892549,5.941749092561137e-05,-0.0097105503082275,-0.0295309424400329,-0.0180540084838867,0,0,0,0
3.0,1788346605172,0.0,0.0,-0.0038827774114906,-0.0024856475647538,0.5584582090377808,0.8295198082923889,0.0,0.0,0.0,-7.923808276188993e-09,-6.339046620951194e-08,8.113979674817529e-06,-0.0022470084950327,-0.0040451548993587,0.8947362303733826,0.4465710818767547,0.0006271662386004,0.0006299958892549,5.941749092561137e-05,-0.0097105503082275,-0.0295309424400329,-0.0180540084838867,0,0,0,0
3.1,1788346605272,0.0,0.0,-0.0038827774114906,-0.0024856475647538,0.5584582090377808,0.8295198082923889,0.0,0.0,0.0,-7.923808276188993e-09,-6.339046620951194e-08,8.113979674817529e-06,-0.0022470084950327,-0.0040451548993587,0.8947362303733826,0.4465710818767547,0.0006271662386004,0.0006299958892549,5.941749092561137e-05,-0.0097105503082275,-0.0295309424400329,-0.0180540084838867,0,0,0,0
3.2,1788346605372,0.0,0.0,-0.0038827774114906,-0.0024856475647538,0.5584582090377808,0.8295198082923889,0.0,0.0,0.0,-7.923808276188993e-09,-6.339046620951194e-08,8.113979674817529e-06,-0.0022470084950327,-0.0040451548993587,0.8947362303733826,0.4465710818767547,0.0006271662386004,0.0006299958892549,5.941749092561137e-05,-0.0097105503082275,-0.0295309424400329,-0.0180540084838867,0,0,0,0
3.3,1788346605472,0.0,0.0,-0.0038827774114906,-0.0024856475647538,0.5584582090377808,0.8295198082923889,0.0,0.0,0.0,-7.923808276188993e-09,-6.339046620951194e-08,8.113979674817529e-06,-0.0022470084950327,-0.0040451548993587,0.8947362303733826,0.4465710818767547,0.0006271662386004,0.0006299958892549,5.941749092561137e-05,-0.0097105503082275,-0.0295309424400329,-0.0180540084838867,0,0,0,0
3.4,1788346605572,0.0,0.0,-0.0038827774114906,-0.0024856475647538,0.5584582090377808,0.8295198082923889,0.0,0.0,0.0,-7.923808276188993e-09,-6.339046620951194e-08,8.113979674817529e-06,-0.0022470084950327,-0.0040451548993587,0.8947362303733826,0.4465710818767547,0.0006271662386004,0.0006299958892549,5.941749092561137e-05,-0.0097105503082275,-0.0295309424400329,-0.0180540084838867,0,0,0,0
3.5,1788346605672,0.0,0.0,-0.0038827774114906,-0.0024856475647538,0.5584582090377808,0.8295198082923889,0.0,0.0,0.0,-7.923808276188993e-09,-6.339046620951194e-08,8.113979674817529e-06,-0.0022470084950327,-0.0040451548993587,0.8947362303733826,0.4465710818767547,0.0006271662386004,0.0006299958892549,5.941749092561137e-05,-0.0097105503082275,-0.0295309424400329,-0.0180540084838867,0,0,0,0
3.6,1788346605772,0.0,0.0,-0.0038827774114906,-0.0024856475647538,0.5584582090377808,0.8295198082923889,0.0,0.0,0.0,-7.923808276188993e-09,-6.339046620951194e-08,8.113979674817529e-06,-0.0022470084950327,-0.0040451548993587,0.8947362303733826,0.4465710818767547,0.0006271662386004,0.0006299958892549,5.941749092561137e-05,-0.0097105503082275,-0.0295309424400329,-0.0180540084838867,0,0,0,0
3.7,1788346605872,0.0,0.0,-0.0038827774114906,-0.0024856475647538,0.5584582090377808,0.8295198082923889,0.0,0.0,0.0,-7.923808276188993e-09,-6.339046620951194e-08,8.113979674817529e-06,-0.0022470084950327,-0.0040451548993587,0.8947362303733826,0.4465710818767547,0.0006271662386004,0.0006299958892549,5.941749092561137e-05,-0.0097105503082275,-0.0295309424400329,-0.0180540084838867,0,0,0,0
3.8,1788346605972,0.0,0.0,-0.0038827774114906,-0.0024856475647538,0.5584582090377808,0.8295198082923889,0.0,0.0,0.0,-7.923808276188993e-09,-6.339046620951194e-08,8.113979674817529e-06,-0.0022470084950327,-0.0040451548993587,0.8947362303733826,0.4465710818767547,0.0006271662386004,0.0006299958892549,5.941749092561137e-05,-0.0097105503082275,-0.0295309424400329,-0.0180540084838867,0,0,0,0
3.9,1788346606072,0.0,0.0,-0.0038827774114906,-0.0024856475647538,0.5584582090377808,0.8295198082923889,0.0,0.0,0.0,-7.923808276188993e-09,-6.339046620951194e-08,8.113979674817529e-06,-0.0022470084950327,-0.0040451548993587,0.8947362303733826,0.4465710818767547,0.0006271662386004,0.0006299958892549,5.941749092561137e-05,-0.0097105503082275,-0.0295309424400329,-0.0180540084838867,0,0,0,0
4.0,1788346606172,0.0,0.0,-0.0038827774114906,-0.0024856475647538,0.5584582090377808,0.8295198082923889,0.0,0.0,0.0,-7.923808276188993e-09,-6.339046620951194e-08,8.113979674817529e-06,-0.0021837791427969,-0.0040199309587478,0.8947537541389465,0.4465363919734955,-0.0010506955779036,-0.0004889636234352,-0.0012685359007582,-0.0303443670272827,-0.0233376026153564,-0.0198869705200195,0,0,0,0
4.1,1788346606272,0.0,0.0,-0.0038571197073906,-0.0023991256020963,0.5584819316864014,0.8295041918754578,3.684710549601617e-05,-4.250066344539673e-05,-3.780920420347393e-07,0.0014469735324382,0.0007035848102532,0.0004271461220923,-0.0022264719009399,-0.0039662439376115,0.8947597742080688,0.4465247690677643,-0.0001893843425685,0.0030071029359259,7.62673456139648e-05,-0.0094139575958251,-0.016903817653656,0.0250587463378906,0,0,0,0
4.2,1788346606372,0.0,0.0,-0.0038971346803009,-0.0023473752662539,0.5585037469863892,0.829489529132843,8.870056606633118e-05,-0.0001031614623575,-9.07510549025978e-07,-0.000168956030393,0.002562993671745,0.0010445370571687,-0.0022421972826123,-0.0039724335074424,0.8947652578353882,0.4465134739875793,-0.0002053017153607,-0.0004826629708435,-0.0005781368480802,-0.0486361980438232,-0.0056943893432617,-0.0234441757202148,0,0,0,0
4.3,1788346606472,0.0,0.0,-0.0039126891642808,-0.0023368345573544,0.5584943890571594,0.8294956684112549,0.0,0.0,0.0,0.0,1.5503934136518183e-08,0.0,-0.0022359061986207,-0.0039362553507089,0.8947744965553284,0.4464953541755676,0.001376241584535,-0.0003433171009686,0.0009982670113763,-0.007120668888092,-0.0064202547073364,-0.0162115097045898,0,0,0,0
4.4,1788346606572,0.0,0.0,-0.0038675426039844,-0.0023321157786995,0.5585029125213623,0.8294901847839355,-0.0001783501358609,-0.0001199483293231,6.268674228638118e-07,0.0002957683755084,-0.0005262544727884,-0.0003344250435475,-0.0022177500650286,-0.0039348378777503,0.8947725892066956,0.4464992880821228,-0.0004061117738571,-0.0005708467253636,0.0004960906585619,-0.0074033737182617,-0.0388691425323486,-0.0325098037719726,0,0,0,0
4.5,1788346606672,0.0,0.0,-0.003846742445603,-0.0023263930343091,0.558505117893219,0.82948899269104,9.551065725324536e-06,-1.0578229235398509e-05,-9.112286836757437e-08,0.0008355590980499,-0.000281156389974,0.0001010659907478,-0.0022076833993196,-0.0039081890136003,0.8947557210922241,0.4465333819389343,-1.974297276974325e-05,0.001606765288575,-0.0011375072929806,-0.0055957436561584,-0.0018453001976013,0.0017642974853515,0,0,0,0
4.6,1788346606772,0.0,0.0,-0.0038719102740287,-0.0022715055383741,0.5584760308265686,0.8295084834098816,-0.0001235951832564,0.0001428384320393,-1.1556875716923653e-06,0.0003914590633939,0.0023897998034954,-0.0013900496996939,-0.0022762455046176,-0.003848522901535,0.8947436213493347,0.446557879447937,0.0011430114627226,0.0015117268381352,-0.0010664719282528,-0.0272142887115478,0.0246376395225524,0.003636360168457,0,0,0,0
4.7,1788346606872,0.0,0.0,-0.0038743729237467,-0.0022365532349795,0.5584515333175659,0.8295251131057739,0.0002201573517146,0.0002269502735635,-4.932420941586339e-07,0.0,0.0,0.0,-0.0022868467494845,-0.0038092853501439,0.8947560787200928,0.4465329647064209,0.0010407555821888,0.0019595718411549,0.0002946980701105,-0.0050965547561645,-0.0010300874710083,-0.0162010192871093,0,0,0,0
4.8,1788346606972,0.0,0.0,-0.0038700671866536,-0.0022065760567784,0.5584824681282043,0.8295042514801025,0.0,0.0,0.0,0.0,-6.485919357146486e-09,0.0,-0.002339799888432,-0.0038313781842589,0.8947484493255615,0.4465478658676147,-0.0009049535069067,0.0010736472848316,-0.0002490203719972,-0.0079734921455383,-0.0217938423156738,0.0016765594482421,0,0,0,0
4.9,1788346607072,0.0,0.0,-0.0038700671866536,-0.0022065760567784,0.5584824681282043,0.8295042514801025,0.0,0.0,0.0,0.0,-9.495843222850908e-09,0.0,-0.0023384662345051,-0.003786064684391,0.8947658538818359,0.4465135037899017,-0.0005526437864818,0.0005413218742156,-0.000606623776452,0.0031505227088928,-0.0029329061508178,0.0251054763793945,0,0,0,0
5.0,1788346607172,0.0,0.0,-0.0038700671866536,-0.0022065760567784,0.5584824681282043,0.8295042514801025,0.0,0.0,0.0,0.0,-9.165182390802329e-09,0.0,-0.0023202830925583,-0.0037369672209024,0.8947873115539551,0.4464709758758545,0.0010359856675407,0.0005330675689746,0.0009987379602548,-0.0092793703079223,-0.0020715594291687,0.0035295486450195,0,0,0,0
5.1,1788346607272,0.0,0.0,-0.0038700671866536,-0.0022065760567784,0.5584824681282043,0.8295042514801025,0.0,0.0,0.0,0.0,-1.2002539406807957e-08,0.0,-0.0023132329806685,-0.0037240637466311,0.8947964906692505,0.4464527368545532,0.0002564002448282,-0.0004761736535823,0.0019296351612588,-0.0218650698661804,-0.0167293548583984,0.0052375793457031,0,0,0,0
5.2,1788346607372,0.0,0.0,-0.0038700671866536,-0.0022065760567784,0.5584824681282043,0.8295042514801025,0.0,0.0,0.0,0.0,-6.710837663348457e-09,0.0,-0.0023197466507554,-0.0037128385156393,0.8947955369949341,0.4464547336101532,-0.0007285115275591,-0.0006949478618233,-0.0006094584982849,0.003497302532196,-0.0060759782791137,0.0017118453979492,0,0,0,0
5.3,1788346607472,0.0,0.0,-0.0038700671866536,-0.0022065760567784,0.5584824681282043,0.8295042514801025,0.0,0.0,0.0,0.0,-9.303619208367309e-09,0.0,-0.0023354133591055,-0.0036717122420668,0.894790768623352,0.4464644193649292,0.0014562318756501,0.0007472445237862,-0.000259262324567,-0.0138341188430786,-0.0156456232070922,0.0052204132080078,0,0,0,0
5.4,1788346607572,0.0,0.0,-0.0038700671866536,-0.0022065760567784,0.5584824681282043,0.8295042514801025,0.0,0.0,0.0,0.0,-9.352308261156851e-09,0.0,-0.0023636687546968,-0.0036562010645866,0.8947893381118774,0.4464673697948456,-3.2844057918049655e-05,-0.0005249867544871,-7.752247707440676e-05,-0.0167974829673767,0.0220418572425842,0.0089550018310546,0,0,0,0
5.5,1788346607672,0.0,0.0,-0.0038700671866536,-0.0022065760567784,0.5584824681282043,0.8295042514801025,0.0,0.0,0.0,0.0,-1.547334171903003e-08,0.0,-0.0023752013221383,-0.0037084547802805,0.8947864174842834,0.4464726150035858,0.0007422960393266,0.0011707283520327,0.0005141129450116,-0.0152735114097595,-0.0236693620681762,0.0195550918579101,0,0,0,0
5.6,1788346607772,0.0,0.0,-0.0038700671866536,-0.0022065760567784,0.5584824681282043,0.8295042514801025,0.0,0.0,0.0,0.0,-6.672878249958103e-09,0.0,-0.0023594200611114,-0.0036643296480178,0.8947970867156982,0.4464517533779144,-0.0003833517182092,-0.000344640125874,-0.0011472128649868,0.0423362851142883,-0.0227013826370239,-0.0001325607299804,0,0,0,0
5.7,1788346607872,0.0,0.0,-0.0038700671866536,-0.0022065760567784,0.5584824681282043,0.8295042514801025,0.0,0.0,0.0,0.0,-9.295741065784568e-09,0.0,-0.0023796465247869,-0.0036148373037576,0.8947929739952087,0.4464604556560516,0.0002985193878728,0.0001745105543084,-0.001224933025628,0.0126307606697082,-0.0124806761741638,-0.0324687957763671,0,0,0,0
5.8,1788346607972,0.0,0.0,-0.0038700671866536,-0.0022065760567784,0.5584824681282043,0.8295042514801025,0.0,0.0,0.0,0.0,-9.162558711750536e-09,0.0,-0.0024088909849524,-0.0036053201183676,0.8948030471801758,0.4464400708675384,0.0001560103853124,0.0001930237874604,0.0008870831088212,-0.0029940605163574,-0.0179495215415954,0.01239013671875,0,0,0,0
5.9,1788346608072,0.0,0.0,-0.0038700671866536,-0.0022065760567784,0.5584824681282043,0.8295042514801025,0.0,0.0,0.0,0.0,-1.5670051922711536e-08,0.0,-0.0023979935795068,-0.0036424929276108,0.894787073135376,0.4464717209339142,-0.0018300757414933,0.0012534067460431,0.0002899316297698,0.0054523944854736,-0.012027621269226,0.0196104049682617,0,0,0,0
6.0,1788346608172,0.0,0.0,-0.0038700671866536,-0.0022065760567784,0.5584824681282043,0.8295042514801025,0.0,0.0,0.0,0.0,-9.2876542012732e-09,0.0,-0.0023630857467651,-0.0036436216905713,0.8947857618331909,0.4464747607707977,-0.000548424346246,-0.0010373402529205,-0.0007739895471795,0.010250985622406,0.0237416625022888,-0.0107793807983398,0,0,0,0
6.1,1788346608272,0.0,0.0,-0.0038700671866536,-0.0022065760567784,0.5584824681282043,0.8295042514801025,0.0,0.0,0.0,0.0,-9.309060189366392e-09,0.0,-0.0023404760286211,-0.0036930944770574,0.8947752714157104,0.44649538397789,-3.917121019544584e-05,-0.0019479470860955,0.000454934519996,0.0004490613937377,-0.0006549358367919,-0.0270462036132812,0,0,0,0
6.2,1788346608372,0.0,0.0,-0.0038700671866536,-0.0022065760567784,0.5584824681282043,0.8295042514801025,0.0,0.0,0.0,0.0,-9.541412104852044e-09,0.0,-0.0023804027587175,-0.0036776205524802,0.8947767019271851,0.4464924931526184,-0.0007518178269021,0.0023065962199718,0.0001191802316935,-0.0131442546844482,-0.0528445243835449,0.0194330215454101,0,0,0,0
6.3,1788346608472,0.0,0.0,-0.0038700671866536,-0.0022065760567784,0.5584824681282043,0.8295042514801025,0.0,0.0,0.0,0.0,-1.5529952435144878e-08,0.0,-0.00245101749897,-0.0036600772291421,0.8947888016700745,0.4464678466320038,-4.128275349589066e-05,0.0024203428099271,-0.0006501094970509,-0.0117137432098388,-0.0254577994346618,-0.0109891891479492,0,0,0,0
6.4,1788346608572,0.0,0.0,-0.0038700671866536,-0.0022065760567784,0.5584824681282043,0.8295042514801025,0.0,0.0,0.0,0.0,-6.666087237761076e-09,0.0,-0.002442424185574,-0.0036308513954281,0.8947969675064087,0.4464516937732696,0.0008061873364791,-0.0005055856464111,-0.0005844344091975,0.0261112451553344,-0.0098550915718078,-0.016265869140625,0,0,0,0
6.5,1788346608672,0.0,0.0,-0.0038700671866536,-0.0022065760567784,0.5584824681282043,0.8295042514801025,0.0,0.0,0.0,0.0,-9.310788584571128e-09,0.0,-0.0023793652653694,-0.0036652330309152,0.8948023319244385,0.4464412033557892,-0.0014752675239202,-0.0024984682327563,0.0004537956243409,-0.0058351755142211,-0.0115599632263183,-0.0234880447387695,0,0,0,0
6.6,1788346608772,0.0,0.0,-0.0038700671866536,-0.0022065760567784,0.5584824681282043,0.8295042514801025,0.0,0.0,0.0,0.0,-9.35108968036502e-09,0.0,-0.0023693107068538,-0.0036751413717865,0.8947960734367371,0.446453720331192,0.0008488326743128,0.0010577302218076,0.0006455529263781,-0.0025380849838256,-0.0330770015716552,-0.0074024200439453,0,0,0,0
6.7,1788346608872,0.0,0.0,-0.0038700671866536,-0.0022065760567784,0.5584824681282043,0.8295042514801025,0.0,0.0,0.0,0.0,-1.5177473500216365e-08,0.0,-0.0023653414100408,-0.0036793900653719,0.8947994112968445,0.4464471042156219,-0.0006408646262561,0.0013616719465232,0.0005165038698165,0.0009407401084899,-0.0222449302673339,-0.0091505050659179,0,0,0,0
6.8,1788346608972,0.0,0.0,-0.0038700671866536,-0.0022065760567784,0.5584824681282043,0.8295042514801025,0.0,0.0,0.0,0.0,-9.28643650865979e-09,0.0,-0.0023494018241763,-0.0037193167954683,0.894818127155304,0.4464092850685119,-0.0011014579461762,-0.0017692157045715,0.000807015755537,-0.0428042411804199,-0.0109058618545532,-0.0055713653564453,0,0,0,0
6.9,1788346609072,0.0,0.0,-0.0038700671866536,-0.0022065760567784,0.5584824681282043,0.8295042514801025,0.0,0.0,0.0,0.0,-9.323439797981337e-09,0.0,-0.0023936061188578,-0.0037423241883516,0.8948158621788025,0.4464132487773895,-0.0002335026848099,0.0015958960417915,0.0004642321293336,-0.0099444389343261,0.0023581981658935,0.0250616073608398,0,0,0,0
7.0,1788346609172,0.0,0.0,-0.0038700671866536,-0.0022065760567784,0.5584824681282043,0.8295042514801025,0.0,0.0,0.0,0.0,-9.350046958900292e-09,0.0,-0.0024069603532552,-0.0037923278287053,0.8948081731796265,0.4464282393455505,-0.0018357870554444,5.345482777270831e-06,-7.760276743561303e-05,-0.0011844038963317,-0.0110390186309814,0.034006118774414,0,0,0,0
7.1,1788346609272,0.0,0.0,-0.0038700671866536,-0.0022065760567784,0.5584824681282043,0.8295042514801025,0.0,0.0,0.0,0.0,-1.5146429888091006e-08,0.0,-0.0023739077150821,-0.0038030268624424,0.8948138952255249,0.4464169442653656,0.0008428762440176,-0.0027299267340162,0.0002798700920173,-0.0215528607368469,0.0393659472465515,-0.0179090499877929,0,0,0,0
7.2,1788346609372,0.0,0.0,-0.0038700671866536,-0.0022065760567784,0.5584824681282043,0.8295042514801025,0.0,0.0,0.0,0.0,-9.319121474504756e-09,0.0,-0.0024038860574364,-0.0038507478311657,0.8948227763175964,0.4463984370231628,-0.0014848611105367,-0.0008842361168439,0.0002725053615386,-0.0088778734207153,-0.00623619556427,-0.0144767761230468,0,0,0,0
7.3,1788346609472,0.0,0.0,-0.0038700671866536,-0.0022065760567784,0.5584824681282043,0.8295042514801025,0.0,0.0,0.0,0.0,-9.510535470269588e-09,0.0,-0.002356638200581,-0.0038925558328628,0.8948212265968323,0.4464014768600464,-0.0007784379126139,5.957275480843887e-06,-0.0004363885432819,-0.0083184838294982,-0.0149983167648315,0.0124406814575195,0,0,0,0
7.4,1788346609572,0.0,0.0,-0.0038700671866536,-0.0022065760567784,0.5584824681282043,0.8295042514801025,0.0,0.0,0.0,0.0,-8.658056493970891e-09,0.0,-0.0023456672206521,-0.0038997856900095,0.8948119878768921,0.446419894695282,-0.0010138196712784,-0.0009350988237452,-8.638130033702398e-05,0.0076510906219482,0.0193590521812438,-0.0376853942871093,0,0,0,0
7.5,1788346609672,0.0,0.0,-0.0038700671866536,-0.0022065760567784,0.5584824681282043,0.8295042514801025,0.0,0.0,0.0,0.0,-1.5301518274668524e-08,0.0,-0.002307953312993,-0.0038714269176125,0.8948285579681396,0.4463870823383331,0.0013489091771523,0.000530553789492,0.0011747791792359,-0.0036209821701049,-0.0050700306892395,0.0268659591674804,0,0,0,0
7.6,1788346609772,0.0,0.0,-0.0038700671866536,-0.0022065760567784,0.5584824681282043,0.8295042514801025,0.0,0.0,0.0,0.0,-1.5301518274668524e-08,0.0,-0.002320840023458,-0.003879141062498,0.8948227763175964,0.4463987648487091,-0.0014846110244409,-0.0001714916236511,-0.0002555996388839,0.0145242810249328,-0.0011468529701232,0.007150650024414,0,0,0,0
7.7,1788346609872,0.0,0.0,-0.0038700671866536,-0.0022065760567784,0.5584824681282043,0.8295042514801025,0.0,0.0,0.0,0.0,-1.5301518274668524e-08,0.0,-0.002339226193726,-0.0038682082667946,0.894823431968689,0.4463973641395569,0.0001024335452229,0.001387457616375,0.0001066446212628,0.0077343583106994,-0.0335843563079834,0.0267724990844726,0,0,0,0
7.8,1788346609972,0.0,0.0,-0.0038700671866536,-0.0022065760567784,0.5584824681282043,0.8295042514801025,0.0,0.0,0.0,0.0,-9.206719830956445e-09,0.0,-0.0023279767483472,-0.003870558924973,0.8948186039924622,0.4464072287082672,0.0012706500330523,5.158994243927931e-06,-0.0002747094784932,0.0075622797012329,0.0150243639945983,-0.0143299102783203,0,0,0,0
7.9,1788346610072,0.0,0.0,-0.0038700671866536,-0.0022065760567784,0.5584824681282043,0.8295042514801025,0.0,0.0,0.0,0.0,-1.1412180533909576e-08,0.0,-0.0022920779883861,-0.0038716904819011,0.8948216438293457,0.4464010596275329,0.0018681280411543,-0.001409934703182,0.0006303157306671,-0.0038695335388183,0.0111084580421447,-0.0071678161621093,0,0,0,0
8.0,1788346610172,0.0,0.0,-0.0038700671866536,-0.0022065760567784,0.5584824681282043,0.8295042514801025,0.0,0.0,0.0,0.0,-9.315269444698517e-09,0.0,-0.0022851424291729,-0.0038555040955543,0.8948187828063965,0.4464071691036224,-0.0003009344409672,0.0015042725761668,0.0004178860483448,0.0069352388381958,-0.0179330110549926,-0.016244888305664,0,0,0,0
8.1,1788346610272,0.0,0.0,-0.0038700671866536,-0.0022065760567784,0.5584824681282043,0.8295042514801025,0.0,0.0,0.0,0.0,-1.1416975809197538e-08,0.0,-0.002269391901791,-0.0038792453706264,0.8948253989219666,0.4463937878608703,0.0008499279378856,-0.0013559011402463,-0.0002108138604689,0.0135705471038818,-0.0016777515411376,0.0323333740234375,0,0,0,0
8.2,1788346610372,0.0,0.0,-0.0038700671866536,-0.0022065760567784,0.5584824681282043,0.8295042514801025,0.0,0.0,0.0,0.0,-9.284193858150049e-09,0.0,-0.0022681262344121,-0.0038467328995466,0.8948483467102051,0.4463479220867157,0.0018854241050246,0.0004838251030914,0.00173847974661,0.0031100511550903,-0.0021120905876159,-0.0053997039794921,0,0,0,0
8.3,1788346610472,0.0,0.0,-0.0038700671866536,-0.0022065760567784,0.5584824681282043,0.8295042514801025,0.0,0.0,0.0,0.0,-1.502492175120551e-08,0.0,-0.0022790245711803,-0.0038384022191166,0.8948553204536438,0.4463339149951935,0.0017029833623281,-0.0005350522765254,0.0013516231853312,0.0015513896942138,-0.0004641413688659,0.0197610855102539,0,0,0,0
8.4,1788346610572,0.0,0.0,-0.0038700671866536,-0.0022065760567784,0.5584824681282043,0.8295042514801025,0.0,0.0,0.0,0.0,-6.61560450865295e-09,0.0,-0.0022948551923036,-0.003869823180139,0.8948608040809631,0.4463225603103637,9.223462793860682e-05,-0.0003143900227932,-0.0002310004569467,-0.0074204802513122,-0.0069473385810852,0.0179357528686523,0,0,0,0
8.5,1788346610672,0.0,0.0,-0.0038700671866536,-0.0022065760567784,0.5584824681282043,0.8295042514801025,0.0,0.0,0.0,0.0,-9.456121219386661e-09,0.0,-0.0023289658129215,-0.0038664015009999,0.8948479294776917,0.4463482201099396,-6.476186162976165e-05,0.0023241852019082,-0.0014999848440473,-0.0247199535369873,-0.0102047324180603,-0.0054407119750976,0,0,0,0
8.6,1788346610772,0.0,0.0,-0.0038700671866536,-0.0022065760567784,0.5584824681282043,0.8295042514801025,0.0,0.0,0.0,0.0,-9.436264214457424e-09,0.0,-0.0023068552836775,-0.0038276864215731,0.8948454856872559,0.4463537633419037,0.0006110117738771,-0.0003335020641895,-0.00110417654711,-0.019425094127655,-0.004033088684082,0.0287132263183593,0,0,0,0
8.7,1788346610872,0.0,0.0,-0.0038700671866536,-0.0022065760567784,0.5584824681282043,0.8295042514801025,0.0,0.0,0.0,0.0,-7.805361690316204e-09,0.0,-0.0022907704114913,-0.0038251290097832,0.8948497176170349,0.446345180273056,0.0005992763962394,-0.0008418196884347,0.000601959596779,0.0037055015563964,-0.0148695111274719,-0.0036296844482421,0,0,0,0
8.8,1788346610972,0.0,0.0,-0.0038700671866536,-0.0022065760567784,0.5584824681282043,0.8295042514801025,0.0,0.0,0.0,0.0,-7.805361690316204e-09,0.0,-0.0022907704114913,-0.0038251290097832,0.8948497176170349,0.446345180273056,0.0005992763962394,-0.0008418196884347,0.000601959596779,0.0037055015563964,-0.0148695111274719,-0.0036296844482421,0,0,0,0
8.9,1788346611072,0.0,0.0,-0.0038700671866536,-0.0022065760567784,0.5584824681282043,0.8295042514801025,0.0,0.0,0.0,0.0,-7.805361690316204e-09,0.0,-0.0022907704114913,-0.0038251290097832,0.8948497176170349,0.446345180273056,0.0005992763962394,-0.0008418196884347,0.000601959596779,0.0037055015563964,-0.0148695111274719,-0.0036296844482421,0,0,0,0
9.0,1788346611172,0.0,0.0,-0.0038700671866536,-0.0022065760567784,0.5584824681282043,0.8295042514801025,0.0,0.0,0.0,0.0,-7.805361690316204e-09,0.0,-0.0022907704114913,-0.0038251290097832,0.8948497176170349,0.446345180273056,0.0005992763962394,-0.0008418196884347,0.000601959596779,0.0037055015563964,-0.0148695111274719,-0.0036296844482421,0,0,0,0
9.1,1788346611272,0.0,0.0,-0.0038700671866536,-0.0022065760567784,0.5584824681282043,0.8295042514801025,0.0,0.0,0.0,0.0,-9.414110380134844e-09,0.0,-0.0023125372827053,-0.0037817535921931,0.8948578834533691,0.4463291764259338,-0.0011237898858074,0.0001459736196782,-0.0005020349761239,-0.0332658886909484,0.0024632811546325,0.0143337249755859,0,0,0,0
9.2,1788346611372,0.0,0.0,-0.0038700671866536,-0.0022065760567784,0.5584824681282043,0.8295042514801025,0.0,0.0,0.0,0.0,-9.350545226993743e-09,0.0,-0.0023266216740012,-0.0037540681660175,0.8948684930801392,0.4463079571723938,-0.00059578352305,0.0008883114110902,0.0001052199947964,0.0193495154380798,-0.0067744851112365,-0.0107841491699218,0,0,0,0
9.3,1788346611472,0.0,0.0,-0.0038700671866536,-0.0022065760567784,0.5584824681282043,0.8295042514801025,0.0,0.0,0.0,0.0,-9.391929900459672e-09,0.0,-0.002356182783842,-0.0037392284721136,0.8948732614517212,0.4462983310222626,-0.000254839153847,-0.0003505673632541,0.0002778144206839,-0.0015727281570434,-0.0212080478668212,0.0052909851074218,0,0,0,0
9.4,1788346611572,0.0,1.7464789152145386,-0.0038700671866536,-0.0022065760567784,0.5584824681282043,0.8295042514801025,0.0,0.0,0.0,0.0,-9.219598418042096e-09,0.0,-0.0023242682218551,-0.0037800129503011,0.8948571681976318,0.4463304579257965,-0.0011414158588257,-0.0027897783587793,-0.0018258748118239,0.194042682647705,0.0053731799125671,-0.0121326446533203,146,177,8063,7905
9.5,1788346611672,2.05633807182312,3.859154939651489,-0.0038867329712957,-0.0029492899775505,0.5611432790756226,0.8277042508125305,0.068611404458146,-0.0055207457018523,1.156181274980012e-05,-0.0185266025364398,-0.0201494079083204,0.1637845635414123,-0.0019004922360181,-0.0047921566292643,0.8978902697563171,0.4401892423629761,-0.0158859668897476,-0.0121854030321292,0.2386355248284256,0.2167144417762756,-0.0317944288253784,0.2442607879638672,110,257,9615,17794
9.6,1788346611772,3.2957746982574463,6.929577350616455,-0.004174115601927,-0.0033046260941773,0.5786228179931641,0.8155778646469116,0.1371203105766449,0.0014815661790301,8.192582906023431e-07,0.0010973721509799,-0.0050913630984723,0.4066408276557922,-0.0020394437015056,-0.0048553813248872,0.9085499048233032,0.4177433550357818,0.0037089370960549,0.0021977242148114,0.4950984202783027,0.8607649803161621,-0.1222092509269714,0.1046457290649414,170,270,13875,20774
9.7,1788346611872,3.549295663833618,6.478873252868652,-0.0043780310079455,-0.0030319367069751,0.5970339179039001,0.8021982908248901,0.1848907545379012,0.0048389919921334,5.433580776533111e-06,-0.0028683708515018,0.0077264769934117,0.5197184681892395,-0.0026290453970432,-0.0045066652819514,0.918180525302887,0.3961278200149536,0.0090016202493526,0.0224699485553613,0.5321449490039939,-0.0299417376518249,-0.2029637098312378,-0.3279132843017578,105,24,12110,20017
9.8,1788346611972,3.492957830429077,6.901408672332764,-0.0044132703915238,-0.0028168596327304,0.6177061796188354,0.7863914966583252,0.1766294308021056,0.0019254093397645,5.801156542767221e-05,-0.005109526682645,-0.0083016734570264,0.5039770007133484,-0.0025470806285738,-0.0045568915084004,0.9277671575546264,0.3731230497360229,-0.0012679331641034,0.0121558904032619,0.5108117994710896,-0.3204720616340637,-0.1210798621177673,-0.1483545303344726,79,118,11437,16886
9.9,1788346612072,2.450704336166382,4.563380241394043,-0.0041826581582427,-0.0028136817272752,0.6285746693611145,0.7777328491210938,0.1734980231901626,-0.0018292856157886,-1.1668684707750827e-05,0.0058926828205585,-0.0071197710931301,0.4659624397754669,-0.0024680895730853,-0.0040905978530645,0.9348384737968444,0.3550411462783813,0.0123666828343337,-0.0067781241140458,0.3426619165285428,-0.8160329461097717,-0.227472722530365,-0.1386947631835937,20,127,6025,7802
10.0,1788346612172,0.6478873491287231,0.9577465057373048,-0.0039274711161851,-0.0024505793116986,0.6451358795166016,0.7640538215637207,0.074184547056426,0.0012360025006524,8.55845259103947e-06,-1.6377720385207795e-05,-0.0015136923175305,0.1751323044300079,-0.0021932395175099,-0.004027547314763,0.9381625652313232,0.3461645841598511,0.0048104579503701,0.0054508478646678,0.1404150202477546,-0.7466092705726624,-0.1566426753997802,0.2190837860107422,32,66,1852,1455
10.1,1788346612272,0.0,0.0,-0.0039354357868433,-0.0023702890612185,0.6471376419067383,0.7623593211174011,0.0003540043028633,-0.0016543748348672,2.0899901863674184e-06,-0.0005033093038946,-0.0001133165496867,0.0317098870873451,-0.0021219300106167,-0.0040489314123988,0.9388416409492492,0.344319075345993,0.0003651180605758,-0.0092271266751667,-0.0038564845297744,0.1917093396186828,-0.0302805304527282,0.0304088592529296,1,2,0,0
10.2,1788346612372,0.0,0.0,-0.0039354357868433,-0.0023702890612185,0.6471376419067383,0.7623593211174011,0.0,0.0,0.0,0.0,0.0,0.0,-0.0021649356931447,-0.0040639713406562,0.9387820959091188,0.3444808423519134,-0.0008769881518826,-0.0010779511877055,9.874621372209396e-05,-0.0034734010696411,-0.0443354845046997,0.0947637557983398,0,0,0,0
10.3,1788346612472,0.0,0.0,-0.0039354357868433,-0.0023702890612185,0.6471376419067383,0.7623593211174011,0.0,0.0,0.0,0.0,0.0,0.0,-0.0022376179695129,-0.0040370337665081,0.9387811422348022,0.3444829881191253,0.0003581626364179,0.0006878496495005,0.0001053252389778,0.0070469379425048,-0.0263155698776245,0.0786857604980468,0,0,0,0
10.4,1788346612572,0.0,0.0,-0.0039251190610229,-0.0023534267675131,0.6470952033996582,0.7623953819274902,9.825843284421058e-05,-0.0001137757372148,7.868764163636e-07,0.0014325723750516,0.0011257389560341,0.001136330072768,-0.002238105982542,-0.003971567377448,0.9387950301170348,0.3444460332393646,0.0019273739741375,-0.0004135192272258,0.0014674431384825,-0.0068324208259582,0.0318599939346313,0.051950454711914,0,0,0,0
10.5,1788346612672,0.0,0.0,-0.0039251190610229,-0.0023534276988357,0.6470952033996582,0.7623953819274902,0.0,0.0,0.0,0.0,0.0,0.0,-0.0022149169817566,-0.0039429888129234,0.9387844204902648,0.3444754183292389,0.0005353703540575,-0.0005529419386277,0.0001033043748137,0.0216754674911499,-0.0298672914505004,0.0463504791259765,0,0,0,0
10.6,1788346612772,0.0,0.0,-0.0039251190610229,-0.0023534276988357,0.6470952033996582,0.7623953819274902,0.0,0.0,0.0,0.0,0.0,0.0,-0.0022291559725999,-0.003946054726839,0.9387749433517456,0.344501256942749,-0.0004903907151746,0.001138573379422,-0.0008997081330326,-0.0338015556335449,-0.0585652589797973,0.0749015808105468,0,0,0,0
10.7,1788346612872,0.0,0.0,-0.0039251190610229,-0.0023534276988357,0.6470952033996582,0.7623953819274902,0.0,0.0,0.0,0.0,0.0,0.0,-0.002260698005557,-0.0039653973653912,0.93876713514328,0.3445219993591308,-0.0010526546149821,0.0010487513307822,-0.0023845309321883,0.0205498337745666,0.0067265033721923,0.0590705871582031,0,0,0,0
10.8,1788346612972,0.0,0.0,-0.0039251190610229,-0.0023534276988357,0.6470952033996582,0.7623953819274902,0.0,0.0,0.0,0.0,0.0,0.0,-0.0022609438747167,-0.0039701480418443,0.9387733936309814,0.3445049226284027,-0.0008696274455076,-0.0018074732715852,0.001167738532283,-0.0046237111091613,0.0050122141838073,0.0608272552490234,0,0,0,0
10.9,1788346613072,2.169013977050781,2.929577350616455,-0.0038566964212805,-0.0024262769147753,0.6475918292999268,0.7619737386703491,0.0028171654705708,-0.0019898638690712,2.944805349971844e-07,0.0001784615014912,-0.0040407450869679,0.0255994293838739,-0.0024046087637543,-0.0039758570492267,0.9398810863494872,0.3414702713489532,-0.0038123852114302,0.022455209823717,0.1342177739962818,0.9732506275177002,0.2547754049301147,0.2911949157714844,178,193,10527,14388
11.0,1788346613172,3.549295663833618,5.098591327667236,-0.0041057583875954,-0.0018830583430826,0.6541600227355957,0.7563427090644836,0.1148299882156729,0.0006708364197509,4.71566973621361e-06,0.0086279856041073,0.0069655501283705,0.2052883058786392,-0.0025632036849856,-0.0036931410431861,0.943083107471466,0.3325267434120178,-0.0004453299653433,-0.0067454958445947,0.2241350189996958,0.4208351969718933,0.3634448647499084,-0.1311912536621093,113,163,13436,20790
11.1,1788346613272,4.084506988525391,6.535211086273193,-0.0033908239565789,-0.0021916420664638,0.663959264755249,0.7477579116821289,0.1736098146816278,-0.0047877076824837,9.327417432517432e-05,0.0136909019201993,-0.0298446156084537,0.3411798775196075,-0.0020895823836326,-0.0034531876444816,0.9480902552604676,0.3179759085178375,0.0014710950610753,0.018769458216578,0.3451481522096933,-0.1354055404663086,0.041317880153656,-1.0294828414916992,90,63,13454,20702
11.2,1788346613372,4.3380279541015625,5.549295902252197,-0.003683574963361,-0.0016619398957118,0.6711825132369995,0.7412810325622559,0.1878078638214541,-0.0015799669838696,-4.038644769184668e-05,0.0050271688960492,0.0218996908515691,0.3851463198661804,-0.0021833376958966,-0.0033260695636272,0.9520167112350464,0.3060202300548553,-0.0045324319751011,-0.0104545189029151,0.3235748781434889,-0.1513665318489074,0.2682291865348816,0.1173067092895507,77,52,13230,18394
11.3,1788346613472,4.253520965576172,5.521126747131348,-0.0031527029350399,-0.0016979530919343,0.6840562224388123,0.7294206023216248,0.1700940467317461,0.0058633635295853,-2.2522635391831708e-05,0.0121656646952033,-0.0011666177306324,0.2929350435733795,-0.0016186311841011,-0.0029910458251833,0.9555246233940125,0.2948919236660003,0.0121144025449361,-0.0114413634624205,0.285195350657646,0.0220234990119934,-0.0853773951530456,0.3100709915161133,109,30,14277,18248
11.4,1788346613572,4.563380241394043,5.85915470123291,-0.0030203629285097,-0.0015240395441651,0.6887103319168091,0.7250286340713501,0.1678515439340292,0.0025299283450727,3.400977995913908e-05,0.0082047143951058,0.0005558797274716,0.2505592107772827,-0.0019303793087601,-0.0025479635223746,0.9601564407348632,0.2794449627399444,0.0092598320290375,0.0131512221595693,0.1642356347728477,-0.243489921092987,-0.1283250451087951,0.3544492721557617,100,63,13228,16161
11.5,1788346613672,4.253520965576172,6.450704097747803,-0.0030203629285097,-0.0015240395441651,0.6887103319168091,0.7250286340713501,0.1678515439340292,0.0025299283450727,3.400977995913908e-05,0.0082047143951058,0.0005558797274716,0.2505592107772827,-0.0019832104444503,-0.0022139903157949,0.9641852974891664,0.2652128338813782,0.0040205824015801,-0.0084479531490839,0.2769341123164067,0.127622365951538,-0.28754723072052,-0.5060415267944336,52,116,12958,15513
11.6,1788346613772,4.422535419464111,5.521126747131348,-0.0030203629285097,-0.0015240395441651,0.6887103319168091,0.7250286340713501,0.1678515439340292,0.0025299283450727,3.400977995913908e-05,0.0082047143951058,0.0005558797274716,0.2505592107772827,-0.0024425918236374,-0.0021166307851672,0.966698408126831,0.255898118019104,0.0049926096094437,-0.0082672211423452,0.2415038285536755,-0.1005103588104248,0.0731879472732544,0.0698652267456054,62,55,12514,18596
11.7,1788346613872,4.169013977050781,6.0,-0.0031685119029134,-0.0006378967082127,0.715022623538971,0.6990938186645508,0.1678332558981758,0.0055098948814983,-0.0001176444415846,-0.0005474520730786,0.0120178051292896,0.241456389427185,-0.0023102108389139,-0.0022126017138361,0.9693031907081604,0.2458476573228836,-0.0022488671557452,0.0039313043615296,0.2809610199974239,0.1150964498519897,0.0599100589752197,0.9052772521972656,69,35,13152,17168
11.8,1788346613972,4.647887229919434,5.352112770080566,-0.003012343076989,-0.0008539297850802,0.7231602072715759,0.6906732320785522,0.181151725989921,-0.0029946920135223,-8.82393313990993e-06,-0.002218518871814,-0.0033000297844409,0.2678792476654053,-0.0023646606132388,-0.0020641237497329,0.972736120223999,0.231893315911293,-0.0020432424424057,-0.0097603576194032,0.2020776507990946,-0.2554430365562439,-0.3076756000518799,-0.9286861419677734,95,118,13896,16710
11.9,1788346614072,4.084506988525391,6.3380279541015625,-0.0034166448749601,-0.0005260629113763,0.7348541617393494,0.6782163381576538,0.1785240140623322,0.0004523063020592,3.085417490204697e-05,-0.004482218530029,0.0088555393740534,0.1676907688379287,-0.002932883799076,-0.0020335838198661,0.9748826026916504,0.2226905673742294,-0.0010226381682105,-0.0019847440870208,0.1723539468395877,-0.2359734177589416,0.3554443120956421,-0.1734266281127929,83,143,13625,15923
12.0,1788346614172,4.478873252868652,5.267605781555176,-0.0034688487648963,-0.0003760043764486,0.7394029498100281,0.6732540726661682,0.1696860531731575,0.0009370453221412,3.1422083697586065e-06,0.0009130132966674,-0.0058349487371742,0.1856914609670639,-0.0042545385658741,0.0004360759630799,0.9780343770980836,0.2083998471498489,0.0481663624577708,0.0658043982189628,0.2497407775414865,0.289529025554657,0.2666189670562744,0.6030473709106445,83,143,13625,15923
12.1,1788346614272,4.704225540161133,5.943662166595459,-0.0035671989899128,0.0022715290542691,0.7485887408256531,0.6630211472511292,0.1859945427504125,-0.0027528541511746,-0.0001004159648172,0.0086343772709369,0.0204764027148485,0.1665565073490142,-0.0019846707582473,-0.0023209042847156,0.9784835577011108,0.2063026279211044,-0.0553664024828096,-0.0972158452407751,0.0410488877209727,-0.2636570334434509,-0.27284836769104,-1.397355079650879,52,48,14366,14745
12.2,1788346614372,4.704225540161133,5.943662166595459,-0.0025317578110843,-0.0010798865696415,0.7546589970588684,0.656111478805542,0.1666592469424503,-0.0034233944274047,-2.4424209692692787e-05,0.0011407858692109,0.0039528510533273,0.1988723278045654,-0.0018708575516939,-0.0020895833149552,0.9798115491867064,0.1999039649963379,-0.0056625857983056,0.0328969893918109,0.2167383503161319,0.0074551701545715,-0.0115688443183898,0.7324094772338867,52,48,14366,14745
12.3,1788346614472,4.478873252868652,6.619718074798584,-0.0025317578110843,-0.0010798865696415,0.7546589970588684,0.656111478805542,0.1666592469424503,-0.0034233944274047,-2.4424209692692787e-05,0.0011407858692109,0.0039528510533273,0.1988723278045654,-0.0013876520097255,-0.0025551849976181,0.9830270409584044,0.1834376603364944,-0.0040612955495175,0.0121561358729491,0.2553998258167378,0.0069186687469482,0.0784623026847839,-0.4329071044921875,82,33,13112,18270
12.4,1788346614572,4.478873252868652,6.619718074798584,-0.0025620702654123,-0.0014094493817538,0.7685579061508179,0.6397736072540283,0.1736567414832915,0.0039375885634861,-5.5772531968159546e-05,0.0001258738484466,0.0095510361716151,0.2802713513374328,-0.0012851227074861,-0.0024948427453637,0.9849609732627868,0.1727540642023086,0.0015183313859041,-0.0124766028085487,0.2497317081318996,0.2556394934654236,-0.2443462014198303,0.0151576995849609,85,140,11993,15433
12.5,1788346614672,4.507042407989502,5.464788913726807,-0.0022497891914099,-0.0015774562489241,0.7726693749427795,0.6348026990890503,0.1648799704902672,0.0085332999080991,3.468043651187148e-05,0.00250906473957,-0.0143725080415606,0.2539547979831695,-0.0019631767645478,-0.0027285777032375,0.9863966107368468,0.1643487811088562,-0.0029385208944948,0.0104224033631308,0.1581477743825769,0.1129729747772216,0.1741434931755066,-0.5940179824829102,53,79,12169,18826
12.6,1788346614772,4.14084529876709,6.169013977050781,-0.0030061113648116,-0.0015043414896354,0.7807809114456177,0.6247958540916443,0.1862433842968949,-0.0010035598554387,1.57663487914825e-05,-0.0023623395245522,-0.0057383812963962,0.226621076464653,-0.0018742578104138,-0.0027905022725462,0.987298548221588,0.1588401645421981,-0.0022198190175377,-0.0045780411215593,0.2234008462317969,0.2584473490715027,0.1580590605735778,-0.4232645034790039,111,123,12246,15100
12.7,1788346614872,4.197183132171631,5.88732385635376,-0.0032120901159942,-0.0015601367922499,0.789444088935852,0.6138120293617249,0.1726884701845982,-0.0008722851993402,4.374988211111754e-06,-0.0031316257081925,0.0063582621514797,0.2544039487838745,-0.0020815413445234,-0.0030089290812611,0.9908682703971864,0.1347842067480087,-0.0093434225382776,0.0097974366443626,0.252023537090138,0.0373614430427551,-0.0812260508537292,0.7124519348144531,111,123,12246,15100
12.8,1788346614972,4.0,5.408450603485107,-0.0032120901159942,-0.0015601367922499,0.789444088935852,0.6138120293617249,0.1726884701845982,-0.0008722851993402,4.374988211111754e-06,-0.0031316257081925,0.0063582621514797,0.2544039487838745,-0.0021820459514856,-0.0032431306317448,0.9925351738929749,0.1218964681029319,-0.0075100746309819,-0.0098992348131353,0.2674839378119146,0.1662520766258239,-0.1727569699287414,-0.0151500701904296,91,94,13933,19343
12.9,1788346615072,4.253520965576172,6.0,-0.0032120901159942,-0.0015601367922499,0.789444088935852,0.6138120293617249,0.1726884701845982,-0.0008722851993402,4.374988211111754e-06,-0.0031316257081925,0.0063582621514797,0.2544039487838745,-0.002277422696352,-0.0030975257977843,0.9934885501861572,0.1138675063848495,0.0058866882168236,0.0107795096463617,0.2657429916471152,-0.0372228026390075,-0.1801207065582275,1.1089181900024414,67,26,12940,17119
13.0,1788346615172,4.084506988525391,6.591549396514893,-0.0039571342058479,-0.0015432867221534,0.8125189542770386,0.5829192996025085,0.1760000947279675,0.0005603002936757,-5.677278992569582e-05,-0.0101286079734563,0.0127703864127397,0.2690461575984955,-0.0025629652664065,-0.0034963237121701,0.9953092932701112,0.0966473966836929,-0.0085719722506277,-0.0101169454052196,0.2671852704408655,-0.1503112316131591,0.2248937487602234,0.0992107391357421,81,132,13667,15326
13.1,1788346615272,4.169013977050781,6.14084529876709,-0.0035978415980935,-0.0018372284248471,0.8198851346969604,0.5725138187408447,0.1699502307576177,0.0062553686332052,5.484242712018691e-06,-0.0029407818801701,-0.0128065096214413,0.2613222599029541,-0.0026441914960741,-0.0032272636890411,0.9966219663619996,0.082020565867424,0.007089634535942,0.017293867130035,0.2609879723850385,-0.3836151361465454,-0.0086497068405151,-0.437265396118164,96,161,12218,15773
13.2,1788346615372,1.4929577112197876,3.436619758605957,-0.0036414046771824,-0.0016355729894712,0.828374981880188,0.5601596832275391,0.1521295736917958,0.0072759869647549,-1.71645677049602e-05,0.0044831321574747,-0.0021292285528033,0.2714557647705078,-0.0023694802075624,-0.003254902549088,0.9971083402633668,0.0758860781788826,-0.0010856489615948,-0.015002750156766,0.3107937583115212,-1.761868238449097,0.2717758417129516,0.3702983856201172,77,37,0,5737
13.3,1788346615472,-1.2676056623458862,1.042253494262695,-0.0037615608889609,-0.0016491253627464,0.8327435255050659,0.5536438226699829,0.0925577044159738,0.0024146524811762,-6.220248049306545e-06,-0.0038168947212398,0.0026235787663608,0.3148064911365509,-0.0022331485524773,-0.0030331462621688,0.9983195066452026,0.0578266642987728,0.0039213813287085,-0.004451156533804,0.2918702056212058,-1.340609788894653,0.0270270705223083,0.0717010498046875,127,26,-4987,258
13.4,1788346615572,-0.7042253613471985,0.7887324094772339,-0.0033799507655203,-0.0015554632991552,0.8403364419937134,0.5420525074005127,0.0124171779432187,-0.0008841239044415,-1.022367322843731e-06,0.0035239676944911,-0.0037745577283203,0.2762472331523895,-0.0019983872771263,-0.0029882099479436,0.9986740946769714,0.0513546653091907,-9.48090496869528e-05,-0.0014516204935323,0.0855659568128913,0.4818084239959717,-0.012241780757904,0.1151971817016601,83,77,-5802,3805
13.5,1788346615672,0.0,0.8169013857841492,-0.0031063861679285,-0.0015150730032473,0.8471376299858093,0.5313623547554016,-0.0026408180648185,0.0008740200370618,4.4636916283910427e-08,0.0017253424739465,-0.003901787335053,0.196806401014328,-0.0021219672635197,-0.0027514472603797,0.9991949200630188,0.0399693623185157,0.0054617528994858,0.0103299413584956,0.3239863721218128,-0.1451907753944397,0.1358855962753296,0.0107984542846679,106,124,-3807,5457
13.6,1788346615772,0.2253521084785461,0.0,-0.0031334250234067,-0.0013422291958704,0.854459285736084,0.519507110118866,0.0058694065983051,-0.002514643642208,1.6236071053143628e-06,0.0012182148639112,-0.0006547539378516,0.2046255618333816,-0.0020245406776666,-0.0027690744027495,0.9993479251861572,0.0359452739357948,-0.00226110726248,0.0025915948340115,-0.1439326609736846,-0.1558941602706909,-0.0023730397224426,0.0299892425537109,177,166,4503,-7899
13.7,1788346615872,0.0,0.9577465057373048,-0.0031334250234067,-0.0013422291958704,0.854459285736084,0.519507110118866,0.0058694065983051,-0.002514643642208,1.6236071053143628e-06,0.0012182148639112,-0.0006547539378516,0.2046255618333816,-0.0019616382196545,-0.0028023021295666,0.999499499797821,0.0314496494829654,-0.0009352545058169,0.0009738534018621,0.1829345515547164,-0.0524636507034301,0.0347878336906433,-0.1708946228027343,121,29,-6115,3142
13.8,1788346615972,-0.9014084339141846,0.7605633735656738,-0.0029466873966157,-0.0015266257105395,0.8592848181724548,0.5114864706993103,0.0084392647456511,-0.0035878179704442,-4.48135136259246e-07,0.0016882421914488,-0.0026097609661519,0.2218843102455139,-0.0018151057884097,-0.0028226431459188,0.9997729659080504,0.0210408121347427,-0.0017852206829442,0.0033164942214468,0.118023766503764,0.1426273584365844,-0.2909055352210998,-0.0318422317504882,121,29,-6115,3142
13.9,1788346616072,-0.8169013857841492,0.9014084339141846,-0.0029619517736136,-0.0015709528233855,0.859829306602478,0.5105705261230469,-0.0027503672030514,-0.0011512516327006,1.4467258808597606e-06,-0.0015644668601453,-0.0004113466129638,0.0348975658416748,-0.001584674231708,-0.0028304755687713,0.999912977218628,0.0127931097522377,-0.0028235456810085,-0.0035594687250842,0.2954263150053479,0.2479391098022461,-0.0617896318435668,0.1182689666748046,175,50,-7413,3077
14.0,1788346616172,-0.591549277305603,0.0,-0.0028200089000165,-0.0016505732201039,0.864700436592102,0.5022773146629333,0.002522429312994,0.0019834611071847,-9.795711013385597e-07,-0.000470526254503,-0.003901042509824,0.3091989457607269,-0.0015518637374043,-0.0028224494308233,0.9999744296073914,0.0063843233510851,-0.0012041856888557,-0.0015064623189889,0.0284278799646371,-0.0468829870223999,-0.2237278819084167,0.1010799407958984,10,2,0,0
14.1,1788346616272,2.422535181045532,2.3943662643432617,-0.0027787731960415,-0.0016481343191117,0.8660036325454712,0.5000271201133728,-0.0046114622418416,-0.0005812889008177,1.021337062155076e-06,0.0005473945057019,-0.0021556140854954,-0.1114166378974914,-0.0014495560899376,-0.002799485810101,0.999950110912323,0.0094743985682725,0.0010572600202531,-0.0049775336218477,0.0158342879477052,1.1001851558685305,-0.1045567393302917,0.3006048202514648,315,285,12781,12678
14.2,1788346616372,3.7183098793029785,3.774647951126098,-0.0024228836409747,-0.0018018842674791,0.8653444051742554,0.501168429851532,0.0832718791501249,0.0035426465699838,4.065006427361815e-05,0.0026598433032631,-0.0141405956819653,0.0111778490245342,-0.0010769329965114,-0.0025862613692879,0.9999483227729796,0.0097778271883726,-0.0024709979118649,-0.0093018249320167,-0.0305748493116168,0.6939216256141663,0.1364892125129699,0.4967947006225586,237,107,16853,14874
14.3,1788346616472,5.690140724182129,5.323943614959717,-0.0024733447935432,-0.00129421625752,0.8650892376899719,0.5016101598739624,0.1717333600219101,0.0008756653007635,-1.564084121367987e-05,0.0113142868503928,0.0167768709361553,-0.040832694619894,-0.0010277023538947,-0.0019614305347204,0.999942660331726,0.0104745840653777,0.0143397508326278,-0.0130688128619186,0.0001466664008215,-0.1922010779380798,0.1141524314880371,0.3249235153198242,94,111,16881,14053
14.4,1788346616572,5.690140724182129,5.323943614959717,-0.0024733447935432,-0.00129421625752,0.8650892376899719,0.5016101598739624,0.1717333600219101,0.0008756653007635,-1.564084121367987e-05,0.0113142868503928,0.0167768709361553,-0.040832694619894,-0.0003763297572731,-0.0010982425883412,0.9998835325241088,0.0152184357866644,0.0198166054474961,0.0208596300208456,-0.1850910581604039,0.120760977268219,-0.0447102785110473,-1.498334884643555,78,27,15728,12849
14.5,1788346616672,5.464788913726807,4.732394218444824,-0.0013741825241595,0.0009948516963049,0.8610376119613647,0.508538544178009,0.1556915249709445,-0.0019918978251724,-0.0001164554040682,0.0659014582633972,0.0741574317216873,-0.1879878044128418,0.0001688655465841,-0.0013043479993939,0.999671220779419,0.0256088562309741,-0.1022143895885611,-0.1202250444340683,-0.2511541647382571,0.2547439932823181,-0.0785360336303711,1.657465934753418,52,37,15632,15255
14.6,1788346616772,5.070422649383545,4.535211086273193,-0.0004766863421536,-0.0010044415248557,0.855414092540741,0.5179435610771179,0.1671638529771019,-0.0057803758581666,-1.8987085801461445e-05,0.0096505116671323,-0.0044382149353623,-0.0413866862654686,0.0003641946241259,-0.0011168299242854,0.999569058418274,0.0293321926146745,2.559096219552753e-05,-0.018773037390172,-0.0167924217539975,-0.1896044015884399,-0.1322205066680908,0.6490774154663086,62,83,15135,15798
14.7,1788346616872,5.098591327667236,5.154929637908936,-0.0004766863421536,-0.0010044415248557,0.855414092540741,0.5179435610771179,0.1671638529771019,-0.0057803758581666,-1.8987085801461445e-05,0.0096505116671323,-0.0044382149353623,-0.0413866862654686,0.0005912091583013,-0.0008521331474184,0.9995335340499878,0.0305237937718629,0.0013454295326719,0.0089837440168104,-0.0589765965396697,-0.1601095199584961,-0.2319161891937255,0.893010139465332,92,48,15967,13875
14.8,1788346616972,4.985915660858154,4.704225540161133,-0.0004766863421536,-0.0010044415248557,0.855414092540741,0.5179435610771179,0.1671638529771019,-0.0057803758581666,-1.8987085801461445e-05,0.0096505116671323,-0.0044382149353623,-0.0413866862654686,0.0010627852752804,-0.0006706789135932,0.9995065927505492,0.0313858017325401,0.006580354378685,-0.0156385187549939,-0.0290291247648918,0.0841532945632934,-0.0735301375389099,-0.6147356033325195,81,142,15450,16467
14.9,1788346617072,5.070422649383545,4.901408672332764,-0.0004766863421536,-0.0010044415248557,0.855414092540741,0.5179435610771179,0.1671638529771019,-0.0057803758581666,-1.8987085801461445e-05,0.0096505116671323,-0.0044382149353623,-0.0413866862654686,0.0016463343054056,-0.0007881429046392,0.9995229244232178,0.0308314356952905,-0.0010298623810195,-0.0133667869062227,-0.0046703213559514,0.093534231185913,0.255038857460022,-0.0907115936279296,109,41,15269,15704
15.0,1788346617172,4.985915660858154,4.873239517211914,0.0008392117451876,-0.0013356951531022,0.8545453548431396,0.5193742513656616,0.1825846708996903,-0.0001844072261486,2.018919591993792e-05,-0.0029206981416791,-0.0100509840995073,0.0065042641945183,0.0017956448718905,-0.0007998878136277,0.9995150566101074,0.0310753770172595,-0.0002230788839332,-0.0044401974913173,-0.0072554877717636,0.0675629377365112,0.3495277762413025,-0.3328304290771484,86,128,15455,13541
15.1,1788346617272,5.211267471313477,4.535211086273193,0.001168190035969,-0.0015809787437319,0.8543763160705566,0.519650936126709,0.1750987377488683,0.0006946639515288,8.049269322414762e-05,0.0002442922850605,-0.0077095218002796,-0.0130105726420879,0.00215879175812,-0.0013042408972978,0.9995276927947998,0.0306280199438333,-0.0118037755102206,-0.0120348662849647,0.0146569518142564,-0.149122953414917,0.1713621020317077,0.3846435546875,77,54,15717,16442
15.2,1788346617372,5.070422649383545,5.267605781555176,0.0012355982325971,-0.0021988002117723,0.8546077013015747,0.5192679762840271,0.1748244516477836,-0.0012401350922057,3.949945873225692e-05,-0.0050112726166844,-0.0180184785276651,0.0122636267915368,0.001916604116559,-0.0015818523243069,0.9995331168174744,0.0304522048681974,-0.0031054517374212,0.0075042247580229,0.0088808081238061,-0.1269644498825073,-0.1834449172019958,0.6813869476318359,92,49,15232,14517
15.3,1788346617472,4.732394218444824,5.464788913726807,0.0008880463428795,-0.0023209918290376,0.8546991944313049,0.5191177725791931,0.1711773869631146,6.758733495122371e-05,-2.9386375850011937e-05,-0.0084361182525753,0.0069192051887512,0.005241076927632,0.002605709247291,-0.0018500313162803,0.9996019005775452,0.0280341040343046,-0.005596777024803,-0.0122139951370875,0.0682098132758552,-0.185575246810913,-0.1785296201705932,0.4200811386108398,82,167,15278,15266
15.4,1788346617572,4.732394218444824,5.464788913726807,0.0008880463428795,-0.0023209918290376,0.8546991944313049,0.5191177725791931,0.1711773869631146,6.758733495122371e-05,-2.9386375850011937e-05,-0.0084361182525753,0.0069192051887512,0.005241076927632,0.0033815428614616,-0.001833545975387,0.9996851086616516,0.0247971396893262,0.0058200190059981,-0.0142068066981037,0.0588272381652012,-0.0733227729797363,-0.2162330746650695,-0.1072235107421875,82,167,15278,15266
15.5,1788346617672,4.929577350616455,5.88732385635376,0.0020308881066739,-0.0034800902940332,0.8581371307373047,0.5134046673774719,0.1800822248331129,0.0010206503010417,2.052893986175108e-05,-0.0064084026962518,-0.0029786089435219,0.0437593087553978,0.0031382935121655,-0.0021491590887308,0.9997362494468688,0.0226480737328529,-0.0065014493191761,0.0095052884483619,0.0473952475483029,0.1951633691787719,0.3342800140380859,-0.1202983856201171,81,113,14971,13448
15.6,1788346617772,4.535211086273193,5.183098793029785,0.002020914806053,-0.0036107907071709,0.8592618703842163,0.5115191340446472,0.1879273371839216,-0.001383592588061,2.424708482956492e-05,0.0017946357838809,-0.0232339017093181,0.0587295815348625,0.0036855032667517,-0.0019296174868941,0.999858558177948,0.0162954907864332,0.0085252681177645,0.0049072869015598,0.157233485595508,0.1259546875953674,0.2380372285842895,-0.6239423751831055,65,77,13769,18136
15.7,1788346617872,4.2816901206970215,5.492957592010498,0.0022157467901706,-0.0034791091457009,0.861513614654541,0.5077177882194519,0.179394593360894,0.0012358315406734,5.682310479408226e-05,0.0067676436156034,-0.0032333955168724,0.1307577937841415,0.0027975356206297,-0.0002172924578189,0.9999752044677734,0.0064630275592207,0.0679420423819122,0.0574768406944877,0.2452680134181992,0.2589952945709228,0.1858739256858825,-0.7066774368286133,84,139,14086,16971
15.8,1788346617972,4.563380241394043,5.633802890777588,0.0024575907737016,-0.0009527682559564,0.8694078922271729,0.4940880537033081,0.1737275390948922,0.0019573118704653,-0.0001945737831384,0.0534630268812179,0.0350378081202507,0.301505297422409,-0.0043342327699065,0.0016789324581623,-0.9999815225601196,0.0039257537573575,-0.0490914565859951,-0.0437426122135423,0.0819617776961265,-0.6391372680664062,-0.0382599234580993,-0.1984434127807617,139,28,15172,16272
15.9,1788346618072,4.169013977050781,5.633802890777588,0.0029709863010793,-0.0031845779158174,0.8711094856262207,0.491069495677948,0.1922099063269493,0.0047003803934256,6.427270831738337e-05,-0.0656278729438781,-0.0605464801192283,0.1357462555170059,-0.0044583780691027,0.0014109658077359,-0.9998987317085266,0.0134459920227527,0.0163676364213262,-0.0146280873738319,0.330551363121942,-0.0300253033638,0.2913958430290222,0.7089138031005859,71,168,12939,16918
16.0,1788346618172,4.788732528686523,5.77464771270752,0.0029709863010793,-0.0031845779158174,0.8711094856262207,0.491069495677948,0.1922099063269493,0.0047003803934256,6.427270831738337e-05,-0.0656278729438781,-0.0605464801192283,0.1357462555170059,-0.0043126307427883,0.0017311060801148,-0.9997076392173768,0.0237321201711893,-0.0131599420935754,-0.0045809267479706,0.1161097724206001,-0.0476197004318237,-0.1880360841751098,0.2022457122802734,156,41,15783,17355
16.1,1788346618272,4.957746505737305,5.211267471313477,0.0025844178162515,-0.0032961042597889,0.8828098773956299,0.4697118103504181,0.1793797384836313,0.0034291737819988,-6.931832238468892e-06,-0.0010195549111813,0.0110300704836845,0.1453233361244201,-0.003266111947596,0.0014488082379102,-0.9995685815811156,0.0291553437709808,0.0051035036625948,0.0105893654190949,0.0506134262222092,-0.1093168258666992,0.2079967856407165,-0.0945930480957031,85,21,15586,14869
16.2,1788346618372,4.760563373565674,5.211267471313477,0.002217941917479,-0.0029502953402698,0.8841015100479126,0.4672802090644836,0.1820933484622976,0.0067856036479029,-9.29237165858312e-06,0.0020124255679547,0.0018790813628584,0.0308165699243545,-0.0029270322993397,0.0017783027142286,-0.9995140433311462,0.0309857483953237,-0.017388608766934,0.0137529328774455,0.0419763355917231,0.120488703250885,0.0426468849182128,-1.6324729919433594,69,127,13843,15734
16.3,1788346618472,4.8450703620910645,5.183098793029785,0.0012641069479286,-0.0027318699285387,0.8861554861068726,0.4633783102035522,0.1808486993530432,0.0021293647899218,-8.920284994337609e-05,-0.012697760015726,0.0260107349604368,0.1200314313173294,-0.0020770533010363,0.0017642239108681,-0.999257266521454,0.0384382754564285,0.0032590425233867,0.0027317261764692,0.1159605870384245,0.1051775813102722,-0.063609778881073,-0.3272476196289062,112,19,14810,16105
16.4,1788346618572,4.816901206970215,5.098591327667236,0.0012641069479286,-0.0027318699285387,0.8861554861068726,0.4633783102035522,0.1808486993530432,0.0021293647899218,-8.920284994337609e-05,-0.012697760015726,0.0260107349604368,0.1200314313173294,-0.0010350486263632,0.0018058931455016,-0.9991660714149476,0.0407786518335342,0.0002220094424901,0.0415482085347224,0.0937813882689611,0.0825979709625244,-0.0455663204193115,-0.3290901184082031,119,138,16147,14401
16.5,1788346618672,4.816901206970215,5.098591327667236,0.0012641069479286,-0.0027318699285387,0.8861554861068726,0.4633783102035522,0.1808486993530432,0.0021293647899218,-8.920284994337609e-05,-0.012697760015726,0.0260107349604368,0.1200314313173294,4.151463508605957e-05,0.0018163435161113,-0.99897700548172,0.0451863817870616,-0.0024218857808917,0.0156818335576913,0.0432473219316294,-0.0441532135009765,-0.0933420062065124,0.2273035049438476,118,133,15588,16224
16.6,1788346618772,4.816901206970215,5.098591327667236,-0.001864498713985,-0.0007343050092458,0.8924382925033569,0.451164960861206,0.181609584523003,0.0020707352622304,-6.9390941409784e-05,0.0087280105799436,0.0332068540155887,0.0575548186898231,0.001139298081398,0.0015380950644612,-0.9988868832588196,0.0471326299011707,0.0092891541300829,0.0304509600152591,0.0550047148293263,0.0161516666412353,-0.2251937389373779,-0.7645864486694336,118,133,15588,16224
16.7,1788346618872,5.098591327667236,5.7183098793029785,-0.001864498713985,-0.0007343050092458,0.8924382925033569,0.451164960861206,0.181609584523003,0.0020707352622304,-6.9390941409784e-05,0.0087280105799436,0.0332068540155887,0.0575548186898231,0.0026172390207648,0.0019279727712273,-0.9987058639526368,0.0507552772760391,-0.0072966427274713,0.0299306463485307,-0.0314701911625252,0.014783501625061,0.0512981414794921,-0.5640497207641602,118,133,15588,16224
16.8,1788346618972,5.211267471313477,4.8450703620910645,-0.0029949282761663,-0.0004451454151421,0.8941246867179871,0.4478077292442322,0.1803466198867326,-0.0020040871739317,-6.393926510346145e-05,-0.0088072521612048,0.034914668649435,-0.0350516140460968,0.0035464596003293,0.0018881782889366,-0.9987540245056152,0.0497427619993686,-0.0003643161849647,0.0260750395164477,-0.0238904083724831,0.2745506167411804,0.0645146369934082,-0.0104093551635742,130,119,16208,14395
16.9,1788346619072,5.070422649383545,4.8450703620910645,-0.0034089405089616,-0.0002676285803318,0.8938016295433044,0.448449432849884,0.1746851567162897,0.0023539212673759,-8.021743785917076e-05,-0.0009794385405257,0.0177387576550245,-0.0282344538718462,0.0049010245129466,0.0023128120228648,-0.9988502860069276,0.0476304143667221,-0.0014388845059195,-0.000896551456772,-0.0087985523753565,-0.0593146681785583,-0.3560161590576172,-0.1667356491088867,130,119,16208,14395
17.0,1788346619172,5.042253494262695,4.563380241394043,-0.0034089405089616,-0.0002676285803318,0.8938016295433044,0.448449432849884,0.1746851567162897,0.0023539212673759,-8.021743785917076e-05,-0.0009794385405257,0.0177387576550245,-0.0282344538718462,0.0063570421189069,0.0013593630865216,-0.9988433122634888,0.0476430356502532,0.08087470440076,0.0545671633988136,0.048338787588493,0.1266924142837524,0.0668234229087829,-0.4249582290649414,82,100,15394,16434
17.1,1788346619272,5.154929637908936,4.8450703620910645,-0.005833372939378,0.0005418518558144,0.8925305008888245,0.4509490430355072,0.1769005779963677,-0.0037195033911689,-0.0001437273763126,0.0003234054893255,0.0234205555170774,-0.0034757223911583,0.0041553005576133,0.0026665134355425,-0.9989515542984008,0.0455136969685554,-0.0827908456734407,-0.1168256241531403,-0.1204140946106138,-0.8523758053779602,-0.5341897010803223,-2.1856064796447754,99,38,15922,15641
17.2,1788346619372,3.7183098793029785,3.859154939651489,-0.0061642383225262,0.0018108545336872,0.8925791382789612,0.4508450925350189,0.1892616164732437,-0.003644246282288,3.7920386420203245e-05,-0.0427408814430236,-0.0364844836294651,-0.0355823636054992,0.0042679440230131,0.0026406534016132,-0.9987412095069884,0.0499093905091285,-0.0065344387056897,-0.022688516080068,0.1150709048737431,-1.0544397830963137,-0.1087108850479126,-1.025676727294922,20,43,6828,10493
17.3,1788346619472,1.211267590522766,2.05633807182312,-0.0061642383225262,0.0018108545336872,0.8925791382789612,0.4508450925350189,0.1892616164732437,-0.003644246282288,3.7920386420203245e-05,-0.0427408814430236,-0.0364844836294651,-0.0355823636054992,0.0042679440230131,0.0026406534016132,-0.9987412095069884,0.0499093905091285,-0.0065344387056897,-0.022688516080068,0.1150709048737431,-1.0544397830963137,-0.1087108850479126,-1.025676727294922,8,63,495,1899
17.4,1788346619572,1.211267590522766,2.05633807182312,-0.0050628897733986,-0.0001723412424325,0.897898256778717,0.4401738047599792,0.0134541203708747,0.0050546406026033,6.518787560619689e-07,-0.0027867958415299,-0.0046060099266469,0.1772624552249908,0.0042169438675045,0.0026366682723164,-0.9981583952903748,0.0604583881795406,0.0012291183529336,-0.0025586644422165,0.0133197245623707,0.1542083024978637,-0.0493127107620239,0.0663537979125976,8,63,495,1899
17.5,1788346619672,0.0,0.0,-0.0049615735188126,-0.0002369118155911,0.8983244299888611,0.4393045604228973,0.0011237528215044,-0.0016926087363119,1.788023633548297e-06,0.0001092990351025,-0.0023603874724358,0.010261358693242,0.0041325846686959,0.0026740245521068,-0.9981603622436525,0.0604295097291469,-0.0005342823941973,0.0003180947639405,0.0040824006794594,-0.0269894003868103,-0.0448294281959533,0.0517578125,8,63,495,1899
17.6,1788346619772,0.0,0.0,-0.004913714248687,-0.0002899628598242,0.8982962965965271,0.4393626451492309,-0.0002274395492451,0.0002641301422757,-7.16291378758278e-07,-0.0010675801895558,-0.0026798157487064,-0.002624916145578,0.0041374638676643,0.0026661437004804,-0.998160481452942,0.0604261457920074,0.0001302130242504,-0.0006928239099668,0.0003080077628253,0.0323790907859802,-0.0395655632019043,0.042877197265625,0,0,0,0
17.7,1788346619872,0.0,0.0,-0.004916195757687,-0.0002707446692511,0.898303210735321,0.4393485784530639,0.0,0.0,0.0,0.0,0.0,0.0,0.0041282754391431,0.0026816101744771,-0.998162567615509,0.0603930093348026,-0.0011402812799744,-0.0005868631249578,-0.0023948617395911,0.0555768013000488,-0.0930960774421691,0.0337114334106445,0,0,0,0
17.8,1788346619972,1.408450722694397,1.2394366264343262,-0.004916195757687,-0.0002707446692511,0.898303210735321,0.4393485784530639,0.0026190847961885,-0.0001626554351205,2.173883774768232e-07,0.0,0.0,0.0,0.0037884414196014,0.002696550451219,-0.9981871247291564,0.060006208717823,-0.0010130712893725,-0.0222286353170579,-0.027085826515146,2.419552087783813,-0.1074004769325256,0.2001142501831054,201,141,9027,7871
17.9,1788346620072,4.732394218444824,4.591549396514893,-0.0046568335965275,-0.0004416657611727,0.898051917552948,0.4398647248744964,0.1304195183093725,0.0030951287425849,-4.472343502028858e-07,0.0,-1.800896498593829e-08,0.0,0.0034881047904491,0.0026893522590398,-0.9981957674026488,0.0598816610872745,0.0034716100796113,-0.0238886178400935,0.0075438127058115,0.8112236857414246,0.049879252910614,0.4518718719482422,184,220,17883,17940
18.0,1788346620172,4.985915660858154,5.492957592010498,-0.0046568335965275,-0.0004416657611727,0.898051917552948,0.4398647248744964,0.1304195183093725,0.0030951287425849,-4.472343502028858e-07,0.0,-1.800896498593829e-08,0.0,0.0036612059921026,0.0028785998001694,-0.9980862140655518,0.0616617947816848,0.0002142246189725,-0.0068687638758497,0.046992787848638,0.0721553564071655,0.0180171728134155,-0.1760234832763672,84,40,15959,13623
18.1,1788346620272,5.014084339141846,5.577464580535889,-0.0044412887655198,-0.0007913978770375,0.8989031314849854,0.4381242096424103,0.1963819878713146,0.0039845073969244,-1.0015198184190087e-06,0.0,0.0,0.0,0.0025010267272591,0.0029165353626012,-0.9980440735816956,0.0623948685824871,0.0074365686201178,-0.0323083652472435,0.0113587639441902,-0.1787806153297424,-0.1297524571418762,1.3837661743164062,97,72,15628,12696
18.2,1788346620372,4.788732528686523,4.732394218444824,-0.0029953070916235,-0.0014466235879808,0.899385392665863,0.4371438920497894,0.1621611626894684,0.0003015196183748,1.6998622847705497e-07,0.0049462965689599,-0.0242536794394254,0.0187118053436279,0.0018527284264564,0.0026564886793494,-0.9979646801948548,0.0636873543262481,0.0073605982870623,-0.0076158535026942,0.0549276618161386,0.2359309196472168,0.2171018123626709,-0.999608039855957,97,71,15273,16849
18.3,1788346620472,4.929577350616455,5.633802890777588,-0.0030200977344065,-0.0011431078892201,0.9000119566917419,0.4358532726764679,0.1718219584206461,0.0007452995950099,-1.176399180677165e-05,0.0101568009704351,0.0059265112504363,0.056258674710989,0.0018533244729042,0.0023970967158675,-0.997904360294342,0.0646363943815231,0.0141213731446298,-0.0010209937980482,0.052284953430992,-0.045896828174591,-0.0133030414581298,-0.4728307723999023,87,106,14725,14031
18.4,1788346620572,4.957746505737305,5.830986022949219,-0.002306462265551,-0.0012377561070024,0.9004675149917603,0.4349153935909271,0.1752635702668031,-0.0001905661160417,5.5248707141868055e-05,0.0075636710971593,-0.0232103560119867,0.0352405048906803,0.0015159957110881,0.0019195387139916,-0.9977105855941772,0.0675840228796005,0.0022429170893665,0.0379712976924709,0.060569276525167,-0.0169681906700134,0.2617892026901245,-0.5525426864624023,78,64,14702,17123
18.5,1788346620672,4.788732528686523,4.901408672332764,-0.0020940760150551,-0.0008950969786383,0.9018481373786926,0.4320470988750458,0.1836412767107966,0.0011692363622371,1.225647001373838e-05,0.0044740904122591,-0.0082465689629316,0.0412980318069458,0.0015159957110881,0.0019195387139916,-0.9977105855941772,0.0675840228796005,0.0022429170893665,0.0379712976924709,0.060569276525167,-0.0169681906700134,0.2617892026901245,-0.5525426864624023,110,117,14887,13844
18.6,1788346620772,4.8450703620910645,5.154929637908936,-0.0011593680828809,-0.0010531819425523,0.9029127955436708,0.4298208653926849,0.1753229359293293,0.0003279816443732,2.816316216809694e-05,0.0063804052770137,-0.0170712973922491,0.0477118194103241,0.0004208888858556,0.0017856089398264,-0.99735027551651,0.0727257281541824,-0.0053436962366938,0.0030353823905424,0.0400430121121135,-0.019748568534851,-0.0356354713439941,0.3137741088867187,82,144,16021,14830
18.7,1788346620872,5.070422649383545,4.704225540161133,-0.0010538126807659,-0.0015082239406183,0.9037966728210448,0.4279580414295196,0.1620235184020407,0.001487789421965,-3.450661074969825e-05,-0.0098339859396219,-0.004614002071321,0.053502157330513,-6.214901804924011e-05,0.0019182441756129,-0.9973191022872924,0.0731503665447235,-0.0038811835726311,-0.006528770403903,-0.0058512916219218,-0.1310840845108032,0.1117718815803527,0.2199840545654297,84,43,15590,15837
18.8,1788346620972,4.929577350616455,5.098591327667236,-0.0010538126807659,-0.0015082239406183,0.9037966728210448,0.4279580414295196,0.1794036532901142,0.0007885340226099,1.44766412452308e-07,0.0,-1.9681467566812212e-09,0.0,-0.0002978900447487,0.0017332360148429,-0.9972965121269226,0.0734618306159973,0.0119267529446279,-0.0077911008248507,0.008053571972427,-0.1083875298500061,-0.2548834681510925,-0.1147689819335937,122,128,16258,14686
18.9,1788346621072,5.352112770080566,4.873239517211914,-0.0010538126807659,-0.0015082239406183,0.9037966728210448,0.4279580414295196,0.1794036532901142,0.0007885340226099,1.44766412452308e-07,0.0,-1.9681467566812212e-09,0.0,0.0019831247627735,-8.50781798362732e-05,-0.9971800446510316,0.0750207006931305,0.0623603805286314,0.0751941192163604,0.0522575705820246,0.3146378993988037,0.0999696850776672,0.3104104995727539,49,95,15226,15577
19.0,1788346621172,5.070422649383545,5.211267471313477,-0.0010538126807659,-0.0015082239406183,0.9037966728210448,0.4279580414295196,0.1794036532901142,0.0007885340226099,1.44766412452308e-07,0.0,-1.9681467566812212e-09,0.0,-0.0005003763362765,0.0022130915895104,-0.9973090887069702,0.073276549577713,0.0005690901027331,0.0128736566388703,0.0583234833937919,-0.0793430805206298,0.0437158346176147,0.5547609329223633,58,121,15168,13502
19.1,1788346621272,4.788732528686523,5.098591327667236,-0.000526973279193,-0.0021494305692613,0.9044427871704102,0.4265892207622528,0.1713575133323612,-0.0011014264500913,-5.032140890543919e-06,0.0018364847637712,0.0024563162587583,0.0443573705852031,-0.0011195400729775,0.0020979782566428,-0.997073233127594,0.076416015625,0.0019756096123745,-0.0189939317246842,0.0871775366522207,0.0829808115959167,-0.0166322588920593,-0.5552845001220703,70,188,13537,18179
19.2,1788346621372,4.619718074798584,5.211267471313477,-0.0003898960421793,-0.0022069436963647,0.9057135581970216,0.4238843321800232,0.1855851301368929,-0.0008860080973677,9.094202166485024e-05,0.0003203455999027,-0.0063948612660169,0.1232869103550911,-0.0005737245082855,0.0022193128243088,-0.9967214465141296,0.0808770358562469,-0.003041019679136,-0.0070086082247714,0.0455557242451779,0.0483003854751586,0.0345137119293212,0.0824642181396484,79,156,14338,17214
19.3,1788346621472,4.957746505737305,5.098591327667236,-0.000527044350747,-0.0021901701111346,0.9079651832580566,0.4190395176410675,0.1703948889893978,-0.0010321398026015,1.2896804731418612e-05,-0.0008312046411447,-0.006586808245629,0.1101572439074516,-0.0004474092274904,0.0021659974008798,-0.996353030204773,0.0852986052632331,0.0011524908888926,0.0158357183803191,0.0383889707045153,-0.1242664456367492,-0.2028963565826416,-0.5958395004272461,79,156,14338,17214
19.4,1788346621572,4.873239517211914,5.464788913726807,-0.0005213433178141,-0.002198105212301,0.9094228148460388,0.4158665835857391,0.1781835170226631,-0.0004173128859262,-6.007887170877389e-06,-0.0011004894040524,-0.0020290045067667,0.0552018247544765,-0.0010817674919962,0.0019971067085862,-0.9958966374397278,0.0904700234532356,0.0034133643019136,-0.0072539997256584,0.0993816125000724,-0.4406282901763916,0.0560678839683532,-0.3132028579711914,73,40,13687,13903
19.5,1788346621672,2.11267614364624,3.774647951126098,-0.0005213433178141,-0.002198105212301,0.9094228148460388,0.4158665835857391,0.1781835170226631,-0.0004173128859262,-6.007887170877389e-06,-0.0011004894040524,-0.0020290045067667,0.0552018247544765,-0.0005394639447331,0.0016193138435482,-0.9950544834136964,0.0993165075778961,0.0075198978357192,0.0018321110729625,0.2643986707358871,-1.055366277694702,0.3390582203865051,-0.386540412902832,57,46,4304,11640
19.6,1788346621772,0.0,2.8450703620910645,-0.0005213433178141,-0.002198105212301,0.9094228148460388,0.4158665835857391,0.1781835170226631,-0.0004173128859262,-6.007887170877389e-06,-0.0011004894040524,-0.0020290045067667,0.0552018247544765,-0.0006512822583317,0.0015652114525437,-0.9940842390060424,0.1085984855890274,0.0017864539271804,-0.0052729825775849,0.3710617913720611,-0.1913784742355346,-0.1584028601646423,-0.5903501510620117,81,29,-3774,7353
19.7,1788346621872,-2.2253520488739014,1.408450722694397,-0.0003404405142646,-0.0016102921217679,0.9211556911468506,0.3891908228397369,0.041708158102559,-0.0030159652676858,4.2043806034264153e-07,0.0020374315790832,0.003094705985859,0.3790108859539032,-0.0008426597341895,0.0015550311654806,-0.9906867146492004,0.1361496448516845,0.0003696421343762,-0.0174218083766483,0.5851839293650549,0.341888964176178,-0.079807162284851,0.1129350662231445,51,113,-8484,8492
19.8,1788346621972,-1.6338027715682983,1.3239436149597168,-3.429234493523836e-05,-0.0018107470823451,0.9353960156440736,0.3535974621772766,0.000547468573912,-0.0047189269892661,2.3868711466884143e-06,-0.0011047377483919,-0.001649210229516,0.6083852648735046,-0.0008156178519129,0.0015928950160741,-0.9870877861976624,0.1601704657077789,0.0006375981246562,0.0048522191232565,0.6094664456192498,-0.0336166620254516,0.1158393621444702,-0.0717782974243164,51,113,-8484,8492
19.9,1788346622072,-1.5774648189544678,1.408450722694397,-0.0001505882246419,-0.0017994493246078,0.9404295086860656,0.3399840593338012,0.0015965300031182,-0.0032532095570077,1.5068841607596846e-06,-0.0008911439217627,0.0035779469180852,0.5904200077056885,-0.0006237840279936,0.0015985593199729,-0.9818332195281982,0.1897382289171219,0.0024334767202828,0.0001265769097921,0.4456711852270535,-0.0972248315811157,0.129677414894104,-0.012542724609375,73,55,-6643,6564
20.0,1788346622172,-1.6338027715682983,1.408450722694397,-0.0002028282324317,-0.0016812399262562,0.951341986656189,0.3081323504447937,0.0032580539995057,-0.0030502727356878,-5.398646923999179e-07,0.0014479907695204,-0.0021619431208819,0.4712191224098205,-0.0008591208606958,0.0014373175799846,-0.9765709042549132,0.2151893526315689,0.0025396883654952,-0.0078639421627334,0.4594916829194788,0.056398868560791,-0.1833266615867614,0.0708417892456054,107,101,-6604,6361
20.1,1788346622272,-1.6338027715682983,1.6056338548660278,3.452011151239276e-05,-0.0016656365478411,0.9562363624572754,0.2925905585289001,-0.0002627121471388,-0.0020642519976081,1.5418860684558468e-07,0.0026714883279055,-0.0071230088360607,0.4677581787109375,-0.0010016355663537,0.0012159077450633,-0.972762167453766,0.2318001687526703,0.0054810754000676,-0.0071487339108344,0.4400857280165482,-0.038362443447113,0.1025330424308776,0.0485143661499023,96,58,-7248,6469
20.2,1788346622372,-1.2394366264343262,1.0140844583511353,3.452011151239276e-05,-0.0016656365478411,0.9562363624572754,0.2925905585289001,-0.0002627121471388,-0.0020642519976081,1.5418860684558468e-07,0.0026714883279055,-0.0071230088360607,0.4677581787109375,-0.0011451290920376,0.000884492881596,-0.9667966961860656,0.2555429935455322,0.0060911504044066,-0.0036885225359957,0.5079628869387682,-0.0081860423088073,-0.0866807103157043,0.2435941696166992,96,58,-7248,6469
20.3,1788346622472,-1.0140844583511353,1.0704225301742554,0.0005882838740944,-0.0012763988925144,0.9707170128822328,0.240221694111824,0.0064295706773684,-0.0013967991730446,1.1977420279631568e-06,0.0022095607127994,0.0024748770520091,0.4065072238445282,-0.0011451337486505,0.0007299119606614,-0.9597836136817932,0.2807377278804779,0.0025710951240681,-0.0004254758509435,0.317186151359605,0.0276395082473754,0.0478483438491821,0.1202497482299804,96,58,-7248,6469
20.4,1788346622572,-1.0140844583511353,1.0704225301742554,0.0006280599627643,-0.0012347293086349,0.9722917675971984,0.233766496181488,0.0035757851562826,-0.0039721227326761,-4.6738920472572425e-07,0.0027210570406168,-0.0017509687459096,0.3239397406578064,-0.0011451337486505,0.0007299119606614,-0.9597836136817932,0.2807377278804779,0.0025710951240681,-0.0004254758509435,0.317186151359605,0.0276395082473754,0.0478483438491821,0.1202497482299804,96,58,-7248,6469
20.5,1788346622672,-1.2676056623458862,1.2676056623458862,0.000854056677781,-0.0010774733964353,0.9785521030426024,0.2059952467679977,0.0027615184610621,-0.0039069211012547,1.7484118361805324e-06,0.0033126503694802,-0.0036953485105186,0.3684023022651672,-0.0011451337486505,0.0007299119606614,-0.9597836136817932,0.2807377278804779,0.0025710951240681,-0.0004254758509435,0.317186151359605,0.0276395082473754,0.0478483438491821,0.1202497482299804,67,70,-5548,4612
20.6,1788346622772,-1.2676056623458862,1.2676056623458862,0.0010601225076243,-0.0011283180210739,0.981532096862793,0.1912909895181656,-0.0026015697169241,-0.0014335795211857,-1.094530572337791e-06,0.0001071038423106,-0.003529846901074,0.2847679555416107,-0.0015008160844445,0.0004451144486665,-0.9468890428543092,0.3215565681457519,0.0008008195961467,-0.0028009125203264,0.277139300416764,0.1675121784210205,-0.1031826734542846,0.0300579071044921,67,70,-5548,4612
20.7,1788346622872,-0.8169013857841492,0.9295774698257446,0.0011598853161558,-0.0011827772250398,0.98383367061615,0.1790769547224044,0.0013605338676131,0.0006149214579504,-2.8668796649391323e-08,-0.000593319768086,-0.002371686277911,0.2413575202226638,-0.001567774452269,0.0005205804482102,-0.941038191318512,0.3382964134216308,0.0001811656691902,-0.0002785183102707,0.2841802724405752,0.0341643095016479,0.0427172183990478,0.0466251373291015,67,70,-5548,4612
20.8,1788346622972,0.0,0.1690140813589096,0.0011031456524506,-0.0012211019638925,0.9852513670921326,0.1711049079895019,0.002031214680616,-0.0001502250336314,2.2223539734906814e-07,-0.0012407557806,0.0013828941155225,0.2719522714614868,-0.0016118818894028,0.0005636597052216,-0.9381985664367676,0.3460932075977325,-0.002170448353999,0.0009053541707942,0.034108001457609,-0.0417743921279907,-0.2653684616088867,0.1620512008666992,109,215,-4994,5656
20.9,1788346623072,-1.0704225301742554,1.0704225301742554,0.0011324606603011,-0.0012710778973996,0.9869071841239928,0.161279872059822,0.0029884203525676,0.0003263564288749,-1.8254193955286395e-07,4.215119770378806e-05,0.0005994946113787,0.1407202929258346,-0.0018184687942266,0.000513850711286,-0.9357511401176452,0.3526561856269836,-0.0046180867193594,-0.0122985906187011,0.2307019748252166,0.0172562599182128,-0.0289251208305358,0.0463323593139648,73,244,-3714,7502
21.0,1788346623172,0.1408450752496719,3.746478796005249,0.0013964377576485,-0.0013684292789548,0.9888870716094972,0.1486554443836212,0.0022062300365918,4.144161987572363e-05,6.157202091495611e-07,-0.0019853499252349,-0.0051965047605335,0.2899180650711059,-0.0018184687942266,0.000513850711286,-0.9357511401176452,0.3526561856269836,-0.0046180867193594,-0.0122985906187011,0.2307019748252166,0.0172562599182128,-0.0289251208305358,0.0463323593139648,284,175,12128,12530
21.1,1788346623272,3.0985915660858154,4.8450703620910645,0.0017875054618343,-0.0013379529118537,0.9900136590003968,0.1409533619880676,0.0134935207564197,-0.0058220316317204,3.4363893385675204e-06,0.0040179253555834,-0.0156274940818548,0.3109608590602875,-0.0019527431577444,0.0002750204876065,-0.9253152012825012,0.3791939318180084,0.0008210837893474,0.0236254395251278,0.2534852031523487,0.8167897462844849,-0.185107946395874,-0.1490077972412109,203,277,14273,18656
21.2,1788346623372,4.422535419464111,5.830986022949219,0.0013761142035946,-0.001098551787436,0.9928314685821532,0.1195096746087074,0.1651229848599654,-0.0013857263770448,-2.2472282376194155e-05,0.0028965012170374,0.0124820098280906,0.2762904465198517,-0.0010473486036062,0.000625941902399,-0.917682647705078,0.397312194108963,0.0031435281627157,0.025812728728958,0.2788458581002878,-0.2019950747489929,0.2995874881744385,-0.1071615219116211,203,277,14273,18656
21.3,1788346623472,4.2816901206970215,5.633802890777588,0.0007805589120835,-0.0010987037094309,0.9939598441123962,0.1097359359264373,0.1862169994370871,0.0060131364903718,-2.928782333708681e-05,-0.0016011201078072,0.016455665230751,0.2781564593315124,-0.0006978306919336,0.0011590924113988,-0.9127643704414368,0.4084843397140503,-0.0035751961228823,0.0055872474168962,0.2522191160207858,0.2739071249961853,-0.2486287951469421,-0.0746307373046875,84,20,13400,18300
21.4,1788346623572,4.478873252868652,5.633802890777588,-0.0001815458235796,-0.0013320805737748,0.995755136013031,0.0920323505997657,0.194589053902562,-0.0074615763934281,-4.498264642124199e-05,0.0004203562275506,0.0167445670813322,0.203259989619255,-0.000156189315021,0.0012813135981559,-0.910116970539093,0.4143495261669159,0.0074549862542051,-0.0034202475384598,0.1543838369334263,-0.1013093590736389,-0.2360934019088745,-0.1666765213012695,109,106,15019,15709
21.5,1788346623672,4.704225540161133,5.577464580535889,-0.0005356905166991,-0.0010558810317888,0.9964876174926758,0.083731971681118,0.1756179641991696,-0.0004660708404017,2.2704246696850497e-06,0.0048346258699893,0.0010312541853636,0.1502507925033569,-0.0001083509996533,0.0011807940900325,-0.906519055366516,0.4221632480621338,0.0017928195686073,-0.0111082054355984,0.129545603332597,0.3644885420799255,-0.2353653907775879,-0.4642200469970703,106,143,13846,16240
21.6,1788346623772,4.507042407989502,5.098591327667236,-0.0006319417152553,-0.00102370895911,0.9968904852867126,0.0787898823618888,0.1724253709205022,0.0004615816668946,3.476964875286227e-05,0.0029685376212,-0.0016895292792469,0.1325269639492035,0.0002934290096163,0.0011499924585223,-0.9054450988769532,0.4244618117809295,0.0130686963623514,0.0230312070008557,0.1680000454498273,-0.1729633808135986,0.2468331456184387,1.0547113418579102,106,143,13846,16240
21.7,1788346623872,4.704225540161133,5.97183084487915,-0.0008508805767633,-0.0003323906566947,0.9975314140319824,0.0702149420976638,0.1738399799976761,-0.0030532032770881,2.3628010753023737e-05,0.0105796009302139,0.0090169087052345,0.1502356231212616,0.0002124896273016,0.0005910946056246,-0.903131067752838,0.4293646812438965,0.0161345295630837,-0.0168003694967526,0.1422861882275249,0.2188432216644287,0.231469452381134,-1.0372800827026367,66,134,13684,15304
21.8,1788346623972,4.535211086273193,5.77464771270752,-0.0003048980724997,3.997313615400344e-05,0.9980155825614928,0.0629667043685913,0.1752465173781535,-6.690623861330198e-05,7.827087115326288e-05,0.0095124738290905,-0.0277636442333459,0.1500992029905319,0.00050800293684,-0.0004717819392681,-0.8968629240989685,0.4423080086708069,0.0200774683300676,0.0123898789871906,0.1656182620383083,0.1376227140426635,-0.1889160871505737,-0.967116355895996,81,50,13085,17880
21.9,1788346624072,4.422535419464111,5.126760482788086,-4.933972013532184e-05,0.0004695066891144,0.9982566237449646,0.05902099609375,0.1679248497888688,-0.0003195244837365,4.938703876420474e-05,0.0173644851893186,-0.0089226337149739,0.1547596603631973,-5.01628965139389e-05,-0.0009727450087666,-0.893734335899353,0.448595643043518,0.0064105108200443,-0.0153689834504992,0.1637032379318372,0.3056578636169433,0.4061240553855896,-0.2729949951171875,84,65,14431,18218
22.0,1788346624172,4.591549396514893,5.830986022949219,0.0009179835324175,0.00077573035378,0.998832941055298,0.0482848584651947,0.1579400267299775,0.0075448491512593,2.251278829594993e-05,-0.0002446917060296,-0.0176803953945636,0.1449340134859085,-0.0005129389464855,-0.001179214566946,-0.8925095796585083,0.4510266780853271,-0.0010476593930236,-0.0228228628735891,0.1233229767084509,-0.0455785989761352,-0.2256305813789367,-0.2651548385620117,97,150,13784,15718
22.1,1788346624272,4.253520965576172,5.042253494262695,0.0015063772443681,0.0006372013594955,0.9992043375968932,0.0398514233529567,0.1607616680301982,0.0090489414862529,2.501206204102834e-05,-0.0023643225431442,-0.0185540579259395,0.1632964164018631,-0.0003596395254135,-0.0010855589061975,-0.8863376975059509,0.4630380570888519,0.0227662357352358,0.0331219690174577,0.1758663484286889,-0.551672637462616,-0.0345222949981689,0.5844936370849609,116,68,15010,18294
22.2,1788346624372,4.253520965576172,5.042253494262695,-0.000388337590266,0.0019278486724942,0.9995219707489014,0.0308537743985652,0.1707684434865973,0.0022404972846661,-0.000133176332918,0.0577310062944889,0.0663510710000991,0.2036868929862976,-0.0005707247182726,-0.0007607387378811,-0.884676992893219,0.4662034809589386,-0.0732656766119544,-0.0609806237299986,-0.0135519631190674,0.201538860797882,0.015098750591278,-0.4956264495849609,116,68,15010,18294
22.3,1788346624472,4.873239517211914,5.690140724182129,0.0013157274806872,-0.0007911509601399,0.9994837641716005,0.03208988904953,0.1814002616928792,0.0008676857015157,0.0004035014228288,-0.0625873953104019,-0.0372094139456748,-0.069642573595047,-0.0018673529848456,0.0001101829111576,-0.884376585483551,0.4667705297470093,-0.0162897021871393,0.0095494437577994,0.0885772804365187,-0.0959381461143493,0.2636986970901489,-1.127293586730957,67,132,14511,13912
22.4,1788346624572,4.732394218444824,5.408450603485107,0.0021479714196175,-0.0010093359742313,0.9995834827423096,0.0287589989602565,0.1685506813234873,0.0048311712993158,1.735837863018345e-05,-0.0084650460630655,-0.0245993416756391,0.1039882525801658,-0.00242087431252,0.0003565894439816,-0.8824538588523865,0.470392644405365,-0.0137261590798252,0.0322155207112832,0.0467948707523554,-0.0947960615158081,0.1327694654464721,2.1249570846557617,88,114,15012,14634
22.5,1788346624672,4.901408672332764,4.873239517211914,0.0021479714196175,-0.0010093359742313,0.9995834827423096,0.0287589989602565,0.1685506813234873,0.0048311712993158,1.735837863018345e-05,-0.0084650460630655,-0.0245993416756391,0.1039882525801658,-0.0025346595793962,0.0003916285932064,-0.8812297582626343,0.4726811647415161,-0.0045141120554292,-0.0089774260432467,0.0641326580815668,-0.0228745341300964,-0.0382392406463623,0.8527364730834961,91,64,15035,17051
22.6,1788346624772,4.873239517211914,5.098591327667236,0.0016732311341911,-0.001548160566017,0.9997548460960388,0.0220265202224254,0.1774631903244834,0.0019952449925299,2.567588408896707e-05,-0.0010158824734389,0.0080506987869739,0.0767598077654838,-0.0020125666633248,0.0008847964927554,-0.8801231980323792,0.4747402667999267,-0.0106804361875488,0.0040865252484378,0.0470637787917046,-0.1069225072860717,-0.088685929775238,0.0243558883666992,88,30,15220,16091
22.7,1788346624872,4.957746505737305,5.126760482788086,0.0013833151897415,-0.0021364693529903,0.9998091459274292,0.0193704552948474,0.1877844186433141,-0.0005172084025173,-6.53482733392748e-06,-0.015270167030394,-0.0030293324962258,0.0545505844056606,-0.0015811324119567,0.0019846875220537,-0.8782777190208435,0.4781442880630493,-0.0089271964224906,0.0358759177625346,0.0608104637406363,-0.0976230502128601,-0.1298994421958923,-0.2955541610717773,96,153,14940,16170
22.8,1788346624972,4.929577350616455,5.380281925201416,0.0004349661176092,-0.0024622972123324,0.9998814463615416,0.0151917999610304,0.1821858156744455,0.0021442647875894,-2.409079056403354e-05,-5.3416173614095896e-05,0.0024168826639652,0.0550541840493679,-0.0015676952898502,0.0019371705129742,-0.8774794340133667,0.4796078503131866,-0.0040897727116141,0.0108932233574882,0.0206892998299538,0.2251086235046386,-0.1446021795272827,-1.3513050079345703,103,74,15999,16100
22.9,1788346625072,5.746479034423828,4.563380241394043,0.0004349661176092,-0.0024622972123324,0.9998814463615416,0.0151917999610304,0.1874597729286028,0.0010275981710524,-3.0892484637292214e-06,0.0,0.0,0.0,-0.0017442563548684,0.0022666612640023,-0.8787210583686829,0.4773271083831787,-0.0044720532126799,0.0231777294744327,-0.1261397969250512,-0.1940529346466064,-0.1875998377799987,-0.8957967758178711,76,110,16907,13296
23.0,1788346625172,5.88732385635376,3.859154939651489,0.0003826903994195,-0.0027760656084865,0.9997727274894714,0.021135326474905,0.1854573847924293,-0.0016997710929004,-5.251787295541703e-05,0.0021741229575127,0.0017063576960936,-0.141239121556282,-0.0014103101566433,0.0022762259468436,-0.8838654160499573,0.4677338004112243,-0.0085696799350263,0.0097077712766035,-0.2450203910448404,0.092379093170166,-0.5451562404632568,-0.2592430114746094,76,110,16907,13296
23.1,1788346625272,5.492957592010498,4.535211086273193,-0.0002454933128319,-0.0027601898182183,0.9995063543319702,0.0312955453991889,0.1782372935698563,-0.0045361337722043,-1.4524876471053472e-05,-0.0079290466383099,0.0174853503704071,-0.2469206303358078,-0.0016521662473678,0.0024537211284041,-0.8896764516830444,0.4565819501876831,-0.0084357351151414,-0.0064831360909334,-0.1867505956993505,0.2500824928283691,0.0669068694114685,0.2517013549804687,60,95,16729,12025
23.2,1788346625372,5.549295902252197,4.704225540161133,-0.0002454933128319,-0.0027601898182183,0.9995063543319702,0.0312955453991889,0.1782372935698563,-0.0045361337722043,-1.4524876471053472e-05,-0.0079290466383099,0.0174853503704071,-0.2469206303358078,-0.0012894086539745,0.0028682192787528,-0.89280766248703,0.4504270255565643,-0.0042770467461906,0.0022130019945297,-0.1806515881365346,0.1347349882125854,0.0606950521469116,-0.3429880142211914,76,54,16988,13530
23.3,1788346625472,5.577464580535889,4.14084529876709,-0.0004061997751705,-0.0030462597496807,0.9988845586776732,0.0471180230379104,0.1835281576539765,-0.0043561386231094,3.477395185204844e-05,-0.0043899421580135,0.004141401965171,-0.1735916137695312,-0.0016020936891436,0.0024889549240469,-0.8939398527145386,0.4481773674488067,0.0129719398738827,-0.0287520093639953,-0.1640752287181723,-0.1136442422866821,-0.2340020537376403,0.0686283111572265,94,157,17008,14164
23.4,1788346625572,5.352112770080566,4.676056385040283,-0.0006421224679797,-0.001569714047946,0.9983380436897278,0.0576033443212509,0.1738630049206038,0.0007874796827175,-4.969341158298438e-05,0.0538850575685501,0.0423576608300209,-0.1140819936990737,-0.0007432661950588,0.0020710825920104,-0.8987608551979065,0.4384337961673736,-0.0603202470184827,-0.0782275188138032,-0.1562170753268797,0.1792472004890442,0.107118546962738,0.3972225189208984,157,131,18178,13807
23.5,1788346625672,5.183098793029785,5.352112770080566,-0.0010271513601765,-0.0014507792657241,0.9981749653816224,0.0603619813919067,0.1833060140104518,-0.0071155089292746,-0.0002608975012862,0.0039340937510132,0.015871999785304,-0.1108247935771942,-0.0019894642755389,0.0025582192465662,-0.9016960859298706,0.4323582649230957,0.0111122966250055,-0.0013021669259673,-0.0808797762310948,-0.2476696968078613,0.1858495473861694,-0.526158332824707,26,58,12672,10018
23.6,1788346625772,5.126760482788086,5.098591327667236,0.0006766570731997,-0.0031719577964395,0.9976592659950256,0.0683033987879753,0.1607793944461799,-0.0011939347835828,1.384345845232952e-05,0.0025188564322888,-0.0093837883323431,-0.0027817129157483,-0.0024465518072247,0.0022360812872648,-0.9020952582359314,0.431524395942688,0.0045327450790138,-0.0127119175105642,-0.0374178075431677,0.3417437672615051,-0.1041070818901062,0.5655145645141602,26,58,12672,10018
23.7,1788346625872,5.126760482788086,5.098591327667236,0.0009433071827515,-0.0028206000570207,0.9973862767219543,0.0721921995282173,0.1851117692939797,-0.0025892506658361,1.715009932885196e-05,0.009722001850605,-0.0057894429191946,-0.0367057733237743,-0.0023323176428675,0.0022616470232605,-0.9028591513633728,0.4299242496490478,0.0011893441731786,0.005971984827161,-0.0885416525118477,0.0018852353096008,0.0897459983825683,-0.4777126312255859,26,58,12672,10018
23.8,1788346625972,5.014084339141846,4.563380241394043,0.0010841684415936,-0.002892538672313,0.9973259568214417,0.0730167031288147,0.1773673270997937,0.0003625334795764,6.27501920045896e-05,-0.0024855022784322,-0.0057007591240108,-0.032873835414648,-0.0024912841618061,0.0020176516845822,-0.9039047360420228,0.4277217388153076,-0.0033493148667297,0.0017098512043323,-0.0097902618154915,-0.1087472438812255,-0.0334571599960327,0.865168571472168,85,46,16580,16219
23.9,1788346626072,5.211267471313477,4.704225540161133,0.0011886744759976,-0.0031816225964576,0.9972186088562012,0.0744544640183448,0.183296780467508,-0.0031467625514156,1.582822739850517e-05,-0.0032142971176654,-0.0059390058740973,-0.0284613613039255,-0.0022623846307396,0.0021832510828971,-0.9048402309417723,0.4257397353649139,0.0038192348269196,0.0358529643941572,-0.0353894240618647,-0.0063998699188232,-0.3321883678436279,-0.5566225051879883,85,46,16580,16219
24.0,1788346626172,5.098591327667236,4.535211086273193,0.000663862156216,-0.0029612625949084,0.9971075057983398,0.0759427919983863,0.1782887844363919,-0.0001237846676803,-8.836899401262574e-05,0.0045028300955891,0.0294214393943548,-0.0447784103453159,-0.001725167967379,0.0027182400226593,-0.9058157801628112,0.4236595630645752,-0.0078155083946673,0.0039680483039585,-0.0350249643745863,-0.1072572469711303,-0.3984146118164062,0.6427545547485352,85,46,16580,16219
24.1,1788346626272,4.901408672332764,4.8450703620910645,0.000161409843713,-0.0032154293730854,0.9969638586044312,0.0777987390756607,0.1847681568301344,-0.0008205931271091,-3.961863626820181e-05,-0.0065604331903159,0.0033380582462996,-0.0294146910309791,-0.0012442246079444,0.0029228050261735,-0.9057506322860718,0.4237992763519287,0.0008600214563636,0.0241231238611214,0.0072046226963689,-0.0848215222358703,0.3275768756866455,-0.4463872909545898,110,123,14722,14549
24.2,1788346626372,5.183098793029785,4.619718074798584,-0.0001960721419891,-0.0027535262051969,0.9970439672470092,0.0767830610275268,0.1817693694281606,-0.0036906701016806,-6.622109469598333e-06,0.015516604296863,-0.0105110127478837,0.0300872083753347,-0.0012515904381871,0.0025761928409337,-0.90544456243515,0.4244548678398132,-0.0070746522576664,0.0002351433553062,-0.0048877799452083,-0.1040409803390502,0.2762014865875244,1.008220672607422,89,88,14798,16646
24.3,1788346626472,4.957746505737305,5.6619720458984375,-0.0001806490909075,-0.0028584278188645,0.9970328211784364,0.0769238322973251,0.1762241869065211,-0.0008137832795964,-1.2459955093032156e-05,-0.0040803970769047,-0.0009092114632949,-0.0055742934346199,-0.0017329305410385,0.0018108375370502,-0.9051566123962402,0.4250708222389221,0.0142265300009071,-0.0233348979383423,0.0154619178494768,0.0540608167648315,0.2629475593566894,0.5791234970092773,85,95,16023,12942
24.4,1788346626572,5.126760482788086,5.492957592010498,0.0002086099702864,-0.002353720832616,0.9969991445541382,0.0773763656616211,0.180660385125371,-0.0025026841821645,-6.576128387236169e-05,0.0012514720438048,0.011818241328001,-0.0323327183723449,-0.0011653816327452,0.0020186882466077,-0.9056735634803772,0.4239692091941833,0.0032362091594664,0.0143193601184114,-0.0335425361089141,-0.0968982577323913,-0.2958910465240478,-0.3447647094726562,79,72,15343,13641
24.5,1788346626672,5.577464580535889,4.816901206970215,-1.3174634659662844e-05,-0.0023284261114895,0.9969985485076904,0.0773852467536926,0.1815208008272759,-0.0028436685658117,-2.2434422012674652e-05,0.0004067771369591,0.0112667037174105,-0.0004236737440805,-0.0013556545600295,0.0017456002533435,-0.9054754376411438,0.4243928790092468,0.0084894394748174,-0.0004718159493974,0.0195815843656102,0.2448229193687439,-0.0262238383293151,0.8512125015258789,155,111,17418,12564
24.6,1788346626772,5.126760482788086,4.816901206970215,-0.001792520401068,0.000658722128719,0.9968506693840028,0.0792795121669769,0.1695948726694578,-0.0031743168248365,-0.0001681283101035,0.0869181826710701,0.0717275887727737,-0.0162857379764318,0.0015214905142784,0.0004750592634081,-0.9064308404922484,0.4223512411117553,0.0836678562119317,0.0694304326785504,-0.0362152467193183,0.4585322737693786,0.0879378914833068,-1.1416473388671875,172,106,17167,14640
24.7,1788346626872,5.098591327667236,5.070422649383545,-0.0002509265614207,-0.0011321654310449,0.9966092109680176,0.0822726190090179,0.1954687762306768,-0.0048860904916117,0.0001972406980073,-0.0675039514899253,-0.0684305503964424,-0.1223827749490737,-0.0010420186445116,0.0012156581506133,-0.9095563888549804,0.4155774116516113,0.0133615317320885,0.0284232427809452,-0.0706119475560175,-0.3305249810218811,0.2106781005859375,-0.7938222885131836,68,137,16126,14066
24.8,1788346626972,5.126760482788086,4.788732528686523,0.0004156329669058,-0.0015380851691588,0.9962394833564758,0.0866272002458572,0.1768481717152467,-0.0066977225619605,-7.35188695916994e-05,0.0107667818665504,0.0072281877510249,-0.034760870039463,-0.0012232679873704,0.0009893383830785,-0.9095346331596376,0.4156253635883331,0.0001565260234742,-0.0018034919165894,-0.0114975709435465,0.2864457964897156,-0.1906952857971191,0.1321868896484375,116,147,16462,15140
24.9,1788346627072,5.154929637908936,5.014084339141846,0.0003858112322632,-0.0015464993193745,0.9961512684822084,0.0876365900039672,0.1826975577496948,-0.005471266649625,-4.400301990922073e-05,-0.0065076337195932,0.0107390787452459,-0.0432703085243701,-0.0009359205141663,0.0010610269382596,-0.9103092551231384,0.4139265716075897,0.0101845440380787,0.0073169093724607,-0.0566466867576714,-0.0731628537178039,-0.0321477055549621,0.6424331665039062,80,41,16400,14283
25.0,1788346627172,4.985915660858154,4.732394218444824,0.0008507105521857,-0.0013574329204857,0.995867133140564,0.0908073410391807,0.1784483011769832,-0.0018258251879003,-2.8778173888874567e-05,-0.0010285483440384,0.0077750929631292,-0.0194274801760911,-0.0015389611944556,0.0009291907772421,-0.911516547203064,0.4112593829631805,-0.0112444236246875,-0.0023313947539921,-0.0291480472053311,-0.2543714642524719,-0.0705963969230651,0.999502182006836,110,132,16503,15416
25.1,1788346627272,5.183098793029785,5.521126747131348,0.0012264705728739,-0.0017122561112046,0.9957617521286012,0.0919467657804489,0.1804178686410879,-0.0028397998682174,6.464850933104539e-06,-0.0127822803333401,-0.016158852726221,-0.0456666946411132,-0.0018710549920797,0.0009720642119646,-0.9119189977645874,0.410364955663681,-0.0070600577569575,-0.0113597552873706,-0.0392661664520235,0.0706264972686767,-0.2337950468063354,0.8933210372924805,84,102,15048,17157
25.2,1788346627372,5.014084339141846,5.211267471313477,0.0010388623923063,-0.0015505026094615,0.9957689642906188,0.0918722450733184,0.176514643757723,-0.0013691640654202,-6.714504434659922e-05,0.006507646292448,0.0089425947517156,0.013460399582982,-0.001695361919701,0.0007956465706229,-0.9117093086242676,0.4108317494392395,0.0037399023378086,-0.010322212322054,0.0030857209821807,0.0982478260993957,0.1519941091537475,-1.066462516784668,84,43,15398,14693
25.3,1788346627472,5.183098793029785,4.788732528686523,0.0010009219404309,-0.0015921113081276,0.9957696199417114,0.0918653607368469,0.1830548786031823,-0.0001245061764018,-2.063804854688869e-06,-0.0022772587835788,0.0017213661922141,0.0003562623751349,-0.0015339506790041,0.0012596417218446,-0.9120410084724426,0.4100941121578216,-0.0044267165115263,0.0134077121364975,-0.0459905575435659,-0.1637757420539856,-0.027289867401123,-0.2952127456665039,82,134,15010,16208
25.4,1788346627572,5.014084339141846,5.267605781555176,0.0003675210755318,-0.001649544108659,0.9957252740859984,0.0923488289117813,0.1801427658217068,0.0008233118758153,-1.916882083436768e-05,0.0068881111219525,0.0138271758332848,0.0038093794137239,-0.001159768551588,0.0011027678847312,-0.9117342233657836,0.4107776582241058,0.0060822007829379,0.0141454195052193,0.0206450064069232,0.1642956733703613,0.1496130228042602,0.4152612686157226,90,46,15594,14499
25.5,1788346627672,4.901408672332764,5.577464580535889,0.0005913199856877,-0.0015452060615643,0.9957543015480042,0.0920363143086433,0.1805515869225721,0.0018270924939838,1.2258636765461625e-05,0.0049996254965662,-0.0085668498650193,0.0125648053362965,-0.0010160943493247,0.0014847051352262,-0.9109886884689332,0.4124275147914886,0.0104798694159143,-0.015513408290326,0.0610697132374091,0.0780050158500671,0.0044792890548706,-0.6918973922729492,80,64,15205,14195
25.6,1788346627772,5.183098793029785,4.901408672332764,0.0001960544614121,-0.0018521898891776,0.9959017634391784,0.0904224440455436,0.1830651727138788,0.0008227512839825,-6.700090989845215e-05,-0.0055990228429436,-0.002908591646701,0.0559104196727275,-0.0010750517249107,0.0011845277622342,-0.910638988018036,0.4131998717784881,0.0105790679752746,-0.0013768482846035,-0.0009457563379755,0.2194843888282776,0.1127423644065857,1.6975841522216797,100,54,15053,15643
25.7,1788346627872,5.211267471313477,4.676056385040283,0.0003516239812597,-0.0015605135122314,0.9960055947303772,0.0892769768834114,0.1751634961016145,0.0002615761521252,-1.2203070278978172e-05,0.0104050431400537,-0.0013544452376663,-0.0009271494927816,-0.0014480259269475,0.0011231247335672,-0.9106558561325072,0.4131615757942199,0.0005394662130928,-0.0218482788340202,0.0100956871481057,-0.1593567132949829,-0.078194260597229,-0.2496585845947265,100,43,14957,16534
25.8,1788346627972,5.211267471313477,4.676056385040283,0.0004073042364325,-0.0016270979540422,0.9960198402404784,0.0891157239675521,0.1792702415701731,-0.0023543165035165,-7.574834528767757e-05,0.0022884828504174,0.0137489167973399,0.0091706495732069,-0.0014480259269475,0.0011231247335672,-0.9106558561325072,0.4131615757942199,0.0005394662130928,-0.0218482788340202,0.0100956871481057,-0.1593567132949829,-0.078194260597229,-0.2496585845947265,100,43,14957,16534
25.9,1788346628072,5.830986022949219,4.11267614364624,-0.0011494403006508,0.0006128764362074,0.9961814284324646,0.0872972980141639,0.1717956156264671,-0.0039716105274665,-0.0001895380944483,0.0677338689565658,0.0518531501293182,0.0545974113047122,-0.0015314472839236,0.0014532171189785,-0.9111221432685852,0.4121309518814087,-0.0704989242140407,-0.0468005798109134,-0.1066172708466853,-0.3463984727859497,-0.5516658425331116,0.5592069625854492,92,24,17069,13614
26.0,1788346628172,5.633802890777588,4.3380279541015625,0.0008287401287816,-0.001889482140541,0.995782434940338,0.0917230993509292,0.1882490918576677,0.0014461165116152,0.0001443724538908,-0.0254422612488269,-0.0216815788298845,-0.102510742843151,-0.0015915678814053,0.0012373747304081,-0.912468433380127,0.4091421663761139,0.0010603553299583,0.0029807187585264,-0.0994985675191127,0.1470685005187988,-0.1381242275238037,0.0370311737060546,84,102,16432,13772
26.1,1788346628272,5.239436626434326,5.042253494262695,0.0011779580963775,-0.0018733681645244,0.995176076889038,0.09808000177145,0.1819370919716205,-0.0032866971914662,4.035207510328038e-05,0.0009460967266932,-0.012537064962089,-0.1628683656454086,-0.0016566272825002,0.0009524514898657,-0.9169690608978271,0.3989537954330444,0.0079962279030035,-0.0133602450126709,-0.1359742832570881,0.1038882732391357,-0.1138442754745483,-0.0545129776000976,84,102,16432,13772
26.2,1788346628372,5.352112770080566,5.014084339141846,0.0008598524145781,-0.0017599400598555,0.9947046637535096,0.1027558222413063,0.172832847065071,-0.0045186159165008,-4.700867982028978e-05,0.0030035991221666,0.013400305993855,-0.1874618530273437,-0.0010326337069272,0.0009736744686961,-0.9195865392684937,0.3928849697113037,5.594032843961176e-06,0.018102620563624,-0.1705100478908973,-0.1882644295692443,-0.0586086511611938,-0.1894083023071289,103,84,15914,16583
26.3,1788346628472,5.211267471313477,5.352112770080566,0.0003625300596468,-0.0014199578436091,0.9936630725860596,0.112390324473381,0.1867085112580021,-0.0069545237873697,-2.5939549527180363e-06,0.0001972111058421,0.0012998993042856,-0.1338086724281311,-0.000864558853209,0.0014101443812251,-0.920759916305542,0.3901262581348419,-0.0084404231231901,0.0239391253624315,-0.0333869029318048,-0.9277281761169434,0.0514423251152038,-0.2725753784179687,69,75,14026,13152
26.4,1788346628572,2.422535181045532,4.366197109222412,0.0005520324339158,-0.0015403052093461,0.9935165047645568,0.1136764883995056,0.1831114279508564,-0.0062215076797557,4.432503121021994e-05,-0.0046441038139164,-0.0093882884830236,-0.0607590600848197,-0.0004319241270422,0.0015860917046666,-0.9186517596244812,0.3950648903846741,0.0039451761233054,0.0092109556447352,0.2320233746658017,-0.8566364645957947,0.1947163343429565,0.9530229568481444,69,75,14026,13152
26.5,1788346628672,0.0,3.4084506034851074,-0.0001227028551511,-0.001557360170409,0.9953341484069824,0.0964758768677711,0.0900576836996014,0.0052014304775683,2.0832371058587237e-05,0.002474847715348,-0.0130934193730354,0.4380758702754974,-0.0007340693846344,0.0013372469693422,-0.90542471408844,0.4245040714740753,0.0021735986876351,-0.0036292015373002,0.590354635869789,-0.2242690920829773,0.1513090133666992,0.0556259155273437,179,49,-7895,12168
26.6,1788346628772,-2.169013977050781,3.2676055431365967,-3.4505617804825306e-05,-0.0015604381915181,0.9966092705726624,0.082265056669712,0.0694507276945596,0.0023626122636407,3.4749537122415823e-06,0.0002260473120259,-0.0043867421336472,0.5670660734176636,-0.000704038888216,0.0015218751505017,-0.896602213382721,0.4428336322307586,-0.0076277991493575,0.0001555979328383,0.7181890060373873,-0.6927244663238525,0.0608329772949218,0.5324192047119141,179,49,-7895,12168
26.7,1788346628872,-2.9577465057373047,3.0985915660858154,-0.0003423889284022,-0.0017199490685015,0.9998502731323242,0.0172140300273895,-0.0016162517563771,0.0036391577848888,-1.2702795532944951e-06,-0.0001382717455271,0.0030718280468136,0.9852915406227112,-0.0004684012383222,0.0015519764274358,-0.8698785901069641,0.4932633638381958,0.0070875481584603,-0.0037065547850313,0.9549881984217692,0.1500387787818908,0.3165048956871032,-0.5485334396362305,44,27,-8737,6226
26.8,1788346628972,-2.450704336166382,2.5352113246917725,-0.0003423889284022,-0.0017199490685015,0.9998502731323242,0.0172140300273895,-0.0016162517563771,0.0036391577848888,-1.2702795532944951e-06,-0.0001382717455271,0.0030718280468136,0.9852915406227112,-0.0007481845095753,0.0015444476157426,-0.8541073203086853,0.520094096660614,-0.0030100154584757,-0.0064415746556607,0.7644898949067412,0.02528578042984,-0.3258846998214721,-0.0752744674682617,111,47,-9950,6865
26.9,1788346629072,-2.450704336166382,2.5352113246917725,0.0003889049694407,0.0015082828467711,-0.9983391761779784,0.0575885251164436,-0.0037777481994077,0.0026779355311106,1.1528406694710528e-06,0.0043635899201035,0.0065406877547502,0.7239495515823364,-0.0004206057637929,0.0015017092227935,-0.8387052416801453,0.5445833206176758,-0.0003932869071946,0.0046648129849429,0.750322547724802,-0.0711418986320495,-0.333618700504303,-0.1167383193969726,91,111,-10119,8458
27.0,1788346629172,-2.253521203994751,2.281690120697021,0.000477353518363,0.0015141577459871,-0.99539053440094,0.0958916321396827,0.000695353172607,-0.0017007711977899,8.207781435278902e-07,-0.001965346513316,-0.0043343715369701,0.7787110209465027,-0.0005790060386061,0.0016068024560809,-0.8070375919342041,0.5904977321624756,-0.0065727486669177,-0.0057913996652538,0.6411992601444836,0.1332272291183471,-0.2504193782806396,0.0185604095458984,72,62,-7988,7733
27.1,1788346629272,-2.1408450603485107,2.563380241394043,0.0001338516303803,0.0016306306933984,-0.9916507005691528,0.1289429664611816,0.0021720320181151,-0.0041178342512325,7.824048880116339e-07,2.584064168331679e-05,-0.0073043117299675,0.6579414010047913,-0.0006327535957098,0.0016432786360383,-0.7826181650161743,0.6224995851516724,-0.0040969636116583,0.0123930487134139,0.7038489353727313,-0.0875464081764221,-0.1779923439025879,-0.3693981170654297,86,70,-8513,6877
27.2,1788346629372,-1.887323975563049,2.2253520488739014,0.0003548342792782,0.0018180570332333,-0.9860996007919312,0.1661448031663894,-0.0002777813732254,0.0029192527109581,-1.2944969102835105e-06,-0.0043049356900155,0.0074017960578203,0.6966012120246887,-0.0005872827023267,0.0017567975446581,-0.7761350274085999,0.6305640339851379,-0.0043761041492872,0.0060155629448274,0.6948887558745113,0.1708114743232727,-0.3324179053306579,0.3397846221923828,53,51,-6914,7386
27.3,1788346629472,-1.7464789152145386,2.0281689167022705,0.0002521862625144,0.0017643960891291,-0.9816142320632936,0.1908671706914901,-7.945773735054142e-05,0.000256210811435,-2.095912863023657e-06,0.0012504698242992,-0.0051729371771216,0.5056487321853638,-0.000733770430088,0.0013807984068989,-0.7474117279052734,0.6643593311309814,0.0051949011785911,-0.0082155625350216,0.5785359652820454,0.0685769915580749,-0.1794334053993225,0.1067695617675781,135,83,-8012,6875
27.4,1788346629572,-1.5774648189544678,1.7464789152145386,9.676662739366292e-05,0.0014681539032608,-0.9758234024047852,0.2185554355382919,0.0004213495148642,4.449150208361768e-06,3.531594475437156e-07,0.0061235534958541,-0.0012127215741202,0.5805879235267639,-0.0008085267618298,0.0012203818187117,-0.7274200916290283,0.6861909031867981,-0.0049585390878052,-0.0074803288039988,0.5010029677384423,0.0014033317565917,-0.283838152885437,0.2373867034912109,26,52,-5897,6253
27.5,1788346629672,-1.436619758605957,1.3521126508712769,-0.000185027020052,0.0014638570137321,-0.9700442552566528,0.2429240345954895,0.000567325803055,0.0002014952572879,-1.4642829806313498e-06,-0.0039416966028511,-0.0080207679420709,0.4846355617046356,-0.0009317630901932,0.0011499347165226,-0.7182196974754333,0.695814847946167,-0.0012382351468945,-0.0049926080897924,0.4242948150941661,0.0747749805450439,0.0947423577308654,0.0414142608642578,82,132,-6629,6198
27.6,1788346629772,-1.5211267471313477,1.6338027715682983,-0.000185027020052,0.0014638570137321,-0.9700442552566528,0.2429240345954895,0.000567325803055,0.0002014952572879,-1.4642829806313498e-06,-0.0039416966028511,-0.0080207679420709,0.4846355617046356,-0.0009317630901932,0.0011499347165226,-0.7182196974754333,0.695814847946167,-0.0012382351468945,-0.0049926080897924,0.4242948150941661,0.0747749805450439,0.0947423577308654,0.0414142608642578,95,114,-6751,6164
27.7,1788346629872,-1.4929577112197876,1.5492957830429075,-0.0002580965810921,0.0015993190463632,-0.9577003717422484,0.2877627313137054,-0.0004670640185026,0.0006182425379723,1.6466384237655047e-06,-0.004900096450001,-0.0025849007070064,0.502565860748291,-0.0009103491902351,0.0013215113431215,-0.6936798691749573,0.7202816605567932,-0.0046455078625051,0.004397130918427,0.5110815216141603,-0.2104197144508361,0.0507751107215881,-0.1620941162109375,84,102,-6707,6067
27.8,1788346629972,-1.3521126508712769,1.408450722694397,-0.0005195417907088,0.0013876727316528,-0.9475173950195312,0.3197008073329925,0.0021564472303461,-0.0007186904335707,-2.014725842556857e-06,0.0053478414192795,-0.0062902718782424,0.4262038469314575,-0.0011194581165909,0.0010055266320705,-0.6684355139732361,0.743768572807312,0.0053809654068625,-0.0060853227856761,0.4313961173956613,-0.06061452627182,0.0184018015861511,-0.0327014923095703,131,122,-5885,5358
