time_s,timestamp_ms,wheel_vels__velocity_left,wheel_vels__velocity_right,odom__orient_x,odom__orient_y,odom__orient_z,odom__orient_w,odom__lin_x,odom__lin_y,odom__lin_z,odom__ang_x,odom__ang_y,odom__ang_z,imu__orient_x,imu__orient_y,imu__orient_z,imu__orient_w,imu__angvel_x,imu__angvel_y,imu__angvel_z,imu__acc_x,imu__acc_y,imu__acc_z,wheel_status__current_ma_left,wheel_status__current_ma_right,wheel_status__pwm_left,wheel_status__pwm_right
0.0,1788522040050,0.0,0.0,-0.0020219844300299,0.0008264754433184,0.398258626461029,0.9172704815864564,0.0,0.0,0.0,3.131762937869098e-08,1.855859466104448e-08,-5.938750291534234e-06,0.001284135505557,0.0017651915550231,-0.9833875894546508,0.1815053671598434,0.0006716088226581,0.0009348575678422,-0.000179640060476,-0.0215096473693847,-0.0097303986549377,0.001352310180664,0,0,0,0
0.1,1788522040150,0.0,0.0,-0.0020219846628606,0.0008264756761491,0.3982585370540619,0.9172704815864564,0.0,0.0,0.0,2.336825177806645e-09,2.103142726639362e-08,-3.5893635867978446e-06,0.0012832889333367,0.0017473865300416,-0.9833861589431764,0.181513100862503,0.0001224831677276,0.0007013001585418,-3.6886037742693095e-06,0.0161952376365661,-0.001034677028656,-0.0092344284057617,0,0,0,0
0.2,1788522040250,0.0,0.0,-0.0020219846628606,0.0008264756761491,0.3982585370540619,0.9172704815864564,0.0,0.0,0.0,2.336825177806645e-09,2.103142726639362e-08,-3.5893635867978446e-06,0.0012832889333367,0.0017473865300416,-0.9833861589431764,0.181513100862503,0.0001224831677276,0.0007013001585418,-3.6886037742693095e-06,0.0161952376365661,-0.001034677028656,-0.0092344284057617,0,0,0,0
0.3,1788522040350,0.0,0.0,-0.0020219844300299,0.0008264763164333,0.398258239030838,0.9172706604003906,0.0,0.0,0.0,0.0,0.0,0.0,0.0013001896440982,0.0017285458743572,-0.9833780527114868,0.1815570741891861,0.0001215453739895,-0.0014271949904824,0.0003169431368472,-0.0015921592712402,0.0056139230728149,0.0302152633666992,0,0,0,0
0.4,1788522040450,0.0,0.0,-0.0019803950563073,0.0008730882545933,0.3983111679553985,0.9172477722167968,0.0001290303238338,-0.0001505918657215,8.686146063236914e-11,0.0002278237661812,0.000301028805552,0.0014860002556815,0.0012862151488661,0.0017345156520605,-0.9833734035491944,0.1815821677446365,-0.0002296726726492,-0.0006631826405024,0.0014234793460773,0.0001248121261596,-0.0030551552772521,-0.0003547668457031,0,0,0,0
0.5,1788522040550,0.0,0.0,-0.0019546097610145,0.0008246871875599,0.3983213007450104,0.917243480682373,-8.287664364534886e-07,9.68917153177772e-07,-5.564678851370309e-11,-0.0001330778904957,-0.0012453065719455,-1.4300866496341769e-05,0.0012373179197311,0.0017260471358895,-0.9833722710609436,0.181588664650917,-5.2614115828194375e-05,-0.0002895603083774,0.0006853107235502,-0.0079705119132995,-0.0155648589134216,-0.00762939453125,0,0,0,0
0.6,1788522040650,0.0,0.0,-0.0019479608163237,0.00083254679339,0.3983396887779236,0.9172354936599731,2.483973279101679e-06,-2.904264433965984e-06,-6.233092871183378e-11,0.0005188533687032,0.0004470936546567,3.0958828574512154e-05,0.0012465650215744,0.001702083274722,-0.9833749532699584,0.1815741807222366,0.0006632880185478,-0.0002909705968893,-0.0010734261074134,-0.0150642395019531,-0.0322351455688476,0.0012540817260742,0,0,0,0
0.7,1788522040750,0.0,0.0,-0.0019321837462484,0.0008266681688837,0.398335337638855,0.9172374606132508,-1.6429503390120134e-05,1.9165873195805044e-05,-1.5185567617491857e-11,0.0007403210620395,-0.0006197151378728,-0.0001887812832137,0.0012296829372644,0.0017071105539798,-0.983365833759308,0.1816238313913345,-0.0013039012997531,-0.0001121092637613,0.0012347184754001,0.000710129737854,0.0127315521240234,0.0248680114746093,0,0,0,0
0.8,1788522040850,0.0,0.0,-0.0019713183864951,0.0008242325857281,0.3983751237392425,0.9172201156616212,0.0001051851147652,-0.000122778569724,-3.2577287458944067e-11,-0.0021662360522896,0.0010016747983172,0.0012148953974246,0.0012334333732724,0.0017217919230461,-0.9833590388298036,0.1816602349281311,0.0004799602395743,-0.0010134320066161,0.0012502785899725,-0.0026403069496154,0.0077088475227355,0.0050764083862304,0,0,0,0
0.9,1788522040950,0.0,0.0,-0.001954996259883,0.0008038888336159,0.3984100818634033,0.917204976081848,5.370221789707931e-05,-6.267899167521007e-05,-7.550812247068796e-12,7.468581316061318e-05,-0.0009005919564515,0.0006195579189807,0.0012655919417738,0.0017113285139203,-0.9833581447601318,0.1816652864217758,0.0008219108648925,0.0018462207009158,0.0012551403712242,-0.0236191153526306,0.0199486017227172,0.0104246139526367,0,0,0,0
1.0,1788522041050,0.0,0.0,-0.0019667283631861,0.000839467626065,0.3984359502792358,0.9171937108039856,0.0001038064718856,-0.0001211519885213,5.921709293444594e-11,-0.0006575127481482,-7.697435648879036e-05,0.001195452408865,0.0012408290058374,0.001737548969686,-0.9833540320396424,0.1816875785589218,-0.0006458919365651,-0.0008377943015504,-0.0001989030069591,-0.0040400624275207,-0.0169922709465026,-0.032750129699707,0,0,0,0
1.1,1788522041150,0.0,0.0,-0.0019654119387269,0.0008210520027205,0.398411214351654,0.9172044396400452,-0.0001137500685262,0.0001327757958395,4.029124125833391e-11,-0.0002954607480205,-0.0008432454196736,-0.0013103679521009,0.0012350622564554,0.001722072251141,-0.9833491444587708,0.1817137449979782,0.0010074875309169,-0.0017262632344223,0.0023345869855892,-0.0043317079544067,0.0131353139877319,-0.0020933151245117,0,0,0,0
1.2,1788522041250,0.0,0.0,-0.0019655330106616,0.000813839607872,0.3984690010547638,0.9171793460845948,-4.4968669744469086e-05,5.249054078345476e-05,-5.5147889307159724e-11,0.0002141295553883,-6.94919508532621e-05,-0.0005183052271604,0.0012387847527861,0.0017193770036101,-0.9833470582962036,0.1817256063222885,0.0008237924350957,7.95038623316347e-05,0.0001724885191727,0.0028750300407409,-0.0282927751541137,0.0103282928466796,0,0,0,0
1.3,1788522041350,0.0,0.0,-0.0019510514102876,0.0008370053838007,0.3984768688678741,0.9171758890151978,4.637121728529141e-05,-5.413307033244358e-05,1.2285259467397232e-10,0.00038544065319,0.0005781226209364,0.0005306556704454,0.001273576170206,0.0017257202416658,-0.983345091342926,0.1817359030246734,0.0001140957988122,0.0002464674410977,0.0001654679332885,-0.012593924999237,-0.0121381282806396,0.0121164321899414,0,0,0,0
1.4,1788522041450,0.0,0.0,-0.0019640575628727,0.000881484535057,0.3985052704811096,0.9171634912490844,8.812992547913004e-05,-0.0001028594517235,-7.135247347299112e-11,0.0005065074074082,-5.981976573821157e-05,0.0010117156198248,0.0013074418529868,0.0017241323366761,-0.9833391308784484,0.1817672550678253,-0.0006146346284479,0.0008196775003396,0.000177657121991,0.000719666481018,0.0398760437965393,-0.0073747634887695,0,0,0,0
1.5,1788522041550,0.0,0.0,-0.0019640575628727,0.000881484535057,0.3985052704811096,0.9171634912490844,8.812992547913004e-05,-0.0001028594517235,-7.135247347299112e-11,0.0005065074074082,-5.981976573821157e-05,0.0010117156198248,0.0013009952381253,0.001744226552546,-0.9833424091339112,0.1817495375871658,-0.0018583776644855,-0.0002365657190891,-0.0016043527217019,-0.0119191408157348,0.0187195539474487,-0.0039300918579101,0,0,0,0
1.6,1788522041650,0.0,0.0,-0.001968452008441,0.0008846222190186,0.3985014855861664,0.9171651005744934,6.947928949727097e-05,-8.108728793785791e-05,-1.262235634259756e-09,0.0009610356646589,-0.0003240344813093,0.0007976773777045,0.0013225590810179,0.0017263926565647,-0.9833450317382812,0.1817357987165451,3.418991234954333e-05,0.0011901965654897,-0.0005819576364625,-0.004310667514801,0.0093777775764465,-0.0165290832519531,0,0,0,0
1.7,1788522041750,0.0,0.0,-0.0019740997813642,0.0009139656904153,0.3984798789024353,0.9171743988990784,2.3650776364725853e-06,-2.766973340159684e-06,8.008195786934707e-11,7.774676487315446e-05,0.0011598350247368,3.062288305955008e-05,0.0013445476070046,0.0017668697983026,-0.9833431839942932,0.1817450523376464,-0.0012733560389049,0.0008605853350636,0.0003797420700573,0.0015803575515747,-0.0277029275894165,-0.0005035400390625,0,0,0,0
1.8,1788522041850,0.0,0.0,-0.0020227534696459,0.0009200263302773,0.3984754085540771,0.9171763062477112,-1.783364824415657e-05,2.0819060380915127e-05,-1.2465491027378182e-09,-0.0011738900793716,0.0008815433830022,-0.0002024995337706,0.0013628182932734,0.0017623491585254,-0.9833382964134216,0.1817711293697357,0.0004377871031381,0.0005914613541324,0.0003359793482289,-0.0051794648170471,0.0099449753761291,-0.0201377868652343,0,0,0,0
1.9,1788522041950,0.0,0.0,-0.0020156682003289,0.0009259142680093,0.3985104560852051,0.9171611070632936,-1.5707736806075076e-05,1.8356033705589184e-05,6.247447460248977e-12,0.0008163934689946,-0.0009659696952439,-0.0001865555677795,0.0013463255017995,0.0017705410718917,-0.9833371639251708,0.1817778348922729,-0.0007701449478711,-0.0002700257292713,0.0006986415822901,-0.0127854943275451,-0.0222942233085632,0.0102243423461914,0,0,0,0
2.0,1788522042050,0.0,0.0,-0.0020465021952986,0.0009310083696618,0.3985461294651031,0.9171454906463624,9.003062104441716e-05,-0.0001050834718333,-1.3406260507919532e-09,-0.0002835693594533,0.0006912902463227,0.0010365466587245,0.0013697100803256,0.0017530713230371,-0.9833300709724426,0.1818161457777023,0.0009850545432496,0.0001391483424228,-4.769404330884627e-05,-0.0302485823631286,-0.0279954671859741,-0.0150222778320312,0,0,0,0
2.1,1788522042150,0.0,0.0,-0.0020282499026507,0.0009709774167276,0.3985641896724701,0.9171376824378968,1.2436368242084013e-05,-1.4526218962203852e-05,-4.086376537591223e-11,0.000606421730481,0.0017570552881807,0.0001513415481895,0.0013776011765003,0.0017597824335098,-0.983334481716156,0.1817921251058578,0.0006695063957107,-0.000800418034184,-0.0028640964762868,0.0057041049003601,0.0258532762527465,0.019484519958496,0,0,0,0
2.2,1788522042250,0.0,0.0,-0.0020547076128423,0.0009848225163295,0.3985554873943329,0.9171413779258728,0.0001698872272332,-0.0001982833590712,-5.04407316347544e-12,-0.0003543356724549,0.0009962426265701,0.0019561853259801,0.0014200350269675,0.0017834892496466,-0.9833248257637024,0.1818435341119766,-0.0002424785516505,-0.0001016058269497,0.0014166259113025,-0.0256571173667907,-0.0150841474533081,0.0047988891601562,0,0,0,0
2.3,1788522042350,0.0,0.0,-0.0020637195557355,0.0009750564931891,0.3985191881656647,0.9171571731567384,-0.0002112137962203,0.000246566499642,-9.603919086115952e-11,-0.0003364658332429,-0.0001505461987107,-0.0024278927594423,0.0014453968033194,0.0017853006720542,-0.9833423495292664,0.1817484647035598,0.0009790766925085,0.0012707745383409,-0.000686243883177,-0.0035716295242309,-0.0043193697929382,-0.004042625427246,0,0,0,0
2.4,1788522042450,0.0,0.0,-0.0020797022152692,0.0009864500025287,0.3984776437282562,0.9171751737594604,3.2786209680743255e-05,-3.825307677782401e-05,1.805147717392517e-10,-0.0005534578813239,0.0004374803975224,0.0003753335913643,0.0014361338689923,0.0017970474436879,-0.9833468198776244,0.1817243695259094,0.0004708116893429,0.0006215554419161,-0.0007153867944503,-0.0037539005279541,0.0012866854667663,0.0067520141601562,0,0,0,0
2.5,1788522042550,0.0,0.0,-0.0020773417782038,0.0010103274835273,0.3985027968883514,0.9171642065048218,8.155476870870117e-05,-9.51906639446142e-05,-9.347237376188512e-11,6.171123095555231e-05,-0.0005747018731199,0.0009339049574919,0.0014445139095187,0.0018149577081203,-0.9833390116691588,0.1817661970853805,-0.0013076586269939,-0.0002759440878898,-1.4976297100739303e-05,0.0054854154586791,-0.0199202299118042,-0.0004901885986328,0,0,0,0
2.6,1788522042650,0.0,0.0,-0.0021216901950538,0.0009802927961573,0.3985061049461365,0.9171627163887024,-2.55376652454917e-05,2.9796312666487865e-05,-9.929383162530468e-11,-0.0005491947522386,0.0002549481578171,-0.000294649915304,0.0014036558568477,0.0018501179292798,-0.983339786529541,0.1817620694637298,-0.0005884981367129,-0.0018626299255849,-0.0005488087027442,0.0210539102554321,0.0043253302574157,-0.0164976119995117,0,0,0,0
2.7,1788522042750,0.0,0.0,-0.0021528797224164,0.0009346502483822,0.3984867930412292,0.917171061038971,-4.562710248885982e-05,5.326822261260332e-05,-8.046392117799683e-11,-0.0015442724106833,-5.635981142404489e-05,-0.000524504110217,0.0014301752671599,0.0019175233319401,-0.9833362698554992,0.1817800998687744,-0.0009347574632959,0.0018013758047867,0.0020876798257784,0.0055250525474548,0.0072211027145385,0.0085859298706054,0,0,0,0
2.8,1788522042850,0.0,0.0,-0.0021741921082139,0.0009438345441594,0.3984946310520172,0.917167603969574,-0.0001140971531252,0.0001331952145034,1.38825916001319e-10,0.0002180114242946,-6.320140528259799e-05,-0.0013129933504387,0.0014132652431726,0.0019043609499931,-0.9833486080169678,0.1817138493061065,-0.0004027303179539,8.061798351631376e-05,-0.0016136706602204,-0.0307544469833374,-0.0091082453727722,0.002964973449707,0,0,0,0
2.9,1788522042950,0.0,0.0,-0.0021832608617842,0.0009480657172389,0.3984705805778503,0.9171780347824096,6.505018719102437e-05,-7.592261825441627e-05,6.706925467416916e-11,-0.0003572630230337,0.0001475064782425,0.0007476606988348,0.0013969652354717,0.0018799509853124,-0.9833409190177916,0.1817557364702224,0.000965025790729,-0.0012892794525197,-0.0001796127466014,0.0100696086883544,0.0371010303497314,0.0212955474853515,0,0,0,0
3.0,1788522043050,0.0,0.0,-0.0021158489398658,0.0009407201432622,0.398430198431015,0.917195737361908,-0.0001465807389764,0.0001711225453347,-9.691165439796112e-12,0.0008319795015268,-0.0001616258523426,-0.0016873639542609,0.0014058174565434,0.0018380191177129,-0.9833565354347228,0.1816720515489578,0.0004479189171695,0.0009318375370753,-0.0006839106337753,0.0082414746284484,-0.0050867795944213,0.0300846099853515,0,0,0,0
3.1,1788522043150,0.0,0.0,-0.002111701760441,0.0009739935048855,0.398418664932251,0.9172007441520692,3.540804996220521e-05,-4.134082810570498e-05,-6.092613474274059e-11,0.0003109034441877,0.0016713240183889,0.0004170243046246,0.0014524217694997,0.0018686950206756,-0.9833527207374572,0.1816920489072799,-0.0016576375421182,0.0021944769644929,0.0010611873075961,-0.0086125135421752,-0.0225244760513305,0.0065813064575195,0,0,0,0
3.2,1788522043250,0.0,0.0,-0.002111701760441,0.0009739935048855,0.398418664932251,0.9172007441520692,3.540804996220521e-05,-4.134082810570498e-05,-6.092613474274059e-11,0.0003109034441877,0.0016713240183889,0.0004170243046246,0.0014662072062492,0.0018816795200109,-0.9833528399467468,0.1816910505294799,-0.0005135435152643,0.0007965239945293,-4.9970090704209325e-05,-0.0046985149383544,0.0100178718566894,0.0031385421752929,0,0,0,0
3.3,1788522043350,0.0,0.0,-0.002111701760441,0.0009739935048855,0.398418664932251,0.9172007441520692,3.540804996220521e-05,-4.134082810570498e-05,-6.092613474274059e-11,0.0003109034441877,0.0016713240183889,0.0004170243046246,0.0014662072062492,0.0018816795200109,-0.9833528399467468,0.1816910505294799,-0.0005135435152643,0.0007965239945293,-4.9970090704209325e-05,-0.0046985149383544,0.0100178718566894,0.0031385421752929,0,0,0,0
3.4,1788522043450,0.0,0.0,-0.0021733241155743,0.0009937433060258,0.3984377086162567,0.917192280292511,8.177153085770892e-05,-9.545850671596305e-05,-3.1796935664122276e-11,0.0007259550038725,-0.0012731805909425,0.0009374312357977,0.0014662072062492,0.0018816795200109,-0.9833528399467468,0.1816910505294799,-0.0005135435152643,0.0007965239945293,-4.9970090704209325e-05,-0.0046985149383544,0.0100178718566894,0.0031385421752929,0,0,0,0
3.5,1788522043550,0.0,0.0,-0.0021730153821408,0.0010182738769799,0.3984139263629913,0.9172025918960572,-8.892597150013965e-05,0.0001037925624748,3.3954223455309003e-11,0.0003973638813477,0.0008816923946142,-0.0010162405669689,0.0014634691178798,0.0018642311915755,-0.9833582639694214,0.1816617995500564,-0.0002364419471169,0.0009212677565794,-0.0005857867886361,0.0005918741226196,-0.0118371844291687,-0.0077295303344726,0,0,0,0
3.6,1788522043650,0.0,0.0,-0.0021646034438163,0.0010625883005559,0.3983979821205139,0.9172095656394958,3.314360444636315e-05,-3.867508633911757e-05,-6.493783496965725e-11,0.0004595796926878,0.0004358181904535,0.0003794734366238,0.0015036482363939,0.0018616495653986,-0.9833635091781616,0.1816325038671493,0.0003070061494156,-0.0013526936899693,-0.0014492293013777,0.0085190534591674,0.0328543782234191,-0.0039234161376953,0,0,0,0
3.7,1788522043750,0.0,0.0,-0.0021518382709473,0.0010499901836737,0.3983690142631531,0.9172220826148988,4.735044371827374e-05,-5.527910707931324e-05,-1.301803702973594e-10,7.115773041732609e-05,0.0001491330767748,0.0005406625568866,0.0015175975859165,0.0018607322126626,-0.9833695888519288,0.1815996021032333,-5.2767070061892335e-05,-0.0001056842831251,-0.0007223670876057,-0.0056005120277404,0.0094290971755981,-0.0023002624511718,0,0,0,0
3.8,1788522043850,0.0,0.0,-0.002171742497012,0.0010909826960414,0.3983358740806579,0.9172364473342896,-4.423276137061058e-05,5.161917726219714e-05,-1.341575695884779e-11,-0.0001269155036425,0.0014165823813527,-0.0005024191923439,0.001567019149661,0.0018752347677946,-0.983373999595642,0.1815757006406784,-0.0002231149237612,0.0007444183615785,-0.0006786512153737,-0.0064396262168884,0.0310425758361816,0.0067577362060546,0,0,0,0
3.9,1788522043950,0.0,0.0,-0.0021921931765973,0.0011278286110609,0.3983193635940552,0.917243480682373,-4.473715556949744e-05,5.221758381402048e-05,6.519289604086219e-11,-2.188884354836773e-05,0.0012306144926697,-0.0005117834662087,0.0016278121620416,0.0018929550424218,-0.9833773970603944,0.1815561205148697,-0.0004164510679249,0.0020237480481417,0.0001776952964749,-0.0034316778182983,0.0257586240768432,0.010329246520996,0,0,0,0
4.0,1788522044050,0.0,0.0,-0.0021896495018154,0.0011698192683979,0.3983174264431,0.9172442555427552,4.379771368845158e-05,-5.1116439500364375e-05,-1.3031966003593028e-10,0.00046600351925,4.25526341132354e-05,0.0005019708187319,0.0016109207645058,0.0018543396145105,-0.983381986618042,0.1815321445465088,0.0007342665054345,-0.0008968305285301,-0.0023677978666935,-0.0057272315025329,-0.0090839862823486,0.0173501968383789,0,0,0,0
4.1,1788522044150,0.0,0.0,-0.0021534168627113,0.0011498931562528,0.3983007967472076,0.9172516465187072,7.59510557878867e-05,-8.866308455172279e-05,-8.261894564061277e-11,0.0005012946785427,-0.000609440554399,0.000865773006808,0.0015815077349543,0.0018178271129727,-0.9833716154098512,0.1815889477729797,-0.0007280706621323,-0.0007727806427948,0.0008292429578002,0.0080398917198181,0.0065739750862121,-0.0076789855957031,0,0,0,0
4.2,1788522044250,0.0,0.0,-0.0021263833623379,0.0011560420971363,0.3982946276664734,0.9172542691230774,-0.0001175693099259,0.000137255796018,-5.527623712566591e-12,-0.0003312748740427,0.0007763081230223,-0.0013503145892173,0.0016082469373941,0.0018159132450819,-0.9833816289901732,0.1815342903137207,-0.0004618594251188,0.0004856244928741,-0.0017070833536036,0.0084572434425354,-0.0098022818565368,0.010207176208496,0,0,0,0
4.3,1788522044350,0.0,0.0,-0.0021051811054348,0.0011842235689982,0.3983297646045685,0.9172390699386596,7.895641516845895e-05,-9.214367414418128e-05,1.9595965029402548e-11,0.0012773330090567,0.0003497471916489,0.0009110814426094,0.0016289735212922,0.0017692185938358,-0.9833789467811584,0.1815490424633026,0.0010247343945767,-0.0001058886716977,-0.0021566567914491,0.0213167071342468,-0.0053317546844482,-0.0040950775146484,0,0,0,0
4.4,1788522044450,0.0,0.0,-0.002094036899507,0.0011862573446705,0.3983427286148071,0.917233407497406,0.0001098378627884,-0.0001282077313566,8.645212344173382e-11,0.0004611234180629,-0.0003407196491025,0.0012695410987362,0.0015961760655045,0.0017706053331494,-0.9833768606185912,0.1815607547760009,-0.0004041013541858,-0.0017099037972929,-0.0018123074236331,0.0008648633956909,0.0127226710319519,0.0066547393798828,0,0,0,0
4.5,1788522044550,0.0,0.0,-0.0020845292601734,0.0011565294116735,0.3983113169670105,0.9172471761703492,-0.0001211667281832,0.0001414521433331,1.5875243844849026e-10,-0.0001243752485606,-0.0012622406939044,-0.0013988966820761,0.0016087628901004,0.0017482116818428,-0.9833900332450868,0.1814893931150436,0.0005603832571544,6.426535491315641e-05,-0.0016572338148062,0.0154464244842529,0.0212865471839904,-0.0076208114624023,0,0,0,0
4.6,1788522044650,0.0,0.0,-0.0020644187461584,0.0011856766650453,0.3982210159301758,0.9172863960266112,-0.0002784629848655,0.0003250950135926,4.7721851823927435e-09,0.0009583500213921,0.0005166382761672,-0.0031973316799849,0.001628684811294,0.0017067696899175,-0.983398139476776,0.1814461350440979,0.0006538559023544,0.0005908420724991,-0.0001801233835996,0.0030183792114257,-0.0066040754318237,0.0101594924926757,0,0,0,0
4.7,1788522044750,0.0,0.0,-0.0020351368002593,0.0011905019637197,0.3982069790363312,0.917292594909668,-5.237631978853201e-05,6.115017244140582e-05,-6.94804949789901e-11,0.0011368582490831,-0.0002846190764103,-0.0006044532055966,0.0016359267756342,0.0016969190910458,-0.9834014773368835,0.1814274191856384,-0.0002160638387991,-0.0004537138048545,-0.0005243402795425,-0.0021734237670898,0.0148279070854187,-0.0131330490112304,0,0,0,0
4.8,1788522044850,0.0,0.0,-0.002023659646511,0.0011822285596281,0.3982375562191009,0.9172793626785278,0.0001110987863554,-0.0001296878992156,1.1162729009295475e-10,-0.0001705513277556,-0.0008550295606255,0.0012684838147833,0.0015941262245178,0.0017092553898692,-0.9833906888961792,0.1814866214990615,-0.0004106383331326,-0.0008380848095924,0.0003459731806781,-0.0191602706909179,0.0133675932884216,-0.0024547576904296,0,0,0,0
4.9,1788522044950,0.0,0.0,-0.002023659646511,0.0011822285596281,0.3982375562191009,0.9172793626785278,0.0001110987863554,-0.0001296878992156,1.1162729009295475e-10,-0.0001705513277556,-0.0008550295606255,0.0012684838147833,0.0016006054356694,0.001708541996777,-0.983393132686615,0.1814733445644378,0.0001212151663124,0.0003988614566872,-0.0008591113917302,-0.002947986125946,0.0060775279998779,0.0137443542480468,0,0,0,0
5.0,1788522045050,0.0,0.0,-0.002023659646511,0.0011822285596281,0.3982375562191009,0.9172793626785278,0.0001110987863554,-0.0001296878992156,1.1162729009295475e-10,-0.0001705513277556,-0.0008550295606255,0.0012684838147833,0.001609768718481,0.0017014499753713,-0.9833966493606568,0.1814542710781097,0.0004337561052393,0.0010328560786921,-4.767213367978005e-05,0.0079880356788635,-0.015625,0.0082788467407226,0,0,0,0
5.1,1788522045150,0.0,0.0,-0.0019931888673454,0.0011687006335705,0.398204892873764,0.9172936081886292,-4.214713168383389e-05,4.92039459294252e-05,-1.84129218185779e-10,0.0011912017362192,-0.0017054614145308,-0.0004923047381453,0.0015555256977677,0.0016721971333026,-0.9833997488021852,0.1814380437135696,0.0003023268435802,-0.0020357467591659,-0.0007143274430521,0.0032441616058349,0.0271171331405639,0.0066261291503906,0,0,0,0
5.2,1788522045250,0.0,0.0,-0.0019666813313961,0.001115923281759,0.3981832265853882,0.9173031449317932,-2.290705973721204e-05,2.673082938016716e-05,1.076226690679876e-10,0.0004742383316624,-0.0008546282770112,-0.0002646890934556,0.0014995038509368,0.0016504237428307,-0.9834011793136596,0.1814305186271667,0.0004350846732486,-0.0016350436305654,0.0003463771882131,0.0057301521301269,-0.0035779476165771,-0.0078792572021484,0,0,0,0
5.3,1788522045350,0.0,0.0,-0.0019666813313961,0.001115923281759,0.3981832265853882,0.9173031449317932,-2.290705973721204e-05,2.673082938016716e-05,1.076226690679876e-10,0.0004742383316624,-0.0008546282770112,-0.0002646890934556,0.0015083774924278,0.0016500279307365,-0.9834038615226746,0.1814161092042923,-5.3913701654039964e-06,0.0007816511735468,-0.0014028303168194,0.0148841142654418,-0.0054000616073608,-0.0096588134765625,0,0,0,0
5.4,1788522045450,0.0,0.0,-0.0019373297691345,0.001096180290915,0.3981842398643493,0.9173027873039246,-5.698165658062231e-05,6.652129536871841e-05,-9.96727595804189e-10,0.0002975253155454,0.000828570628073,-0.0006550113321281,0.0015083774924278,0.0016500279307365,-0.9834038615226746,0.1814161092042923,-5.3913701654039964e-06,0.0007816511735468,-0.0014028303168194,0.0148841142654418,-0.0054000616073608,-0.0096588134765625,0,0,0,0
5.5,1788522045550,0.0,0.0,-0.0019373297691345,0.001096180290915,0.3981842398643493,0.9173027873039246,-5.698165658062231e-05,6.652129536871841e-05,-9.96727595804189e-10,0.0002975253155454,0.000828570628073,-0.0006550113321281,0.0015083774924278,0.0016500279307365,-0.9834038615226746,0.1814161092042923,-5.3913701654039964e-06,0.0007816511735468,-0.0014028303168194,0.0148841142654418,-0.0054000616073608,-0.0096588134765625,0,0,0,0
5.6,1788522045650,0.0,0.0,-0.0019373297691345,0.001096180290915,0.3981842398643493,0.9173027873039246,-5.698165658062231e-05,6.652129536871841e-05,-9.96727595804189e-10,0.0002975253155454,0.000828570628073,-0.0006550113321281,0.0015083774924278,0.0016500279307365,-0.9834038615226746,0.1814161092042923,-5.3913701654039964e-06,0.0007816511735468,-0.0014028303168194,0.0148841142654418,-0.0054000616073608,-0.0096588134765625,0,0,0,0
5.7,1788522045750,0.0,0.0,-0.0019530059071257,0.0010960709769278,0.398139625787735,0.9173220992088318,5.873369281120709e-05,-6.854944328622863e-05,6.443686198483044e-11,8.812161831883714e-05,0.0002187313948525,0.0006762451375834,0.0015234583988785,0.0016726879402995,-0.9834088087081908,0.1813892722129821,0.0008814833345669,5.372937296479602e-05,0.0001867386703096,0.0097810626029968,-0.0248222351074218,0.0063676834106445,0,0,0,0
5.8,1788522045850,0.0,0.0,-0.0019376431591808,0.0010937750339508,0.3981333076953888,0.9173248410224916,-5.314030935455598e-05,6.202198924283554e-05,-1.6442666593308278e-13,0.0007240869454108,-0.0008308949763886,-0.0006131595582701,0.0015018377453088,0.0016481271013617,-0.9834110140800476,0.1813774853944778,-0.0003909528583433,0.0005563790500393,0.000164847150778,0.0253669619560241,-0.0055692195892333,0.0080413818359375,0,0,315,443
5.9,1788522045950,0.0,1.408450722694397,-0.0019414930138736,0.0010811276733875,0.398135632276535,0.917323887348175,7.040323509332548e-06,-8.212537871645572e-06,1.2666647747882106e-10,-0.0002769713464658,-0.0003254762268625,8.089412585832179e-05,0.0014535747468471,0.0016650538891553,-0.9833902716636658,0.1814903914928436,-0.0018419376171767,-0.0027320196278925,0.0090309531100649,0.1805539727210998,0.0180750489234924,0.0555181503295898,168,274,10677,9591
6.0,1788522046050,2.197183132171631,3.2676055431365967,-0.0024592375848442,0.0002839628141373,0.4050197005271911,0.9143046140670776,0.0837624692913076,0.0044467843092208,2.476201307365797e-05,-0.0215156823396682,-0.0047072977758944,0.1704433411359787,0.0014535747468471,0.0016650538891553,-0.9833902716636658,0.1814903914928436,-0.0018419376171767,-0.0027320196278925,0.0090309531100649,0.1805539727210998,0.0180750489234924,0.0555181503295898,168,274,10677,9591
6.1,1788522046150,4.084506988525391,5.690140724182129,-0.0029297959990799,-0.0008455369388684,0.4203613996505737,0.9073516130447388,0.1875706629271294,0.0030456378664587,0.0001245193980762,-0.01256600394845,-0.0196951478719711,0.2928343415260315,-2.291519194841385e-05,0.0029580723494291,-0.9787496328353882,0.2050377130508422,-0.0103104576552654,0.0094015916670855,0.314739357708208,0.1345719099044799,0.1592124700546264,0.088287353515625,153,167,15923,20361
6.2,1788522046250,4.169013977050781,5.88732385635376,-0.0024681037757545,-0.0004378117155283,0.4346128404140472,0.9006138443946838,0.1806187914115208,-0.0016930959628013,-0.0001034380386966,0.0153715936467051,0.0077890311367809,0.3316194415092468,0.0005788244307041,0.0024756174534559,-0.9744378328323364,0.2246430516242981,0.0083375683177578,0.0281188592623025,0.2710996163424762,-0.2994697690010071,-0.151762306690216,1.116018295288086,100,48,12985,16670
6.3,1788522046350,2.450704336166382,3.7183098793029785,-0.0024437927640974,0.0001069586141966,0.4451184868812561,0.8954683542251587,0.1652546495463952,0.0070412365200616,-3.1468238072230425e-05,0.0074630863964557,-0.0054995706304907,0.2486207634210586,0.0005112970247864,0.0025058761239051,-0.9712207317352296,0.2381678074598312,-0.0157958547382766,-0.003041762429198,0.1867702319338625,-1.109016180038452,0.2145522832870483,1.704936981201172,9,90,7400,7311
6.4,1788522046450,1.5211267471313477,1.97183096408844,-0.0025650027673691,-9.19015146791935e-05,0.4525867402553558,0.891716718673706,0.0831309487257324,0.0043717128936907,-2.640600030815009e-05,0.003810585476458,0.0057034781202673,0.0815829932689666,0.0009018015116453,0.0024670371785759,-0.970272660255432,0.242000326514244,0.0083763191114467,0.0212769837099256,0.1055726212194043,-0.7671273946762085,0.3716509342193603,-0.8470077514648438,3,66,1221,170
6.5,1788522046550,0.0,0.0,-0.0025914118159562,0.0001062133815139,0.4548176825046539,0.8905807137489319,0.0039295214493013,-0.0003406499400107,-6.614304140406987e-07,-0.0033759099896997,-0.0079295178875327,0.0251385420560836,0.0006369818001985,0.0024499520659446,-0.9700132012367249,0.2430393695831298,0.0029500016525387,-0.0019550618053993,0.0239086975028124,0.2532737851142883,0.1229521036148071,-0.0029926300048828,0,0,0,0
6.6,1788522046650,0.0,0.0,-0.0025644800625741,2.8010807000100613e-05,0.4548735618591308,0.8905523419380188,-0.0002933328380203,0.0013017187223197,-1.62599886905151e-10,-0.0024004434235394,0.0001608991879038,-0.0126596605405211,0.0005768872797489,0.0024867001920938,-0.9700865745544434,0.2427459955215454,-0.0007335568384173,-0.0075220663379153,0.0080392006869022,-0.0732834935188293,-0.0004459619522094,0.1064233779907226,0,0,0,0
6.7,1788522046750,0.0,0.0,-0.0025892120320349,1.58695038408041e-05,0.454950213432312,0.8905131220817566,-0.0006420585482018,0.000749533715818,-6.084201405866455e-12,-0.0029512869659811,0.0005617628339678,-0.0073848031461238,0.0005916785448789,0.0024905838072299,-0.970047652721405,0.2429014295339584,0.0013513531847065,0.0017852698337565,0.0075302315055139,0.0138556361198425,0.0468448996543884,-0.034891128540039,0,0,0,0
6.8,1788522046850,0.0,0.0,-0.0025860657915472,-5.189795047044754e-06,0.4550126194953918,0.8904811143875122,7.773561065512194e-05,0.0004193297775934,-9.725556527575706e-11,-0.0002683279744815,-0.0003388962068129,-0.0017582102445885,0.0005905088037252,0.0025247875601053,-0.970062017440796,0.242843747138977,-3.980744741172929e-05,0.0008897109201393,0.0006859285699748,0.0371538996696472,0.0024192333221435,0.0081310272216796,0,0,0,0
6.9,1788522046950,0.0,0.0,-0.0025538715999573,5.8800214901566505e-06,0.4550753235816955,0.8904493451118469,0.0001209928896483,-0.0001412075570191,-1.5387224045887962e-11,0.0011397075140848,-0.0007265578606165,0.0013855546712875,0.0005748458206653,0.0024944655597209,-0.9700801372528076,0.2427714616060257,-0.0006844255044837,0.0014500655227446,-0.0026640464074968,0.0096730589866638,-0.0215198993682861,0.0294666290283203,0,0,0,0
7.0,1788522047050,0.0,0.0,-0.0025737015530467,2.721790224313736e-06,0.4550048410892486,0.8904851675033569,9.417258496496676e-05,-0.0001099027968814,-1.0629719328092876e-10,-0.0005328381666913,0.0004185358411632,0.0010833437554538,0.000562410801649,0.0025180000811815,-0.9700672030448914,0.2428229600191116,-0.0018120059921789,-0.0013793083896087,-0.0010974657239337,0.024013876914978,-0.0065557360649108,0.0080385208129882,0,0,0,0
7.1,1788522047150,0.0,0.0,-0.0025803106836974,-1.47954560816288e-05,0.4549742639064789,0.8905008435249329,-0.0001516122246335,0.0001769961405023,-7.935884034360893e-11,0.0001796498545445,0.0005449227755889,-0.0017367651453241,0.0005894638597965,0.0025046439841389,-0.9700659513473512,0.2428279817104339,0.0011924557779844,0.0012699738237848,0.0025061650705418,-0.0132368803024292,-0.0015346407890319,0.004302978515625,0,0,0,0
7.2,1788522047250,0.0,0.0,-0.0025557735934853,-3.087788354605436e-05,0.4550297856330871,0.8904725313186646,-1.1108735514739411e-05,1.2991785223233182e-05,-2.1435885506221103e-10,0.0003460563311818,-9.658755880082026e-05,-0.0001279503921978,0.0005729161202907,0.0025030961260199,-0.9700504541397096,0.2428899407386779,-0.0002577694127629,0.0010271102730177,0.0034118329371016,-0.0100188851356506,-0.0015394687652587,0.016890525817871,0,0,0,0
7.3,1788522047350,1.3239436149597168,1.6901408433914185,-0.0025380819570273,8.680392056703568e-06,0.4550782144069671,0.8904478549957275,1.8388667519472e-05,-2.1436351557809136e-05,1.6705112081836815e-10,0.0010227665770798,-0.0002918193058576,0.0002099167759297,0.0002928487956523,0.0023786071687936,-0.9697121381759644,0.2442389726638794,0.002204868123039,-0.017244436165398,0.0913414180723014,2.295811176300049,0.2399665117263794,-0.0043249130249023,73,243,7053,11096
7.4,1788522047450,3.4647886753082275,4.14084529876709,-0.0025062328204512,-0.0004325723857618,0.4590562880039215,0.8884035348892212,0.1085457717057344,0.0014538380620709,-1.8500555850409445e-05,-0.0095095764845609,-0.0021295945625752,0.0949573144316673,0.0001048753038048,0.0024621682241559,-0.9686518311500548,0.2484101057052612,0.0029664300648147,-0.0134542427309634,0.1107846351056185,0.4593942165374756,-0.2797464728355407,0.727269172668457,182,166,14797,16266
7.5,1788522047550,4.816901206970215,5.97183084487915,-0.0023451312445104,-0.0012194963637739,0.4642729759216308,0.8856882452964783,0.1696656709832049,0.0042144980875008,1.960957488562984e-05,-0.0114341704174876,-0.0161995999515056,0.1273419559001922,-0.0004812786355614,0.0026095518842339,-0.9670621752738952,0.2545265257358551,-0.0015938448980483,-0.0003307435409144,0.1760739966477216,0.1047524809837341,-0.3096827268600464,1.0704879760742188,91,73,15056,16452
7.6,1788522047650,4.563380241394043,5.549295902252197,-0.0021624364890158,-0.0012377052335068,0.4737197756767273,0.8806720972061157,0.18381933918357,0.0037863751492344,-9.892592489050266e-05,0.0074470951221883,-0.0085615832358598,0.1809778064489364,-0.000490459613502,0.0025510294362902,-0.9641180038452148,0.2654613852500915,-0.0069555168565105,0.0250204996272808,0.1852600461576896,-0.3384347558021545,0.1474630236625671,0.5837135314941406,53,38,14455,16124
7.7,1788522047750,5.295774459838867,4.901408672332764,-0.0014042034745216,-0.002054844982922,0.4799605906009674,0.8772864937782288,0.1678389791119235,0.0036354832531424,9.403025171940164e-05,0.0068814833648502,-0.0239368043839931,0.1235186755657196,-0.0018490795046091,0.0017003826797008,-0.9626742601394652,0.2706509232521057,0.0047127237781466,-0.0055513334093868,0.0143672250012508,0.5222943425178528,-0.0055688619613647,-0.5876665115356445,137,18,17404,12572
7.8,1788522047850,5.042253494262695,5.098591327667236,-0.0010430517140775,-0.0021868322510272,0.4783618748188019,0.8781594634056091,0.1794648985207789,0.0005026814792279,3.349902767312806e-05,0.00123264756985,-0.0076289996504783,-0.0857622548937797,-0.0019933022558689,0.0014778235927224,-0.96357524394989,0.2674257755279541,-0.0097414841486892,-0.0149100909644187,-0.0970517335811001,0.2231379151344299,0.0639198422431945,-0.8688497543334961,54,66,14532,15099
7.9,1788522047950,4.619718074798584,5.605633735656738,-0.0013628283049911,-0.0019592666067183,0.4777925014495849,0.8784694671630859,0.1789313579810557,0.0011202136215964,-1.0295471404289363e-05,-0.0076710488647222,0.013347745873034,0.0277504306286573,-0.001090751029551,0.0020703868940472,-0.9628705978393556,0.269953191280365,-0.007312655276405,0.0283375901759687,0.1260052369689204,-0.2332322597503662,0.1990048289299011,-1.1254587173461914,35,61,12928,16827
8.0,1788522048050,4.591549396514893,5.352112770080566,-0.0024758884683251,-0.0003187976544722,0.4862576723098755,0.8738119006156921,0.1686251475673988,0.0012612052889774,-0.0001836965126936,-0.0077833319082856,0.0504997037351131,0.1989772766828537,0.0007115472108125,0.0026298910379409,-0.9605027437210084,0.2782572209835052,0.0004061711348924,0.0398663291759706,0.1822707755619067,0.143119990825653,-0.0770401358604431,0.2148094177246093,86,75,14925,14956
8.1,1788522048150,5.323943614959717,4.985915660858154,-0.0031929512042552,0.0037269236054271,0.4937471449375152,0.8695917129516602,0.1689708822259878,0.0054694144106422,0.0001378351043744,0.0474854186177253,-0.0243641901761293,0.1458449065685272,0.00533695705235,0.0019333064556121,-0.9580236077308656,0.2866332530975342,0.012449299734194,-0.001061793970436,0.0419698756562334,-0.0841692090034484,0.530483603477478,1.0159225463867188,171,55,17365,14113
8.2,1788522048250,4.873239517211914,5.267605781555176,-0.0033083111047744,0.0008469108724966,0.4934321939945221,0.8697775602340698,0.1871979419812371,0.0021142578565838,0.0003399339870374,-0.0869073644280433,-0.1396541148424148,-0.0696242153644561,0.0017051650211215,0.0030089365318417,-0.9586694836616516,0.2845011353492737,0.0114741278589178,0.0192229020453223,0.0085675277722165,-0.3315133452415466,0.1666157245635986,-1.0183954238891602,22,66,13701,14522
8.3,1788522048350,4.619718074798584,5.154929637908936,-0.0032302062027156,0.0006926180794835,0.494950383901596,0.8689149618148804,0.1596231664231204,0.0027647009651328,-5.9387050113154334e-06,0.000920160789974,0.0092349927872419,0.0773086175322532,0.0012745708227157,0.002885484136641,-0.9575597643852234,0.2882174849510193,0.0027296863934756,0.0075812717341599,0.077104106963631,0.5397061109542847,0.1447240710258484,-0.9554042816162108,94,85,15096,15356
8.4,1788522048450,4.676056385040283,5.633802890777588,-0.0026755528524518,0.0005064711440354,0.498262345790863,0.8670220375061035,0.1734291215319648,-0.0011446880244141,2.065136560618435e-06,0.0111137591302394,-0.0063562183640897,0.0800459831953048,0.0012168614193797,0.0021615149453282,-0.956327736377716,0.2922861278057098,0.0258843917132977,0.000414859876269,0.1632347102914662,-0.0189027190208435,-0.1114435791969299,-0.4595966339111328,58,65,13686,15911
8.5,1788522048550,4.450704097747803,5.549295902252197,-0.0007726717740297,0.000622609979473,0.5062832236289978,0.8623666763305664,0.169113660276132,0.0038349087468876,1.295936069066302e-05,0.0486143194139003,-0.0199269205331802,0.190681517124176,0.0009098472073674,0.0008037826046347,-0.9532611966133118,0.3021451830863952,-0.0161819999321461,0.0168996644116085,0.1904828744420338,0.0099369883537292,0.3252825736999511,-1.0880126953125,78,49,13951,16266
8.6,1788522048650,4.535211086273193,5.633802890777588,-0.001206281944178,0.0007662575226277,0.5121638774871826,0.8588865399360657,0.1697540865911364,0.0028364347993797,-7.073192671188383e-06,-0.0034510495606809,0.0041581410914659,0.1290931850671768,0.0010009845718741,0.0010441280901432,-0.9516044855117798,0.3073218762874603,0.0022556613181528,0.0044760835953691,0.1488497089159748,-0.1619496941566467,0.3877665996551513,0.3411941528320312,73,88,14090,16195
8.7,1788522048750,4.563380241394043,5.521126747131348,-0.0008546179160475,-3.718349034897983e-05,0.5195229053497314,0.8544560670852661,0.1628392354820004,0.004535198513832,6.472794390020186e-05,-0.0089606689289212,-0.0116699654608964,0.147173136472702,0.0003029918298125,0.0010393019765615,-0.9487463235855104,0.3160369396209717,-0.0147855183305163,0.0162886894132398,0.1559811353546709,0.0378735065460205,0.3116097450256347,-0.2455625534057617,63,71,14058,16566
8.8,1788522048850,4.619718074798584,5.098591327667236,-0.0004823409835807,-0.0005996136460453,0.5258334279060364,0.8505871891975403,0.1732596949714959,0.0040247133375844,0.0001379908410465,0.0018644604133442,-0.0254918225109577,0.1692880988121032,-0.0013817138969898,-9.021814912557602e-05,-0.9464446306228638,0.3228633105754852,0.0239809622970032,-0.0760434554778182,0.1575790934223979,-0.132578432559967,-0.1918359994888305,0.4055967330932617,132,28,15736,14357
8.9,1788522048950,4.816901206970215,5.323943614959717,-8.755171438679099e-05,-0.0015354538336396,0.5302737355232239,0.8478251099586487,0.1777411477783811,0.0002060286127091,3.266365269249663e-05,-0.0167862027883529,0.0016186216380447,0.060219470411539,-0.0009074248373508,0.0008796118199825,-0.9454400539398192,0.3257938623428345,-0.0403899842240028,0.0468262536369158,0.0328221746626564,-0.0914829969406127,0.0197912454605102,-0.2203197479248047,93,62,15412,14593
9.0,1788522049050,4.985915660858154,5.154929637908936,-0.0020073018968105,-0.0021115946583449,0.5289983153343201,0.8486178517341614,0.1618055889249662,-0.0014035144630109,2.4327070793610147e-06,-0.036757156252861,0.0029767819214612,-0.0304270908236503,-0.0019075730815529,0.003450620919466,-0.9458694458007812,0.3245236575603485,-0.0820969025693597,0.0022628918626256,0.0153121203842096,0.2418694496154785,0.0141671299934387,-0.5618867874145508,49,79,14536,16208
9.1,1788522049150,4.760563373565674,5.295774459838867,-0.003695951309055,-0.0035830487031489,0.5305737853050232,0.8476230502128601,0.1673966465451545,0.0006517165242359,-8.679031667384768e-05,0.0033552208915352,0.0198094937950372,0.0543214567005634,-0.002579073421657,0.0043643452227115,-0.9445975422859192,0.3281915783882141,-0.0011991691287592,0.0247711020350857,0.1011691336135219,0.2749841213226318,-0.131413996219635,1.1117734909057615,83,69,15007,15395
9.2,1788522049250,5.042253494262695,5.014084339141846,-0.003829279448837,-0.0034703945275396,0.533888578414917,0.8455390930175781,0.1770693005865669,0.0003248020448421,-5.015220551286056e-05,-0.0006453923415392,0.0011960649862885,0.0611639842391014,-0.0024504028260707,0.0046168761327862,-0.943799078464508,0.3304784893989563,-0.0045279190378317,-0.0079765007140142,0.0432999657792417,0.1689310669898986,-0.2238083481788635,-0.7714195251464844,72,55,15563,15011
9.3,1788522049350,4.619718074798584,5.549295902252197,-0.0043141460046172,-0.0034338687546551,0.5349401831626892,0.844871997833252,0.1683706975142314,-0.0025936290432113,-8.917182100831005e-10,-0.0129933971911668,0.0082332966849207,0.0273123513907194,-0.0026672780513763,0.0050872145220637,-0.943213164806366,0.3321386277675628,-0.0153997634347901,-0.0249399307482234,0.1000644090010845,-0.1397637724876403,0.5471777319908142,-0.1767454147338867,61,89,13258,16926
9.4,1788522049450,4.535211086273193,5.577464580535889,-0.004786963108927,-0.0030091365333646,0.542309045791626,0.8401601314544678,0.1668393920120522,0.0057992149457779,-6.713838630926477e-06,0.0045732483267784,0.0153952222317457,0.1847023218870163,-0.0017671296373009,0.0053152041509747,-0.9405637979507446,0.3395709097385406,0.0281832221955963,0.0462600436069077,0.2303900595833192,-0.702066957950592,-0.0788272023200988,0.0838880538940429,66,58,13629,16580
9.5,1788522049550,4.788732528686523,5.633802890777588,-0.0046688839793205,-0.0019261832349002,0.5504623651504517,0.8348446488380432,0.1650661422067426,0.0095358668829665,-0.000129786703797,-0.015700114890933,0.0193197224289178,0.1954528540372848,-0.0040234699845314,0.0057199271395802,-0.9368394017219543,0.3496899604797363,-0.077329326713032,-0.1314277667421415,0.0472348002942901,-0.0943909287452697,-0.6019428968429565,-1.6395111083984375,32,37,13278,15914
9.6,1788522049650,4.619718074798584,5.183098793029785,-0.0046028224751353,-0.0052567315287888,0.5553513765335083,0.8315864205360413,0.1687993437822665,-0.0043698914168003,5.825056377944666e-05,0.0013711183564737,-0.0193243864923715,0.1859666854143142,-0.0038462057709693,0.0058254227042198,-0.9344429969787598,0.3560443818569183,-0.0023520122626857,0.0173658616056749,0.137361367126217,0.4143609404563904,-0.2946146130561828,-1.0361213684082031,112,61,15843,15165
9.7,1788522049750,4.901408672332764,5.267605781555176,-0.0046287393197417,-0.0051377275958657,0.5583295226097107,0.8295903205871582,0.1684512078614899,-0.0004935997743898,6.526057909522301e-05,0.0042538731358945,-0.0068557392805814,0.0488680601119995,-0.0037359073758125,0.0056963386014103,-0.933800220489502,0.3577301800251007,0.0006681365679324,0.01730912409364,0.0312886334436319,0.0669745206832885,0.2138250470161438,-1.3768129348754885,70,80,15224,15029
9.8,1788522049850,5.042253494262695,5.042253494262695,-0.0048842900432646,-0.0043146801181137,0.5600141882896423,0.8284574151039124,0.1705914142745155,0.0027871996699907,-5.119812950461032e-05,0.0018142509507015,0.0217583272606134,0.0439736470580101,-0.0020280415192246,0.0060722343623638,-0.9329756498336792,0.3598826825618744,-0.0015191557922195,0.0413801005992458,0.0302034062177786,0.1068071126937866,0.2704863548278808,1.0265779495239258,102,57,15780,14812
9.9,1788522049950,4.14084529876709,5.746479034423828,-0.0051814983598887,-0.0035017149057239,0.560511589050293,0.8281229734420776,0.1714247531266188,0.0005388427573205,-0.0001601185530085,0.0061777923256158,0.0246473439037799,0.0178234819322824,-0.0014892164617776,0.0066197905689477,-0.9327369928359984,0.3604938089847564,-0.0061726903775617,0.0210099944925554,0.0725606049379488,0.5237377285957336,0.1336162090301513,0.0220117568969726,49,149,12705,18814
10.0,1788522050050,4.056337833404541,5.88732385635376,-0.0056628109887242,-0.0036332719027996,0.5717471241950989,0.8204022645950317,0.1739015900074345,0.007144396441799,0.0002925146485822,0.0123136155307292,-0.044963888823986,0.303150862455368,-0.0017478875815868,0.006494621746242,-0.9259649515151978,0.3775496184825897,0.0037998139356513,0.0526463595052526,0.3531313389347822,-0.3754824995994568,-0.4286045432090759,2.426118850708008,51,91,13033,18122
10.1,1788522050150,4.169013977050781,6.0,-0.0061134635470807,-0.003750508185476,0.5834545493125916,0.8121142387390137,0.1746389697092922,0.005586445860239,-0.0002009490610772,-0.0156676657497882,0.0137642687186598,0.2519392967224121,-0.0031512957066297,0.0066343042999506,-0.921513020992279,0.3882780075073242,-0.0069648907347069,-0.0891110154113311,0.2261939911008449,0.1036421656608581,-0.0238385200500488,-0.6232795715332031,70,63,13104,16974
10.2,1788522050250,4.478873252868652,5.605633735656738,-0.0049626813270151,-0.0030188176315277,0.5937790274620056,0.8046071529388428,0.1747786604714229,0.0048075902635219,1.4688293826975231e-05,0.0541250854730606,0.0060077332891523,0.3121289312839508,-0.0020587155595421,0.0050527490675449,-0.916326642036438,0.4003945589065552,0.0301428515265816,-0.0194861230676074,0.2827264833628353,0.1722132563591003,-0.1627094149589538,0.5633153915405273,115,59,14831,15582
10.3,1788522050350,4.704225540161133,5.577464580535889,-0.0047615924850106,-0.0013964449753984,0.6035042405128479,0.7973442673683167,0.1727950603157829,-0.0005032481420771,-3.764741288553046e-05,-0.0034481310285627,0.0280928146094083,0.1595228761434555,-0.0001764083281159,0.0050531672313809,-0.91269850730896,0.4086024463176727,-0.0039417652259273,0.0447070883154958,0.1523106390375402,-0.1335489153861999,0.0385510325431823,0.3668727874755859,65,43,13951,15777
10.4,1788522050450,4.647887229919434,5.605633735656738,-0.0059673581272363,0.0012655539903789,0.6100726127624512,0.7923220992088318,0.1703734912200001,0.0021216915652318,-0.0001524010342364,0.00785509403795,0.0995480045676231,0.1662958562374115,0.0034056548029184,0.0058309091255068,-0.9089367985725404,0.4168794453144073,0.0138128051002661,0.1733948583925281,0.1507823257496819,-0.2426050305366516,-0.128429889678955,0.8795337677001953,74,57,14018,15656
10.5,1788522050550,4.816901206970215,5.267605781555176,-0.0048214783892035,0.0008067772723734,0.6154800653457642,0.7881372570991516,0.1699314141689138,0.0003642324490974,-0.0001050882293818,0.0113626243546605,-0.0067883431911468,0.1247940361499786,0.0020460514351725,0.0045749144628643,-0.9061558842658995,0.4229142665863037,0.0077029145721395,-0.0279394486283485,0.1112703284802168,0.1163510680198669,0.1973018050193786,1.778533935546875,103,76,15657,14947
10.6,1788522050650,5.014084339141846,5.267605781555176,-0.0043984004296362,0.0003875619731843,0.6183566451072693,0.7858851552009583,0.1817041830326631,0.0035884671390349,0.0001350220690198,-0.0002003027766477,-0.0208051688969135,0.0568183772265911,0.0011795768514275,0.0042002974078059,-0.9046769738197328,0.4260759055614471,-0.0070538108516454,0.0071648194433253,0.0483064107053833,-0.1850110292434692,-0.1523128151893615,-0.4335231781005859,64,65,14569,14838
10.7,1788522050750,5.492957592010498,4.619718074798584,-0.004063350148499,-0.000100408680737,0.6202816367149353,0.7843685746192932,0.177247365329701,0.0004539484710292,3.3713208183587354e-05,0.0031445904169231,-0.0054713520221412,0.0413087122142314,0.0008473638445138,0.0041289152577519,-0.9045180678367616,0.4264146387577057,-0.0078808833636337,0.0061138719261732,-0.1028114486386152,-0.2055257558822631,-0.4609394073486328,1.134902000427246,132,41,17714,12494
10.8,1788522050850,5.183098793029785,5.070422649383545,-0.0041868416592478,0.0028457501903176,0.6145856380462646,0.7888338565826416,0.157567378067847,0.0004288120839136,-0.0001516661523923,0.0718604028224945,0.0805328786373138,-0.1281016170978546,0.0038136262446641,0.0033481977880001,-0.9071309566497804,0.420818030834198,0.040863575785376,0.0683344336080919,-0.0784210371251809,0.2518246173858642,0.398823618888855,-0.948267936706543,59,74,14970,15076
10.9,1788522050950,5.126760482788086,5.014084339141846,-0.0045688720420002,0.0002089666668325,0.6122294068336487,0.790666937828064,0.178296891971856,0.001870905961476,0.0002293235967204,-0.017763651907444,-0.0203231051564216,-0.0720443949103355,0.0011796783655881,0.0043767672032117,-0.9080461263656616,0.4188455939292907,-0.0024397258156853,-0.0118159443304404,0.0362934364140645,-0.2860123515129089,0.3854316473007202,1.109375,64,56,15687,14030
11.0,1788522051050,5.183098793029785,4.788732528686523,-0.0046147047542035,0.0002804805990308,0.6123502254486084,0.7905731201171875,0.1749000614307882,0.0006846093176895,-1.1949480312491155e-09,0.0,0.0,0.0,0.0017227372154593,0.0048018768429756,-0.9084007143974304,0.4180695712566376,-0.0029216034089539,0.0459473398455667,-0.0339576259695004,0.277145504951477,0.2000709176063537,-1.047842025756836,62,72,15550,14720
11.1,1788522051150,5.239436626434326,4.957746505737305,-0.0051341000944375,0.0008738487958908,0.6110697388648987,0.791559636592865,0.174211813758315,0.0031834293808472,-9.907416804453812e-06,0.0016103261150419,0.0188636761158704,-0.0495152920484542,0.0011992072686553,0.0047714672982692,-0.9090954661369324,0.4165586829185486,-0.0163927226898648,-0.0369233299650434,-0.0386792961362101,0.0947049260139465,0.1928378939628601,-0.97503662109375,70,46,15593,14311
11.2,1788522051250,5.295774459838867,4.957746505737305,-0.0048862928524613,0.0018135270802304,0.609816312789917,0.792525589466095,0.1788114352444173,0.0001482870978167,-0.0001102486885938,0.0309835374355316,0.0215594582259655,-0.0311175994575023,0.0031844694167375,0.0042890645563602,-0.9095724821090698,0.4155110120773315,0.0263964722007899,0.0275912816074434,-0.0338414456616061,0.172689139842987,0.2559835910797119,-1.364140510559082,80,39,15707,14049
11.3,1788522051350,5.549295902252197,4.619718074798584,-0.0048899468965828,0.0021398584358394,0.607775866985321,0.7940906882286072,0.163298263368839,0.0001324164602496,-9.435274173533332e-05,-0.0023472916800528,0.0056955646723508,-0.0597589910030365,0.0030759759247303,0.0042161727324128,-0.9111393690109252,0.4120654761791229,0.0016512833277917,0.0047558771522657,-0.0638316396970425,0.1620904207229614,0.1768128871917724,2.0786352157592773,111,41,16960,12891
11.4,1788522051450,5.323943614959717,4.816901206970215,-0.0049109053798019,0.0022998130880296,0.6038545966148376,0.7970759868621826,0.1899370793363732,0.001438919363682,-3.286031149437917e-06,0.0035155722871422,0.0171950496733188,-0.144948348402977,0.0033586071804165,0.0045902729034423,-0.9137595891952516,0.406215637922287,-0.0074703800352681,0.0110267728357544,-0.1327496089233463,-0.2491726875305175,-0.1027889847755432,0.1358966827392578,51,71,15382,14534
11.5,1788522051550,5.436619758605957,4.760563373565674,-0.005222232080996,0.0023762311320751,0.6004934906959534,0.7996090650558472,0.1693336255978794,0.0034547099006868,3.178875484250913e-05,0.0001176448058686,0.0010361698223277,-0.046802133321762,0.0031132195144891,0.0044421898201107,-0.914955735206604,0.4035178124904632,-0.0034557855264591,-0.0277020854121207,-0.1044293915314411,0.065841257572174,-0.1956908106803894,-0.513340950012207,41,122,15273,14733
11.6,1788522051650,5.239436626434326,4.957746505737305,-0.0053378129377961,0.0018450508359819,0.5968000888824463,0.8023700714111328,0.1710501539610896,-0.0001307622089666,5.162412699618099e-05,-0.004086622968316,-0.0166520159691572,-0.0510382838547229,0.0030494658276438,0.004766795784235,-0.9163429737091064,0.4003542363643646,0.0029568339075657,0.0040919444665181,-0.0347146606814044,0.0157244801521301,0.010969340801239,-1.0964155197143557,56,39,15579,14195
11.7,1788522051750,4.957746505737305,5.295774459838867,-0.0054126544855535,0.0022682314738631,0.59540855884552,0.8034017086029053,0.1734340041847698,0.0016284214223221,-4.591870239874426e-05,0.0042578792199492,0.0118282781913876,-0.0467373356223106,0.0038709100335836,0.0050246007740497,-0.9166845679283142,0.399561196565628,-0.0035175105810599,0.0343591475066354,0.0283689807470721,-0.0466248989105224,0.0362962484359741,-0.2648820877075195,64,73,14286,15569
11.8,1788522051850,4.816901206970215,5.295774459838867,-0.0053243804723024,0.0021044141612946,0.5961103439331055,0.8028821349143982,0.1921987463662275,0.0051113238970743,2.9914788905448108e-05,-0.0007330567459575,-0.0180473644286394,0.0254060383886098,0.003759741783142,0.0050319749861955,-0.9161832928657532,0.4007104635238647,-0.004752902698548,0.0473012882831375,0.0508632671649403,0.2374473810195922,0.0587565898895263,-1.9878358840942385,56,47,14547,15333
11.9,1788522051950,4.619718074798584,5.211267471313477,-0.0032246033661067,0.0003669467987492,0.6002514362335205,0.7998048067092896,0.1601776810425893,0.0008300288615131,0.000124366187891,0.005916753783822,-0.0318054258823394,0.1104336604475975,0.0010228985920548,0.0030414564535021,-0.9140915274620056,0.405495285987854,-0.001578209523771,0.0175604973307152,0.1172356655071647,-0.3289521932601928,0.0244141221046447,1.4668512344360352,87,57,15545,15436
12.0,1788522052050,4.760563373565674,5.239436626434326,-0.0008297134772874,0.000228685355978,0.6046016812324524,0.7965274453163147,0.1674697414412264,0.0050712066483554,0.000135438432066,0.0638139247894287,-0.0186258964240551,0.1063476577401161,-1.7550773918628693e-05,0.0011390065774321,-0.912415087223053,0.4092645049095154,0.0573456651840229,-0.0303818128982537,0.0976624149694496,-0.2100982069969177,0.1434597969055175,-0.9640007019042968,104,66,15545,15216
12.1,1788522052150,5.042253494262695,4.901408672332764,-0.0009337958763353,-0.0009416757384315,0.6065075397491455,0.7950767278671265,0.1728667569034919,0.0063996200131223,-0.0001592598331078,-0.1404511332511901,0.0026810795534402,-0.0607148334383964,-7.2515569627285e-05,0.0022771609947085,-0.9122118949890136,0.409712553024292,-0.0278976959324165,0.0688281630058248,-0.0798953805716239,0.1085286140441894,0.3091714382171631,-2.544343948364258,48,128,14103,16241
12.2,1788522052250,4.507042407989502,5.408450603485107,-0.0030057886615395,-0.0003266056301072,0.6064062118530273,0.7951493859291077,0.179614530858328,0.0001046446714552,-8.949861818160502e-05,-0.0228588916361331,0.0404377169907093,0.0906126499176025,0.0003747614100575,0.0031327027827501,-0.9109684228897096,0.4124640822410583,-0.0187854957479544,0.029843307043822,0.0992569437794614,-0.0874425172805786,-0.3548351526260376,0.5215692520141602,41,108,13562,17468
12.3,1788522052350,4.535211086273193,5.633802890777588,-0.0041571324691176,-0.0001336574787274,0.6115054488182068,0.7912293076515198,0.1753337968517539,-0.0021372479795843,-6.558611671724956e-05,-0.0152290128171443,0.0270613618195056,0.1512016952037811,0.0007174499332904,0.0040705231949687,-0.9081700444221495,0.4185811281204223,-0.0102382682872078,0.0075686194736214,0.1565752982135739,0.2350679039955139,0.3100337982177734,-0.5770320892333984,66,99,13543,16595
12.4,1788522052450,4.591549396514893,5.605633735656738,-0.0044200643897056,8.535943925380707e-05,0.6191782355308533,0.7852379679679871,0.1649152922365196,0.0055674976571457,0.0001100329708346,0.0021502200979739,-0.012674044817686,0.1787386536598205,0.00087062548846,0.0039021139964461,-0.9034847617149352,0.4286015927791595,0.021782551050052,-0.0190995056052287,0.178667563525804,0.0612762570381164,-0.1077348589897155,-1.0339727401733398,82,46,13932,16342
12.5,1788522052550,4.929577350616455,5.183098793029785,-0.0038108651060611,-0.0003643771633505,0.6254197359085083,0.7802790403366089,0.1667638437202523,0.0005972026593909,-5.871684547711956e-06,-0.0034951523412019,0.0024698560591787,0.1423740237951278,0.0005029020830988,0.0036596860736608,-0.9004523754119873,0.4349389970302582,0.0177669514480107,0.0001581329523832,0.0475126723766424,0.2219905257225036,-0.2386829257011413,-1.8564462661743164,85,42,15040,15082
12.6,1788522052650,5.014084339141846,5.014084339141846,-0.0037497368175536,-0.0007197483209893,0.6272160410881042,0.7788359522819519,0.1815674546183359,-0.000174622020476,-3.387904282655118e-05,-0.0089061353355646,-0.0211308319121599,0.0377426445484161,0.0007721642032265,0.004183517768979,-0.8999682664871216,0.4359347820281982,-0.0037993332451376,0.0481686929816103,0.013161915914088,0.0852792859077453,0.26365727186203,-0.504237174987793,94,63,15805,14687
12.7,1788522052750,5.070422649383545,5.070422649383545,-0.0040459474548697,-0.0006501426687464,0.6272156238555908,0.7788348197937012,0.1721938190508701,-0.0001102508712905,2.069645935739389e-05,0.0003415395040065,-0.010699356906116,-0.0035097044892609,-0.0004538940265774,0.0041869934648275,-0.9003357291221619,0.435175746679306,-0.0173339510959807,-0.0564459350776324,-0.0372319813340536,-0.1080783605575561,-0.3858107328414917,0.5573387145996094,101,70,15403,14546
12.8,1788522052850,5.183098793029785,5.070422649383545,-0.0046261129900813,-0.0008652544347569,0.6260688900947571,0.7797536253929138,0.1763942567299352,0.0014835404912223,2.235565618254249e-05,-0.0099954372271895,-0.0020521723199635,-0.0255657136440277,-0.0004330305382609,0.0047422610223293,-0.9007843136787416,0.4342406094074249,-0.0211346911750435,-0.0471673546081135,-0.0088711342417553,0.2755913734436035,0.1550220251083374,-0.1876630783081054,70,71,14951,14825
12.9,1788522052950,5.126760482788086,5.126760482788086,-0.0051501775160431,-0.0017724958015605,0.6253317594528198,0.7803399562835693,0.164846612861732,0.00132697764717,3.2403858763158635e-05,-0.0176933016628026,-0.0100818900391459,-0.0125755695626139,-0.00070889480412,0.0057791685685515,-0.9010295867919922,0.433718740940094,-0.0215024711883196,0.0049294891983224,0.0139150064877902,-0.130414605140686,-0.2989862561225891,-0.922250747680664,72,71,14866,14960
13.0,1788522053050,5.746479034423828,4.535211086273193,-0.0056643742136657,-0.0016859708121046,0.6266507506370544,0.7792778015136719,0.1771932746080292,-0.0018797317687811,2.090970315310572e-05,-0.00033891867497,0.0060130842030048,0.039567332714796,-0.0018319496884942,0.0061452435329556,-0.9011823534965516,0.433392733335495,-0.0543750332247274,-0.0798983138279892,-0.1222394460902616,-0.1199037432670593,-0.3577049970626831,1.0534334182739258,87,60,16382,13227
13.1,1788522053150,5.408450603485107,4.619718074798584,-0.0053869551047682,-0.0031860356684774,0.6221188902854919,0.7828978300094604,0.1772114186702251,0.0048929521715673,-1.7474186816431484e-05,0.0040303054265677,-0.0058810710906982,-0.1408851742744445,-0.0019123600795865,0.0059508560225367,-0.902957022190094,0.4296854734420776,0.0061476318950834,0.0011049835428264,-0.1417340106845949,-0.1636101603507995,-0.4690485596656799,-0.4470014572143554,91,53,16994,12765
13.2,1788522053250,6.253520965576172,3.8309860229492183,-0.005608357489109,-0.0010928520932793,0.6149685382843018,0.7885308861732483,0.1662035135013968,-0.0013057208552395,-0.0001118818939269,0.0158908329904079,0.0525010600686073,-0.2022458761930465,0.000851054675877,0.0059318244457244,-0.907575249671936,0.4198465943336487,0.0183557709552224,0.0888776328199581,-0.2701743553498908,0.5186382532119751,-0.2559255361557007,0.6613197326660156,101,32,19429,11090
13.3,1788522053350,6.929577350616455,3.6619718074798575,-0.0059847133234143,0.0019512672442942,0.6007806062698364,0.7993892431259155,0.1613069731178651,-0.0035279107935943,-0.0001633588267996,0.0198472049087286,-0.0053851134143769,-0.3652003705501556,0.001618499867618,0.0062483996152877,-0.9181228876113892,0.3962432742118835,-0.038187613925489,-0.0206120486545707,-0.4947297415637267,-0.4172069430351257,-0.9223645925521852,-0.7087793350219727,64,42,18619,9467
13.4,1788522053450,6.253520965576172,3.7183098793029785,-0.0061931787058711,6.561866030097008e-05,0.583541750907898,0.8120595216751099,0.1569045158654921,-0.0097244404920971,-5.838307037306764e-06,0.0017980883130803,-0.0093445507809519,-0.4657330513000488,0.0019086338579654,0.0063149500638246,-0.9259135127067566,0.3776779174804687,-0.0041111256690905,0.0201500121013683,-0.4633735323530143,0.2658658027648926,-0.2726820707321167,0.8416166305541992,71,56,18843,11659
13.5,1788522053550,6.2816901206970215,3.91549301147461,-0.0060463575646281,-0.0001402990892529,0.5674328207969666,0.8233974575996399,0.1637623751993024,-0.0044446897684141,2.7384131025846427e-05,0.0043546580709517,-0.0240889638662338,-0.3901640474796295,0.0012500211596488,0.0060523618012666,-0.932186245918274,0.3619263470172882,-0.003726796621165,-0.000134471535665,-0.3785364785437226,0.0017986297607421,-0.0171186327934265,0.1571674346923828,58,44,18005,11548
13.6,1788522053650,6.197183132171631,3.88732385635376,-0.0056100459769368,-0.0009338789386674,0.5508208274841309,0.8346040844917297,0.1682392535222176,0.0026399457050567,3.647928208834676e-05,8.901695400709286e-05,-0.0073564704507589,-0.3614607155323028,0.0004866626113653,0.0057467427104711,-0.9379558563232422,0.3467066586017608,-0.0015933394388627,0.0106898311441886,-0.3627465086885044,0.0021927952766418,-0.073843240737915,-0.3011007308959961,73,95,18442,11711
13.7,1788522053750,5.830986022949219,4.2253522872924805,-0.0057992218062281,-0.0006738291122019,0.5362704396247864,0.8440260887145996,0.1579569993976457,-0.0094045905942227,-8.661669557876774e-06,0.0001795259886421,0.0012512152316048,-0.3174442946910858,0.0011224839836359,0.006000711582601,-0.94371235370636,0.3307111263275146,0.0007873504464506,0.0438320097051173,-0.2817160799602851,0.0193196535110473,0.1233811974525451,-0.3181409835815429,60,96,17351,13185
13.8,1788522053850,6.0,4.422535419464111,-0.0059648253954946,-0.0003645704127848,0.5318658947944641,0.8468074798583984,0.1625333910280816,0.0052116910112831,-0.0001074019195736,0.0018698929343372,0.017979372292757,-0.2481719553470611,0.001593142747879,0.0062067294493317,-0.947220504283905,0.3205186724662781,-0.0103617155086596,0.0217086792500561,-0.2439784192299561,-0.0874762535095214,-0.0140603184700012,0.2645864486694336,81,65,17037,11949
13.9,1788522053950,6.169013977050781,3.802816867828369,-0.0048739751800894,-0.0020602028816938,0.5195457935333252,0.8544262051582336,0.1575844643683438,-0.0060267998528065,8.249668077584111e-05,0.0061525353230535,-0.0645116195082664,-0.2461644262075424,-0.0010197171941399,0.0056011406704783,-0.9519743323326112,0.3061250448226928,-0.0134790807756479,-0.0481280415838745,-0.2714150460191566,0.0925573110580444,-0.1790767312049865,-1.4990663528442385,94,39,18992,11640
14.0,1788522054050,6.788732528686523,3.3521127700805664,-0.0051553156226873,-0.0027760092634707,0.5007805228233337,0.8655545711517334,0.1686123063443276,-0.0041891688028002,0.0001018266050591,0.0077670160681009,-0.02667504735291,-0.3703110218048095,-0.0019171498715877,0.0056257769465446,-0.9578487277030944,0.287211537361145,-0.0065430832013808,-0.0195154337734583,-0.3620033922821848,0.4530889391899109,-0.1405287384986877,-1.6031818389892578,155,12,21441,8625
14.1,1788522054150,6.676056385040283,3.2957746982574463,-0.0049795312806963,-0.0033989590592682,0.4802953898906708,0.8770861029624939,0.1756869537297731,0.0016684512136668,2.2954848390739636e-05,-0.0017478673253208,-0.0084100868552923,-0.5379855036735535,-0.0025900304317474,0.0055051827803254,-0.9645969271659852,0.2636587023735046,-0.0038927939754876,-0.0450553786057807,-0.5790011314885278,-0.0207061171531677,-0.2787992358207702,0.3556289672851562,33,82,19056,10906
14.2,1788522054250,6.619718074798584,3.4084506034851074,-0.0050112418830394,-0.0028550839051604,0.457726776599884,0.8890741467475891,0.1675010037773708,-0.004685499974582,-1.800063177082738e-05,0.0059386431239545,0.0095600355416536,-0.5340506434440613,-0.0016894778236746,0.0053764525800943,-0.9712117314338684,0.2381512075662613,0.0083380561662871,-0.0057724017837799,-0.4610283185087128,-0.0298819541931152,-0.1523599624633789,0.6020574569702148,82,106,18971,11266
14.3,1788522054350,6.760563373565674,3.577464818954468,-0.0037527065724134,0.0001191397896036,0.4387853741645813,0.8985840678215027,0.1602698280129316,-0.0054557046876604,-0.0002684118068531,0.0806927904486656,0.0817341953516006,-0.3901450335979461,-0.000370037741959,0.0044165486469864,-0.9755495190620422,0.2197354137897491,-0.074508088860379,-0.0852996885249131,-0.4953705816401289,0.3342285752296448,0.5796090960502625,-0.6831178665161133,58,37,19247,10452
14.4,1788522054450,6.056337833404541,4.056337833404541,-0.0047996309585869,-0.0029237626586109,0.4136621952056885,0.9104130864143372,0.1564026440978623,-0.0100472393617297,-8.404441922916713e-05,-0.0193488504737615,0.014937374740839,-0.475035697221756,-0.0019572973251342,0.0055129015818238,-0.9814610481262208,0.1915726065635681,-0.0117143080834476,-0.0071405371898272,-0.3926679894604623,-0.2618563771247864,-0.2309816479682922,1.6892414093017578,48,112,17601,12645
14.5,1788522054550,5.88732385635376,4.422535419464111,-0.0048653120175004,-0.0032227504998445,0.3989591896533966,0.9169501066207886,0.1509162154147667,-0.0033264327909352,-7.806307511591727e-05,0.0004333246324677,0.0072317272424697,-0.2755840718746185,-0.0029359338805079,0.0059735439717769,-0.9843006730079652,0.1763741374015808,-0.0404002172955616,-0.0806614020719688,-0.2735786431243049,-0.7311201095581055,0.0599763989448547,1.5539302825927734,78,57,17290,12373
14.6,1788522054650,6.366197109222412,3.88732385635376,-0.0047464980743825,-0.0025898388121277,0.3896439373493194,0.9209496974945068,0.1772540549029667,0.0046608142880636,-2.2942184287858613e-07,0.0350481085479259,0.0377264246344566,-0.2366018295288086,-0.0016143061220645,0.0049425857141613,-0.9853478074073792,0.1704776287078857,0.0346586012066858,-0.0104639420587881,-0.2561779511663887,-0.2102373838424682,-0.1622854471206665,-0.5536994934082031,87,74,18494,11526
14.7,1788522054750,6.02816915512085,4.2253522872924805,-0.0039764572866261,-0.002195264911279,0.3734248280525207,0.9276493191719056,0.1529308550147829,-0.0056610127735102,5.046800459758558e-05,0.0118716852739453,-0.0019081785576418,-0.3123875856399536,-0.0006555626168847,0.0044880788773298,-0.9886187314987184,0.1503743082284927,-0.0018524383453938,0.0473578962810964,-0.2983690735741484,-0.2191401124000549,-0.0811743140220642,1.6682615280151367,105,66,17074,12301
14.8,1788522054850,5.88732385635376,4.14084529876709,-0.0041906689293682,-0.0020603674929589,0.3602669239044189,0.9328375458717346,0.1740509991116632,-0.0008789453613184,-3.981864304259331e-05,-0.0032108456362038,-0.0035926769487559,-0.2853679060935974,-0.0006964029744267,0.0046619502827525,-0.9907440543174744,0.1356614828109741,-0.0049356880999533,-0.0074038714640765,-0.216570206348473,0.0452762246131897,0.0892768502235412,-0.0289745330810546,87,80,17575,12899
14.9,1788522054950,5.85915470123291,4.253520965576172,-0.0042828754521906,-0.0024012050125747,0.3486188054084778,0.9372517466545104,0.1696472037730149,0.0008964811427529,1.6524194800736092e-05,-0.0069225030019879,-0.0168452598154544,-0.2493955343961715,-0.0014366600662469,0.0047007510438561,-0.9918758869171144,0.1271141022443771,-0.009766377579137,-0.0316864759706681,-0.2546089298478151,0.0650022029876709,-0.0080559849739074,-0.187260627746582,90,61,17708,12412
15.0,1788522055050,5.6619720458984375,4.450704097747803,-0.0044461251236498,-0.0025587705895304,0.3377409279346466,0.9412251114845276,0.173740717072119,-0.0079015822502244,1.6339981038275942e-05,-0.0045401803217828,-0.0084503088146448,-0.2586394846439361,-0.0016406010836362,0.0048067653551697,-0.9933072924613952,0.1153903380036354,0.0090462673063031,-0.0191905100729565,-0.2462908435860324,0.2167350649833679,0.0753282904624939,-0.6711587905883789,45,127,15958,14221
15.1,1788522055150,5.295774459838867,4.929577350616455,-0.0043322225101292,-0.0026848558336496,0.329988956451416,0.9439709782600404,0.1676406006998579,-0.0042867639950118,-1.9851883184709343e-05,0.0016285321908071,-0.0033044470474123,-0.2349961847066879,-0.0020627090707421,0.004929656162858,-0.9943753480911256,0.1057785227894783,-0.0086172659573158,-0.0249072065528115,-0.1327104384111952,-0.1700428128242492,0.0060427784919738,0.3058271408081054,38,82,14758,15076
15.2,1788522055250,5.183098793029785,4.901408672332764,-0.0045979185961186,-0.0029224120080471,0.3254827558994293,0.9455323219299316,0.174910662381018,0.0006138034622191,-3.008078458564237e-05,-6.0422440583352e-05,0.0086751841008663,-0.0105163482949137,-0.0016812048852443,0.0051594953984022,-0.9945903420448304,0.1037333011627197,-0.0018966332805972,0.0009955889654713,-0.0186349032092285,-0.0133737325668334,0.0525395274162292,-0.4908027648925781,56,71,15203,14548
15.3,1788522055350,4.873239517211914,4.816901206970215,-0.0046144099906086,-0.0025651082396507,0.3250549435615539,0.9456803798675536,0.1630370267106139,0.0018208635364269,1.1431844029960228e-08,0.0,-4.645320572649325e-09,0.0,0.0013311840593814,0.0040963785722851,-0.9945802092552184,0.1038826704025268,0.0641789477096403,0.1623872426617938,0.016910703064844,0.5560401082038879,0.2350907921791076,0.1138076782226562,178,138,16304,16231
15.4,1788522055450,5.239436626434326,5.211267471313477,-0.0042964583262801,0.0049800924025475,0.3269690871238708,0.945012092590332,0.1924398047913156,-0.0031104336381163,-0.0007087397517732,0.0438513457775116,0.0906048789620399,0.0626166239380836,0.0028720600530505,0.0048326570540666,-0.9944804310798644,0.1047721803188324,-0.1333933850766677,-0.1692570459627737,-0.0717822555172686,-1.1362605094909668,-0.4253033995628357,-0.7889699935913086,24,58,13884,15060
15.5,1788522055550,4.873239517211914,4.873239517211914,-0.0054475618526339,0.001518977805972,0.3259474337100982,0.9453709721565248,0.1462656712344555,-0.0060508919963378,5.600131119621637e-05,0.0061176214367151,-0.0271935816854238,0.0191150661557912,0.0024939151480793,0.0050993589684367,-0.9943857192993164,0.1056634932756424,-0.0106496554807303,-0.0027357084305668,0.0632672807473213,0.299924373626709,0.0485214591026306,0.7065086364746094,62,91,14823,14868
15.6,1788522055650,5.239436626434326,4.901408672332764,-0.0054633254185318,0.0013142955722287,0.3273759186267853,0.9448774456977844,0.1766805747225082,-0.0032263413880578,5.51507225437352e-10,0.0,0.0,0.0,0.0025772210210561,0.0050616050139069,-0.9944027662277222,0.1055032014846801,-0.0017335984703107,0.0159413936528802,-0.0555526519030689,0.0455193519592285,-0.1294692158699035,-0.3227357864379883,94,60,16078,14334
15.7,1788522055750,5.154929637908936,4.985915660858154,-0.0059974682517349,0.002136604161933,0.324395090341568,0.9459002017974854,0.1638521598601058,0.0005012969706758,3.0677372605969195e-05,-0.008885633200407,0.0043152375146746,-0.0521173775196075,0.0033262036740779,0.0055569857358932,-0.9947785139083862,0.101851962506771,-0.0136337282674355,-0.0285061294773113,-0.0561632968258315,-0.0988419651985168,-0.1998029351234436,0.032057762145996,98,87,16264,14218
15.8,1788522055850,5.070422649383545,4.873239517211914,-0.00599548779428,0.0021707080304622,0.3228957056999206,0.946412980556488,0.1828051166929665,0.0038509943436084,7.36766852717999e-06,0.0078447554260492,-0.0039373124018311,-0.0313128642737865,0.0040770005434751,0.0052275257185101,-0.994930624961853,0.1003448814153671,0.0115695402870597,0.0864246924524824,-0.0550861613239701,-0.1791690587997436,-0.025126039981842,0.208470344543457,107,86,16510,14243
15.9,1788522055950,5.042253494262695,5.014084339141846,-0.0059521463699638,0.0023298158776015,0.3197720348834991,0.9474729299545288,0.1756210717350232,0.0009796049987376,8.209999691721966e-05,-0.0003932352119591,-0.0111637255176901,-0.0731007754802703,0.0036283871158957,0.0052686892449855,-0.9951570630073548,0.0980891734361648,0.004671559205658,0.0118366081481179,-0.064262739259301,-0.0554274320602417,-0.0729544162750244,-0.2426729202270507,38,122,14281,16285
16.0,1788522056050,5.098591327667236,5.126760482788086,-0.0066540362313389,3.461027517914772e-06,0.3193379044532776,0.947617530822754,0.1848982852431276,-0.0008563406515832,5.7020958623883297e-05,-0.0528420060873031,-0.0481668896973133,0.0083312336355447,0.000650362111628,0.0068828649818897,-0.9952224493026732,0.0973880812525749,-0.0821081463124284,-0.1090713930389693,-0.0459514959429225,0.1427196860313415,-0.2879191637039184,1.0998449325561523,64,49,15023,14885
16.1,1788522056150,5.183098793029785,4.957746505737305,-0.005146550014615,0.0009028147906064,0.3210362195968628,0.9470524787902832,0.1606546730085901,-0.0045089778232211,0.0001532850054885,0.0382521264255046,0.0241918861865997,0.100091241300106,0.0020886855199933,0.0050742644816637,-0.9950181245803832,0.0995429009199142,-0.0226901961752348,-0.0049088134132582,-0.0084779587218305,0.2514556646347046,-0.3179943561553955,-1.2512245178222656,92,83,16149,13958
16.2,1788522056250,5.183098793029785,4.8450703620910645,-0.0056075979955494,0.001444338588044,0.3192674815654754,0.9476469159126282,0.1815439362622828,-0.0014109622585077,-0.0001204792474235,-0.0063342405483126,0.0268784575164318,-0.0596894137561321,0.0024591144174337,0.0050745029002428,-0.9953050017356871,0.0966242030262947,0.0022934020654636,-0.0022649645022236,-0.0452440056942935,-0.406836450099945,0.1391797661781311,0.958843231201172,60,56,15787,14235
16.3,1788522056350,5.070422649383545,5.154929637908936,-0.0056166248396039,0.0014522833516821,0.3163822889328003,0.9486140012741088,0.1688394288986992,-0.0013600428424722,-2.96335614727998e-05,-0.0035847439430654,0.0075695365667343,-0.0536509566009044,0.0022575175389647,0.0052095018327236,-0.9955742359161376,0.0938065648078918,-0.0030651912170556,-0.0300218795613084,-0.0341591127888039,0.2824695706367492,0.2425894737243652,-0.6739616394042969,36,73,13853,15896
16.4,1788522056450,5.098591327667236,4.985915660858154,-0.0055868704803287,0.0010635838843882,0.3156347274780273,0.9488637447357178,0.185499681228869,0.000210208837441,1.4994755943681237e-08,0.0,0.0,0.0,0.0021822685375809,0.0048915557563304,-0.9955714344978333,0.0938552394509315,0.0217721186774272,0.0360310242674213,0.0047197163251422,-0.0964554548263549,-0.2606980800628662,-0.7460174560546875,53,60,14719,15033
16.5,1788522056550,4.957746505737305,4.929577350616455,-0.005079373717308,0.0016445479122921,0.3160878717899322,0.9487149119377136,0.1644205211167833,0.0033281183148588,1.9043628659951787e-08,0.0255422871559858,0.0149611141532659,0.0185027010738849,0.0033042421564459,0.0043222764506936,-0.9954695105552672,0.0949255004525184,0.0229282557856719,0.0291378210946346,0.0418139946449006,-0.0628769993782043,0.3046855926513672,0.4706592559814453,70,80,15318,15381
16.6,1788522056650,5.154929637908936,5.183098793029785,-0.0034644636325538,0.0050372956320643,0.3193469643592834,0.9476180672645568,0.163150732250687,0.0036794050802642,-0.0001206635169688,0.0792263746261596,0.0618323758244514,0.0924375876784324,0.0046266308054327,0.0026388568803668,-0.9951815605163574,0.0979046821594238,-0.0486691225495847,-0.0851421093610794,-0.0118277202563882,0.1852144598960876,0.1565394401550293,-0.5292911529541016,80,43,15882,14565
16.7,1788522056750,5.042253494262695,5.183098793029785,-0.0044641369022428,0.00104426080361,0.3173568248748779,0.9482950568199158,0.1819753076805746,0.0034576384698353,0.0004056281203369,-0.0481357611715793,-0.0763971284031868,-0.0788849219679832,0.0013635531067848,0.004306367598474,-0.9953603744506836,0.096110850572586,-0.0166984589780664,-0.0442593504685248,0.0331555988677526,-0.0770742297172546,0.570412278175354,0.4142074584960937,58,66,14653,14190
16.8,1788522056850,5.014084339141846,4.985915660858154,-0.0043900161981582,0.0002453305060043,0.31878861784935,0.9478155970573424,0.1669292424447013,-0.0010209420695089,5.012926770805936e-05,0.000944627507124,-0.0097457831725478,0.0237982366234064,0.0005614412948489,0.0040816254913806,-0.9952892065048218,0.0968633443117141,0.0080681770782087,-0.0307269294089058,-0.0328329746351471,0.0824683904647827,-0.2789452672004699,0.10601806640625,76,117,15653,15282
16.9,1788522056950,4.929577350616455,5.183098793029785,-0.0039239805191755,0.0004868720425292,0.3190988600254059,0.9477131366729736,0.1673468482487782,-0.0004880753521498,7.757155336572253e-09,0.0141354361549019,0.0282988417893648,0.0278785154223442,0.0014297356829047,0.0036860993131995,-0.995219588279724,0.0975825488567352,-0.0063240216198288,0.0228609221295783,0.0486098073649303,0.0855082273483276,0.2552016377449035,-0.1594095230102539,63,56,14736,15482
17.0,1788522057050,5.070422649383545,5.014084339141846,-0.0049973581917583,0.0030088350176811,0.320536196231842,0.9472183585166932,0.189078131522056,0.0001293981053766,-0.000208940262091,-0.0110517693683505,0.0927824079990387,0.0420395694673061,0.0038337837904691,0.0034354478120803,-0.9950222969055176,0.0995193719863891,0.0484383596439639,-0.1142408850429896,0.0280498799754768,0.0838149785995483,-0.2256593108177185,-5.149214744567871,66,58,15294,14958
17.1,1788522057150,5.380281925201416,4.985915660858154,-0.0047560455277562,0.0022476234007626,0.3206322789192199,0.9471891522407532,0.169014836964544,0.0036342386670028,0.0003370246609805,-0.0161994583904743,-0.0075251650996506,-0.0185145810246467,0.0024600066244602,0.0043924208730459,-0.9951902627944946,0.0978319272398948,-0.0038012986528083,-0.0026984954760762,-0.0268110562737877,0.2353348731994629,-0.0771171450614929,-0.6032743453979492,83,48,15553,14037
17.2,1788522057250,5.352112770080566,4.788732528686523,-0.0044927964918315,0.0006425880128517,0.3176623880863189,0.9481930136680604,0.1812480572456047,0.0027913995746933,0.0001274922384284,0.0003835935203824,-0.0391856878995895,-0.0945467874407768,0.0016844952479004,0.0042972676455974,-0.9954148530960084,0.0955405831336975,-0.0033412782643964,-0.003096010283575,-0.0680375634381009,-0.4759335517883301,0.3449797034263611,1.722951889038086,60,50,15551,14502
17.3,1788522057350,5.239436626434326,4.788732528686523,-0.0036405459977686,4.405237268656492e-05,0.3155606687068939,0.948898434638977,0.1618394398562207,-0.0006545164561191,2.871659404993669e-09,0.0187730379402637,0.000390778761357,-0.0250611938536167,0.0009148679673671,0.0034705055877566,-0.9956786036491394,0.0927968695759773,-0.0028317908642901,-0.0183912038777562,-0.0499735594945687,0.0027334094047546,0.1574862599372863,0.6664152145385742,84,101,15998,14804
17.4,1788522057450,5.267605781555176,4.901408672332764,-0.0037093418650329,0.0006597657920792,0.3133743703365326,0.9496222138404846,0.1752713578975632,-0.0029112805873185,-5.807908121702392e-05,0.0026820641942322,0.0201827734708786,-0.054273348301649,0.0016574887558817,0.0036050733178853,-0.9959287643432616,0.09005618840456,-0.0027074272909908,0.020343814536558,-0.0611100711190437,-0.0373753309249877,-0.2264734506607055,-0.9751176834106444,52,87,14584,15539
17.5,1788522057550,5.098591327667236,4.985915660858154,-0.0038411784917116,0.0007039963966235,0.3122828304767608,0.9499810934066772,0.167195363760156,0.0044995615500955,8.621350818280783e-09,0.0,0.0,0.0,0.0010365946218371,0.003543434664607,-0.99589341878891,0.090458296239376,-0.0117923583168094,-0.0176036413834552,0.0019789551828199,-0.0410910248756408,-0.1851298213005066,-0.2616920471191406,69,71,14996,15320
17.6,1788522057650,5.323943614959717,5.014084339141846,-0.0035254722461104,-0.0017933356575667,0.3112401366233825,0.9503231048583984,0.1715413529166801,0.0011485370229481,0.0002451132321682,-0.0169030781835317,-0.0632232204079628,-0.043157048523426,-0.001313199289143,0.0039596892893314,-0.9960343837738036,0.0888713896274566,-0.0189675214537732,-0.0379300460735268,-0.0552309045561665,0.1302213668823242,-0.1158714294433593,-0.3529005050659179,61,83,15336,14472
17.7,1788522057750,5.239436626434326,4.816901206970215,-0.0017782568465918,-0.0014037606306374,0.3107431828975677,0.9504912495613098,0.1701244447421853,-0.0008898400889659,-0.0001997751097592,0.0700414255261421,0.0152100771665573,0.0414453446865081,-0.0015446161851286,0.0014214692637324,-0.9960665702819824,0.0885838791728019,0.022249043352565,-0.0246631998908116,-0.0092884563845546,-0.1098012328147888,-0.3086707592010498,-1.1171655654907229,84,57,15929,14512
17.8,1788522057850,5.070422649383545,5.042253494262695,-0.0019630850292742,-0.0007261600112542,0.3081710338592529,0.9513286352157592,0.1691995198017341,0.0016737532777947,-0.0001319188133275,-0.0232062134891748,0.0455942973494529,-0.1117727160453796,0.0018757469952106,0.000650349073112,-0.9963078498840332,0.0858294442296028,0.0852862581750687,0.1230562930170411,0.0188158200939139,0.5619680285453796,-0.2576524019241333,0.086338996887207,140,93,17317,14334
17.9,1788522057950,5.380281925201416,5.070422649383545,-0.0022223661653697,-0.0003330448525957,0.3052398562431335,0.952272891998291,0.1833811046360273,0.006013037291298,0.0001883053101538,-0.0563439019024372,-0.0441447608172893,-0.0915860384702682,0.0004483610391616,0.0021389871835708,-0.9965950846672058,0.082423485815525,0.0045778493857537,0.0069288686199223,-0.0906862606203927,-0.6358005404472351,-0.2711994647979736,-0.8895654678344727,16,63,14112,14915
18.0,1788522058050,4.929577350616455,5.070422649383545,-0.0022379895672202,-0.0007193042547442,0.3054929077625274,0.9521914720535278,0.1622912906290806,0.0052487639003536,6.8021703982097355e-09,-0.0137629602104425,0.0001996939972741,0.0182209517806768,-0.0005451394245028,0.0025010826066136,-0.9964905381202698,0.0836670845746994,-0.0005997665670939,-0.0543922124197166,0.0333373171752641,0.2454495429992675,-0.163577139377594,0.1673612594604492,66,92,15313,15376
18.1,1788522058150,5.014084339141846,4.985915660858154,-0.0023629718925803,-0.0011717557208612,0.3061230480670929,0.9519883394241332,0.164619155225187,0.0009290558888758,9.01438001084518e-09,0.0,-2.242644514538483e-09,0.0,-0.0004990333691239,0.0027434788644313,-0.9964528679847716,0.0841062813997268,-0.0125693051111511,-0.0297985616195559,-0.0081519621210134,-0.0501390695571899,-0.0497476458549499,0.4072303771972656,77,81,15591,15318
18.2,1788522058250,5.295774459838867,4.873239517211914,-0.0027632450219243,-0.0002894021454267,0.3061700761318207,0.9519727826118468,0.1822216870797989,0.0014780593398498,-6.481046882620652e-05,0.0016570129664614,0.0348967649042606,-0.0061359438113868,5.540531128644943e-05,0.0030562747269868,-0.9965759515762328,0.082626037299633,-0.0143120787613885,0.013707663016141,-0.0653076473764579,-0.1130746603012085,0.068056046962738,0.622685432434082,66,56,15719,14530
18.3,1788522058350,5.239436626434326,4.901408672332764,-0.0031025330536067,-0.0003279431257396,0.3034378886222839,0.9528461694717408,0.1774384471376878,0.0008402261121849,4.477383764124951e-05,0.0012572071282193,0.0039272713474929,-0.042236540466547,0.0004205834120512,0.0030801203101873,-0.9967058300971984,0.081043004989624,0.0159553244902521,0.031975166190108,-0.0394031647973468,0.1816174387931823,0.0535674691200256,-0.4035291671752929,94,53,15926,14424
18.4,1788522058450,4.957746505737305,5.014084339141846,-0.0034457785077393,-0.0006184529047459,0.3009067177772522,0.9536471366882324,0.1778520099544015,0.0008326194162189,4.7725814393817135e-05,-0.0105822719633579,-0.01611003652215,-0.0613267682492733,0.0005038361996412,0.0035401890054345,-0.99694561958313,0.0780171602964401,-0.0043467441427242,0.0257361877197996,-0.0644687873037858,0.4015783667564392,-0.0954653620719909,-0.7911300659179688,92,115,15757,14997
18.5,1788522058550,5.070422649383545,4.929577350616455,-0.0036283025983721,-0.0008886103751137,0.299596220254898,0.9540587663650512,0.1689703563888773,-0.0004116125860504,3.584558330462686e-09,0.0,0.0,0.0,0.0004866104573011,0.0038380604237318,-0.9969578385353088,0.0778463706374168,-0.0004418358899338,0.0364706986712828,0.0112237578706051,0.2160719037055969,-0.0787184834480285,-2.0562543869018555,66,84,15268,15493
18.6,1788522058650,5.126760482788086,4.985915660858154,-0.004277559928596,-0.0005613024113699,0.3003877997398376,0.9538074135780334,0.1820664649495148,-0.0009352376648,-7.919698817584044e-06,-0.0178475677967071,0.0043676593340933,0.0098253795877099,0.0005419598892331,0.0046206451952457,-0.9969550371170044,0.0778396055102348,-0.02102617374078,0.0092997957052399,-0.0082325855733349,0.1774082779884338,-0.0472997426986694,-0.5439128875732422,86,79,14994,15374
18.7,1788522058750,5.126760482788086,5.211267471313477,-0.0056968466378748,0.0019872551783919,0.3007224798202514,0.953692615032196,0.1694728827176954,-0.0024147209266362,-0.0001320034317758,0.0057044378481805,0.145139530301094,0.0288049168884754,0.0008740220218896,0.0047657033428549,-0.9969002604484558,0.078527383506298,0.0154230573889255,-0.1228042070687374,0.0110213893018408,-0.3483322858810425,-0.3026651740074157,4.095635414123535,75,90,15334,14869
18.8,1788522058850,5.323943614959717,4.873239517211914,-0.0051577696576714,0.0004147946601733,0.3010885417461395,0.9535821080207824,0.18413240890243,0.0002196889056491,-0.0002744122225325,-0.0031984339002519,0.0483784116804599,0.0026983590796589,0.0012487359344959,0.0051487013697624,-0.9970421195030212,0.0766750946640968,-0.0138888971881932,0.02703486773106,-0.0670666303081081,0.0012313723564147,-0.1756588220596313,1.4306097030639648,63,62,15376,14310
18.9,1788522058950,5.154929637908936,5.126760482788086,-0.0053716585971415,0.0003907843492925,0.2982045412063598,0.9544867277145386,0.1720317252004118,0.0002305727071343,-3.4859875351214256e-05,8.0686884757597e-05,0.017450800165534,-0.0338501706719398,0.0013702409341931,0.0051218913868069,-0.9971259832382202,0.0755756050348281,0.0007397809713469,-0.0165759679369216,-0.0046653425974529,-0.1628572344779968,-0.1454309821128845,-0.4362039566040039,62,75,14671,14852
19.0,1788522059050,5.239436626434326,4.901408672332764,-0.0053716585971415,0.0003907843492925,0.2982045412063598,0.9544867277145386,0.1827883085686211,0.0009391096236211,2.3211110399274557e-08,0.0,0.0,0.0,0.0019681043922901,0.0044264225289225,-0.997169017791748,0.0750370696187019,0.0629905715102519,0.0302729363443702,-0.0111699660924788,0.139005422592163,-0.3883753418922424,-0.9496097564697266,123,88,15770,14374
19.1,1788522059150,5.323943614959717,4.957746505737305,-0.0043639531359076,0.0014924220740795,0.2972030639648437,0.9548031687736512,0.174446224415969,-0.0020644440161544,-0.0001496385259915,0.0075436308979988,0.0020058194641023,-0.0254764761775732,0.0023366557434201,0.003954310901463,-0.9972123503684998,0.0744740068912506,-0.0264669081465839,-0.0539723174330122,-0.0588236202041881,0.2047595977783203,0.2326211333274841,0.1769475936889648,35,78,14595,15181
19.2,1788522059250,4.985915660858154,4.873239517211914,-0.0051290728151798,-0.0006848911871202,0.294452041387558,0.9556522965431212,0.1605090081638769,-0.0011491558306919,3.364231330265546e-05,0.0035225430037826,-0.0103440154343843,0.0055254832841455,0.0008920701220631,0.0051260245963931,-0.9973881244659424,0.0720408484339714,-0.0037361238270231,0.0604674475662887,0.022784100367526,0.1366771459579467,-0.2383379340171814,-1.1688919067382812,88,45,14918,14200
19.3,1788522059350,5.239436626434326,4.929577350616455,-0.0052828551270067,-0.0007534084143117,0.2932225465774536,0.9560293555259703,0.1720279870599353,0.0003405776411545,-1.6359633631027574e-05,-0.0066203195601701,-0.0005435382481664,-0.0512841902673244,0.0006164517253637,0.0052743321284651,-0.9975593090057372,0.0696218460798263,0.0278508313877544,0.0223147208118982,-0.027098512663259,-0.3501759767532348,0.1442761421203613,1.256361961364746,65,71,15674,14324
19.4,1788522059450,5.098591327667236,5.014084339141846,-0.0045859338715672,-0.0007407796801999,0.2923632264137268,0.9562960863113404,0.1902922118710274,7.24963604399281e-05,4.423267757885625e-05,0.0159692913293838,-0.025147845968604,-0.0052393763326108,0.0009585516527295,0.00435172021389,-0.9975869059562684,0.0692860931158065,0.0257154611773998,0.0611925363117597,-0.0207523720483934,0.1504666805267334,-0.1248993873596191,-1.141706466674805,60,59,15172,14896
19.5,1788522059550,5.014084339141846,4.957746505737305,-0.0039687287062406,-0.001093108439818,0.2918920218944549,0.956442415714264,0.1703702967668649,0.001938209042913,-0.0001561136648266,-0.0226503051817417,0.0237451773136854,-0.0122639629989862,-0.0004052938893437,0.0041605858132243,-0.9976033568382264,0.0690659806132316,-0.0443670929651878,-0.0343914374091495,-0.0667393158574041,-0.2036231756210327,-0.0264053344726562,0.104344367980957,95,62,15055,14967
19.6,1788522059650,5.042253494262695,4.957746505737305,-0.0040689781308174,-0.0014954267535358,0.290078729391098,0.9569929242134094,0.1789800264488226,-0.0005620668839241,1.3242972829738716e-08,0.0,0.0,0.0,-0.000843777321279,0.00442027579993,-0.997751533985138,0.0668706819415092,-0.0189379749656298,-0.0395988945938232,-0.0168411204167053,-0.1892973184585571,-0.2044046521186828,1.4369049072265625,66,63,15039,15120
19.7,1788522059750,5.070422649383545,5.211267471313477,-0.0050302487798035,-0.0007118080393411,0.2889398336410522,0.9573337435722352,0.1805381266585426,0.0010556029031765,1.9505348208306852e-09,-0.0162301622331142,0.0228551216423511,-0.0167565140873193,-6.578769534826279e-05,0.0049829324707388,-0.997793972492218,0.0662005245685577,-0.0021632994868326,-0.0542055789076265,0.0155259060545499,0.1252335309982299,0.1254295706748962,0.0391521453857421,68,82,15167,14616
19.8,1788522059850,5.239436626434326,5.014084339141846,-0.0052219377830624,1.759640872478485e-05,0.2892874777317047,0.9572280049324036,0.1770391695899229,-0.0017661542349061,-5.413443559770142e-05,0.0010796664282679,0.0301105547696352,0.0147009054198861,0.000709599815309,0.0051400400698184,-0.9978578090667723,0.0652151554822921,0.0011015844389368,0.0145897786032017,-0.0618564969725125,-0.2336981892585754,0.0158068537712097,1.3592538833618164,78,56,15720,13987
19.9,1788522059950,5.154929637908936,4.788732528686523,-0.0054263430647552,-0.0003778152167797,0.2865224480628967,0.9580581188201904,0.1718356589659537,0.0013231829671509,3.298945897302588e-09,-0.000177383000846,0.0170322377234697,-0.0579297319054603,0.0012431517243385,0.0052336594089865,-0.9979941248893738,0.0630780085921287,0.0161774943748009,0.0267009125023326,-0.0380919859509451,-0.0967109203338623,0.0485180020332336,1.9636383056640625,85,61,15915,14805
20.0,1788522060050,5.323943614959717,4.929577350616455,-0.0053214179351925,0.0001971368910744,0.2853473126888275,0.9584094882011414,0.1768884112397757,-0.0021703194951339,-5.133725840331267e-05,0.00065102300141,0.0095689864829182,-0.0242285411804914,0.0009359838441014,0.005060052499175,-0.9981053471565248,0.0613122545182704,0.0010024410382339,-0.0250945866111666,-0.0425547567948672,0.2530742883682251,0.1047362685203552,-1.0445709228515625,83,44,15205,14038
20.1,1788522060150,4.901408672332764,5.126760482788086,-0.0052114292047917,-9.971088729798794e-06,0.2821703851222992,0.9593501091003418,0.1745737733972037,-0.0011674738548129,2.561191277055868e-05,0.0025431145913898,0.0049279453232884,-0.0485860668122768,0.0013515017926692,0.0051034735515713,-0.9982795119285583,0.0583955906331539,-0.0013312070059704,0.0112952670624534,-0.0284618805492382,0.0199988484382629,0.0435265898704528,-0.9830760955810548,47,99,14354,15963
20.2,1788522060250,4.985915660858154,5.014084339141846,-0.0053218933753669,0.0001671905629336,0.2826533019542694,0.9592073559761048,0.1787925324772759,0.0045232039355404,1.5337534260046204e-08,-0.0023105379659682,0.0080901943147182,0.0205523800104856,0.00186438113451,0.0050894040614366,-0.9981842041015624,0.0599917732179164,0.0065697231186967,0.030390776681848,0.0317533662006817,0.008649468421936,-0.0846710801124572,0.2412786483764648,102,75,15436,15147
20.3,1788522060350,5.239436626434326,5.042253494262695,-0.0042197434231638,0.0029907920397818,0.2848295569419861,0.9585641622543336,0.1609640324526888,0.0014038779120527,-0.0001140025967832,0.0580493435263633,0.0843775942921638,0.058121558278799,0.0035524908453226,0.0040994277223944,-0.99808531999588,0.0616140998899936,-0.0480806839519739,-0.0230046832801258,-0.0083566248948854,0.2631844282150268,0.4488306641578674,1.1031274795532229,63,67,15191,14984
20.4,1788522060450,5.126760482788086,5.070422649383545,-0.0054158591665327,0.0037332023493945,0.2828945815563202,0.9591284990310668,0.1770789234461985,-0.0013271860477671,-0.0004711496485248,0.0383474640548229,0.0832278728485107,-0.0199249275028705,0.0042233010753989,0.0044569633901119,-0.9981681108474731,0.0601888038218021,0.0409182873804693,-0.0798092462794867,0.0723430557021218,-0.4677877426147461,1.1839359998703003,3.346445083618164,80,49,14432,14767
20.5,1788522060550,4.929577350616455,4.760563373565674,-0.0052794003859162,0.0005138830747455,0.2849552631378174,0.9585261344909668,0.1662382471216095,-0.0003922791781724,-1.7302581006509172e-08,-0.0011901712277904,-0.0344558246433734,0.0002439224626868,0.0021575111895799,0.0050417026504874,-0.9981141686439514,0.0611396133899688,0.0095152006304438,0.0110296314051065,-0.0256289127355324,0.1133912801742553,-0.062571108341217,-0.2072057723999023,91,108,15880,15930
20.6,1788522060650,5.211267471313477,5.239436626434326,-0.0055369501933455,0.001415837323293,0.2848663926124573,0.9585501551628112,0.1771113681118465,0.0001112600804832,-5.329558231680318e-09,0.0036836015060544,0.0100955497473478,0.0211793854832649,0.0023188069462776,0.0049503380432724,-0.9980548620224,0.0621025376021862,-0.0054572628835117,0.0036452832322891,0.0348025977015024,-0.0002046823501586,0.0636675357818603,-0.9525909423828124,87,39,14735,14388
20.7,1788522060750,5.098591327667236,5.042253494262695,-0.0052285408601164,0.0011902275728061,0.2861203849315643,0.958178699016571,0.1711704124882955,0.0016461823288113,0.000154145340215,0.008914778009057,-0.0121670998632907,0.0512107610702514,0.0021555852144956,0.005048157647252,-0.998021960258484,0.0626253560185432,-0.0082391670902988,0.0193410246154077,-0.0238435268114962,-0.4375982284545898,0.0151567459106445,0.5450811386108398,60,69,15017,14879
20.8,1788522060850,5.098591327667236,5.098591327667236,-0.0053304973989725,0.0010065797250717,0.2859214544296264,0.958237648010254,0.1722058700214944,-0.0008327839134428,-1.078445677586508e-08,0.0,0.0,0.0,0.002521145157516,0.0052806315943598,-0.9980172514915466,0.0626679435372352,0.0004928526797499,0.0028526195564842,-0.0017429005949299,-0.2965291738510132,0.0092386007308959,0.7917728424072266,67,70,14997,14661
20.9,1788522060950,4.985915660858154,5.323943614959717,-0.0056619513779878,0.0013777631102129,0.285837858915329,0.9582603573799132,0.1780187213267239,0.0017061847145523,-1.93982825703085e-08,0.0,0.0,0.0,0.0019569043070077,0.005423380061984,-0.9979771971702576,0.0633105263113975,-0.0036121402672749,-0.0249470461955328,0.0314976694858033,-0.1766009926795959,-0.0024002194404602,0.9249429702758788,53,87,14463,15271
21.0,1788522061050,4.788732528686523,5.267605781555176,-0.005780701059848,0.0003570921253412,0.2879919707775116,0.9576152563095092,0.1787650255265007,-0.0017190891122152,4.2248468985965466e-05,-0.0076174638234078,-0.0186338517814874,0.0571760609745979,0.0026646181941032,0.0050513604655861,-0.9977565407752992,0.066702663898468,0.0402024248383162,0.070431796919782,0.1029891383433312,0.2219646573066711,0.035540223121643,-0.0202913284301757,83,83,14617,15703
21.1,1788522061150,4.985915660858154,5.295774459838867,-0.0053420588374137,0.0015582545893266,0.2909908592700958,0.956709623336792,0.1840159580231717,0.0012725290074885,-1.2273552112889943e-05,0.003252129536122,0.0035438707564026,0.0448242165148258,0.0017983568832278,0.0038999794051051,-0.9975658655166626,0.0695992782711982,0.0469214404469122,-0.0511392939870665,0.0635259684803141,-0.0148327350616455,0.0862450003623962,0.1295022964477539,61,90,14433,14934
21.2,1788522061250,4.929577350616455,5.408450603485107,-0.0048018684610724,0.0009900177828967,0.2934508621692657,0.9559615850448608,0.1640288504051174,0.0067457473059472,-0.0001338894674195,-0.0165371634066104,0.0270296800881624,0.014227301813662,0.0021914606913924,0.0047294124960899,-0.9974281787872314,0.0714834257960319,-0.0099734910238402,0.0135096239613068,0.0497795250032569,0.2710515260696411,-0.38027423620224,-0.1776227951049804,94,85,14835,15085
21.3,1788522061350,4.957746505737305,5.408450603485107,-0.0056436662562191,0.0015964148333296,0.296707808971405,0.9549502730369568,0.1727230101116996,0.0026881939437268,-3.617724559420837e-05,-0.0126097155734896,0.0216819941997528,0.0552676357328891,0.0025407383218407,0.0052066873759031,-0.9971471428871156,0.0752599090337753,-0.0054433991151773,-0.0106556929080712,0.0555098235617881,0.0604228973388671,-0.2180002927780151,0.6266307830810547,71,60,14464,14845
21.4,1788522061450,4.8450703620910645,5.183098793029785,-0.0054113860242068,0.0015106898499652,0.2994535565376282,0.9540943503379822,0.178230816045507,0.0025250302174336,7.326630447034081e-06,0.0104801645502448,0.0062250066548585,0.0713578909635543,0.0026511074975132,0.0047810198739171,-0.9969510436058044,0.0778384879231453,0.0104937013983921,0.0079430376763692,0.0815795391264019,0.0525926351547241,-0.0958533287048339,-0.5769824981689453,78,75,14898,15507
21.5,1788522061550,4.760563373565674,5.352112770080566,-0.0049719037488102,0.0022312700748443,0.3025724589824676,0.9531107544898988,0.1791013363999679,0.0018654525181656,-5.6430719989656586e-05,0.0099466610699892,0.0176552347838878,0.0577566251158714,0.0035369247198104,0.0038036089390516,-0.9966673254966736,0.081408254802227,0.03242687211793,0.017301797537709,0.0759442239838296,-0.6474049687385559,-0.1191576719284057,1.1516456604003906,88,59,15198,14625
21.6,1788522061650,5.014084339141846,5.408450603485107,-0.0039019470568746,0.0035497448407113,0.3063223361968994,0.9519131779670716,0.1780159039501896,0.0007826430708754,-5.633341449292246e-05,-0.0124070476740598,-0.0239118561148643,0.0402865260839462,0.0032995902001857,0.0036257719621062,-0.9964566230773926,0.083965927362442,-0.0881914119056681,-0.1129165171962795,-0.0052257087500801,0.3330914378166199,0.2905202507972717,-0.8021345138549805,62,66,14817,14645
21.7,1788522061750,5.070422649383545,5.014084339141846,-0.0042618005536496,0.0016570491716265,0.3065070211887359,0.951857328414917,0.176378231814714,0.0001389800101667,1.5821551738238232e-08,0.0092504890635609,0.0118890814483165,0.0410643182694911,0.0022438699379563,0.0038976995274424,-0.9963619112968444,0.0851039886474609,-0.0067738150468896,-0.0348481097309976,0.0272888801373008,0.2397418022155761,-0.1298450827598571,-0.3796367645263672,74,95,14982,14780
21.8,1788522061850,4.901408672332764,5.267605781555176,-0.0041158813983201,0.001104423077777,0.3074341416358948,0.9515597820281982,0.1817779565369768,0.0022809169576216,3.2314193018800354e-05,0.0008444828563369,-0.0187376718968153,0.0237144269049167,0.0019693179056048,0.0035586887970566,-0.9961997270584106,0.087003655731678,0.0148112379467954,-0.011417341596931,0.0825889356840509,-0.0689603090286254,-0.1514255404472351,-1.1860036849975586,68,97,14762,15290
21.9,1788522061950,4.873239517211914,5.295774459838867,-0.0042069838382303,0.0019316010875627,0.3108841478824615,0.950436532497406,0.1746649681143875,0.0006936649462147,-0.0001358151365094,-0.0016997314523905,0.0285799074918031,0.0521953776478767,0.0026098396629095,0.0036377422511577,-0.9960591197013856,0.0885786861181259,-0.0083906425997132,0.0016811585415142,0.0365147573146695,0.058714210987091,-0.0823641419410705,-0.771209716796875,57,71,15033,15063
22.0,1788522062050,4.985915660858154,5.098591327667236,-0.0046546044759452,0.0028519968036562,0.3121466636657715,0.9500182271003724,0.1737398389275131,0.0034228870742858,-0.0001095666037454,-0.0058764005079865,0.0206789802759885,0.0170484222471714,0.0046450346708297,0.0039922250434756,-0.995874285697937,0.0905370488762855,-0.0005426507893258,0.0383819334911927,0.0087826155019389,0.0101176500320434,-0.1292343139648437,-0.0945863723754882,96,73,15684,14444
22.1,1788522062150,4.8450703620910645,4.788732528686523,-0.0044429353438317,0.0016738169360905,0.3127117455005646,0.9498361945152284,0.1705837197698149,0.0028919812545158,0.0004082425102102,-0.0137163586914539,-0.1584925204515457,0.0019849389791488,0.0020796321332454,0.0039531346410512,-0.995874047279358,0.0906358212232589,-0.0281451355918015,-0.1573652027141576,-0.0199860471555011,0.4713310599327087,-0.2474579215049743,-2.9235587120056152,107,116,16285,15739
22.2,1788522062250,5.126760482788086,5.014084339141846,-0.0047900974750518,0.002389664761722,0.312398761510849,0.949936032295227,0.1886120055842088,0.0008869986391882,5.039255496050649e-06,-0.000464754528366,-0.0215341690927743,0.0077509190887212,0.0031964369118213,0.0040042838081717,-0.9958301782608032,0.0910829156637191,0.0101158080073612,-0.0166906159376393,0.0197606259638617,0.0632364749908447,-0.1123983263969421,1.3470077514648438,64,47,15149,14977
22.3,1788522062350,4.929577350616455,5.014084339141846,-0.0046372627839446,0.0022295953240245,0.3129127323627472,0.9497679471969604,0.1714490247024979,-0.0001396938208215,-2.850099497194854e-09,0.0,0.0,0.0,0.0027262708172202,0.0039206063374876,-0.9958577156066896,0.0907997116446495,-0.0164043287267934,-0.0057051320850877,-0.014320637312161,0.1075503230094909,-0.0108839273452758,-1.4449872970581057,55,84,14758,15973
22.4,1788522062450,5.126760482788086,5.070422649383545,-0.0046372627839446,0.0022295953240245,0.3129127323627472,0.9497679471969604,0.1735442393023126,0.0007603314103795,1.4636633633123926e-09,0.0,0.0,0.0,0.0031972285360097,0.0044254325330257,-0.9957929253578186,0.0914688184857368,-0.0188680718205009,0.0007024632494016,0.0364457916243257,0.1026381850242614,0.1490537524223327,0.7650871276855469,75,47,14993,14700
22.5,1788522062550,5.126760482788086,4.985915660858154,-0.0054270885884761,0.0024076253175735,0.3137666285037994,0.9494816660881042,0.1742292645276102,-0.0006508641965601,-2.9987059590208526e-08,-0.0058204932138323,-0.0100582437589764,0.0127787254750728,0.0034610675647854,0.0047777509316802,-0.9957463145256042,0.0919475853443145,-0.0073786678942436,-0.0122084896986371,0.001855186643415,-0.0889524221420288,-0.2136469483375549,1.574540138244629,70,77,14868,15157
22.6,1788522062650,4.8450703620910645,5.183098793029785,-0.005451307632029,0.0021669282577931,0.3137783706188202,0.9494781494140624,0.1806697968883815,-0.0019764726716095,-3.6792738342521774e-08,0.0,0.0,0.0,0.0031166737899184,0.0049643293023109,-0.995733678340912,0.0920877531170845,-0.003080734180825,-0.0036531906221445,0.0229817663868147,-0.1989049315452575,-0.0664300322532653,0.5760736465454102,84,41,15718,14584
22.7,1788522062750,4.929577350616455,5.211267471313477,-0.00532918702811,0.000983344274573,0.3145372271537781,0.949229657649994,0.1786716143482545,-0.0027271191326436,-2.745523210316375e-09,-0.0147639196366071,-0.0421344712376594,0.0157048124819993,0.0025415811687707,0.0042206160724163,-0.9955918192863464,0.0936633050441742,0.0398365630455028,-0.0064168364744918,0.0530721761429485,-0.7238207459449768,-0.0966343879699707,1.1931467056274414,66,73,14301,15182
22.8,1788522062850,4.901408672332764,5.267605781555176,-0.0030748867429792,0.0032691624946892,0.3200875222682953,0.9473773241043092,0.1619906247489605,0.0064354045181525,0.0001430723056308,0.0498011484742164,0.037661287933588,0.124953307211399,0.004539213143289,0.0018619941547513,-0.9950757622718812,0.0989965349435806,0.0565751303253833,0.1589529118806162,0.085816697862385,0.6525030136108398,-0.4859806299209595,-1.8688416481018064,114,113,15834,15346
22.9,1788522062950,5.070422649383545,5.267605781555176,-0.003883559256792,0.0015654881717637,0.320438027381897,0.9472602009773254,0.1753293299646281,0.00335056829723,0.0002824735538855,-0.0673029422760009,-0.0925739854574203,-0.0306991524994373,0.0030387742444872,0.0036249794065952,-0.9951122403144836,0.0986378416419029,-0.0276937508946878,0.0034997594049826,-0.0582356912191193,-0.568557620048523,-0.3710049390792846,1.919631004333496,48,69,14812,15344
23.0,1788522063050,4.816901206970215,5.211267471313477,-0.004419105593115,0.0019989595748484,0.3211984932422638,0.946999490261078,0.1655377607608263,0.0064768168124222,0.0001059378060586,-0.0155364898964762,-0.0055105523206293,0.0249915532767772,0.0031536910682916,0.0038953945040702,-0.9948418140411376,0.1013153716921806,-0.0042251690751843,0.0194013884881247,0.044954526422474,0.1088592410087585,0.0546135902404785,0.9990959167480468,132,91,16037,14537
23.1,1788522063150,5.042253494262695,5.070422649383545,-0.0043491488322615,0.0018663196824491,0.3224551379680633,0.9465728998184204,0.1902211633507435,3.362184183035759e-05,-1.1230210231008666e-08,2.741762727964669e-08,7.050246608741872e-08,-4.010807060694788e-06,0.0030373707413673,0.0034103756770491,-0.994787573814392,0.1018673852086067,0.0119343415333618,0.0088918662517919,0.013965010587935,0.0264374017715454,0.0037435889244079,-1.8773088455200195,84,74,15430,14712
23.2,1788522063250,4.816901206970215,5.070422649383545,-0.0042166216298937,0.0020632096566259,0.3227848410606384,0.9464607238769532,0.1820128766236604,0.0011640600271937,1.0303879781335788e-08,0.0,0.0,0.0,0.0029157297685742,0.0038789641112089,-0.9947295188903807,0.1024197340011596,-0.014292860202194,0.0176913889441415,0.035753796339419,-0.1102368235588073,-0.1144794225692749,-0.1256027221679687,66,98,15038,15860
23.3,1788522063350,4.929577350616455,5.126760482788086,-0.004248609766364,0.002704172860831,0.3256986737251282,0.9454602003097534,0.1899600848249434,-0.0012185099768204,-5.167074073760676e-05,0.0103927655145525,0.0224283412098884,0.0586022734642028,0.0032382374629378,0.0036938060075044,-0.9944005608558656,0.1055621355772018,-0.0106690247411355,-0.0114521870393586,0.0318342801415886,-0.0050777792930603,0.001904010772705,0.1984243392944336,83,53,14604,15508
23.4,1788522063450,5.042253494262695,4.929577350616455,-0.0040374645031988,0.0022522299550473,0.3272918462753296,0.9449120163917542,0.1871454271586006,-6.630024886877395e-05,1.2832249656823687e-05,0.0088629405945539,-0.0071817757561802,0.0356834270060062,0.0025467267259955,0.0033113872632384,-0.9943007826805116,0.1065289303660392,0.0021892682462301,-0.0369437025361604,0.0210980332339963,0.1266396641731262,0.2134349942207336,-1.1330585479736328,88,79,15589,15164
23.5,1788522063550,4.985915660858154,5.042253494262695,-0.0037108969409018,0.0013031295966356,0.3275845646858215,0.9448136687278748,0.1793339269572045,0.0014241027285463,0.0001221078392625,-0.0033614167477935,-0.0345544144511222,-0.0026640314608812,0.0024713240563869,0.0031021041795611,-0.9943097233772278,0.106454350054264,0.0180323682667254,0.0298657034064238,0.0018317062797376,-0.0530424714088439,-0.3070493936538696,0.8771705627441406,95,87,15560,14808
23.6,1788522063650,4.929577350616455,5.070422649383545,-0.0039524962194263,0.0021304772235453,0.3275797963142395,0.944812834262848,0.180851512117334,-0.0008837946731013,-0.0001914508596264,0.0017322815256193,0.0348723940551281,-6.036333434167318e-05,0.0032285740599036,0.0038040904328227,-0.9943113327026368,0.1063959002494812,-0.0192718864206587,0.0237175963617303,-0.0005202086099689,0.0370000004768371,-0.0702467560768127,-0.4309549331665039,61,57,15314,15074
23.7,1788522063750,4.957746505737305,4.929577350616455,-0.0055310339666903,0.0050277081318199,0.329266607761383,0.9442073702812196,0.1773084082116933,0.0004856960075561,-0.0001912570138634,0.0027983284089714,0.0810572504997253,0.0491509102284908,0.0073641454800963,0.0044771265238523,-0.9940547943115234,0.1085394397377967,-0.0100693079189461,-0.0028723121370423,0.0069446200891547,0.1900880932807922,-0.3586986660957336,-5.185883522033691,111,60,15685,15275
23.8,1788522063850,4.957746505737305,4.8450703620910645,-0.0046466155909001,0.0022472790442407,0.3295515179634094,0.9441234469413756,0.1864792229101048,-0.0030875766983271,0.0004623855077277,-0.0031555308960378,-0.1783578842878341,-0.0015290867304429,0.0051454305648803,0.0038101039826869,-0.99408757686615,0.1083924397826194,0.0288412096518571,0.0900264296748629,-0.0060946435435234,0.2150530219078064,0.1665319204330444,-3.047296524047852,141,117,17085,14660
23.9,1788522063950,5.295774459838867,4.901408672332764,-0.0044119171798229,0.0025596912018954,0.3288592994213104,0.9443650841712952,0.1894822363575058,-0.0013511294555213,0.0004239745342349,0.0111077008768916,-0.0568964667618274,-0.0283088088035583,0.0033175097778439,0.0037749465554952,-0.9941494464874268,0.1078966632485389,0.0017086998513846,0.0471886195754018,-0.01819100402536,-0.1291006207466125,0.0222443342208862,1.7277708053588867,68,67,15325,14089
24.0,1788522064050,4.676056385040283,5.098591327667236,-0.0039845500141382,0.0022130915895104,0.3259053826332092,0.9453914165496826,0.1632059477643372,0.0020320404977643,6.315531921600634e-05,0.000609254813753,-0.0038895974867045,-0.0745380297303199,0.0031327977776527,0.0034077912569046,-0.9944985508918762,0.1046476662158966,-0.0002547804523611,0.0262130349193871,-0.029400741306919,0.0190435051918029,0.3227293491363525,1.2541399002075195,66,134,14532,16756
24.1,1788522064150,5.154929637908936,5.211267471313477,-0.0030527831986546,0.0048867291770875,0.3306034505367279,0.9437522292137146,0.1843163627264633,-0.0014815267548769,-0.0002041791541533,0.0425324141979217,0.0507086105644702,0.1299362331628799,0.0038139577955007,0.0038221338763833,-0.9940115809440612,0.1091411486268043,-0.1248458399645797,-0.0893304610329078,-0.0463482690695096,0.3846409916877746,-0.0004004836082458,1.8615360260009768,42,59,14161,15401
24.2,1788522064250,5.014084339141846,4.985915660858154,-0.0050333132967352,0.0032845167443156,0.3293316066265106,0.9441951513290404,0.1828751361153962,0.0002188603373094,1.1245149765597444e-05,-0.0245913974940776,0.0139424987137317,-0.0348911620676517,0.0037271343171596,0.0043113697320222,-0.9939954280853271,0.1092732176184654,0.0021275516175505,-0.0125688008509656,0.0358401802671072,-0.1249520778656005,-0.0347331762313842,0.3702030181884765,63,53,14865,14829
24.3,1788522064350,5.098591327667236,4.929577350616455,-0.0045041544362902,0.0018049185164272,0.3317911028861999,0.9433403611183168,0.1773262236168548,0.0008571237925591,6.442234523228027e-08,0.0029219735879451,-0.0436081029474735,0.0521836280822753,0.0020403051748871,0.00360934343189,-0.9937444925308228,0.1116004064679145,0.0130944888371056,-0.0059432688595247,0.0286549224203948,0.2591975331306457,0.0463401079177856,-0.8312845230102539,111,44,16372,13974
24.4,1788522064450,5.126760482788086,5.126760482788086,-0.0033297659829258,7.859768811613321e-05,0.3323682844638824,0.9431437253952026,0.1881037234025496,-0.0032229241302932,0.0002525946443528,0.0100111756473779,-0.0445146150887012,-0.003384968964383,-8.220504969358444e-05,0.0015649050474166,-0.993802011013031,0.1111541762948036,0.0970514728194552,-0.0787716450145611,-0.0164690816367625,-0.6932547688484192,-0.3203425407409668,1.126230239868164,71,24,15138,13990
24.5,1788522064550,5.070422649383545,5.126760482788086,-0.0027238307520747,0.0010596048086881,0.3294931054115295,0.9441535472869872,0.1695073231012973,0.0022017424857919,1.887554180773368e-05,-0.0147889275103807,0.0196602959185838,-0.0907045826315879,0.0019250940531492,0.0024527385830879,-0.9940967559814452,0.1084526628255844,0.0023632820936052,0.0615478968562629,-0.0219072685932777,0.2689307332038879,0.0211738944053649,0.747410774230957,98,97,15551,15082
24.6,1788522064650,4.985915660858154,5.014084339141846,-0.0032681175507605,0.0018762717954814,0.3295685946941376,0.944124162197113,0.1868075454261301,-0.002357495284549,-0.0002173901999143,-0.0099843293428421,0.0387296825647354,0.0033622826449573,0.0026912568137049,0.0033411579206585,-0.99411940574646,0.1082043796777725,-0.0258484414975486,-0.0052645302264573,-0.0203105414841395,-0.0122522711753845,0.1265347599983215,-0.932720184326172,82,113,15554,15300
24.7,1788522064750,5.070422649383545,5.098591327667236,-0.0040684398263692,0.0024770814925432,0.3291793763637543,0.9442554712295532,0.1811483495678836,-0.0038140939339678,5.521466194221029e-08,0.0,0.0,0.0,0.0029863081872463,0.0037342524155974,-0.994165062904358,0.1077635288238525,-0.0112054676380079,-0.0072234214277391,-0.0033020035642864,0.0997991561889648,0.264559805393219,0.8178005218505859,60,62,15046,14845
24.8,1788522064850,4.957746505737305,4.873239517211914,-0.003818224184215,0.0012945075286552,0.329305499792099,0.9442147612571716,0.1731491321675814,-0.0025958198240732,0.0001173854874836,0.0103240041062235,-0.0230330526828765,0.0248685572296381,0.0024112900719046,0.0033254930749535,-0.9940537214279176,0.1088131070137023,0.0016725564123128,0.0194987621287302,0.0165267527680814,0.1750887632369995,0.0987211465835571,0.8187055587768555,105,83,15555,15406
24.9,1788522064950,5.154929637908936,5.126760482788086,-0.003818224184215,0.0012945075286552,0.329305499792099,0.9442147612571716,0.1803946114721093,-0.005922060118754,-4.274049568226688e-08,0.0,0.0,0.0,0.0019285138696432,0.0035299295559525,-0.994138240814209,0.1080418899655342,-0.0161126813326282,-0.027456927621898,-0.0354826685566017,-0.4626936912536621,-0.01772141456604,2.291421890258789,54,90,15380,15403
25.0,1788522065050,4.929577350616455,5.239436626434326,-0.003818224184215,0.0012945075286552,0.329305499792099,0.9442147612571716,0.1786223672813192,-0.0005701549207369,-4.817019859693501e-10,0.0,0.0,0.0,0.0018008099868893,0.0032915035262703,-0.9941126704216005,0.108287014067173,-0.0118595931784358,0.0062905799782788,0.0074846536443536,0.0009863376617431,0.16392582654953,0.5535087585449219,72,96,14456,15455
25.1,1788522065150,4.985915660858154,5.070422649383545,-0.0034882917534559,0.000867681694217,0.3300212323665619,0.9439666271209716,0.1826016535669632,-0.0030019242364009,3.343038559159992e-06,0.000312942021992,-0.0009110514074563,0.015771185979247,0.0010937917977571,0.0033249529078602,-0.9940093159675598,0.1092394441366195,-0.0066001911422527,-0.0313575191250364,-0.0016710865010795,-0.0270336866378784,-0.3490968942642212,-0.0845584869384765,51,46,14879,14503
25.2,1788522065250,5.154929637908936,4.816901206970215,-0.0036569535732269,0.0007185755530372,0.3301903009414673,0.9439070224761964,0.1775227843373513,-0.0062252889648558,-3.7522384662346056e-08,0.0,0.0,0.0,0.0010992595925927,0.0034893043339252,-0.9940611720085144,0.1087616607546806,-0.0153620640674092,-0.0139508290474801,-0.0330206600307516,0.1187487244606018,0.3037088513374328,-0.7393407821655273,103,89,15866,14439
25.3,1788522065350,5.126760482788086,4.816901206970215,-0.0033023403957486,0.002519914181903,0.3279297053813934,0.9446929693222046,0.1632798542553811,0.0041527615484626,-5.065756220062408e-05,0.038599956780672,0.056508120149374,-0.0326240509748458,0.0046563865616917,0.0019326657056808,-0.9942613840103148,0.1068597957491874,0.0178948916602844,0.0429406838328927,-0.0045540135809551,0.0897496938705444,0.4353380799293518,-1.0425262451171875,140,73,16737,14820
25.4,1788522065450,5.464788913726807,4.957746505737305,-0.0049319742247462,0.0039006983861327,0.3255146145820617,0.9455161094665528,0.1892899302601088,-0.0013069765022602,4.972971348505868e-05,-0.0730468928813934,0.0224143490195274,-0.1027809903025627,0.0057081785053014,0.0045241815969347,-0.9947443008422852,0.10213103890419,-0.0283758646862448,-0.012173442825183,-0.086542900575855,-0.9884016513824464,-0.3084733486175537,-0.0122089385986328,36,65,14548,14019
25.5,1788522065550,4.929577350616455,5.014084339141846,-0.0055875252000987,0.004379712510854,0.3224373459815979,0.9465641975402832,0.1623993519724696,-0.0022391881182816,7.0477217141968e-05,-0.0101381121203303,0.0308130457997322,-0.0385837815701961,0.00494852848351,0.004216481000185,-0.9948495030403136,0.1011546179652214,0.0127840347535686,-0.0458397972467894,0.0094324758728676,0.0013555884361267,0.0056525468826293,0.159088134765625,38,146,14171,16393
25.6,1788522065650,4.873239517211914,5.211267471313477,-0.0055875252000987,0.004379712510854,0.3224373459815979,0.9465641975402832,0.1720273652425131,0.0009189699770472,1.542126645712266e-08,0.0,0.0,0.0,0.006693965755403,0.0040257638320326,-0.9945477843284608,0.103988841176033,0.009191985335807,0.0510513921992366,0.0759675973101928,0.1025692820549011,-0.0658527612686157,-0.871490478515625,116,77,15622,14546
25.7,1788522065750,5.042253494262695,4.985915660858154,-0.0056128725409507,0.0053542950190603,0.3255132436752319,0.945505678653717,0.1788291089661961,-0.0022648001209571,-6.426109051739329e-05,0.0018109207740053,0.008819187991321,-0.0025000711902976,0.0075794998556375,0.0047842133790254,-0.9945424199104308,0.1039469093084335,-0.0012689269317027,0.0548158335881225,-0.0006821555835957,0.0075603127479553,-0.1162089705467224,0.099827766418457,57,99,15288,15336
25.8,1788522065850,5.323943614959717,4.901408672332764,-0.0063020619563758,0.0060225003398954,0.3251505196094513,0.9456221461296082,0.1787955059930675,-0.0055475546202611,-2.539993535542357e-08,0.0,0.0,0.0,0.0076557276770472,0.0053516076877713,-0.9946392774581908,0.1029836311936378,-0.0344012149269037,-0.0151649849104463,-0.0654273749043309,-0.1414424180984497,0.0467852354049682,-0.1533184051513672,70,70,15573,14204
25.9,1788522065950,4.985915660858154,5.126760482788086,-0.0070274788886308,0.0067112818360328,0.3233413994312286,0.9462324976921082,0.1787083913979381,-0.0033156009232116,-0.0001604749771363,-0.0128223095089197,0.0256555192172527,-0.0547343231737613,0.007674285210669,0.0054964805021882,-0.9947737455368042,0.1016666889190673,-0.0139642073855959,-0.0305786119174735,-0.0169593054600018,0.0716074705123901,0.1417863368988037,-1.1057071685791016,85,63,15399,14927
26.0,1788522066050,5.070422649383545,5.211267471313477,-0.0067783948034048,0.0067998622544109,0.3253347277641296,0.9455500841140748,0.1876843007096973,-0.0026418544769713,-2.594799736897445e-05,0.0133584551513195,0.0026956645306199,0.0453544594347476,0.0078234942629933,0.0049371002241969,-0.994491457939148,0.1044092401862144,0.0081608627936745,-0.044041837429198,0.0473241941508739,-0.0769257545471191,0.0553854703903198,0.8725776672363281,53,61,15128,14298
26.1,1788522066150,4.929577350616455,4.985915660858154,-0.0049553597345948,0.0062285708263516,0.327110230922699,0.9449526071548462,0.1750312769310164,-0.0036539685400842,0.0001335948731197,0.0544165894389152,-0.0242983940988779,0.0345213748514652,0.0073317298665642,0.0041484031826257,-0.994363248348236,0.105691872537136,-0.0508816704791172,0.0144649884175817,-0.0214565919514252,0.6047621369361877,0.5516276359558105,-2.296283721923828,97,89,15838,14528
26.2,1788522066250,5.239436626434326,4.816901206970215,-0.005931369960308,0.0069283694028854,0.325084239244461,0.9456411004066468,0.1721643509741466,-0.0017739311599861,-6.401791024847124e-05,0.0040632202289998,0.0247338004410266,-0.052179392427206,0.008293954655528,0.0039223320782184,-0.994522988796234,0.1041150689125061,0.0186860221620491,0.0077500426775634,0.0235464477734999,-0.0295251011848449,0.5835729837417603,2.331683158874512,82,48,15920,14586
26.3,1788522066350,5.211267471313477,4.929577350616455,-0.0058054234832525,0.0069144014269113,0.3246304988861084,0.945797860622406,0.1820207948407831,-0.0067560042896607,1.118817163302129e-05,0.0079606911167502,-0.0035262829624116,-0.0321558080613613,0.0078538982197642,0.0040815146639943,-0.994698405265808,0.1024538055062294,-0.0009641487623491,-0.0058566082318593,-0.0327515887437334,-0.0853614211082458,0.279667854309082,0.8662309646606445,70,45,15476,13990
26.4,1788522066450,5.014084339141846,5.070422649383545,-0.0058821002021431,0.00632796715945,0.322834700345993,0.9464159607887268,0.1772897874124187,-0.0050664420858753,-1.011379763820981e-05,-0.0034536842722445,0.0020130900666117,-0.0197769291698932,0.0076352572068572,0.0043122861534357,-0.9948624968528748,0.1008546948432922,7.075729726732579e-05,0.009092307079583,-0.0249335109997513,0.0010502338409423,0.0984115004539489,-0.0735559463500976,65,47,15014,14526
26.5,1788522066550,4.901408672332764,5.098591327667236,-0.0062322188168764,0.0063946479931473,0.3215403854846954,0.9468538165092468,0.1760642260120655,-0.0025740080361268,-1.2903993942816324e-05,-0.0075298775918781,0.0038730688393115,-0.0240603517740964,0.0085976729169487,0.0038156947121024,-0.9948517680168152,0.1009038686752319,0.0631947849352814,0.0548321729524063,0.0578277307533571,0.2042453289031982,-0.1767385005950927,0.2424936294555664,114,86,15588,14653
