time_s,timestamp_ms,wheel_vels__velocity_left,wheel_vels__velocity_right,odom__orient_x,odom__orient_y,odom__orient_z,odom__orient_w,odom__lin_x,odom__lin_y,odom__lin_z,odom__ang_x,odom__ang_y,odom__ang_z,imu__orient_x,imu__orient_y,imu__orient_z,imu__orient_w,imu__angvel_x,imu__angvel_y,imu__angvel_z,imu__acc_x,imu__acc_y,imu__acc_z,wheel_status__current_ma_left,wheel_status__current_ma_right,wheel_status__pwm_left,wheel_status__pwm_right
0.0,1788345566792,0.0,0.0,-0.0028180531226098,0.0004763479228131,-0.4718574285507202,0.8816701769828796,-0.0001752450810175,-0.0002605741486542,-1.1184281854531878e-06,0.0018988281954079,-0.0002707785170059,0.000417524628574,-0.0022817542776465,-0.0016839541494846,0.3020860552787781,0.9532764554023744,0.0018737578351598,-0.0005374665024279,0.00043416395423,-0.0144899487495422,-0.0106535553932189,-0.0190095901489257,0,0,0,0
0.1,1788345566892,0.0,0.0,-0.0028180531226098,0.0004763479228131,-0.4718574285507202,0.8816701769828796,-0.0001752450810175,-0.0002605741486542,-1.1184281854531878e-06,0.0018988281954079,-0.0002707785170059,0.000417524628574,-0.0022817542776465,-0.0016839541494846,0.3020860552787781,0.9532764554023744,0.0018737578351598,-0.0005374665024279,0.00043416395423,-0.0144899487495422,-0.0106535553932189,-0.0190095901489257,0,0,0,0
0.2,1788345566992,0.0,0.0,-0.0028180531226098,0.0004763479228131,-0.4718574285507202,0.8816701769828796,-0.0001752450810175,-0.0002605741486542,-1.1184281854531878e-06,0.0018988281954079,-0.0002707785170059,0.000417524628574,-0.0022817542776465,-0.0016839541494846,0.3020860552787781,0.9532764554023744,0.0018737578351598,-0.0005374665024279,0.00043416395423,-0.0144899487495422,-0.0106535553932189,-0.0190095901489257,0,0,0,0
0.3,1788345567092,0.0,0.0,-0.0028180531226098,0.0004763479228131,-0.4718574285507202,0.8816701769828796,-0.0001752450810175,-0.0002605741486542,-1.1184281854531878e-06,0.0018988281954079,-0.0002707785170059,0.000417524628574,-0.0022817542776465,-0.0016839541494846,0.3020860552787781,0.9532764554023744,0.0018737578351598,-0.0005374665024279,0.00043416395423,-0.0144899487495422,-0.0106535553932189,-0.0190095901489257,0,0,0,0
0.4,1788345567192,0.0,0.0,-0.0028180531226098,0.0004763479228131,-0.4718574285507202,0.8816701769828796,-0.0001752450810175,-0.0002605741486542,-1.1184281854531878e-06,0.0018988281954079,-0.0002707785170059,0.000417524628574,-0.0022817542776465,-0.0016839541494846,0.3020860552787781,0.9532764554023744,0.0018737578351598,-0.0005374665024279,0.00043416395423,-0.0144899487495422,-0.0106535553932189,-0.0190095901489257,0,0,0,0
0.5,1788345567292,0.0,0.0,-0.0028180531226098,0.0004763479228131,-0.4718574285507202,0.8816701769828796,-0.0001752450810175,-0.0002605741486542,-1.1184281854531878e-06,0.0018988281954079,-0.0002707785170059,0.000417524628574,-0.0022817542776465,-0.0016839541494846,0.3020860552787781,0.9532764554023744,0.0018737578351598,-0.0005374665024279,0.00043416395423,-0.0144899487495422,-0.0106535553932189,-0.0190095901489257,0,0,0,0
0.6,1788345567392,0.0,0.0,-0.0028180531226098,0.0004763479228131,-0.4718574285507202,0.8816701769828796,-0.0001752450810175,-0.0002605741486542,-1.1184281854531878e-06,0.0018988281954079,-0.0002707785170059,0.000417524628574,-0.0022817542776465,-0.0016839541494846,0.3020860552787781,0.9532764554023744,0.0018737578351598,-0.0005374665024279,0.00043416395423,-0.0144899487495422,-0.0106535553932189,-0.0190095901489257,0,0,0,0
0.7,1788345567492,0.0,0.0,-0.0028180531226098,0.0004763479228131,-0.4718574285507202,0.8816701769828796,-0.0001752450810175,-0.0002605741486542,-1.1184281854531878e-06,0.0018988281954079,-0.0002707785170059,0.000417524628574,-0.0022817542776465,-0.0016839541494846,0.3020860552787781,0.9532764554023744,0.0018737578351598,-0.0005374665024279,0.00043416395423,-0.0144899487495422,-0.0106535553932189,-0.0190095901489257,0,0,0,0
0.8,1788345567592,0.0,0.0,-0.0028180531226098,0.0004763479228131,-0.4718574285507202,0.8816701769828796,-0.0001752450810175,-0.0002605741486542,-1.1184281854531878e-06,0.0018988281954079,-0.0002707785170059,0.000417524628574,-0.0022817542776465,-0.0016839541494846,0.3020860552787781,0.9532764554023744,0.0018737578351598,-0.0005374665024279,0.00043416395423,-0.0144899487495422,-0.0106535553932189,-0.0190095901489257,0,0,0,0
0.9,1788345567692,0.0,0.0,-0.0028180531226098,0.0004763479228131,-0.4718574285507202,0.8816701769828796,-0.0001752450810175,-0.0002605741486542,-1.1184281854531878e-06,0.0018988281954079,-0.0002707785170059,0.000417524628574,-0.0022817542776465,-0.0016839541494846,0.3020860552787781,0.9532764554023744,0.0018737578351598,-0.0005374665024279,0.00043416395423,-0.0144899487495422,-0.0106535553932189,-0.0190095901489257,0,0,0,0
1.0,1788345567792,0.0,0.0,-0.0028180531226098,0.0004763479228131,-0.4718574285507202,0.8816701769828796,-0.0001752450810175,-0.0002605741486542,-1.1184281854531878e-06,0.0018988281954079,-0.0002707785170059,0.000417524628574,-0.0022817542776465,-0.0016839541494846,0.3020860552787781,0.9532764554023744,0.0018737578351598,-0.0005374665024279,0.00043416395423,-0.0144899487495422,-0.0106535553932189,-0.0190095901489257,0,0,0,0
1.1,1788345567892,0.0,0.0,-0.0028180531226098,0.0004763479228131,-0.4718574285507202,0.8816701769828796,-0.0001752450810175,-0.0002605741486542,-1.1184281854531878e-06,0.0018988281954079,-0.0002707785170059,0.000417524628574,-0.0022817542776465,-0.0016839541494846,0.3020860552787781,0.9532764554023744,0.0018737578351598,-0.0005374665024279,0.00043416395423,-0.0144899487495422,-0.0106535553932189,-0.0190095901489257,0,0,0,0
1.2,1788345567992,0.0,0.0,-0.0028180531226098,0.0004763479228131,-0.4718574285507202,0.8816701769828796,-0.0001752450810175,-0.0002605741486542,-1.1184281854531878e-06,0.0018988281954079,-0.0002707785170059,0.000417524628574,-0.0022817542776465,-0.0016839541494846,0.3020860552787781,0.9532764554023744,0.0018737578351598,-0.0005374665024279,0.00043416395423,-0.0144899487495422,-0.0106535553932189,-0.0190095901489257,0,0,0,0
1.3,1788345568092,0.0,0.0,-0.0028180531226098,0.0004763479228131,-0.4718574285507202,0.8816701769828796,-0.0001752450810175,-0.0002605741486542,-1.1184281854531878e-06,0.0018988281954079,-0.0002707785170059,0.000417524628574,-0.0022817542776465,-0.0016839541494846,0.3020860552787781,0.9532764554023744,0.0018737578351598,-0.0005374665024279,0.00043416395423,-0.0144899487495422,-0.0106535553932189,-0.0190095901489257,0,0,0,0
1.4,1788345568192,0.0,0.0,-0.0028180531226098,0.0004763479228131,-0.4718574285507202,0.8816701769828796,-0.0001752450810175,-0.0002605741486542,-1.1184281854531878e-06,0.0018988281954079,-0.0002707785170059,0.000417524628574,-0.0022817542776465,-0.0016839541494846,0.3020860552787781,0.9532764554023744,0.0018737578351598,-0.0005374665024279,0.00043416395423,-0.0144899487495422,-0.0106535553932189,-0.0190095901489257,0,0,0,0
1.5,1788345568292,0.0,0.0,-0.0028180531226098,0.0004763479228131,-0.4718574285507202,0.8816701769828796,-0.0001752450810175,-0.0002605741486542,-1.1184281854531878e-06,0.0018988281954079,-0.0002707785170059,0.000417524628574,-0.0022817542776465,-0.0016839541494846,0.3020860552787781,0.9532764554023744,0.0018737578351598,-0.0005374665024279,0.00043416395423,-0.0144899487495422,-0.0106535553932189,-0.0190095901489257,0,0,0,0
1.6,1788345568392,0.0,0.0,-0.0028180531226098,0.0004763479228131,-0.4718574285507202,0.8816701769828796,-0.0001752450810175,-0.0002605741486542,-1.1184281854531878e-06,0.0018988281954079,-0.0002707785170059,0.000417524628574,-0.0022817542776465,-0.0016839541494846,0.3020860552787781,0.9532764554023744,0.0018737578351598,-0.0005374665024279,0.00043416395423,-0.0144899487495422,-0.0106535553932189,-0.0190095901489257,0,0,0,0
1.7,1788345568492,0.0,0.0,-0.0028180531226098,0.0004763479228131,-0.4718574285507202,0.8816701769828796,-0.0001752450810175,-0.0002605741486542,-1.1184281854531878e-06,0.0018988281954079,-0.0002707785170059,0.000417524628574,-0.0022817542776465,-0.0016839541494846,0.3020860552787781,0.9532764554023744,0.0018737578351598,-0.0005374665024279,0.00043416395423,-0.0144899487495422,-0.0106535553932189,-0.0190095901489257,0,0,0,0
1.8,1788345568592,0.0,0.0,-0.0028180531226098,0.0004763479228131,-0.4718574285507202,0.8816701769828796,-0.0001752450810175,-0.0002605741486542,-1.1184281854531878e-06,0.0018988281954079,-0.0002707785170059,0.000417524628574,-0.0022817542776465,-0.0016839541494846,0.3020860552787781,0.9532764554023744,0.0018737578351598,-0.0005374665024279,0.00043416395423,-0.0144899487495422,-0.0106535553932189,-0.0190095901489257,0,0,0,0
1.9,1788345568692,0.0,0.0,-0.0028180531226098,0.0004763479228131,-0.4718574285507202,0.8816701769828796,-0.0001752450810175,-0.0002605741486542,-1.1184281854531878e-06,0.0018988281954079,-0.0002707785170059,0.000417524628574,-0.0022817542776465,-0.0016839541494846,0.3020860552787781,0.9532764554023744,0.0018737578351598,-0.0005374665024279,0.00043416395423,-0.0144899487495422,-0.0106535553932189,-0.0190095901489257,0,0,0,0
2.0,1788345568792,0.0,0.0,-0.0028180531226098,0.0004763479228131,-0.4718574285507202,0.8816701769828796,-0.0001752450810175,-0.0002605741486542,-1.1184281854531878e-06,0.0018988281954079,-0.0002707785170059,0.000417524628574,-0.0022817542776465,-0.0016839541494846,0.3020860552787781,0.9532764554023744,0.0018737578351598,-0.0005374665024279,0.00043416395423,-0.0144899487495422,-0.0106535553932189,-0.0190095901489257,0,0,0,0
2.1,1788345568892,0.0,0.0,-0.0028180531226098,0.0004763479228131,-0.4718574285507202,0.8816701769828796,-0.0001752450810175,-0.0002605741486542,-1.1184281854531878e-06,0.0018988281954079,-0.0002707785170059,0.000417524628574,-0.0022817542776465,-0.0016839541494846,0.3020860552787781,0.9532764554023744,0.0018737578351598,-0.0005374665024279,0.00043416395423,-0.0144899487495422,-0.0106535553932189,-0.0190095901489257,0,0,0,0
2.2,1788345568992,0.0,0.0,-0.0028180531226098,0.0004763479228131,-0.4718574285507202,0.8816701769828796,-0.0001752450810175,-0.0002605741486542,-1.1184281854531878e-06,0.0018988281954079,-0.0002707785170059,0.000417524628574,-0.0022817542776465,-0.0016839541494846,0.3020860552787781,0.9532764554023744,0.0018737578351598,-0.0005374665024279,0.00043416395423,-0.0144899487495422,-0.0106535553932189,-0.0190095901489257,0,0,0,0
2.3,1788345569092,0.0,0.0,-0.0028180531226098,0.0004763479228131,-0.4718574285507202,0.8816701769828796,-0.0001752450810175,-0.0002605741486542,-1.1184281854531878e-06,0.0018988281954079,-0.0002707785170059,0.000417524628574,-0.0022817542776465,-0.0016839541494846,0.3020860552787781,0.9532764554023744,0.0018737578351598,-0.0005374665024279,0.00043416395423,-0.0144899487495422,-0.0106535553932189,-0.0190095901489257,0,0,0,0
2.4,1788345569192,0.0,0.0,-0.0028180531226098,0.0004763479228131,-0.4718574285507202,0.8816701769828796,-0.0001752450810175,-0.0002605741486542,-1.1184281854531878e-06,0.0018988281954079,-0.0002707785170059,0.000417524628574,-0.0022817542776465,-0.0016839541494846,0.3020860552787781,0.9532764554023744,0.0018737578351598,-0.0005374665024279,0.00043416395423,-0.0144899487495422,-0.0106535553932189,-0.0190095901489257,0,0,0,0
2.5,1788345569292,0.0,0.0,-0.0028180531226098,0.0004763479228131,-0.4718574285507202,0.8816701769828796,-0.0001752450810175,-0.0002605741486542,-1.1184281854531878e-06,0.0018988281954079,-0.0002707785170059,0.000417524628574,-0.0022817542776465,-0.0016839541494846,0.3020860552787781,0.9532764554023744,0.0018737578351598,-0.0005374665024279,0.00043416395423,-0.0144899487495422,-0.0106535553932189,-0.0190095901489257,0,0,0,0
2.6,1788345569392,0.0,0.0,-0.0028180531226098,0.0004763479228131,-0.4718574285507202,0.8816701769828796,-0.0001752450810175,-0.0002605741486542,-1.1184281854531878e-06,0.0018988281954079,-0.0002707785170059,0.000417524628574,-0.0022817542776465,-0.0016839541494846,0.3020860552787781,0.9532764554023744,0.0018737578351598,-0.0005374665024279,0.00043416395423,-0.0144899487495422,-0.0106535553932189,-0.0190095901489257,0,0,0,0
2.7,1788345569492,0.0,0.0,-0.0028180531226098,0.0004763479228131,-0.4718574285507202,0.8816701769828796,-0.0001752450810175,-0.0002605741486542,-1.1184281854531878e-06,0.0018988281954079,-0.0002707785170059,0.000417524628574,-0.0022817542776465,-0.0016839541494846,0.3020860552787781,0.9532764554023744,0.0018737578351598,-0.0005374665024279,0.00043416395423,-0.0144899487495422,-0.0106535553932189,-0.0190095901489257,0,0,0,0
2.8,1788345569592,0.0,0.0,-0.0028180531226098,0.0004763479228131,-0.4718574285507202,0.8816701769828796,-0.0001752450810175,-0.0002605741486542,-1.1184281854531878e-06,0.0018988281954079,-0.0002707785170059,0.000417524628574,-0.0022817542776465,-0.0016839541494846,0.3020860552787781,0.9532764554023744,0.0018737578351598,-0.0005374665024279,0.00043416395423,-0.0144899487495422,-0.0106535553932189,-0.0190095901489257,0,0,0,0
2.9,1788345569692,0.0,0.0,-0.0028180531226098,0.0004763479228131,-0.4718574285507202,0.8816701769828796,-0.0001752450810175,-0.0002605741486542,-1.1184281854531878e-06,0.0018988281954079,-0.0002707785170059,0.000417524628574,-0.0022817542776465,-0.0016839541494846,0.3020860552787781,0.9532764554023744,0.0018737578351598,-0.0005374665024279,0.00043416395423,-0.0144899487495422,-0.0106535553932189,-0.0190095901489257,0,0,0,0
3.0,1788345569792,0.0,0.0,-0.0028180531226098,0.0004763479228131,-0.4718574285507202,0.8816701769828796,-0.0001752450810175,-0.0002605741486542,-1.1184281854531878e-06,0.0018988281954079,-0.0002707785170059,0.000417524628574,-0.0022817542776465,-0.0016839541494846,0.3020860552787781,0.9532764554023744,0.0018737578351598,-0.0005374665024279,0.00043416395423,-0.0144899487495422,-0.0106535553932189,-0.0190095901489257,0,0,0,0
3.1,1788345569892,0.0,0.0,-0.0028180531226098,0.0004763479228131,-0.4718574285507202,0.8816701769828796,-0.0001752450810175,-0.0002605741486542,-1.1184281854531878e-06,0.0018988281954079,-0.0002707785170059,0.000417524628574,-0.0022817542776465,-0.0016839541494846,0.3020860552787781,0.9532764554023744,0.0018737578351598,-0.0005374665024279,0.00043416395423,-0.0144899487495422,-0.0106535553932189,-0.0190095901489257,0,0,0,0
3.2,1788345569992,0.0,0.0,-0.0028180531226098,0.0004763479228131,-0.4718574285507202,0.8816701769828796,-0.0001752450810175,-0.0002605741486542,-1.1184281854531878e-06,0.0018988281954079,-0.0002707785170059,0.000417524628574,-0.0022817542776465,-0.0016839541494846,0.3020860552787781,0.9532764554023744,0.0018737578351598,-0.0005374665024279,0.00043416395423,-0.0144899487495422,-0.0106535553932189,-0.0190095901489257,0,0,0,0
3.3,1788345570092,0.0,0.0,-0.0028180531226098,0.0004763479228131,-0.4718574285507202,0.8816701769828796,-0.0001752450810175,-0.0002605741486542,-1.1184281854531878e-06,0.0018988281954079,-0.0002707785170059,0.000417524628574,-0.0022817542776465,-0.0016839541494846,0.3020860552787781,0.9532764554023744,0.0018737578351598,-0.0005374665024279,0.00043416395423,-0.0144899487495422,-0.0106535553932189,-0.0190095901489257,0,0,0,0
3.4,1788345570192,0.0,0.0,-0.0028180531226098,0.0004763479228131,-0.4718574285507202,0.8816701769828796,-0.0001752450810175,-0.0002605741486542,-1.1184281854531878e-06,0.0018988281954079,-0.0002707785170059,0.000417524628574,-0.0022817542776465,-0.0016839541494846,0.3020860552787781,0.9532764554023744,0.0018737578351598,-0.0005374665024279,0.00043416395423,-0.0144899487495422,-0.0106535553932189,-0.0190095901489257,0,0,0,0
3.5,1788345570292,0.0,0.0,-0.0028180531226098,0.0004763479228131,-0.4718574285507202,0.8816701769828796,-0.0001752450810175,-0.0002605741486542,-1.1184281854531878e-06,0.0018988281954079,-0.0002707785170059,0.000417524628574,-0.0022817542776465,-0.0016839541494846,0.3020860552787781,0.9532764554023744,0.0018737578351598,-0.0005374665024279,0.00043416395423,-0.0144899487495422,-0.0106535553932189,-0.0190095901489257,0,0,0,0
3.6,1788345570392,0.0,0.0,-0.0028180531226098,0.0004763479228131,-0.4718574285507202,0.8816701769828796,-0.0001752450810175,-0.0002605741486542,-1.1184281854531878e-06,0.0018988281954079,-0.0002707785170059,0.000417524628574,-0.0022817542776465,-0.0016839541494846,0.3020860552787781,0.9532764554023744,0.0018737578351598,-0.0005374665024279,0.00043416395423,-0.0144899487495422,-0.0106535553932189,-0.0190095901489257,0,0,0,0
3.7,1788345570492,0.0,0.0,-0.0028180531226098,0.0004763479228131,-0.4718574285507202,0.8816701769828796,-0.0001752450810175,-0.0002605741486542,-1.1184281854531878e-06,0.0018988281954079,-0.0002707785170059,0.000417524628574,-0.0022817542776465,-0.0016839541494846,0.3020860552787781,0.9532764554023744,0.0018737578351598,-0.0005374665024279,0.00043416395423,-0.0144899487495422,-0.0106535553932189,-0.0190095901489257,0,0,0,0
3.8,1788345570592,0.0,0.0,-0.0028180531226098,0.0004763479228131,-0.4718574285507202,0.8816701769828796,-0.0001752450810175,-0.0002605741486542,-1.1184281854531878e-06,0.0018988281954079,-0.0002707785170059,0.000417524628574,-0.0022817542776465,-0.0016839541494846,0.3020860552787781,0.9532764554023744,0.0018737578351598,-0.0005374665024279,0.00043416395423,-0.0144899487495422,-0.0106535553932189,-0.0190095901489257,0,0,0,0
3.9,1788345570692,0.0,0.0,-0.0028180531226098,0.0004763479228131,-0.4718574285507202,0.8816701769828796,-0.0001752450810175,-0.0002605741486542,-1.1184281854531878e-06,0.0018988281954079,-0.0002707785170059,0.000417524628574,-0.0022817542776465,-0.0016839541494846,0.3020860552787781,0.9532764554023744,0.0018737578351598,-0.0005374665024279,0.00043416395423,-0.0144899487495422,-0.0106535553932189,-0.0190095901489257,0,0,0,0
4.0,1788345570792,0.0,0.0,-0.0028180531226098,0.0004763479228131,-0.4718574285507202,0.8816701769828796,-0.0001752450810175,-0.0002605741486542,-1.1184281854531878e-06,0.0018988281954079,-0.0002707785170059,0.000417524628574,-0.0022817542776465,-0.0016839541494846,0.3020860552787781,0.9532764554023744,0.0018737578351598,-0.0005374665024279,0.00043416395423,-0.0144899487495422,-0.0106535553932189,-0.0190095901489257,0,0,0,0
4.1,1788345570892,0.0,0.0,-0.0028180531226098,0.0004763479228131,-0.4718574285507202,0.8816701769828796,-0.0001752450810175,-0.0002605741486542,-1.1184281854531878e-06,0.0018988281954079,-0.0002707785170059,0.000417524628574,-0.0022817542776465,-0.0016839541494846,0.3020860552787781,0.9532764554023744,0.0018737578351598,-0.0005374665024279,0.00043416395423,-0.0144899487495422,-0.0106535553932189,-0.0190095901489257,0,0,0,0
4.2,1788345570992,0.0,0.0,-0.0028180531226098,0.0004763479228131,-0.4718574285507202,0.8816701769828796,-0.0001752450810175,-0.0002605741486542,-1.1184281854531878e-06,0.0018988281954079,-0.0002707785170059,0.000417524628574,-0.0022817542776465,-0.0016839541494846,0.3020860552787781,0.9532764554023744,0.0018737578351598,-0.0005374665024279,0.00043416395423,-0.0144899487495422,-0.0106535553932189,-0.0190095901489257,0,0,0,0
4.3,1788345571092,0.0,0.0,-0.0028449408710002,0.0004383709165267,-0.4718698859214782,0.88166344165802,5.806260179153122e-05,-6.757039087513021e-05,1.940754007843791e-06,-3.79745033569634e-05,-0.0007595113129355,0.0006644992972724,-0.0022946745157241,-0.0017749583348631,0.3020694851875305,0.953281581401825,-0.0010737423402424,-0.0023425991598461,0.0002555216659106,-0.0035440325736999,0.0200420022010803,0.0207576751708984,0,0,0,0
4.4,1788345571192,0.0,0.0,-0.002859657164663,0.0004119267105124,-0.471864104270935,0.8816665410995483,2.308690023990556e-05,-2.6661734951545865e-05,-1.8892323021061299e-07,-1.9292094293632545e-05,-0.0011910413159057,0.0002544053713791,-0.0023325234651565,-0.0017609447240829,0.3020356297492981,0.9532921314239502,1.981147524054061e-05,0.00189648615094,-0.0010200569453098,-0.0224248170852661,-0.0001949667930603,-0.0064640045166015,0,0,0,0
4.5,1788345571292,0.0,0.0,-0.0028686160221695,0.0004555624327622,-0.4718958735466003,0.8816494345664978,-5.450693239451445e-05,6.323981192492121e-05,4.605648800317204e-07,0.0004554815241135,0.0019491019193083,-0.0006144318613223,-0.0023325234651565,-0.0017609447240829,0.3020356297492981,0.9532921314239502,1.981147524054061e-05,0.00189648615094,-0.0010200569453098,-0.0224248170852661,-0.0001949667930603,-0.0064640045166015,0,0,0,0
4.6,1788345571392,0.0,0.0,-0.002873953199014,0.0004327987553551,-0.4719109833240509,0.8816413879394531,0.0002279158731841,0.0002353144072401,8.443255892499593e-07,0.0,0.0,0.0,-0.0023141913115978,-0.0017470018938183,0.3020130693912506,0.9532994031906128,2.6600835791962416e-05,0.0004146289142474,-0.0011612175295906,0.0002312064170837,0.0136338472366333,0.0063228607177734,0,0,0,0
4.7,1788345571492,0.0,0.0,-0.0028339284472167,0.0004553857725113,-0.4719164967536926,0.8816385865211487,0.0,0.0,0.0,0.0,0.0,0.0,-0.0022831950336694,-0.0016829753294587,0.3019850552082062,0.9533084630966188,0.0013675138159166,0.0005221170785127,-0.0014820446172824,0.0107070803642272,0.01096773147583,-0.0031232833862304,0,0,0,0
4.8,1788345571592,0.0,0.0,-0.0028339284472167,0.0004553857725113,-0.4719164967536926,0.8816385865211487,0.0,0.0,0.0,0.0,0.0,0.0,-0.0022831950336694,-0.0016829753294587,0.3019850552082062,0.9533084630966188,0.0013675138159166,0.0005221170785127,-0.0014820446172824,0.0107070803642272,0.01096773147583,-0.0031232833862304,0,0,0,0
4.9,1788345571692,0.0,0.0,-0.0027393316850066,0.0004874536534771,-0.4719394743442535,0.8816266059875488,0.0,0.0,0.0,0.0,4.704849843051306e-09,0.0,-0.0022659255191683,-0.0015835370868444,0.3019880354404449,0.9533077478408812,0.000569566624522,-0.0003505469862845,0.0011744171198847,-0.0056105256080627,0.0101702809333801,0.0090827941894531,0,0,0,0
5.0,1788345571792,0.0,0.0,-0.0027193943969905,0.000495130138006,-0.4719410538673401,0.881625771522522,0.0002325756260694,0.0002401581913623,8.698780629293895e-07,0.0,0.0,0.0,-0.0022692736238241,-0.0015862919390201,0.3019780814647674,0.9533108472824096,-5.849928301242905e-05,-7.516195204835246e-05,0.0009247006227297,0.022637128829956,0.0049815773963928,-0.0056724548339843,0,0,0,0
5.1,1788345571892,0.0,0.0,-0.0027198528405278,0.0005180008593015,-0.471951425075531,0.8816202282905579,-2.888406129318372e-05,3.3568616007250405e-05,2.2557462946283514e-07,-0.0003145052760373,0.0005606203339993,-0.0003278327058069,-0.0022386899217963,-0.0015897722914814,0.301998883485794,0.9533043503761292,0.0009872184273004,0.0013270358631981,0.0001316794351729,0.0131322145462036,0.0330594182014465,0.0065927505493164,0,0,0,0
5.2,1788345571992,0.0,0.0,-0.0027198528405278,0.0005180008593015,-0.471951425075531,0.8816202282905579,-2.888406129318372e-05,3.3568616007250405e-05,2.2557462946283514e-07,-0.0003145052760373,0.0005606203339993,-0.0003278327058069,-0.0021957969292998,-0.001606224104762,0.3019830286502838,0.9533093571662904,0.0005818830247632,-0.0003667846818306,-0.0011645735866517,-0.0068998932838439,-0.00567227602005,0.0134820938110351,0,0,0,0
5.3,1788345572092,0.0,0.0,-0.002682845108211,0.0004514690954238,-0.4719468653202057,0.8816227316856384,-6.910539628013521e-05,8.020482062582202e-05,5.313847306278712e-07,0.0003967248776461,-0.000911277718842,-0.0007954881293699,-0.0021813046187162,-0.0015922710299491,0.3020085096359253,0.9533013701438904,0.0006591159668927,-5.262410762104976e-05,0.0016407085600256,-0.0028448104858398,0.005027413368225,-0.0153961181640625,0,0,0,0
5.4,1788345572192,0.0,0.0,-0.0026651318185031,0.0004436313174664,-0.4719195067882538,0.881637454032898,0.00022360386138,0.0002308714603339,7.940767166677856e-07,1.1860929127749388e-08,0.0,0.0,-0.0021506957709789,-0.0015991115942597,0.3019936382770538,0.9533061981201172,0.0011059554259822,-0.000641710578142,-0.0006409590589043,0.0042240023612976,0.0064527988433837,-0.0153846740722656,0,0,0,0
5.5,1788345572292,0.0,0.0,-0.0026651318185031,0.0004436313174664,-0.4719195067882538,0.881637454032898,0.00022360386138,0.0002308714603339,7.940767166677856e-07,1.1860929127749388e-08,0.0,0.0,-0.0021305279806256,-0.0014817304909229,0.3019781112670898,0.953311324119568,0.0006121986272744,0.0012516002001661,-0.0009751904620709,0.0011125802993774,-0.0015767812728881,0.0043668746948242,0,0,0,0
5.6,1788345572392,0.0,0.0,-0.002560578752309,0.0004727237392216,-0.4719809889793396,0.8816048502922058,-9.586867739584566e-05,0.0001112937001941,6.991738448594112e-07,-6.908649811521173e-05,-0.0007452649297192,-0.0011042553232982,-0.0021212873980402,-0.0015114312991499,0.3019480407238006,0.953320860862732,-0.000276463102836,-0.0003524666673302,-0.0004144900753306,0.0204577445983886,0.0059686303138732,0.0002298355102539,0,0,0,0
5.7,1788345572492,0.0,0.0,-0.0025605785194784,0.0004727237392216,-0.4719809591770172,0.8816048502922058,0.0,0.0,0.0,8.749328372914533e-09,0.0,1.1945749065489508e-06,-0.0021100277081131,-0.0015100631862878,0.3019607067108154,0.953316867351532,0.0005167686793862,-0.0005005909340648,0.001107761121732,-0.0049176216125488,-0.0082486271858215,-0.0017175674438476,0,0,0,0
5.8,1788345572592,0.0,0.0,-0.0025614900514483,0.0004441210767254,-0.4719617962837219,0.881615161895752,-0.000137850720641,-0.0003124445612894,1.2723473813905018e-06,0.0004719501303043,-0.0007470016134902,0.0008815849432721,-0.0021066907793283,-0.0015159603208303,0.3019713163375854,0.9533135294914246,5.766976893267084e-05,-0.0002723810489777,0.0004548466285841,0.0148118138313293,-0.0203058123588562,0.0055751800537109,0,0,0,0
5.9,1788345572692,0.0,0.0,-0.0025290446355938,0.0004742151941172,-0.471964955329895,0.8816136121749878,-9.212683017176816e-06,1.07428255686654e-05,6.808496541305185e-08,0.0004113809845875,0.0011957876849919,-9.792023774934933e-05,-0.0020934212952852,-0.0015338119119405,0.3019843101501465,0.9533093571662904,-0.001116003183254,-0.0018845398652313,-0.0001937502119498,0.0143391489982604,0.0019198060035705,-0.0155982971191406,0,0,0,0
6.0,1788345572792,0.0,0.0,-0.002559220418334,0.0004246582393534,-0.4719360172748565,0.8816289901733398,-3.20104795376117e-06,3.843984850528626e-06,2.374560608881056e-08,-0.0012999752070754,-0.0014371891738846,-4.915372483083047e-05,-0.0021123373880982,-0.0015397388488054,0.3020160496234894,0.9532992243766784,-0.0008156806411096,0.0005296970515808,0.0008093360716906,-0.0019909143447875,0.0223841071128845,0.0007200241088867,0,0,0,0
6.1,1788345572892,0.0,0.0,-0.0025592201855033,0.0004246581229381,-0.4719359874725342,0.8816289901733398,0.0,0.0,0.0,1.1082969209041948e-08,4.666513397921791e-09,1.1946274298679782e-06,-0.0021415958181023,-0.0015607634559273,0.3020031750202179,0.9533032178878784,-0.0011316159730316,-2.372102933962641e-05,-0.0009833518284552,0.0083057284355163,0.0279109477996826,0.0312051773071289,0,0,0,0
6.2,1788345572992,0.0,0.0,-0.002618876285851,0.0004359721788205,-0.471921294927597,0.8816366791725159,0.0002234168370892,0.0002306802385091,7.796731109985291e-07,0.0,0.0,0.0,-0.0021464666351675,-0.0015659052878618,0.302015870809555,0.9532991647720336,-0.0009028487933347,-0.0003724055589821,0.0006170409624412,0.008420705795288,-0.0061652064323425,0.0003185272216796,0,0,0,0
6.3,1788345573092,0.0,0.0,-0.0026110764592885,0.0004593709018081,-0.4719245135784149,0.8816350102424622,-9.262989777608942e-06,1.0803488766555811e-05,7.011031039155367e-08,-0.0001197673846036,0.0006986937951296,-0.0001027466278173,-0.0021716505289077,-0.0015092212706804,0.3020345270633697,0.9532932639122008,-5.104217532471082e-05,0.0005616536267097,0.0011674398579927,-0.0137029290199279,0.0059918761253356,0.0140714645385742,0,0,0,0
6.4,1788345573192,0.0,0.0,-0.0026062657125294,0.0004815307911485,-0.471914529800415,0.8816403746604919,-3.458185460635812e-05,3.9920923683587697e-05,2.5561809192679017e-07,-0.0001063105446519,-0.000695955066476,-0.0003953553678002,-0.0021716505289077,-0.0015092212706804,0.3020345270633697,0.9532932639122008,-5.104217532471082e-05,0.0005616536267097,0.0011674398579927,-0.0137029290199279,0.0059918761253356,0.0140714645385742,0,0,0,0
6.5,1788345573292,0.0,0.0,-0.0026062657125294,0.0004815307911485,-0.471914529800415,0.8816403746604919,0.0,0.0,0.0,0.0,0.0,0.0,-0.002192840911448,-0.0015396429225802,0.3020214736461639,0.9532974362373352,-0.0013211647862336,0.0006902094121866,-0.0022362431055854,0.0323531031608581,0.0187152624130249,0.0020990371704101,0,0,0,0
6.6,1788345573392,0.0,0.0,-0.0026205140165984,0.0004774557310156,-0.471882164478302,0.8816575407981873,0.0,0.0,0.0,0.0,0.0,0.0,-0.0021649412810802,-0.0015270272269845,0.3020083308219909,0.9533015489578248,-0.0002103125935474,-0.0005997147654569,-0.0008286163848499,0.0083351135253906,-0.0092192292213439,0.0053825378417968,0,0,0,0
6.7,1788345573492,0.0,0.0,-0.0026045921258628,0.0004846470546908,-0.4719238877296448,0.8816353678703308,-0.000120490825291,0.0001399901152646,9.065083673294312e-07,0.0003103526250924,0.0004088968853466,-0.0013822595356032,-0.0021344907581806,-0.0015493463724851,0.3020061254501343,0.9533023238182068,-0.0001634543678915,-0.0016387079119731,0.0006188230974645,0.0124268531799316,0.0045286417007446,-0.0232477188110351,0,0,0,0
6.8,1788345573592,0.0,0.0,-0.0025855861604213,0.0004677221295423,-0.4719341993331909,0.8816299438476562,-3.430761817053389e-05,3.96007736186817e-05,2.550104981500711e-07,0.0008219860028475,-0.0001968311989912,-0.0003882383753079,-0.0021840576082468,-0.0015890197828412,0.3019914031028747,0.9533067941665648,-0.0012608905652266,-0.0008563157332077,0.000442300474465,0.0003926157951354,0.0005169510841369,-0.0122737884521484,0,0,0,0
6.9,1788345573692,0.0,0.0,-0.0025855861604213,0.0004677221295423,-0.4719341993331909,0.8816299438476562,0.0,0.0,0.0,0.0,0.0,0.0,-0.002187636680901,-0.0016285879537463,0.3019780814647674,0.9533109664916992,-0.0003438035573877,-0.0014389266802356,-0.0006302312437213,-0.0004814863204956,0.0062866806983947,-0.0015211105346679,0,0,0,0
7.0,1788345573792,0.0,0.0,-0.0025855861604213,0.0004677221295423,-0.4719341993331909,0.8816299438476562,0.0,0.0,0.0,0.0,0.0,0.0,-0.0021815849468111,-0.0016607474535703,0.3019884824752807,0.9533076286315918,0.0003110026690809,-0.002149637595021,0.0004362054678629,0.0058667659759521,0.0064829587936401,-0.0013856887817382,0,0,0,0
7.1,1788345573892,0.0,0.0,-0.0025855861604213,0.0004677221295423,-0.4719341993331909,0.8816299438476562,0.0,0.0,0.0,0.0,0.0,0.0,-0.0021901298314332,-0.001629214733839,0.3019995391368866,0.9533041715621948,0.0001165689100165,-0.0004582095122123,0.0016369515702735,0.016903817653656,-0.000483751296997,-0.0176105499267578,0,0,0,0
7.2,1788345573992,0.0,0.0,-0.0025855861604213,0.0004677221295423,-0.4719341993331909,0.8816299438476562,0.0,0.0,0.0,0.0,0.0,0.0,-0.0021541286259889,-0.0016958424821496,0.3020134568214416,0.9532997012138368,0.0007913720029281,-1.328792554365251e-05,0.0008862443614533,-0.0297390818595886,0.0227052569389343,0.0077190399169921,0,0,0,0
7.3,1788345574092,0.0,0.0,-0.0025855861604213,0.0004677221295423,-0.4719341993331909,0.8816299438476562,0.0,0.0,0.0,0.0,0.0,0.0,-0.002132249996066,-0.0016903150826692,0.3020088374614715,0.9533012509346008,0.000901468402969,-5.306260152046901e-05,-0.0001956340938483,0.0228781104087829,0.0151013731956481,-0.0191373825073242,0,0,0,0
7.4,1788345574192,0.0,0.0,-0.0025855861604213,0.0004677221295423,-0.4719341993331909,0.8816299438476562,0.0,0.0,0.0,0.0,0.0,0.0,-0.0021469658240675,-0.0017477646470069,0.3020013868808746,0.9533034563064576,-0.0010092899922235,-0.0017393932053847,0.0002607613389411,-0.0098129510879516,-0.0307800769805908,-0.0278902053833007,0,0,0,0
7.5,1788345574292,0.0,0.0,-0.0025855861604213,0.0004677221295423,-0.4719341993331909,0.8816299438476562,0.0,0.0,0.0,0.0,0.0,0.0,-0.0021452046930789,-0.0017149588093161,0.3019738793373108,0.953312337398529,0.000462882933053,0.0012343454537765,-0.0011554891457942,-0.0128153562545776,0.0082736611366271,0.0194683074951171,0,0,0,0
7.6,1788345574392,0.0,0.0,-0.0025855861604213,0.0004677221295423,-0.4719341993331909,0.8816299438476562,0.0,0.0,0.0,0.0,0.0,0.0,-0.0021452046930789,-0.0017149588093161,0.3019738793373108,0.953312337398529,0.000462882933053,0.0012343454537765,-0.0011554891457942,-0.0128153562545776,0.0082736611366271,0.0194683074951171,0,0,0,0
7.7,1788345574492,0.0,0.0,-0.0025855861604213,0.0004677221295423,-0.4719341993331909,0.8816299438476562,0.0,0.0,0.0,0.0,0.0,0.0,-0.0021452046930789,-0.0017149588093161,0.3019738793373108,0.953312337398529,0.000462882933053,0.0012343454537765,-0.0011554891457942,-0.0128153562545776,0.0082736611366271,0.0194683074951171,0,0,0,0
7.8,1788345574592,0.0,0.0,-0.0025855861604213,0.0004677221295423,-0.4719341993331909,0.8816299438476562,0.0,0.0,0.0,0.0,0.0,0.0,-0.0021707294508814,-0.0017918832600116,0.3020283877849579,0.9532948136329652,-7.37861647061034e-06,-0.0003569373037137,0.0008448625531133,0.0117387771606445,-0.0178001523017883,0.0113554000854492,0,0,0,0
7.9,1788345574692,0.0,0.0,-0.0025855861604213,0.0004677221295423,-0.4719341993331909,0.8816299438476562,0.0,0.0,0.0,0.0,0.0,0.0,-0.0022302409633994,-0.0017882119864225,0.3021653890609741,0.953251302242279,-0.0032393891182061,0.0002873314664945,0.0057893446397469,0.0825774073600769,0.0984640717506408,0.0127534866333007,88,93,-3307,3307
8.0,1788345574792,0.0,3.239436626434326,-0.0029146533925086,0.0003337940433993,-0.4708534181118011,0.8822065591812134,0.0037735216793282,-0.0033389012536624,1.4136833077287848e-06,-0.0076461466960608,-0.009355679154396,0.0414402820169925,-0.0020375708118081,-0.0023759771138429,0.3230675756931305,0.9463706612586976,0.000528386547988,-0.0132062783843036,0.6135944285643312,1.3360581398010254,-0.1416295766830444,0.0116739273071289,88,93,-3307,3307
8.1,1788345574892,0.0,3.8309860229492183,-0.0029146533925086,0.0003337940433993,-0.4708534181118011,0.8822065591812134,0.0037735216793282,-0.0033389012536624,1.4136833077287848e-06,-0.0076461466960608,-0.009355679154396,0.0414402820169925,-0.0024047465994954,-0.0017141066491603,0.3460015952587127,0.9382292628288268,0.0017534581221655,0.0051747223160412,0.5057925744601798,-0.077504277229309,0.2318885922431945,-0.1180486679077148,926,81,-32767,10305
8.2,1788345574992,0.0,3.8309860229492183,-0.0028750980272889,0.0006644940585829,-0.413929671049118,0.9103041291236876,0.0526748485809437,-0.000581042081004,3.61788802000893e-08,0.0014279625611379,0.0011802264489233,0.523601770401001,-0.0024705370888113,-0.0016773799434304,0.3582760989665985,0.9336109161376952,-0.0016413493102313,0.0008582235162558,0.5544769239704525,0.6177881360054016,-0.1383486986160278,-0.2227945327758789,924,107,-32767,11193
8.3,1788345575092,0.0,2.9577465057373047,-0.0030128825455904,0.0004240401322022,-0.3928157091140747,0.9196122288703918,0.0607891115438885,-0.0053430359305908,4.805720442667926e-06,0.0033784774132072,-0.0053897653706371,0.5006547570228577,-0.0023870822042226,-0.0018996559083461,0.3841924369335174,0.9232479929924012,0.0036108703948394,-0.0073322621339818,0.4844602332799932,0.0592100024223327,0.1910145282745361,0.1891078948974609,924,107,-32767,11193
8.4,1788345575192,0.0,1.436619758605957,-0.0029782068450003,0.0002608401118777,-0.3662479519844055,0.9305124878883362,0.0470639590062584,-0.0036592270661938,1.844856987286396e-06,0.0031128681730479,-0.0047516138292849,0.4738838076591491,-0.002305069938302,-0.0018778536468744,0.4121054708957672,0.9111313223838806,0.0048560609154313,6.705279044991437e-05,0.3710118262133683,-0.0219538807868957,-0.3328968286514282,0.208470344543457,926,14,-32744,3857
8.5,1788345575292,0.0,1.436619758605957,-0.0029564921278506,0.000563804351259,-0.3633570969104767,0.9316450953483582,0.0181400023306999,0.0002492277701667,-9.654636474595984e-07,-0.0041953669860959,0.0133741330355405,0.1478347331285476,-0.002305069938302,-0.0018778536468744,0.4121054708957672,0.9111313223838806,0.0048560609154313,6.705279044991437e-05,0.3710118262133683,-0.0219538807868957,-0.3328968286514282,0.208470344543457,926,14,-32744,3857
8.6,1788345575392,0.0,0.0,-0.0028343189042061,0.0005009672022424,-0.3650541305541992,0.9309818148612976,-0.0020831598000474,0.0001384538101171,1.0334901437906634e-06,-0.000159880350111,0.0022247387096285,-0.0265832412987947,-0.0022635161876678,-0.0017200568690896,0.4115542471408844,0.9113808274269104,-0.0014182970142461,0.0003824066199005,-0.0009333101421097,0.0884629487991333,-0.190615713596344,0.0529069900512695,0,0,0,0
8.7,1788345575492,0.0,0.0,-0.0027763296384364,0.0004374457639642,-0.3654933273792267,0.9308097958564758,-0.0003284623878676,-0.0001389306893927,-3.2288696367616043e-06,0.0004588802112266,-2.750522253336385e-05,-0.0010433200513944,-0.0022583920508623,-0.0016731657087802,0.4115001857280731,0.9114052653312684,0.000456846091387,0.0007626664065425,-0.0020530693574263,-0.0005716085433959,-0.0277140736579895,0.0713977813720703,0,0,0,0
8.8,1788345575592,0.0,0.0,-0.0027749701403081,0.0004462444339878,-0.3655237555503845,0.930797815322876,8.330038161162425e-05,0.0003349410508313,-6.374304772039937e-07,-7.849380926927552e-05,0.0003496265562716,-0.0013011913979426,-0.0022583920508623,-0.0016731657087802,0.4115001857280731,0.9114052653312684,0.000456846091387,0.0007626664065425,-0.0020530693574263,-0.0005716085433959,-0.0277140736579895,0.0713977813720703,0,0,0,0
8.9,1788345575692,0.0,0.0,-0.0027713074814528,0.000413374742493,-0.365494817495346,0.9308091402053832,0.0,0.0,0.0,0.0,0.0,0.0,-0.002158572897315,-0.0016731927171349,0.4114578068256378,0.9114246964454652,0.0021573261290813,0.0004242550938992,-0.0010740928245314,0.0255965590476989,-0.0168182849884033,0.0445318222045898,0,0,0,0
9.0,1788345575792,0.0,0.0,-0.0027307802811264,0.0003753883065655,-0.3655292689800262,0.9307957291603088,2.3365735762862685e-05,-2.713254718072002e-05,-1.765906130444361e-07,0.0009104121127165,-0.0002935069496743,0.0002707517123781,-0.0021298881620168,-0.0016287947073578,0.41142737865448,0.9114385843276978,0.0007849472488568,0.0019382192360381,-8.099461371337856e-05,-0.0205811262130737,-0.0142179131507873,0.0750131607055664,0,0,0,0
9.1,1788345575892,0.0,0.0,-0.0026354293804615,0.0003773103817366,-0.3655619323253631,0.930783212184906,0.0,0.0,0.0,-4.66710403657089e-09,1.0667666749952788e-08,0.0,-0.002098343335092,-0.0016305670142173,0.4114183485507965,0.9114426970481871,-0.0009907066918562,2.6774072177360058e-06,-0.0006182803647152,0.0186904072761535,-0.0218163728713989,0.0409088134765625,0,0,0,0
9.2,1788345575992,0.0,0.0,-0.0026322605554014,0.0003646903205662,-0.3655852377414703,0.9307740926742554,-8.973977291026299e-05,0.0001042890206806,6.503039258428904e-07,0.0003108918608631,-0.0004334561526775,-0.0010311513906344,-0.0020862333476543,-0.0015514027327299,0.4113969206809997,0.91145259141922,0.0015328485740783,0.000835052526112,-0.0006259466181889,-0.0047822594642639,0.0006372332572937,0.0174417495727539,0,0,0,0
9.3,1788345576092,0.0,0.0,-0.0026322605554014,0.0003646903205662,-0.3655852377414703,0.9307740926742554,-8.973977291026299e-05,0.0001042890206806,6.503039258428904e-07,0.0003108918608631,-0.0004334561526775,-0.0010311513906344,-0.0020862333476543,-0.0015514027327299,0.4113969206809997,0.91145259141922,0.0015328485740783,0.000835052526112,-0.0006259466181889,-0.0047822594642639,0.0006372332572937,0.0174417495727539,0,0,0,0
9.4,1788345576192,0.0,0.0,-0.0026322605554014,0.0003646903205662,-0.3655852377414703,0.9307740926742554,-8.973977291026299e-05,0.0001042890206806,6.503039258428904e-07,0.0003108918608631,-0.0004334561526775,-0.0010311513906344,-0.0020971447229385,-0.0015672678127884,0.4114004075527191,0.911450982093811,-0.0007269421467087,-0.000569694970473,0.0010992059362613,0.04135662317276,0.0315123200416564,0.0465326309204101,0,0,0,0
9.5,1788345576292,1.183098554611206,3.239436626434326,-0.0028003742918372,0.0007166740251705,-0.3490235507488251,0.9371094703674316,0.0638965552271974,-0.0016726614448841,-2.185814670465456e-06,-0.0070446846075356,0.0100753139704465,0.5043044090270996,-0.0026959683746099,-0.0013345601037144,0.444208949804306,0.8959181904792786,-0.0048740767479795,0.0005286270251327,0.6850436343963736,0.3469827175140381,0.0401913523674011,0.0918598175048828,157,227,3361,15703
9.6,1788345576392,1.2957746982574463,6.816901206970215,-0.0028333435766398,0.0007497703772969,-0.3077804446220398,0.951452910900116,0.1237549632920957,-0.0009998405884456,1.0461255381925909e-05,0.0021295917686074,-0.0098027540370821,0.8531370162963867,-0.0023673027753829,-0.0015612849965691,0.4750861227512359,0.8799347877502441,0.0109725300197319,-0.0140680383057595,0.9370102043586204,1.1969786882400513,0.0940032005310058,0.1093368530273437,662,187,15436,25016
9.7,1788345576492,1.4929577112197876,7.830986022949219,-0.0023842628579586,0.0006571887643076,-0.2621283829212188,0.9650298357009888,0.1783090422693736,0.0012944082458064,4.643174506453664e-06,0.0153366746380925,-0.0104395970702171,1.0860974788665771,-0.001833539456129,-0.0014082118868827,0.5166218876838684,0.8562105298042297,0.0196841326459359,-0.0260968657725553,1.1056048731457715,0.0418996810913085,0.1967890262603759,0.1172208786010742,742,273,17102,25972
9.8,1788345576592,1.4929577112197876,7.830986022949219,-0.0023404853418469,-0.0005163965979591,-0.2119105905294418,0.9772861003875732,0.187426022275656,-0.0027797763610297,3.937991394562063e-06,-0.0005174894467927,-0.0206922255456447,0.989389717578888,-0.001833539456129,-0.0014082118868827,0.5166218876838684,0.8562105298042297,0.0196841326459359,-0.0260968657725553,1.1056048731457715,0.0418996810913085,0.1967890262603759,0.1172208786010742,742,273,17102,25972
9.9,1788345576692,2.08450698852539,7.746479034423828,-0.0026126732118427,-0.0013501420617103,-0.1914676278829574,0.9814944267272948,0.1814085731187237,-0.0020236009291766,7.77800714534099e-05,-0.0031702050473541,-0.0422340631484985,0.9599260091781616,-0.000681716017425,-0.0027232533320784,0.6039242744445801,0.7970367074012756,-0.0007544429480693,0.0134936364076455,0.861811959942789,0.3129506111145019,0.4728057980537414,-0.2763795852661133,389,22,14786,22504
10.0,1788345576792,2.197183132171631,7.521126747131348,-0.002391476649791,-0.0012649133568629,-0.1460360586643219,0.9892755746841432,0.1746224895089875,0.0012959661223453,-1.4409515510911928e-05,0.0038612959906458,0.0163643676787614,0.927335798740387,-0.0008642133325338,-0.0021966341882944,0.6325722336769104,0.7744978070259094,0.0056435350795214,0.019942070369172,0.8291988107825123,-0.2998830080032348,-0.0674332976341247,-0.5595588684082031,397,76,14001,22868
10.1,1788345576892,1.7183098793029783,8.901408195495605,-0.0018289344152435,-0.0014263590564951,-0.0724451541900634,0.9973697066307068,0.1671314120930668,0.0061951210040274,9.831706614613044e-05,0.0067282449454069,-0.0143802752718329,0.9788313508033752,-0.0003090463578701,-0.0023039085790514,0.6760560870170593,0.7368464469909668,0.0021132344246634,0.0076300537166672,1.0090760481377543,-0.0170745253562927,0.0839132070541381,0.6861352920532227,315,99,13088,22697
10.2,1788345576992,1.9154930114746092,8.535211563110352,-0.0019922952633351,-0.0012867886107414,-0.0269707571715116,0.9996334314346312,0.1754927786400376,-0.0032266686184687,2.274861814269313e-05,-0.0005448983283713,-0.0102245630696415,0.9951525926589966,-0.0004619257524609,-0.002319885417819,0.7012789249420166,0.7128831744194031,0.0033750642133779,-0.0050206878070359,1.0707648673876315,0.364891767501831,-0.0063870549201965,-0.6087360382080078,390,117,14412,20785
10.3,1788345577092,1.7464789152145386,8.450704574584961,-0.0022864385973662,-0.0014340956695377,0.0177894458174705,0.99983811378479,0.1730195650225591,0.0007155201125433,-4.266344164162067e-06,-0.0115810604766011,-0.0021014197263866,0.9358654022216796,-0.000659386627376,-0.0026940265670418,0.739628255367279,0.673009991645813,-0.0041726376031509,-8.826780571757103e-05,1.0113654411437318,-0.1168764233589172,0.0140533447265625,-0.2195196151733398,290,86,12640,21861
10.4,1788345577192,1.6901408433914185,8.535211563110352,-0.0023709265515208,-0.001646879594773,0.0434825755655765,0.9990500211715698,0.1761450884580075,-0.0064450319299593,-6.560892053134205e-06,-0.0021247167605906,-0.0108250677585601,1.026224970817566,-0.0009048087522387,-0.0005920147523283,0.7707687020301819,0.6371141672134399,0.0526125759376986,0.0479661934952446,0.9112091853387816,0.3409112691879272,-0.0803412199020385,-0.1115951538085937,469,127,15202,19869
10.5,1788345577292,2.816901445388794,7.577464580535889,-0.0017270697280764,-0.0005739716580137,0.0718804076313972,0.997411608695984,0.1673275794014732,-0.0025468596860915,-0.0001484948024328,0.0243351347744464,0.0323413461446762,0.9445908069610596,-0.0007786098867654,0.0022403979673981,0.7900671362876892,0.61301589012146,0.0575632020898999,0.0401076873020752,0.7715827688983026,0.2827047109603882,0.0540202260017395,-0.6479501724243164,467,113,17580,17800
10.6,1788345577392,3.436619758605957,7.267605781555176,-0.0004927012487314,0.000649296969641,0.1401834934949875,0.9901252388954164,0.1861356672489146,0.0053748360636885,6.811036156297102e-05,-0.0813799723982811,-0.0476084128022193,0.5882248878479004,-0.00052160769701,-0.0019213482737541,0.8118525147438049,0.5838592052459717,-0.1051685962781502,-0.0822890517818198,0.572031140231685,-0.3233293294906616,-0.2565441727638244,0.8747196197509766,283,59,16617,18589
10.7,1788345577492,3.070422649383545,6.394366264343262,-0.0004927012487314,0.000649296969641,0.1401834934949875,0.9901252388954164,0.1861356672489146,0.0053748360636885,6.811036156297102e-05,-0.0813799723982811,-0.0476084128022193,0.5882248878479004,-0.0005803685635328,-0.002112915739417,0.8265908360481262,0.5627991557121277,0.0024297970857926,-0.0026543440724505,0.4731827171954485,0.3759050369262695,-0.5626010894775391,0.2763071060180664,428,37,17716,19577
10.8,1788345577592,3.774647951126098,5.802816867828369,-0.0028030285611748,-0.0004211816121824,0.1856846064329147,0.9826053380966188,0.1638524741247494,0.0089357700863027,-0.0001368851214888,-0.018513299524784,0.0200894959270954,0.2971346378326416,-0.0016141906380653,-0.0020776502788066,0.8317140340805054,0.5551981329917908,-0.0175173809957166,0.0279915284715277,0.2982905433386067,-0.2025796771049499,0.2768275141716003,0.1190109252929687,337,89,17287,20755
10.9,1788345577692,3.4647886753082275,6.619718074798584,-0.0030336980707943,-0.0003399393463041,0.1979507952928543,0.9802071452140808,0.1721978438321935,0.0033807909377171,-3.5117589734650426e-05,-0.0085618821904063,0.0035057922359555,0.5020946860313416,-0.0022498704493045,-0.0025771772488951,0.8490411639213562,0.528315544128418,-0.0048092239089636,0.0127721712200549,0.4353319685896963,-0.1161749958992004,0.2278046011924743,1.254094123840332,338,115,17290,18779
11.0,1788345577792,4.197183132171631,5.77464771270752,-0.0036543905735015,3.862788435071707e-05,0.2294940948486328,0.973303198814392,0.1739221700960359,0.0059418666988082,2.9679898223712143e-05,-0.0028205367270857,-0.0145496614277362,0.4551467895507812,-0.0027835732325911,-0.0026583848521113,0.8603307604789734,0.5097218155860901,-0.0102280136536029,0.0069744961672502,0.3776482732835424,0.0936871767044067,-0.1043276190757751,0.5795297622680664,358,23,19251,16606
11.1,1788345577892,4.478873252868652,6.309859275817871,-0.0039244988001883,-0.0001220643753185,0.24045130610466,0.970653235912323,0.1731151048452541,0.0085508618702122,-8.013453775582676e-06,-0.0088329352438449,-0.0038296331185847,0.3213053941726684,-0.0027363430708646,-0.0025986088439822,0.8666434288024902,0.4989136755466461,0.0134875952469102,-0.0032928955570659,0.1994130892218626,-0.0999541282653808,0.0043277740478515,-0.5356740951538086,184,80,16162,14845
11.2,1788345577992,4.197183132171631,5.521126747131348,-0.0039503625594079,0.0002440295647829,0.2452556937932968,0.9694503545761108,0.1796642892260998,0.0041671853778071,-9.427895869555434e-06,0.0023638447746634,0.0137743279337883,0.1991985738277435,-0.0036700144410133,-0.0003046281635761,0.8726781010627747,0.4882822334766388,0.0458974193506464,0.0772969223097985,0.2710983468364299,0.0645683407783508,0.1875168681144714,-0.5400676727294922,265,125,16573,15490
11.3,1788345578092,4.676056385040283,5.267605781555176,-0.0011260769097134,0.0048797633498907,0.266552060842514,0.9638075828552246,0.1759322775141926,-0.0049775537387001,-0.0001427896130059,0.0690229758620262,0.0464480705559253,0.2123366296291351,-0.0043504498898983,0.0032496470957994,0.8771370053291321,0.4802095293998718,0.0502463299248735,0.0386169358340706,0.1798611662916133,0.0088292360305786,0.1104258894920349,-0.0155086517333984,252,32,17044,16451
11.4,1788345578192,4.0,6.985915660858154,-0.0004660247359424,0.0062708579935133,0.2766226530075073,0.9609580636024476,0.169480480073295,9.795378983899464e-05,-8.38091381941851e-05,0.0054210391826927,0.0267137698829174,0.2997190356254577,-0.004829566925764,0.0041869580745697,0.8842114210128784,0.4670432806015014,0.0039376180449844,0.0055155093297641,0.3725025162641331,0.0387282967567443,-0.0787369608879089,-0.5404291152954102,236,123,15017,15941
11.5,1788345578292,3.577464818954468,6.957746505737305,-0.0004660247359424,0.0062708579935133,0.2766226530075073,0.9609580636024476,0.169480480073295,9.795378983899464e-05,-8.38091381941851e-05,0.0054210391826927,0.0267137698829174,0.2997190356254577,-0.0049123894423246,0.0070493603125214,0.8928207159042358,0.4503302574157715,0.0398894286744152,0.0253078250247538,0.4041837199978211,0.2709278464317322,0.1732686161994934,1.243425369262695,306,119,16972,15606
11.6,1788345578392,4.253520965576172,6.02816915512085,0.00130270794034,0.0080159613862633,0.2964331209659576,0.9550191164016724,0.1673657645445589,0.0017971538849283,-4.947628533510009e-05,0.078986257314682,0.0361299961805343,0.4018333256244659,-0.0050789639353752,0.007201462984085,0.9021297097206116,0.4313750267028808,-0.0017469794625596,0.0063974165209472,0.3504051251183007,-0.0638127326965332,-0.0542376637458801,-0.4677133560180664,215,55,14422,18279
11.7,1788345578492,4.507042407989502,6.591549396514893,0.001554582035169,0.008786461316049,0.3307790160179138,0.9436661601066588,0.1818159342250932,0.0009503950576456,-3.195154968845831e-05,0.0036150987725704,0.0067226691171526,0.3014489114284515,-0.0050789639353752,0.007201462984085,0.9021297097206116,0.4313750267028808,-0.0017469794625596,0.0063974165209472,0.3504051251183007,-0.0638127326965332,-0.0542376637458801,-0.4677133560180664,232,102,15142,13942
11.8,1788345578592,4.197183132171631,5.77464771270752,0.0024395529180765,0.009281488135457,0.3394323885440826,0.9405815005302428,0.166328507156792,-0.004363634226879,-6.657326934494506e-05,0.0371398627758026,0.0086066862568259,0.3680754601955414,-0.0059549752622842,0.0096449675038456,0.9141436219215392,0.4052321016788482,0.0148309294414901,0.0326614495816798,0.1955659376288219,1.0053831338882446,-0.216749370098114,-0.654449462890625,383,107,19300,16764
11.9,1788345578692,5.014084339141846,5.211267471313477,0.0024395529180765,0.009281488135457,0.3394323885440826,0.9405815005302428,0.166328507156792,-0.004363634226879,-6.657326934494506e-05,0.0371398627758026,0.0086066862568259,0.3680754601955414,-0.005498431622982,0.0097111761569976,0.9157108068466188,0.4016830325126648,0.0055920476996058,0.002244480379648,0.1103779475113304,-0.4382978677749634,-0.2505441308021545,-0.3116436004638672,241,34,17432,16452
12.0,1788345578792,4.788732528686523,5.211267471313477,0.0033338086213916,0.0106548834592103,0.354806125164032,0.9348732829093932,0.155831697705912,0.0056640516186355,-1.4015112404646313e-05,0.0057242787443101,-0.0018584805075079,0.1351518034934997,-0.0046304622665047,0.009542659856379,0.9192933440208436,0.3934301137924194,-0.0082844983716463,-0.0382032037737526,0.1192075565341833,0.0312570333480834,-0.2061986327171325,-1.036677360534668,198,85,16900,16795
12.1,1788345578892,4.788732528686523,5.211267471313477,0.0031606941483914,0.0097867157310247,0.3616500794887543,0.9322571754455566,0.1781486091317211,-0.0008296211151591,-2.326916494549236e-05,-0.0064601385965943,0.0147427394986152,0.042701881378889,-0.004841755144298,0.0090851821005344,0.920232892036438,0.3912356793880462,-0.0048702212530575,0.0184157865206256,0.0609487599775371,-0.3022493720054626,0.2629827260971069,-0.1014375686645507,198,85,16900,16795
12.2,1788345578992,3.690140962600708,4.2816901206970215,0.0031662951223552,0.0098456004634499,0.3665390610694885,0.9303451776504515,0.1842484717622998,0.0013364794126609,-7.925095540316484e-06,-0.0063883308321237,-0.0150532135739922,0.0900328233838081,-0.0042593646794557,0.0077187055721879,0.9224794507026672,0.3859454393386841,-0.0617440858401319,-0.0651604644863268,0.0578181941761102,-0.6730874180793762,0.2475965619087219,0.5170745849609375,90,55,13105,12345
12.3,1788345579092,0.8169013857841492,1.94366192817688,0.0014056533109396,0.006229942664504,0.3711115717887878,0.9285663366317748,0.1117891388143816,-0.0036586308189056,7.396016365395632e-05,-0.0439897291362285,-0.0382938422262668,0.1147734671831131,-0.0037236297503113,0.0059267813339829,0.923370897769928,0.3838453292846679,-0.0757167256205723,-0.060482596871281,0.1178371310367775,-1.5976166725158691,-0.3531144857406616,0.1051349639892578,80,23,8634,6261
12.4,1788345579192,0.0,1.380281686782837,0.0009810355259105,0.0051154089160263,0.3752366900444031,0.9269144535064696,0.0588590146709406,-0.000837210087412,3.265744012164301e-05,-0.0274752974510192,-0.0284658167511224,0.1468291878700256,-0.0028056800365448,0.0042073270305991,0.9278516173362732,0.3729152083396911,-0.0034902206797899,-0.000628379796166,0.1711626026190241,0.0517003536224365,-0.2449168562889099,-0.0311136245727539,322,175,9988,9819
12.5,1788345579292,3.183098554611206,4.3380279541015625,0.0007848679088056,0.0040146117098629,0.386600911617279,0.9222380518913268,0.1051311083455996,0.0068550567776001,1.456901966520113e-05,-0.0143006443977355,-0.0079450644552707,0.2018990665674209,-0.0021802028641104,0.0033574197441339,0.931333601474762,0.3641453981399536,0.0032348036485416,-0.0104658138339007,0.2641391894638981,0.8224881887435913,-0.0702142119407653,-0.2774925231933594,389,218,17670,18039
12.6,1788345579392,4.788732528686523,6.309859275817871,0.0008237810106948,0.0037638857029378,0.3920805156230926,0.9199228286743164,0.1490403458098369,0.0021294910177864,1.9401182471912884e-05,-0.0031929484102874,-0.0091465199366211,0.233851820230484,-0.001910793595016,0.0026435377076268,0.9344225525856018,0.3561513721942901,-0.0112730455950338,2.2648216609594814e-05,0.1398200780982597,-0.2012744545936584,-0.1004770398139953,0.0747623443603515,245,108,17753,14471
12.7,1788345579492,4.788732528686523,5.154929637908936,0.0005459035746753,0.0030696301255375,0.3987588286399841,0.9170505404472352,0.1853744711144836,0.0017677167805166,4.120145288382723e-06,-0.0092323934659361,-0.0051092309877276,0.1640891134738922,-0.0018644109368324,0.0025658020749688,0.937139332294464,0.3489412069320678,0.0002556987882427,0.010952717013165,0.1629551315431942,0.055630087852478,0.1406604647636413,0.1353092193603515,249,82,16371,16982
12.8,1788345579592,4.535211086273193,5.577464580535889,0.0006581920897588,0.0028999655041843,0.4027088284492492,0.9153233170509338,0.1873266233939447,-0.0003164448706304,2.607602447384267e-05,0.0009869795758277,-0.0078882742673158,0.176304817199707,-0.0010011512786149,0.0027722800150513,0.9405819773674012,0.3395538032054901,0.0006684037095266,-0.0023843338595524,0.1563787557317316,0.0108821392059326,-0.0739276409149169,-0.0415935516357421,190,95,16170,12559
12.9,1788345579692,4.619718074798584,5.436619758605957,0.0006581920897588,0.0028999655041843,0.4027088284492492,0.9153233170509338,0.1873266233939447,-0.0003164448706304,2.607602447384267e-05,0.0009869795758277,-0.0078882742673158,0.176304817199707,-0.00093425065279,0.002789044752717,0.9422961473464966,0.3347675204277038,0.0070056755230105,-0.0056747483086325,0.1316768224871795,0.1415407657623291,-0.0901629328727722,0.3105621337890625,179,30,16144,15672
13.0,1788345579792,4.2816901206970215,5.042253494262695,0.0017181725706905,0.0028824056498706,0.4238815605640411,0.9057113528251648,0.1692454631112473,-0.0053675492327587,5.329706336339896e-05,0.0124021442607045,-0.0109266806393861,0.1969282478094101,-0.0007849391549825,0.0036063604056835,0.9453333616256714,0.3260845243930816,0.0257445745172845,0.0089962320307747,0.1598319994007429,-0.0046555399894714,-0.4147273302078247,-0.3409442901611328,313,114,18744,17514
13.1,1788345579892,4.8450703620910645,6.394366264343262,0.0017181725706905,0.0028824056498706,0.4238815605640411,0.9057113528251648,0.1692454631112473,-0.0053675492327587,5.329706336339896e-05,0.0124021442607045,-0.0109266806393861,0.1969282478094101,-0.0013293325901031,0.0040140254423022,0.9475794434547424,0.3194924890995025,-0.0036270513577844,-0.0177180101111753,0.1529818377881796,0.6192017793655396,-0.1217873096466064,0.3112974166870117,329,106,18936,14746
13.2,1788345579992,4.901408672332764,5.239436626434326,0.0016402684850618,0.0041435062885284,0.4374556243419647,0.8992289900779724,0.1832356470487894,-0.000849826432722,-7.551184254123199e-05,-0.0026353783905506,0.0131829977035522,0.1103352904319763,-0.0019334657117724,0.0039485869929194,0.9495730996131896,0.3135151863098144,-0.0082167918249642,0.0008789839174999,0.0995426917322546,0.0376014709472656,0.0070680975914001,-0.2187976837158203,274,27,18240,14254
13.3,1788345580092,4.450704097747803,5.380281925201416,0.0016313480446115,0.0039619747549295,0.4407060444355011,0.8976412415504456,0.1721623290363797,0.0008872825842764,-3.2912765086062056e-05,-0.0026013234164565,0.0115738352760672,0.0678442791104316,-0.0016805687919259,0.003961332142353,0.9505513310432434,0.3105379045009613,0.0042920897428747,-0.0037954411213002,0.0600681664772716,-0.1904862523078918,-0.2409549355506897,1.5903949737548828,282,38,18382,16143
13.4,1788345580192,4.507042407989502,5.154929637908936,0.0012284589465707,0.0035539302043616,0.4460292756557464,0.8950105309486389,0.1799801145978287,-0.0037977013561277,8.247282295872045e-05,-0.0175855364650487,-0.0176938585937023,0.1651158481836319,-0.0016635814681649,0.0031979708001017,0.9535585045814514,0.3011861443519592,-0.0037689312917853,-0.0092938484778546,0.1731388600861924,-0.1482446193695068,-0.1793790459632873,0.8218088150024414,348,84,18617,17608
13.5,1788345580292,4.676056385040283,5.690140724182129,0.0010626461589708,0.0033407032024115,0.4535885453224182,0.8912043571472168,0.1859406983553114,-0.002387800521358,-2.497035185996795e-05,-0.0044135586358606,-0.0037593015003949,0.1684611141681671,-0.0019157156348228,0.0030562337487936,0.9552443027496338,0.295796126127243,-0.0066120486715462,-0.0020960381456808,0.1523378167826972,-0.0873075723648071,-0.0519676804542541,-0.4474744796752929,341,113,18189,15719
13.6,1788345580392,4.309859275817871,5.183098793029785,-6.0269725508987904e-05,0.002921569161117,0.4611873626708984,0.8872979283332825,0.1654056731523864,-0.0005679795998898,2.8317098907385605e-05,-0.0269407499581575,0.0076296003535389,0.166471242904663,-0.0026382524520158,0.0019524320960044,0.9580078125,0.2867234349250793,-0.0121918306706149,0.0313980676080304,0.1546371566791795,-0.2553213238716125,0.3459668755531311,0.2757606506347656,367,66,19430,17115
13.7,1788345580492,4.394366264343262,5.436619758605957,-0.0006546478834934,0.0033036340028047,0.4688181281089782,0.8832883238792419,0.1726125083235512,-0.0017474624732214,-9.129967997331368e-06,-0.0123767713084816,0.0022669066675007,0.1697042733430862,-0.0029134303331375,0.0017900699749588,0.9595573544502258,0.2814924418926239,-0.0210976588754766,0.0107408650656871,0.1912967052088801,0.2592218518257141,0.0435072779655456,-0.1199102401733398,390,132,20737,16454
13.8,1788345580592,4.394366264343262,5.436619758605957,-0.0011470380704849,0.0040056779980659,0.4750735461711883,0.8799362182617188,0.1799309917523829,-6.551009978865455e-05,-3.979170164747849e-05,-0.0068151890300214,0.025290472432971,0.1340088993310928,-0.0029134303331375,0.0017900699749588,0.9595573544502258,0.2814924418926239,-0.0210976588754766,0.0107408650656871,0.1912967052088801,0.2592218518257141,0.0435072779655456,-0.1199102401733398,390,132,20737,16454
13.9,1788345580692,4.197183132171631,5.436619758605957,-0.0011470380704849,0.0040056779980659,0.4750735461711883,0.8799362182617188,0.1799309917523829,-6.551009978865455e-05,-3.979170164747849e-05,-0.0068151890300214,0.025290472432971,0.1340088993310928,-0.003512823022902,0.0014999378472566,0.963825821876526,0.2665056884288788,-0.0131999116501315,0.0042572255849019,0.1919015021118649,0.1102107763290405,-0.1964226365089416,0.2507534027099609,524,106,22825,17689
14.0,1788345580792,4.788732528686523,5.802816867828369,-0.0013854005374014,0.0034309506881982,0.4876046776771545,0.8730567097663879,0.174310576582702,-0.0037275513146774,-2.3577863717238323e-05,-0.0043735271319746,0.0062756277620792,0.1861962378025055,-0.003512823022902,0.0014999378472566,0.963825821876526,0.2665056884288788,-0.0131999116501315,0.0042572255849019,0.1919015021118649,0.1102107763290405,-0.1964226365089416,0.2507534027099609,446,164,21769,15226
14.1,1788345580892,4.591549396514893,6.253520965576172,-0.0013854005374014,0.0034309506881982,0.4876046776771545,0.8730567097663879,0.174310576582702,-0.0037275513146774,-2.3577863717238323e-05,-0.0043735271319746,0.0062756277620792,0.1861962378025055,-0.0039016529917716,0.0012628939002752,0.9673617482185364,0.2533665001392364,-0.0052942701909005,0.0088876676219037,0.1408500309287741,-0.1008405089378357,-0.0897406935691833,0.0784912109375,288,64,17673,15540
14.2,1788345580992,4.450704097747803,6.478873252868652,-0.0015558152226731,0.0039290548302233,0.505730390548706,0.8626812696456909,0.1775765707758326,-0.0011377265670793,1.144066748634664e-05,0.005707683507353,0.0045809573493897,0.2405455261468887,-0.0038919355720281,0.0015920391306281,0.9707874655723572,0.2399043291807174,0.0078126906658138,-0.0007666794785746,0.2436467346852136,0.1631491184234619,0.1215993762016296,-0.2830963134765625,288,64,17673,15540
14.3,1788345581092,4.394366264343262,5.577464580535889,-0.0016657109372317,0.0043971631675958,0.5107296705245972,0.8597284555435181,0.1811160285987574,-0.0040893980220638,-5.398982403731377e-05,0.0046331281773746,0.018235296010971,0.22857166826725,-0.0038410443812608,0.0026191612705588,0.9748436212539672,0.2228412181138992,0.0201968543578292,0.0080652746588474,0.2586014405056085,-0.1253417134284973,0.2307343482971191,0.3475542068481445,239,164,15939,18034
14.4,1788345581192,4.2816901206970215,5.7183098793029785,-0.001086490927264,0.0040045580826699,0.5155608654022217,0.8568428754806519,0.1740526672867697,0.0072714321001848,7.785352221654e-05,0.0111451540142297,-0.0258179157972335,0.231158971786499,-0.0041424613445997,0.0036701764911413,0.9763068556785583,0.2163198739290237,0.0371567397536228,0.0212582075078532,0.2665697562706173,-0.1366394758224487,-0.0484313368797302,1.5374908447265625,239,164,15939,18034
14.5,1788345581292,4.253520965576172,6.619718074798584,0.0013161902315914,0.0094132609665393,0.5336852073669434,0.8456298112869263,0.1649737214290317,0.0051255288644792,-0.0001826805758052,0.1197443902492523,0.0860558748245239,0.2837387919425964,-0.0041424613445997,0.0036701764911413,0.9763068556785583,0.2163198739290237,0.0371567397536228,0.0212582075078532,0.2665697562706173,-0.1366394758224487,-0.0484313368797302,1.5374908447265625,174,141,15479,14632
14.6,1788345581392,4.366197109222412,5.239436626434326,0.0039691124111413,0.0223572794348001,0.5462661981582642,0.8373037576675415,0.1669126868470997,0.0012553238354442,-0.0005434103872391,0.1863135993480682,0.1943891644477844,0.3164440989494324,-0.0172709804028272,0.0261660702526569,0.9829841256141664,0.1809949576854705,0.1513021019904766,0.1378902169257414,0.2893281257121471,-0.1908865571022033,-0.232088565826416,0.6548337936401367,244,55,16768,16642
14.7,1788345581492,4.478873252868652,6.02816915512085,0.0055116210132837,0.0268284250050783,0.551902174949646,0.8334590196609497,0.1637595773970819,0.0049222684491385,-0.0003483048452363,0.1810091733932495,0.1503438800573349,0.3415130972862243,-0.0199500359594821,0.0296165347099304,0.9845300316810608,0.1715385168790817,0.0488789499276222,0.0513062501155453,0.2198827997386429,0.3619187474250793,0.1945942044258117,0.7331829071044922,286,78,17012,14159
14.8,1788345581592,4.478873252868652,6.02816915512085,0.0055116210132837,0.0268284250050783,0.551902174949646,0.8334590196609497,0.1637595773970819,0.0049222684491385,-0.0003483048452363,0.1810091733932495,0.1503438800573349,0.3415130972862243,-0.0199500359594821,0.0296165347099304,0.9845300316810608,0.1715385168790817,0.0488789499276222,0.0513062501155453,0.2198827997386429,0.3619187474250793,0.1945942044258117,0.7331829071044922,286,78,17012,14159
14.9,1788345581692,4.619718074798584,6.11267614364624,0.0078322207555174,0.0354068204760551,0.5766088962554932,0.8162151575088501,0.1759782008858587,0.0011709672672373,4.966529284733722e-05,-0.0181511063128709,-0.0031385491602122,0.1686137616634369,-0.0198901426047086,0.0303210914134979,0.9869747161865234,0.1567352861166,-0.019620325122317,0.0083258684380334,0.1687826014793862,0.3990950584411621,-0.237372875213623,0.1899652481079101,265,124,17613,14024
15.0,1788345581792,4.619718074798584,6.11267614364624,0.0082118837162852,0.0350717902183532,0.5822606086730957,0.8122038841247559,0.1788385300921061,0.0024384584300504,4.51197677568022e-05,0.0021332558244466,-0.0101189883425831,0.1353413611650467,-0.0188567228615283,0.0291449707001447,0.9887153506278992,0.1457294970750808,-0.0393316599124447,-0.0398477016382895,0.1185115931798862,0.3445137143135071,0.1968469619750976,0.3349256515502929,265,124,17613,14024
15.1,1788345581892,5.014084339141846,4.704225540161133,0.0077113406732678,0.0338458344340324,0.5857023596763611,0.8097825050354004,0.173104286471406,0.0014294900371591,5.303202763080116e-05,-0.0359007306396961,-0.0173770599067211,0.1234074458479881,-0.0181559361517429,0.0287929009646177,0.9889593124389648,0.1442248523235321,-0.0189014771762499,-0.0471304939989132,0.1028372020850026,-0.0082343220710754,-0.2795394659042358,0.1269207000732422,295,29,19779,15198
15.2,1788345581992,5.436619758605957,4.788732528686523,0.0055122971534729,0.0188109558075666,0.5849832892417908,0.8108084201812744,0.1838806624304648,-0.0017931368435135,0.0008922361781107,-0.2099894732236862,-0.2205906212329864,-0.0911222547292709,-0.0111386943608522,0.0186972767114639,0.989042341709137,0.1460189223289489,-0.2109886169343525,-0.2098243448980835,-0.077089011079488,-0.3715938329696655,0.0274475216865539,0.1999683380126953,303,23,18809,13609
15.3,1788345582092,5.549295902252197,4.507042407989502,0.0036014001816511,0.0073195714503526,0.5806316137313843,0.8141254782676697,0.1875478036432892,-0.0028244763301598,0.0008456724179788,-0.3332919478416443,-0.3364506065845489,-0.2209514677524566,0.0025087930262088,2.6741065084934235e-05,0.9870979189872742,0.1600982546806335,-0.0684956430486399,-0.0433660014253556,-0.1896759617690264,0.8562857508659363,-0.3602988719940185,3.4786596298217773,230,43,18109,14473
15.4,1788345582192,5.154929637908936,5.267605781555176,0.0020392264705151,-0.0022631150204688,0.5721613168716431,0.8201354742050171,0.1776496463077161,-0.0014236854496853,-4.248327858682397e-05,-0.0033019161783158,0.0253060460090637,-0.0685996934771537,0.0034191431477665,-0.0001071617007255,0.9865623712539672,0.1633494347333908,0.0025409905900354,-0.0115746364965879,-0.0394895603603459,0.3680171370506286,0.084040880203247,0.4624643325805664,258,146,18448,13482
15.5,1788345582292,5.267605781555176,5.211267471313477,0.0022499605547636,-0.0026524462737143,0.570451021194458,0.8213242292404175,0.1673871403320449,-0.0055012404602873,2.0676844167586064e-06,0.0011744451476261,-0.0096541307866573,-0.0286217201501131,0.0035416530445218,-0.0002313246950507,0.9862231612205504,0.1653820574283599,-0.0005165580965197,0.0017102074349035,-0.0401127425538595,0.245377779006958,0.1465600728988647,0.1141252517700195,230,149,18498,13501
15.6,1788345582392,4.704225540161133,4.901408672332764,0.0027334364131093,-0.0015827568713575,0.5693615078926086,0.8220812678337097,0.173695028600862,0.0046195967083615,-3.532690597711807e-05,0.0361796729266643,0.0275542233139276,0.0008864752599038,0.0014195693656802,0.0033001666888594,0.986365020275116,0.1645334810018539,0.1167345694438992,0.1219812563700441,0.0840585387651153,0.7221157550811768,-0.1666700839996338,-0.2365617752075195,305,190,19090,16691
15.7,1788345582492,4.788732528686523,5.549295902252197,0.0040946430526673,0.0040329173207283,0.5717394351959229,0.820415198802948,0.1878041523802197,-0.0018629641896806,-0.000165277140776,0.069409355521202,0.0639660581946373,0.0488585866987705,-0.0003334991633892,0.0061740828678011,0.986628234386444,0.1628699302673339,0.0611155438275595,0.0708430056904583,0.0494308978926145,-0.1403495073318481,-0.3484531044960022,1.3032989501953125,263,52,19031,14380
15.8,1788345582592,4.8450703620910645,4.957746505737305,0.005422961898148,0.0090446174144744,0.574238657951355,0.818619966506958,0.1786048176893489,0.0012932677761674,-0.0001831331386767,0.0882665961980819,0.0674264878034591,0.0549230575561523,-0.0019531631842255,0.0084955831989645,0.9869197010993958,0.1609765738248825,0.067065076656303,0.0774129638986611,0.0669823566495255,0.0497834086418151,0.3129333257675171,0.6622161865234375,224,92,18493,16143
15.9,1788345582692,4.788732528686523,5.126760482788086,0.0064679351635277,0.0141676235944032,0.5764793753623962,0.816963255405426,0.1757811768127574,-0.0005024715286871,-0.0004281766562571,0.1124703735113143,0.1075652837753295,0.0822090655565261,-0.010368350893259,0.0206010732799768,0.9879719018936156,0.1529040336608886,0.1411575729877615,0.1409414073871045,0.1308903409279535,0.1459571719169616,0.1822761297225952,-0.0647563934326171,159,53,16560,16587
16.0,1788345582792,5.042253494262695,5.690140724182129,0.0080229863524436,0.0228338688611984,0.5805044174194336,0.8138972520828247,0.1749919173431123,-0.000287704179763,-0.0005486018009566,0.1390857845544815,0.1345080137252807,0.1231391280889511,-0.013346703723073,0.0254125539213418,0.988420069217682,0.149002805352211,0.0683958459346499,0.0579068517707306,0.0578201670540649,-0.1633028984069824,-0.135134756565094,-0.2032785415649414,159,53,16560,16587
16.1,1788345582892,4.676056385040283,4.8450703620910645,0.0091207651421427,0.0278634801506996,0.5860762000083923,0.8097254037857056,0.1740246822290596,0.0017060914542146,-2.6071325507808948e-05,0.0152253760024905,-0.0047683087177574,0.1007829532027244,-0.013346703723073,0.0254125539213418,0.988420069217682,0.149002805352211,0.0683958459346499,0.0579068517707306,0.0578201670540649,-0.1633028984069824,-0.135134756565094,-0.2032785415649414,159,53,16560,16587
16.2,1788345582992,3.8309860229492183,5.830986022949219,0.0092309843748807,0.0278399586677551,0.5976513028144836,0.8012195229530334,0.1767329588730163,0.0032547225090171,-6.492947025304595e-05,-0.0099710775539278,0.0161167923361063,0.3612002730369568,-0.0133590092882514,0.0261381827294826,0.991104006767273,0.1298124492168426,0.0015628546950048,0.0177170858519989,0.3733798567988095,-0.072252333164215,-0.4759675860404968,1.366741180419922,479,126,21014,15605
16.3,1788345583092,3.802816867828369,5.633802890777588,0.0092775793746113,0.0278952084481716,0.6046316623687744,0.7959625124931335,0.1696788219019099,-0.0013929726478528,-3.047623320504305e-05,-0.0029710687231272,0.0089468713849782,0.3439750671386719,-0.0130991851910948,0.0258493572473526,0.9923583269119264,0.1199383437633514,-0.0186026659856668,-0.0316659637390071,0.30994130542778,-0.141981840133667,0.2982569336891174,-0.0226812362670898,640,115,23193,18172
16.4,1788345583192,4.169013977050781,5.830986022949219,0.0082348715513944,0.0279805585741996,0.6228551268577576,0.7817932963371277,0.1720354915135367,0.0041470626395016,-7.952650765999989e-05,-0.0083409054204821,0.0062532587908208,0.2759166657924652,-0.0136609068140387,0.0245898440480232,0.9949606657028198,0.0962390452623367,-0.0358226970458926,-0.0506494581359702,0.2381257401405352,0.4708462953567505,0.3003461956977844,0.7815427780151367,630,34,23741,17139
16.5,1788345583292,4.169013977050781,6.366197109222412,0.0066924281418323,0.0240273177623748,0.6318330764770508,0.7747030854225159,0.1881564365971362,0.0034394913389391,0.0001029183017201,-0.1135205253958702,-0.0616921782493591,0.2432787418365478,-0.0119367660954594,0.0209466964006423,0.9959101676940918,0.0870729014277458,-0.1159206150959439,-0.1033265961745154,0.2272309990128671,-0.4430563449859619,0.0410364866256713,-0.6221427917480469,603,78,24069,15142
16.6,1788345583392,4.676056385040283,5.436619758605957,0.0048786508850753,0.0131877986714243,0.6382471919059753,0.769703209400177,0.187650506849052,-0.0003299758555158,0.0004875699895405,-0.2009187340736389,-0.1805394440889358,0.1541423946619033,-0.0016419002786278,0.0067441808059811,0.996865212917328,0.0788135454058647,-0.282085508320206,-0.2375865702680384,0.0832899902811899,0.2370542883872985,-0.1236812472343444,-1.511396408081055,599,103,24705,15707
16.7,1788345583492,4.816901206970215,6.0,0.0023397901095449,-0.0012010558275505,0.6390402317047119,0.7691687345504761,0.1968388177297373,0.0008409698035503,0.0012317700832831,-0.325260192155838,-0.2755954563617706,0.0288396179676055,0.0026989942416548,0.0005024271085858,0.997243344783783,0.0741502717137336,0.0108675050550178,0.0370523988530651,0.1508847537800793,-0.1150285601615905,0.1583164930343628,0.4333152770996094,570,47,23513,16975
16.8,1788345583592,4.957746505737305,5.915493011474609,0.0023461466189473,-0.0018544245976954,0.6404054760932922,0.768031120300293,0.1659390931014165,0.0071813381416652,0.0001729899914718,-0.0249508712440729,-0.0308440942317247,0.1086787432432174,0.0015169875696301,0.0004022913053631,0.9975838661193848,0.0694559589028358,-0.0024132705153325,0.0246994018501283,0.1178185320260521,0.3453237414360046,0.3138864636421203,-0.865997314453125,522,118,23573,14409
16.9,1788345583692,4.760563373565674,5.380281925201416,0.0004926942056044,0.0001380541652906,0.6495559811592102,0.7603135704994202,0.1880805300958005,0.0027948754644868,-0.0001310645591828,-0.0011747943935915,0.0367009676992893,0.1160075664520263,0.0009692264720797,0.0003952607512474,0.9977334141731262,0.0672831311821937,-0.0021511338525968,0.0289670406827845,0.1152948618601554,0.1744207143783569,-0.3391534090042114,-0.1971092224121093,329,145,20210,16740
17.0,1788345583792,4.732394218444824,5.492957592010498,-0.0001799657475203,0.0016212649643421,0.6524149179458618,0.7578602433204651,0.1820025879032812,0.0034423116753622,-2.1477788297218017e-05,0.0250950008630752,0.0357280895113945,0.0837965458631515,-0.0035922173410654,0.0028225136920809,0.9982360601425172,0.0591937527060508,0.1016761012009213,0.145795525975272,0.1454306774369301,0.139537513256073,-0.4098652601242065,0.6902780532836914,329,167,17900,16425
17.1,1788345583892,4.901408672332764,5.183098793029785,-0.0005371174775063,0.0051565188914537,0.654941201210022,0.7556621432304382,0.1842368115205402,0.0005659022880469,-0.0004153658577916,0.0831724256277084,0.1193707510828971,0.1371149271726608,-0.0075498539954423,0.0059481533244252,0.9986075162887572,0.0518727488815784,0.085379997348619,0.1119004472408118,0.1451591895188903,-0.0584259033203125,-0.2586885690689087,0.5610322952270508,210,99,17622,16702
17.2,1788345583992,5.211267471313477,4.422535419464111,-0.0014492557384073,0.0140814073383808,0.6608591675758362,0.7503764629364014,0.192798483508106,-0.0042642829038394,-0.000469601722032,0.0838871896266937,0.123970165848732,0.0357297919690609,-0.0128131192177534,0.0098397228866815,0.9986091256141664,0.0501877702772617,0.0779060341060812,0.1314036175819277,0.0055587291176965,-0.853785514831543,0.1437286734580993,-0.0334806442260742,274,37,18415,13055
17.3,1788345584092,3.802816867828369,2.9577465057373047,-0.0016733915545046,0.0176061335951089,0.6607964634895325,0.7503567934036255,0.1515466208126659,-0.0028995094587344,-0.0002885979028708,0.0844820886850357,0.1091522797942161,-0.0012542137410491,-0.0165091138333082,0.0144521864131093,0.9982928037643432,0.0541304647922515,0.0968123596905906,0.0978397028380429,-0.1270464023248978,-0.744067907333374,-0.0190408825874328,-0.1421537399291992,42,71,11210,3458
17.4,1788345584192,1.0140844583511353,-0.5633803009986877,-0.000865806825459,0.0249499566853046,0.6533576846122742,0.7566376328468323,0.016872896309323,0.0004030706633874,-1.1948062359568487e-05,0.0669881999492645,0.0556095540523529,-0.206005722284317,-0.0187442675232887,0.0177810322493314,0.997394561767578,0.0673553198575973,0.0259130645503917,-0.0114587903618007,-0.2444063629573377,1.1174087524414062,-0.3656230568885803,0.2686061859130859,282,5,10924,0
17.5,1788345584292,1.0140844583511353,-0.5633803009986877,-0.000865806825459,0.0249499566853046,0.6533576846122742,0.7566376328468323,0.016872896309323,0.0004030706633874,-1.1948062359568487e-05,0.0669881999492645,0.0556095540523529,-0.206005722284317,-0.0187442675232887,0.0177810322493314,0.997394561767578,0.0673553198575973,0.0259130645503917,-0.0114587903618007,-0.2444063629573377,1.1174087524414062,-0.3656230568885803,0.2686061859130859,282,5,10924,0
17.6,1788345584392,4.394366264343262,3.2957746982574463,0.0001369109377264,0.0310793444514274,0.6357659101486206,0.7712560296058655,0.1246130768778063,-0.005889824065731,-0.0001830115656481,0.0732031688094139,0.0717129036784172,-0.1107903718948364,-0.0223129987716674,0.0221485514193773,0.9960352182388306,0.0832201167941093,0.0865043382241428,0.0727609219724744,-0.0984530844598507,0.6264960169792175,-0.0034480690956115,0.1088438034057617,269,275,17891,16022
17.7,1788345584492,5.098591327667236,5.88732385635376,0.0011501964181661,0.0334723144769668,0.6351606845855713,0.7716535925865173,0.1831562415630001,-0.0019344312720518,-5.2851737553078696e-05,0.0269045066088438,0.0097819874063134,0.0124645493924617,-0.0231727771461009,0.0242766682058572,0.9959423542022704,0.083501398563385,0.0103320238112534,0.014985497048079,0.0482478249816026,-0.2940787672996521,0.230286955833435,-0.0645999908447265,273,101,19418,14128
17.8,1788345584592,4.732394218444824,5.690140724182129,0.0017389338463544,0.0331344306468963,0.6362978219985962,0.7707296013832092,0.1847840417195189,-0.0011541924934799,-2.8638810917834573e-05,0.0089039579033851,-0.0264639649540185,0.0652081966400146,-0.0225339438766241,0.0242243390530347,0.9961628317832948,0.0810246095061302,0.0012737460255061,-0.0445602469767679,0.100917811135671,0.2170045971870422,0.4022827744483948,-0.2650203704833984,397,143,20847,16641
17.9,1788345584692,4.647887229919434,4.732394218444824,0.0016495455056428,0.0326353535056114,0.6414905190467834,0.7664347290992737,0.1725991107217764,-5.0962406738338205e-05,0.0002213130668001,-0.0070848478935658,-0.0066830557771027,0.0524691604077816,-0.021190371364355,0.0241404082626104,0.9966742992401124,0.0748912468552589,0.0163233394630701,-0.0668327649248618,0.0410595458793076,-0.4925474524497986,0.0313646793365478,0.949167251586914,559,54,25272,15555
18.0,1788345584792,5.098591327667236,5.380281925201416,0.0016495455056428,0.0326353535056114,0.6414905190467834,0.7664347290992737,0.1725991107217764,-5.0962406738338205e-05,0.0002213130668001,-0.0070848478935658,-0.0066830557771027,0.0524691604077816,-0.0199260953813791,0.0221076756715774,0.996886134147644,0.0730222836136818,-0.0776136703733516,-0.0582387124626238,0.0268834732569311,0.2599819898605346,0.1643945574760437,-0.1622943878173828,558,59,25612,13279
18.1,1788345584892,5.070422649383545,5.239436626434326,0.0020176321268081,0.0280743166804313,0.6434445381164551,0.7649751305580139,0.1932311568751207,-0.0009482700014362,0.0001311867729331,-0.0832199975848198,-0.0729704946279525,0.0044590272009372,-0.0102472752332687,0.0110604204237461,0.997111678123474,0.0744381994009018,-0.2507703334269573,-0.2671800208872238,-0.0349687006067463,0.2997209429740906,0.2985126376152038,-0.2092809677124023,589,33,26140,13494
18.2,1788345584992,5.183098793029785,5.7183098793029785,3.944814670830965e-05,0.0022484355140477,0.6408021450042725,0.7677028775215149,0.1965850670389117,0.001426483258931,0.0009540615912782,-0.3314647078514099,-0.3611578345298767,-0.0929527580738067,-0.0009248862043023,0.0003897994756698,0.9968503713607788,0.0792999342083931,0.0072631402990764,0.0886844364061531,-0.0869276058062696,-0.4643686413764953,-0.1420417428016662,0.7726860046386719,576,79,25680,11676
18.3,1788345585092,5.408450603485107,4.535211086273193,0.0003138460160698,0.0002268388489028,0.6375837922096252,0.7703809142112732,0.1754446730864835,-0.0017734789667293,0.0003987544415665,-0.0308847520500421,-0.0496941022574901,-0.1199699714779853,-0.0002220598980784,0.0004196669906377,0.9961188435554504,0.0880171731114387,0.0148082599553424,0.0166268956226605,-0.1007196139436466,0.7394136786460876,0.4800336360931396,0.5162820816040039,446,167,23370,15485
18.4,1788345585192,5.408450603485107,4.535211086273193,0.0001956210471689,0.0003333766071591,0.6323900818824768,0.774649977684021,0.1716496999982525,-0.0081720165410076,7.929866097667228e-05,0.0068366075865924,-2.0241079255356453e-05,-0.1376371830701828,-0.0002359012141823,0.0005741277709603,0.9958614706993104,0.0908817499876022,0.0056961558643586,0.0009912321037552,-0.1068586530495729,0.0734051465988159,-0.2456591129302978,0.6885757446289062,311,49,20838,13176
18.5,1788345585292,5.239436626434326,5.154929637908936,0.0012476644478738,0.0049489419907331,0.6259124279022217,0.7798766493797302,0.1808521896888625,-0.0016292719130684,-0.0003534753328032,0.1144736483693122,0.1148684322834014,-0.07157614082098,-0.0034930752590298,0.0055902786552906,0.9952101111412048,0.0975370332598686,0.0382064130263775,0.029900602824062,-0.0693628693429276,-0.1490887999534607,0.1605159640312194,0.1773233413696289,328,120,20799,13492
18.6,1788345585392,5.183098793029785,5.408450603485107,0.0015658251941204,0.00640320032835,0.6247121691703796,0.7808272242546082,0.188729988925148,-0.007552675284085,-0.0001368352657269,0.0507576949894428,0.0405321791768074,-0.066823698580265,-0.0049163270741701,0.0079556787386536,0.995052456855774,0.0989097580313682,0.0683332357705382,0.0339255079328513,-0.0402462836445724,0.1139601469039917,-0.500348687171936,-0.3394460678100586,328,120,20799,13492
18.7,1788345585492,5.633802890777588,5.521126747131348,0.0022780844010412,0.0100840870290994,0.6234928369522095,0.7817607522010803,0.1814247313041813,-0.0032402646455829,-0.0001376867513499,0.0862522274255752,0.0652548968791961,-0.0417942516505718,-0.0073507111519575,0.0101108402013778,0.9950008392333984,0.0990811213850975,0.0759092938311259,0.1050152210149793,-0.0071492971709233,-0.0786852836608886,0.175112783908844,1.0995006561279297,284,118,19310,16525
18.8,1788345585592,5.070422649383545,5.323943614959717,0.0024675130844116,0.0126254130154848,0.6236527562141418,0.7815957069396973,0.1805366442648584,-0.0019314493472329,-0.0004044891329331,0.0526075176894664,0.0568395741283893,0.0068079358898103,-0.0142223164439201,0.0193083751946687,0.9951431155204772,0.095472827553749,0.2092075223654898,0.1973378042366907,0.0679581846263842,-0.2838096022605896,0.0457298159599304,-0.2468643188476562,284,118,19310,16525
18.9,1788345585692,5.070422649383545,5.323943614959717,0.0024675130844116,0.0126254130154848,0.6236527562141418,0.7815957069396973,0.1805366442648584,-0.0019314493472329,-0.0004044891329331,0.0526075176894664,0.0568395741283893,0.0068079358898103,-0.0170341785997152,0.0237148385494947,0.9951916337013244,0.0934943631291389,0.0415964357375186,0.0368154747314767,0.0486865280528002,0.0474330186843872,0.2111212611198425,0.0365009307861328,266,111,18155,14171
19.0,1788345585792,4.732394218444824,5.408450603485107,0.0050680572167038,0.0284477584064006,0.6274237036705017,0.7781417369842529,0.173274803812189,-0.0035055735564804,-0.0002206659187662,0.0952192097902298,0.0548887960612773,0.0514486283063888,-0.0170341785997152,0.0237148385494947,0.9951916337013244,0.0934943631291389,0.0415964357375186,0.0368154747314767,0.0486865280528002,0.0474330186843872,0.2111212611198425,0.0365009307861328,275,56,18908,14498
19.1,1788345585892,4.8450703620910645,4.732394218444824,0.0055304514244198,0.0292580164968967,0.6322075724601746,0.7742266058921814,0.1745678230688123,0.000539806605431,2.234712208410885e-05,0.0025949825067073,-0.0140468627214431,0.1320427656173706,-0.0170778967440128,0.0243485830724239,0.9959291815757751,0.0850912034511566,0.0010885730999904,-0.0197810792479521,0.0609239169454722,0.0807811617851257,0.0898491144180297,0.4703130722045898,275,56,18908,14498
19.2,1788345585992,4.901408672332764,5.492957592010498,0.0051569873467087,0.0295516476035118,0.6334984302520752,0.773162305355072,0.1747582681772716,0.0014228036638466,2.866045581566536e-06,-0.009230338037014,0.0342048741877079,0.1131513938307762,-0.0159507486969232,0.0231127515435218,0.9960660338401794,0.0840465277433395,-0.0611849627653032,-0.0328637638851713,0.0168376140938169,0.6527302265167236,0.5793795585632324,0.3595209121704101,523,90,24290,12985
19.3,1788345586092,4.732394218444824,5.070422649383545,0.0051569873467087,0.0295516476035118,0.6334984302520752,0.773162305355072,0.1747582681772716,0.0014228036638466,2.866045581566536e-06,-0.009230338037014,0.0342048741877079,0.1131513938307762,-0.0129866292700171,0.0193377062678337,0.9962657690048218,0.083137571811676,-0.084237082697939,-0.0953169652549298,0.0292574379406653,-0.0924181938171386,-0.1115909814834594,-0.2844886779785156,516,94,24509,12812
19.4,1788345586192,4.957746505737305,4.8450703620910645,0.0040757590904831,0.0167208053171634,0.6358341574668884,0.7716337442398071,0.1849481838972548,-0.0099220789017573,0.0002705768205443,-0.1237842962145805,-0.1156336590647697,-0.0011835710611194,-0.008857375010848,0.0138151105493307,0.9963945150375366,0.0832387655973434,-0.1075514362889599,-0.0642829615641618,-0.0110485068450072,0.1626977920532226,0.0426834225654602,0.5743036270141602,530,69,24065,16123
19.5,1788345586292,4.985915660858154,4.732394218444824,0.0039833555929362,0.0154703110456466,0.6359185576438904,0.7715908288955688,0.1898525523786321,-0.0042507638962975,0.0001371692370206,-0.0354152657091617,-0.0369444154202938,0.0039170067757368,-0.0068570962175726,0.0123109258711338,0.9964290261268616,0.0832510069012641,-0.0843490084580778,-0.0832592725399276,-0.0299927801521704,0.2963376045227051,0.3774499297142029,-0.0099773406982421,278,38,19090,14906
19.6,1788345586392,4.366197109222412,5.154929637908936,0.0022365450859069,0.0037248483859002,0.6352190375328064,0.7723197937011719,0.1705963830105448,0.0047416881236225,0.0004229379451599,-0.2022808194160461,-0.1674518287181854,0.01765638589859,-0.0027237832546234,0.0065827118232846,0.9963715076446532,0.0848117470741272,-0.2262093087785238,-0.1906265090574331,-0.0265862390704087,-0.9707062244415284,0.1694750189781189,1.433389663696289,222,48,14948,10982
19.7,1788345586492,0.9577465057373048,3.436619758605957,0.0021854010410606,0.0031194882467389,0.6453520655632019,0.7638757228851318,0.0753171570857994,0.0068823344526854,3.797278992622264e-06,-0.0041078240610659,-0.0054167890921235,0.3005430400371551,-0.0008384501561522,0.003845827654004,0.9970701932907104,0.076390653848648,0.0077294992348198,0.0093769189366529,0.2658541104453418,-0.882301390171051,0.8481643795967102,-0.2794904708862304,222,48,14948,10982
19.8,1788345586592,-1.436619758605957,1.5492957830429075,0.0023045160342007,0.0030938182026147,0.6533523201942444,0.7570441365242004,0.0452642402069601,-0.0028535753694279,3.2897889428344568e-06,0.002484182594344,-0.0022253117058426,0.4058436155319214,-0.0006716148927807,0.0037693977355957,0.9983076453208924,0.0580283515155315,-0.0030906078691497,0.0039557542003334,0.3503074886706296,-0.1527162194252014,-0.0840107202529907,-0.0505619049072265,270,58,-7402,6612
19.9,1788345586692,-1.408450722694397,1.0704225301742554,0.0020768821705132,0.0016472198767587,0.665203869342804,0.746657133102417,0.0174293936384122,-0.0010083776254877,7.973213321537468e-06,-0.0407317876815795,-0.0407043732702732,0.3742391169071197,0.0015838332474231,0.0008107842877507,0.9995521306991576,0.0298725944012403,-0.0197206324567522,-0.013084425985477,0.4038457363635896,0.2235956788063049,-0.3749895095825195,-0.374913215637207,347,132,-10954,6696
20.0,1788345586792,-1.408450722694397,1.6056338548660278,0.0017538059037178,-0.0006179776391945,0.6809375286102295,0.7323391437530518,-0.0001552701081895,0.0001105536675862,3.058684424220673e-07,-0.0017497291555628,0.0012646592222154,0.3756247758865356,0.0014254720881581,0.000780557282269,0.9999851584434508,0.0052015557885169,-0.0009605882890023,0.0039945036162685,0.4504711457799963,0.1197897791862487,-0.0932689309120178,0.037358283996582,347,132,-10954,6696
20.1,1788345586892,-1.3521126508712769,1.6056338548660278,0.0017538059037178,-0.0006179776391945,0.6809375286102295,0.7323391437530518,-0.0001552701081895,0.0001105536675862,3.058684424220673e-07,-0.0017497291555628,0.0012646592222154,0.3756247758865356,-0.0014649368822574,-0.0007730722427368,-0.9999789595603944,0.0062688728794455,0.0003544914682234,-0.0012457485861296,0.4660478575558561,-0.1272105574607849,-0.0460619926452636,0.0282478332519531,408,67,-13532,5497
20.2,1788345586992,-1.436619758605957,1.6338027715682983,0.0017255342099815,-0.0005729060503654,0.7128779888153076,0.7012857794761658,0.00234788966812,0.0004389017241009,-1.1049819629530186e-06,0.0022944721858948,-0.0007771450909785,0.4495260417461395,-0.0018884101882576,-0.000947343185544,-0.9992709159851074,0.0381204672157764,0.0042675327635918,-0.0069732938037463,0.466233820356837,-0.0121600627899169,0.048775315284729,0.0234375,500,85,-14764,5706
20.3,1788345587092,-0.9295774698257446,1.183098554611206,0.0019658119417726,-0.0006266132113523,0.7274038791656494,0.6862064599990845,0.0008767740647448,-0.0002112325738704,-4.547647762720405e-07,0.004106200300157,-0.0017401947407051,0.477755606174469,-0.0016523748636245,-0.0009874459356069,-0.9979645609855652,0.063742958009243,-0.0014054025914015,0.0071368365802184,0.3475439452365079,-0.1535153985023498,-0.3033970594406128,0.0308179855346679,418,93,-13799,4804
20.4,1788345587192,-1.0704225301742554,1.2676056623458862,0.0018294856417924,-0.0004638755926862,0.7463741898536682,0.6655238270759583,-0.0036282409851338,6.0606446670526415e-05,6.8474140938044e-07,0.0007285352912731,0.0037490285467356,0.2663508951663971,-0.0015765074640512,-0.0009323460981249,-0.9971998333930968,0.0747601687908172,-0.0021763506463792,0.0009100973359782,0.2743566748298203,-0.2671805024147033,0.0784310698509216,0.1022205352783203,418,93,-13799,4804
20.5,1788345587292,-0.9014084339141846,1.2957746982574463,0.0017724989447742,-0.0003895261907018,0.758729875087738,0.6514029502868652,0.0017723172455325,0.0008887250518869,-3.1400985200804616e-07,0.0024134176783263,0.0007304776227101,0.3715369403362274,-0.0015124669298529,-0.0010140724480152,-0.9954705238342284,0.0950533375144004,0.0008962463086982,-0.0016258499564643,0.3762132989674101,0.1343662142753601,-0.1320332884788513,-0.0830917358398437,498,57,-15647,4667
20.6,1788345587392,-1.0140844583511353,1.1267606019973757,0.0017724989447742,-0.0003895261907018,0.758729875087738,0.6514029502868652,0.0017723172455325,0.0008887250518869,-3.1400985200804616e-07,0.0024134176783263,0.0007304776227101,0.3715369403362274,-0.0017823204398155,-0.0010555498301982,-0.9938578605651855,0.1106448322534561,0.0013111600415922,-0.0017860948531921,0.3584965619915106,-0.0364105701446533,-0.1423165202140808,-0.139007568359375,659,62,-15494,5155
20.7,1788345587492,-1.2394366264343262,1.211267590522766,0.0020171126816421,-0.0005869134911336,0.7818793654441833,0.6234262585639954,0.0007246339094039,0.0010049080656877,2.3410516844434484e-06,-6.593084981432185e-05,0.000551885983441,0.3429872989654541,-0.0018208138644695,-0.0010385243222117,-0.9920589923858644,0.1257562190294265,0.0002666542624217,0.001667217209661,0.3489144755896525,0.1225082278251648,-0.1951373219490051,-0.1569738388061523,630,43,-15388,5100
20.8,1788345587592,-0.9577465057373048,1.0704225301742554,0.0020171126816421,-0.0005869134911336,0.7818793654441833,0.6234262585639954,0.0007246339094039,0.0010049080656877,2.3410516844434484e-06,-6.593084981432185e-05,0.000551885983441,0.3429872989654541,-0.0018149493262171,-0.0009165164083242,-0.98919415473938,0.1465974450111389,-0.0038214544634129,0.0006687751423601,0.3087938694553114,-0.1164289712905883,-0.2141509056091308,-0.0029096603393554,630,43,-15388,5100
20.9,1788345587692,-1.042253494262695,0.7042253613471985,0.0021521006710827,-0.0008592531085014,0.7996020317077637,0.6005258560180664,-0.0023234680873905,-0.0008565649860291,-2.824586598868636e-07,-0.0002757147012744,-0.0085504669696092,0.2209902256727218,-0.0020705042406916,-0.0008549094200134,-0.987770140171051,0.1559015065431594,-0.0066664822879391,0.0095416671490139,0.1614791975841914,-0.2669366002082824,0.062523603439331,0.1129570007324218,459,135,-13740,4707
21.0,1788345587792,0.0,1.3521126508712769,0.0020100441761314,-0.0008319962653331,0.8029367327690125,0.5960604548454285,-0.0016188818603646,0.0021930445187629,-9.08815344547732e-08,-0.0020029223524034,0.0052310023456811,0.2187099009752273,-0.0018953718245029,-0.0008170586079359,-0.9867863059043884,0.1620142310857772,0.0001888075940798,0.0075708366434279,0.257467869943849,-0.1343801021575927,-0.0400468707084655,0.2725543975830078,653,156,0,9085
21.1,1788345587892,0.0,2.816901445388794,0.0020734120626002,-0.0011410788865759,0.8113862872123718,0.584505558013916,0.0326554798734153,0.0025627555048009,1.296053580250711e-05,-0.0057739210315048,-0.0102286869660019,0.2645017206668854,-0.0021829204633831,-0.0006605284288525,-0.9839110374450684,0.1786448955535888,7.36885045897688e-05,0.0061045887248492,0.4070100405242556,0.5451651811599731,0.2639913558959961,-0.0288972854614257,292,214,13956,18226
21.2,1788345587992,3.070422649383545,6.676056385040283,0.0023745812941342,-0.0014397804625332,0.8336819410324097,0.552237868309021,0.1419301119975937,0.0028953735533884,1.3761503900944358e-05,-0.0021646940149366,-0.0142927775159478,0.6119285225868225,-0.0027791475877165,-0.000682009384036,-0.9761192798614502,0.2172163128852844,-0.0020657691141977,-0.0147758519166357,0.4784816910148501,0.7506067752838135,-0.417112648487091,0.1393566131591797,556,150,22328,16511
21.3,1788345588092,3.070422649383545,6.676056385040283,0.0017098735552281,-0.0011781014036387,0.8406263589859009,0.5416115522384644,0.1819311417081827,-0.0001723543890211,-5.8762232670375626e-05,-0.0038020550273358,0.0234050936996936,0.4245319366455078,-0.0020106714218854,-0.0002643968909978,-0.9722933173179626,0.2337555587291717,0.0013031114751109,-0.0119925490187959,0.307240322928615,-0.1056883931159973,-0.2858151793479919,0.0937442779541015,570,107,22448,16740
21.4,1788345588192,4.8450703620910645,5.267605781555176,0.0017336881719529,-0.0013251256896182,0.8499626517295837,0.5268384218215942,0.195289211801388,0.0051131120502704,-7.737524842717603e-06,-0.0026756466832011,0.00065349903889,0.121771216392517,-0.0020106714218854,-0.0002643968909978,-0.9722933173179626,0.2337555587291717,0.0013031114751109,-0.0119925490187959,0.307240322928615,-0.1056883931159973,-0.2858151793479919,0.0937442779541015,519,86,23370,15365
21.5,1788345588292,4.985915660858154,5.323943614959717,0.0019532789010554,-0.0011044663842767,0.8514939546585083,0.5243595838546753,0.1934168264176344,-0.0021500701737681,-3.2238949734544087e-05,0.0126902051270008,-0.0029114300850778,0.119412213563919,-0.0021377028897404,-0.0008883224800229,-0.9693832993507384,0.24554143846035,0.0183635395306566,-0.0154328970586975,0.0417780687585255,0.0723915100097656,0.0382311940193176,-0.0914592742919921,194,123,16533,15974
21.6,1788345588392,4.704225540161133,5.352112770080566,0.0019429249223321,0.0017669273074716,0.8542537093162537,0.5198495984077454,0.1711536455968733,0.0060157255461527,-6.528903405106808e-05,0.071195550262928,0.0618444457650184,0.1130065247416496,0.0013952599838376,-0.0036374945193529,-0.9680646657943726,0.2506704330444336,0.1090685560338106,0.099883462162982,0.1476095908245074,0.287967324256897,-0.0566616654396057,-0.4270315170288086,215,112,16478,16499
21.7,1788345588492,4.619718074798584,5.464788913726807,0.0021218552719801,0.005272411275655,0.8578853607177734,0.5138098001480103,0.1789049210596199,0.0029934726058285,-3.428677160694411e-05,0.0293548163026571,0.0242624506354331,0.1184421926736831,0.0018942952156066,-0.0048827482387423,-0.967005968093872,0.2547000646591186,0.0157391013545948,0.0125765951860576,0.1120861776843147,-0.1785549521446228,-0.1117797493934631,0.0897636413574218,244,45,16377,16121
21.8,1788345588592,4.253520965576172,5.183098793029785,0.0025589577853679,0.0048692827112972,0.8610299825668335,0.5085244178771973,0.1833453555786908,0.0026106530167335,3.358451399149834e-05,-0.0093906847760081,-0.0137205505743622,0.1370898485183715,0.0027964767068624,-0.0059297168627381,-0.9642404317855836,0.2649478614330292,0.0641782456414264,0.0594050779694345,0.2036762536168976,0.1481488943099975,0.1602944135665893,-1.3452281951904297,314,97,17922,17478
21.9,1788345588692,4.422535419464111,5.267605781555176,0.0023369779810309,0.0064777331426739,0.8661882281303406,0.4996704459190368,0.1842118248312935,0.0028461398807979,7.680268182725156e-05,-0.013865821994841,-0.0469048470258712,0.165353924036026,0.0036760168150067,-0.0068116951733827,-0.9609031677246094,0.276776522397995,0.037494374079059,0.0265464245445698,0.1866189554847654,0.1994336247444152,0.2599037885665893,0.2362089157104492,283,73,17828,17410
22.0,1788345588792,5.098591327667236,5.577464580535889,0.0018171297851949,0.0087041901424527,0.8704537153244019,0.4921700358390808,0.182207607965723,0.0032350105042039,-9.197017443803494e-05,0.0470296144485473,0.0574611909687519,0.1793408691883087,0.0056747319176793,-0.0074664140120148,-0.9588698148727416,0.2836915254592895,0.0065904317451573,0.0104366106922731,0.147751568894105,-0.1276158690452575,0.1515395641326904,0.7658071517944336,272,89,19581,14097
22.1,1788345588892,5.154929637908936,4.647887229919434,0.0012218465562909,0.0088274423032999,0.8728535175323486,0.4879010021686554,0.1887250197486825,0.0001410101292895,-4.250781897524322e-06,-0.013500421307981,0.000375272007659,0.023836201056838,0.005767723545432,-0.0064355349168181,-0.9592533707618712,0.2824153006076813,-0.004782387241731,-3.3085454343238466e-05,-0.0728645986168829,-0.2649271488189697,-0.1692649722099304,0.3868303298950195,311,101,20001,14336
22.2,1788345588992,4.873239517211914,4.563380241394043,0.0003119211178272,0.0084142899140715,0.8712276220321655,0.4908070266246795,0.1659037298253713,-0.0008320534910707,-2.801630941904641e-06,-0.0183331165462732,0.0032282599713653,-0.0722789540886879,0.0053537189960479,-0.0060281995683908,-0.9597088098526,0.2808809578418731,-0.0059794523205873,-0.0111135701383602,-0.0046039225296178,0.0325957536697387,0.241036057472229,-0.4465694427490234,418,44,21945,14749
22.3,1788345589092,4.957746505737305,4.563380241394043,0.0003770843613892,0.007974830456078,0.8708034753799438,0.49156653881073,0.1785573643784746,0.0007535402699771,5.874286898830677e-05,-0.0140951676294207,-0.0113142905756831,-0.0352500043809413,0.0051844883710145,-0.0058524580672383,-0.9600270986557008,0.27979776263237,-0.0060544585862441,-0.0177225936280723,-0.0183027999509893,-0.1240472793579101,0.0562708973884582,1.0341930389404297,507,99,23160,12557
22.4,1788345589192,4.985915660858154,4.816901206970215,0.0008889397140592,0.0065650902688503,0.8697755932807922,0.4934030175209045,0.1815706626585502,-0.004193382475949,0.0001273214593208,-0.0349765568971633,-0.0325505845248699,-0.0481386072933673,0.0017552813515067,-0.003746529109776,-0.9608873128890992,0.2769089639186859,-0.0698514060933014,-0.050399418731869,-0.0397334989063203,0.241050124168396,0.2243220210075378,-1.2359733581542969,545,137,24502,15709
22.5,1788345589292,5.211267471313477,4.8450703620910645,0.0021809842437505,0.0007964157848618,0.8675718903541565,0.4973064363002777,0.1828706010866487,-0.0013867814527545,0.0001799785638794,-0.0532324463129043,-0.0591911487281322,-0.0669383481144905,-0.0010174373164772,-0.0020943423733115,-0.9616661071777344,0.2742132246494293,-0.0441761056273183,-0.0541406027972712,-0.0656434198042251,0.0292838811874389,-0.3235335350036621,-0.0228118896484375,468,27,23953,15055
22.6,1788345589392,5.521126747131348,5.380281925201416,0.0022190460003912,-0.0004317863495089,0.8671030402183533,0.4981238842010498,0.1796734657869377,-0.0039983048561972,4.165306951462241e-05,-0.0509524345397949,-0.0313817597925663,-0.045683916658163,-0.0028523514047265,-0.0003822557628154,-0.9625008702278136,0.2712633907794952,-0.0453355764772821,-0.0258327371786716,-0.0907563584996924,-0.1538969874382019,0.0138540267944335,-0.2409133911132812,389,21,22128,14211
22.7,1788345589492,5.6619720458984375,4.647887229919434,0.0024516298435628,-0.0028518941253423,0.8648483753204346,0.5020189881324768,0.1823556461122743,-0.0005336145291713,9.586802586464396e-05,-0.0359810031950473,-0.0291989408433437,-0.0966142863035202,-0.0035030608996748,0.0003471383824944,-0.9636964201927184,0.2669774889945984,0.0027167740536135,0.0192375869744218,-0.0977316024637367,0.0837998986244201,-0.0603789687156677,-0.3504390716552734,318,104,20912,12544
22.8,1788345589592,5.042253494262695,4.422535419464111,0.0021482775919139,-0.0027364855632185,0.8619633913040161,0.5069584846496582,0.1902303751856283,-0.0044313463803166,1.0169726927195649e-05,-0.0031218584626913,-0.0084637952968478,-0.1330170333385467,-0.0027184225618839,-3.5558827221393585e-05,-0.9653087854385376,0.2610967457294464,0.0455658045823707,0.0355378651178238,-0.0439759779407558,0.0388022661209106,0.2596073150634765,-0.0802631378173828,272,62,18840,13470
22.9,1788345589692,4.929577350616455,5.154929637908936,0.0013008373789489,0.0004662460996769,0.8602302074432373,0.5099037885665894,0.1745440486978337,-0.0025539826925573,-0.0003492232674505,0.0718518644571304,0.0716692730784416,-0.039839930832386,0.0004080981016159,-0.001462435349822,-0.965544819831848,0.2602323591709137,0.0302359558545165,0.0521965023427868,0.015521061188624,-0.1308245062828064,-0.0421806573867797,0.303074836730957,180,25,16687,15333
23.0,1788345589792,5.042253494262695,4.816901206970215,0.0009036654955707,0.0012091933749616,0.8604667782783508,0.5095043778419495,0.1795140342814734,0.0006550733001975,-2.517431178253962e-07,-0.0061521036550402,-0.0136396558955311,0.0123545452952384,0.0006556035950779,-0.0013290680944919,-0.9652015566825868,0.2615030407905578,0.0068418002004754,0.0520531361169686,0.0375852067833187,0.112368643283844,-0.0726524591445922,-0.3020343780517578,275,24,17986,15397
23.1,1788345589892,4.929577350616455,5.408450603485107,-7.745623588562012e-05,0.0019744532182812,0.8623359799385071,0.5063326954841614,0.1771384552696527,-0.0036547876690722,-0.0001193060912232,0.008123149164021,0.0335562154650688,0.1170762628316879,0.0001666909083724,-0.0007174015045166,-0.9641744494438172,0.2652679681777954,-0.0100503499058077,0.0003964928374003,0.0024046293874647,0.0701533555984497,-0.1541423201560974,-0.2072982788085937,275,57,19088,13928
23.2,1788345589992,5.154929637908936,5.098591327667236,0.0001797966542653,0.0010281995637342,0.8631811141967773,0.5048933029174805,0.1775504147617208,-0.0017943015883941,-1.5169160264581404e-07,0.0084821283817291,0.0219115484505891,0.0259561128914356,0.0007055336609482,-0.0007051276043057,-0.9640182256698608,0.2658343613147735,-0.0134359453636588,-0.02270523479661,-0.0130661860378699,-0.1693492531776428,-0.3708243370056152,1.2445878982543943,224,85,18654,12849
23.3,1788345590092,5.577464580535889,4.197183132171631,-4.545570118352771e-05,0.0010363874025642,0.8621544241905212,0.5066445469856262,0.1876644741477724,-0.0040679035606129,-4.047711397938196e-06,-0.0042592315003275,0.0079049114137887,-0.0816399976611137,0.000902023166418,-0.0007068924605846,-0.9647526144981384,0.2631562352180481,-0.0008457469805949,0.0187100192780754,-0.1257989932155351,-0.1771421432495117,-0.3649847507476806,-0.9376621246337892,313,99,20665,14133
23.4,1788345590192,4.704225540161133,4.8450703620910645,-4.287477349862456e-05,0.0013195008505135,0.8609666228294373,0.5086597204208374,0.17420792712522,-0.0064449200246693,-2.701656618262396e-05,0.0120006008073687,0.0067697674967348,-0.1137788295745849,0.0005115345120429,-0.0009563621133565,-0.9658229947090148,0.2592001855373382,-0.0012843051820397,-0.0355648462457086,-0.0548969232459342,0.3259905576705932,-0.1779184341430664,0.5814599990844727,408,62,21014,15245
23.5,1788345590292,5.154929637908936,4.901408672332764,-0.0003032865060959,0.0012503319885581,0.8594315648078918,0.5112492442131042,0.1681411228301314,-0.0040020346464125,6.103403735718617e-05,-0.0060439105145633,0.0082102445885539,-0.0441139563918113,0.0013564992696046,-0.0007796455174684,-0.9660022854804992,0.2585285305976867,0.0077497687615107,0.0180630968501413,-0.0094714849261881,-0.0319796800613403,-0.0372090339660644,0.1918067932128906,453,58,23319,15387
23.6,1788345590392,4.957746505737305,4.563380241394043,0.0003679926740005,0.0011923853307962,0.8589210510253906,0.5121064782142639,0.1761764402608813,-0.001645353018884,5.2714571652521134e-05,0.009779161773622,-0.0201858598738908,-0.0331274680793285,0.0008708788082003,-0.0009834412485361,-0.9665204286575316,0.2565862536430359,-0.0140213433547848,0.0257378031606923,-0.0331234889656925,-0.1704290509223938,0.1173033714294433,-0.6195945739746094,539,43,24539,13310
23.7,1788345590492,5.042253494262695,5.323943614959717,0.000249469128903,0.0010830275714397,0.8580074906349182,0.5136359333992004,0.1774235341386551,-0.0007490660718455,1.0079049008481287e-06,-0.0085796797648072,-0.0051053529605269,-0.0323067680001258,-0.0003899298608303,-6.410013884305954e-05,-0.9669646620750428,0.2549103498458862,-0.0515733853212997,-0.0262918731238627,-0.0501965234038089,-0.1681285500526428,0.0798897743225097,0.7613630294799805,513,93,24356,16566
23.8,1788345590592,5.323943614959717,5.014084339141846,0.0006609867559745,-0.0009490594966337,0.8573988676071167,0.5146512389183044,0.185319121584281,-0.0041806495009686,6.315016012896605e-05,-0.0245065242052078,-0.0343457385897636,-0.0038674396928399,-0.0023340713232755,0.0009718714281916,-0.9672515392303468,0.2538070976734161,-0.0322202406164904,-0.0229728147475576,-0.047965482263889,-0.1384065151214599,-0.1859375834465026,-0.9063892364501952,437,83,22741,12771
23.9,1788345590692,5.464788913726807,4.704225540161133,0.0011957177193835,-0.0030748732388019,0.8562309145927429,0.516582727432251,0.1875435967529151,0.0001250826493958,2.974116942230104e-05,-0.0216005593538284,-0.0255099404603242,-0.048937477171421,-0.0027397265657782,0.0014813188463449,-0.9678989052772522,0.2513206899166107,-0.0030490256620472,0.0260672772312112,-0.0672626041186711,-0.0513206720352172,-0.263801097869873,-0.0965185165405273,349,113,21354,13629
24.0,1788345590792,5.267605781555176,4.901408672332764,0.0007869752589613,-0.002897604368627,0.8553462624549866,0.5180480480194092,0.1920646894266708,-0.0082189997792397,-7.402261549932909e-05,0.000339894904755,0.0194203294813632,-0.0440890826284885,-0.003040718846023,0.0010107336565852,-0.9687095284461976,0.248176634311676,0.0094346443164154,-0.0075015594018276,-0.0651300584131364,-0.1574776768684387,0.3829095959663391,-0.6867523193359375,145,127,16519,15636
24.1,1788345590892,4.563380241394043,6.2253522872924805,0.0009464710019528,-0.0010009994730353,0.853975772857666,0.5203109383583069,0.1751295249964044,0.0136510527596778,4.035576318295209e-05,0.0575548373162746,0.0515737421810627,-0.0141444196924567,-0.0004192097112536,-0.0010995343327522,-0.9678958654403688,0.2513489723205566,0.0499473707162461,-0.0040380342631313,0.1422172511038899,-0.0709530115127563,-0.1214341521263122,0.4069671630859375,185,111,15365,14641
24.2,1788345590992,4.535211086273193,5.77464771270752,0.0010683558648452,0.0010921333450824,0.8571364283561707,0.5150871872901917,0.1779451836206893,0.0021885784082873,-6.383075767518281e-05,0.0241812821477651,0.0280671678483486,0.1233796775341034,-0.0005465745925903,-0.001607266254723,-0.9666258096694946,0.2561870217323303,-0.0121038494243418,-0.019756468660722,0.0427716264414152,-0.202639102935791,-0.2875799536705017,1.104893684387207,141,63,15671,17260
24.3,1788345591092,4.14084529876709,5.690140724182129,0.001166557893157,0.0012520466698333,0.8593575954437256,0.5113722681999207,0.1792041130239086,-0.0016583641424319,-9.598441927990503e-05,0.0094299493357539,0.0284567102789878,0.104546271264553,8.745118975639343e-05,-0.0016833208501338,-0.9657631516456604,0.2594198286533355,-0.000558483813436,0.0089979606714458,0.1469960046954868,-0.3336890339851379,0.2285083532333374,0.2446451187133789,220,123,16167,16695
24.4,1788345591192,4.647887229919434,5.295774459838867,0.001286553684622,0.0010481254430487,0.8631002902984619,0.5050298571586609,0.1858017416160832,0.0030689574142782,2.0012507075296853e-05,-0.0105908531695604,-0.0062718479894101,0.0932990908622741,-0.0003063529729843,-0.0013162363320589,-0.9639309048652648,0.2661490738391876,0.0189657860489388,-0.0138372624948897,0.0317515546406493,-0.2586433291435241,-0.2007814049720764,0.2645435333251953,248,56,17219,14646
24.5,1788345591292,4.985915660858154,4.957746505737305,0.0014298290479928,0.0006363126449286,0.8649551272392273,0.5018468499183655,0.1755595281914674,0.0036320988550324,1.138182463331916e-05,-0.000284593203105,-0.0107894018292427,0.1178810447454452,-0.0001159077510237,-0.001440149731934,-0.9619843363761902,0.2731011211872101,0.0036604291721868,-0.0094838795044432,0.1196616900968165,0.188363492488861,-0.1716334819793701,-0.2089214324951172,286,102,18365,15221
24.6,1788345591392,4.619718074798584,5.577464580535889,0.0007935585454106,0.0009736773790791,0.8671821355819702,0.4979895353317261,0.1838201446787954,0.0008610636278849,-2.954973900584231e-05,-0.0070223305374383,0.0156285781413316,0.0493692345917224,0.0001891069114208,-0.0016082981601357,-0.9613490104675292,0.2753278315067291,0.0046973611088371,0.0340192782544092,0.0605078016024168,0.1240491867065429,0.225232183933258,-0.9456043243408204,304,146,18386,16125
24.7,1788345591492,4.507042407989502,4.8450703620910645,0.0010775090195238,0.0012848726473748,0.868738055229187,0.4952689111232757,0.1806257909099005,0.0012462299714715,-2.4903299553877622e-05,0.0031108539551496,0.0043685087002813,0.065687283873558,0.0006992053240537,-0.0016950238496065,-0.9601334929466248,0.2795358598232269,0.010800482356867,0.0108471286701995,0.1316515735510978,-0.1423227190971374,0.1149473786354065,-0.5153017044067383,456,115,20911,15838
24.8,1788345591592,4.3380279541015625,5.154929637908936,0.0010715421522036,0.0015393301146104,0.8715793490409851,0.4902510046958923,0.1702293337888356,0.000256482212999,-6.0583836244266126e-06,0.0030852572526782,-0.0196382254362106,0.1055716797709465,0.0004878938198089,-0.0017807455733418,-0.9584535956382751,0.2852425873279571,-0.012246578246099,-0.0004926358142667,0.0934891622241172,-0.3002184629440307,0.2941622138023376,-0.0765361785888671,454,171,21614,17480
24.9,1788345591692,5.154929637908936,4.985915660858154,0.0007570903981104,0.0017396464245393,0.8747345209121704,0.484598696231842,0.1782983731117509,0.0026502541000244,-2.1984170943027533e-05,-0.0018210648559033,0.0064586335793137,0.1534498929977417,0.0003199307247996,-0.0016760230064392,-0.9570407271385192,0.2899487614631653,-0.0128845130522332,-0.0041882212534509,0.0389729414924339,-0.0101870894432067,-0.1267827749252319,-0.0796461105346679,538,53,24601,12815
25.0,1788345591792,5.126760482788086,4.676056385040283,0.000967041531112,0.0015548527007922,0.8754169344902039,0.4833650588989258,0.1766849220979087,0.0001111402736312,1.6800830141154949e-06,0.0,0.0,0.0,-0.0001564566045999,-0.0017119022086262,-0.957022488117218,0.2900087535381317,-0.0155275082525752,-0.0394395486211691,-0.0029556360761637,-0.1467978358268737,-0.1012341976165771,-0.1210269927978515,584,82,25786,13386
25.1,1788345591892,5.492957592010498,4.591549396514893,0.0020972229540348,-9.402167052030563e-06,0.8753421306610107,0.4834995567798614,0.1844164509640637,0.0003359883785679,0.0001462876477087,-0.0252026580274105,-0.0519656911492347,-0.013979559764266,-0.0029582800343632,-0.0006547914817929,-0.9581000804901124,0.286417543888092,-0.0340039952636714,-0.0251732864504691,-0.1154238022799728,-0.1424317955970764,-0.3654831647872925,-0.6159553527832031,496,92,24019,14487
25.2,1788345591992,5.521126747131348,5.295774459838867,0.0025688165333122,-0.0020175878889858,0.8725293278694153,0.4885508418083191,0.1807092043419779,-0.0040558191129861,6.092847980522771e-05,-0.0182128064334392,-0.0142322713509202,-0.1240619197487831,-0.0033299392089247,-0.0004932843148708,-0.9597732424736024,0.2807560861110687,0.0016991914522233,-0.0043647045589013,-0.1312216961031883,0.1292633414268493,-0.0374137759208679,-0.1724300384521484,336,120,20834,13874
25.3,1788345592092,6.0,4.169013977050781,0.0021355722565203,-0.001741632586345,0.8693689107894897,0.4941559433937073,0.1876213040269488,-0.004690553076407,-8.757091600337378e-05,-0.0006066494388505,0.0247353557497262,-0.1271681487560272,-0.0022977562621235,-0.0002156449481844,-0.9617527723312378,0.2739092409610748,0.0006040408757774,0.0230515985470937,-0.1987888859376167,-0.2898657917976379,0.0930137038230896,-0.1941490173339843,172,70,17544,13626
25.4,1788345592192,5.267605781555176,5.070422649383545,0.00166864215862,-0.0006359664257615,0.8652432560920715,0.5013490915298462,0.1775795887062362,0.0007500035149876,-3.007367336741896e-05,0.0348780564963817,0.033111460506916,-0.165307879447937,0.0016628671437501,-0.0023166695609688,-0.9643908143043518,0.2644661664962768,0.0819030516831011,0.0999061829520035,-0.1918342793778785,-0.0180392861366271,0.1694808006286621,-1.2619657516479492,166,166,17827,13709
25.5,1788345592292,5.323943614959717,4.507042407989502,0.0003239102079533,0.0024555018171668,0.8611301779747009,0.5083783864974976,0.1838511101086407,-0.0104783143974239,-0.0001386143505729,-0.003359897993505,0.0155691169202327,-0.1438256949186325,0.0022162245586514,-0.0020045042037963,-0.9655042886734008,0.2603702247142792,0.0160377432989452,0.0371792666657753,-0.0594432836988993,0.047947347164154,-0.1477358937263488,0.2671308517456054,179,105,17145,15991
25.6,1788345592392,5.408450603485107,4.8450703620910645,0.0002659008023329,0.0022137516643851,0.86007159948349,0.5101684331893921,0.1709692184627866,-0.0041477223213666,0.0001003875437101,-0.015734838321805,-0.0192171372473239,-0.0078175803646445,0.0004368862137198,-0.0009881639853119,-0.9655703902244568,0.2601395547389984,-0.0223468360839455,-0.0145237740592182,-0.0324536692228483,-0.1429920196533203,-0.023004412651062,-0.4943962097167969,241,28,18322,14630
25.7,1788345592492,5.154929637908936,5.690140724182129,0.0009125579381361,0.0009131645783782,0.8596528172492981,0.5108770132064819,0.1804205103451955,-0.0016900835964921,-4.397417196660234e-06,0.0040230685845017,-0.0153510309755802,-0.0518260039389133,0.0004890747368335,-0.0010599084198474,-0.966135799884796,0.2580314874649048,-0.0029940513003354,0.011814276324169,-0.043403210138881,-0.2452067136764526,-0.089042067527771,-0.1014347076416015,269,165,18197,12735
25.8,1788345592592,5.380281925201416,5.380281925201416,0.0001461553329136,0.0010157080832868,0.8589944839477539,0.5119837522506714,0.1815885527672242,-0.0016023095258522,-1.911555168949209e-05,-0.0101101426407694,0.0097284065559506,-0.0072455466724932,2.4121254682540894e-06,-0.0009864512830972,-0.9662486910820008,0.2576090395450592,-0.0043083587311808,-0.0052499012136965,-0.0068896116556086,-0.1474856734275818,0.0728684067726135,-0.5550909042358398,253,126,17891,12660
25.9,1788345592692,5.042253494262695,4.760563373565674,0.0007921168580651,0.0007955086184665,0.8584474325180054,0.5129003524780273,0.1797182807598893,-0.0035391779745585,-1.2477432751110433e-05,0.0032461765222251,-0.0011029192246496,-0.0322705022990703,-5.191098898649216e-05,-0.0010844059288501,-0.9666481018066406,0.2561059296131134,-0.0011348432878817,-0.0251656049475292,-0.0014542447499944,-0.1590799689292907,0.0750210881233215,0.3124332427978515,310,135,19892,14656
26.0,1788345592792,4.2816901206970215,4.901408672332764,0.0007092693122103,0.0007366024656221,0.8581594824790955,0.5133822560310364,0.170847564589549,-0.0015734853000299,3.768059581016255e-05,-0.0020000836811959,-0.004447407554835,0.0080370288342237,-1.1276453733444214e-05,-0.0011823205277323,-0.966468334197998,0.256782978773117,0.0009780372504632,0.0100747763757396,0.0191014176151132,0.0863659977912902,0.0739758014678955,-0.394906997680664,434,56,22049,15272
26.1,1788345592892,1.6901408433914185,4.169013977050781,0.0007164014969021,0.000953429902438,0.8598642349243164,0.510521411895752,0.1532831587118844,0.0058747479698496,2.684545920432962e-05,0.0027472202200442,0.0038942331448197,0.1092933639883995,3.111734986305237e-05,-0.0013810684904456,-0.9636819958686828,0.2670488953590393,0.0029047578914223,0.0004246212715958,0.2989115383506717,-0.8858571648597717,0.2997770309448242,-0.3467483520507812,355,17,12292,10629
26.2,1788345592992,-0.1971831023693084,3.549295663833618,0.0010828003287315,0.0008322550565935,0.866533100605011,0.4991178810596466,0.0890215120462802,0.005227259534867,4.3110054200582975e-06,-0.0052119805477559,-0.0087064914405345,0.3495958745479584,-0.0001278482377529,-0.0012563439086079,-0.9578917026519777,0.287127137184143,-0.003709394884684,0.013155600100675,0.6158679475344213,-0.3720499277114868,0.2113994359970092,0.1456813812255859,32,93,0,9893
26.3,1788345593092,-1.8309859037399288,2.507042169570923,0.0008574375533498,0.0006561258924193,0.8794862031936646,0.4759230613708496,0.0584696425604265,0.0042690842445462,-1.1833673569256716e-05,-0.0078214043751358,0.0050588678568601,0.5498151183128357,6.538163870573044e-05,-0.0008891643956303,-0.9508351683616638,0.3096961975097656,-0.0065633839354493,0.0144566150542841,0.4879845379931479,-0.9412553906440736,0.1911309361457824,-0.0491600036621093,512,61,-10368,7693
26.4,1788345593192,-1.211267590522766,2.3380281925201416,0.0006310220924206,0.0005108480108901,0.8866434097290039,0.4624530375003814,0.055021330445809,-0.000622332674432,-7.354642036132479e-06,-0.0076807248406112,0.0048690643161535,0.5123206377029419,-0.0005916785448789,-0.0003361860290169,-0.945875883102417,0.3245278298854828,-0.0347169380506974,-0.0045385837297821,0.5038192985496386,-1.126656174659729,-0.0993026494979858,0.3014335632324219,684,64,-20792,8558
26.5,1788345593292,-2.507042169570923,2.760563373565674,0.0016062258509919,-0.0016867844387888,0.9066649675369264,0.4218450784683227,-0.0062993320539999,0.0052567577288239,-5.691238589686424e-06,-0.0117107331752777,-0.0242872256785631,0.676084578037262,-0.0023290514945983,2.684257924556732e-05,-0.9348859786987304,0.3549405634403229,-0.0079665052746412,-0.0256881975458221,0.6856487407166088,-0.2667382955551147,-0.3326634168624878,0.1184759140014648,598,29,-19278,7233
26.6,1788345593392,-2.450704336166382,2.3943662643432617,0.0016109952703118,-0.0015554499113932,0.914437770843506,0.4047204256057739,-0.0007715013720592,-0.0029116161597438,7.69366048882866e-07,0.0064687482081353,0.001387225696817,0.7522628307342529,-0.0020904894918203,-1.0528601706027985e-05,-0.9190224409103394,0.3941996097564697,-0.0003439440855073,0.0069263035840935,0.7939519200908389,-0.2928925156593323,-0.1154215335845947,0.4084529876708984,595,48,-20083,8776
26.7,1788345593492,-2.366197109222412,2.5915493965148926,0.0013493698788806,-0.0015924273757264,0.9283850193023682,0.3716139793395996,0.0031563265870822,0.0005059123928834,3.069352724283672e-07,-0.0064604934304952,0.0018273848108947,0.7999252080917358,-0.002217954955995,7.881596684455872e-05,-0.9022270441055298,0.4312557280063629,0.0055818147935856,-0.0059233413325519,0.7027517384442767,-0.2210310697555542,0.1858782172203064,-0.2368631362915039,414,57,-17243,5973
26.8,1788345593592,-2.507042169570923,2.0,0.0015482525341212,-0.0017068627057597,0.940966010093689,0.3384932279586792,-0.0029656616623072,0.0047566088434683,1.3999263766491322e-07,0.0030856700614094,-0.006420153658837,0.71282559633255,-0.0023748567327857,-0.000144449993968,-0.8848987817764282,0.4657772779464721,0.0059614780206143,-0.0064171754697873,0.670741107112997,-0.1611611247062683,0.124872863292694,0.4095945358276367,361,116,-15082,7967
