time_s,timestamp_ms,wheel_vels__velocity_left,wheel_vels__velocity_right,odom__orient_x,odom__orient_y,odom__orient_z,odom__orient_w,odom__lin_x,odom__lin_y,odom__lin_z,odom__ang_x,odom__ang_y,odom__ang_z,imu__orient_x,imu__orient_y,imu__orient_z,imu__orient_w,imu__angvel_x,imu__angvel_y,imu__angvel_z,imu__acc_x,imu__acc_y,imu__acc_z,wheel_status__current_ma_left,wheel_status__current_ma_right,wheel_status__pwm_left,wheel_status__pwm_right
0.0,1788527698935,0.0,0.0,-0.0048482976853847,0.0003016011323779,0.4219465553760528,0.9066076874732972,0.0,0.0,0.0,0.0,0.0,0.0,-0.0045263264328241,0.0017008138820528,0.1204636171460151,0.9927059412002563,-4.6464462508225696e-05,-0.0001412767735075,-0.0010708921566541,-0.0006566643714904,0.0012983679771423,-0.0028209686279296,0,0,0,0
0.1,1788527699035,0.0,0.0,-0.0048482976853847,0.0003016011323779,0.4219465553760528,0.9066076874732972,0.0,0.0,0.0,0.0,0.0,0.0,-0.0045263264328241,0.0017008138820528,0.1204636171460151,0.9927059412002563,-4.6464462508225696e-05,-0.0001412767735075,-0.0010708921566541,-0.0006566643714904,0.0012983679771423,-0.0028209686279296,0,0,0,0
0.2,1788527699135,0.0,0.0,-0.0048482976853847,0.0003016011323779,0.4219465553760528,0.9066076874732972,0.0,0.0,0.0,0.0,0.0,0.0,-0.0045263264328241,0.0017008138820528,0.1204636171460151,0.9927059412002563,-4.6464462508225696e-05,-0.0001412767735075,-0.0010708921566541,-0.0006566643714904,0.0012983679771423,-0.0028209686279296,0,0,0,0
0.3,1788527699235,0.0,0.0,-0.0048482976853847,0.0003016011323779,0.4219465553760528,0.9066076874732972,0.0,0.0,0.0,0.0,0.0,0.0,-0.0045263264328241,0.0017008138820528,0.1204636171460151,0.9927059412002563,-4.6464462508225696e-05,-0.0001412767735075,-0.0010708921566541,-0.0006566643714904,0.0012983679771423,-0.0028209686279296,0,0,0,0
0.4,1788527699335,0.0,0.0,-0.0048482976853847,0.0003016011323779,0.4219465553760528,0.9066076874732972,0.0,0.0,0.0,0.0,0.0,0.0,-0.0045263264328241,0.0017008138820528,0.1204636171460151,0.9927059412002563,-4.6464462508225696e-05,-0.0001412767735075,-0.0010708921566541,-0.0006566643714904,0.0012983679771423,-0.0028209686279296,0,0,0,0
0.5,1788527699435,0.0,0.0,-0.0048482976853847,0.0003016011323779,0.4219465553760528,0.9066076874732972,0.0,0.0,0.0,0.0,0.0,0.0,-0.0045263264328241,0.0017008138820528,0.1204636171460151,0.9927059412002563,-4.6464462508225696e-05,-0.0001412767735075,-0.0010708921566541,-0.0006566643714904,0.0012983679771423,-0.0028209686279296,0,0,0,0
0.6,1788527699535,0.0,0.0,-0.0048482976853847,0.0003016011323779,0.4219465553760528,0.9066076874732972,0.0,0.0,0.0,0.0,0.0,0.0,-0.0045263264328241,0.0017008138820528,0.1204636171460151,0.9927059412002563,-4.6464462508225696e-05,-0.0001412767735075,-0.0010708921566541,-0.0006566643714904,0.0012983679771423,-0.0028209686279296,0,0,0,0
0.7,1788527699635,0.0,0.0,-0.0048482976853847,0.0003016011323779,0.4219465553760528,0.9066076874732972,0.0,0.0,0.0,0.0,0.0,0.0,-0.0045225294306874,0.0017615417018532,0.1204315796494484,0.992709755897522,0.000226587054278,0.0025922057976175,0.0007939833008228,0.0040062665939331,-0.0140407681465148,0.0150489807128906,0,0,0,0
0.8,1788527699735,0.0,0.0,-0.0048482976853847,0.0003016011323779,0.4219465553760528,0.9066076874732972,0.0,0.0,0.0,0.0,0.0,0.0,-0.0045192316174507,0.0017663426697254,0.1204204633831977,0.9927111268043518,-0.0004320197141549,0.00058647462321,-0.0012982200843621,0.0131282210350036,-0.0126286745071411,-0.017333984375,0,0,0,0
0.9,1788527699835,0.0,0.0,-0.0048482976853847,0.0003016011323779,0.4219465553760528,0.9066076874732972,0.0,0.0,0.0,0.0,0.0,0.0,-0.0045034615322947,0.0017619831487536,0.1204779520630836,0.992704212665558,0.0008965982279118,-0.0014680204860946,0.0015938116687221,0.0109419822692871,0.0256327390670776,-0.0297231674194335,0,0,0,0
1.0,1788527699935,0.0,0.0,-0.0048482976853847,0.0003016011323779,0.4219465553760528,0.9066076874732972,0.0,0.0,0.0,0.0,0.0,0.0,-0.0044899135828018,0.0017930222675204,0.1204475164413452,0.9927079677581788,0.0009522721027918,0.0003487976786105,-4.950834136134168e-05,-0.0071039795875549,-0.0286618471145629,-0.0074119567871093,0,0,0,0
1.1,1788527700035,0.0,0.0,-0.0048482976853847,0.0003016011323779,0.4219465553760528,0.9066076874732972,0.0,0.0,0.0,0.0,0.0,0.0,-0.0045017767697572,0.0017788428813219,0.1204185560345649,0.9927114844322203,-0.0003119357299227,0.0011400715594554,-0.0017065030462895,-0.0201959013938903,-0.0211451053619384,-0.0203533172607421,0,0,0,0
1.2,1788527700135,0.0,0.0,-0.0048482976853847,0.0003016011323779,0.4219465553760528,0.9066076874732972,0.0,0.0,0.0,0.0,0.0,0.0,-0.0044987751170992,0.0017473576590418,0.1204363256692886,0.9927093386650084,-7.732209182529291e-06,-0.0024559165263766,-0.0010161019555831,0.0476478934288024,-0.0265941619873046,0.0123748779296875,0,0,0,0
1.3,1788527700235,0.0,0.0,-0.0048482976853847,0.0003016011323779,0.4219465553760528,0.9066076874732972,0.0,0.0,0.0,0.0,0.0,0.0,-0.0045047737658023,0.0017062379047274,0.1204319819808006,0.9927098751068116,-0.0003523699464292,0.0005436418702414,0.0010804044146512,-0.0250651836395263,0.0193659663200378,-0.0166664123535156,0,0,0,0
1.4,1788527700335,0.0,0.0,-0.0048119761049747,0.0002373164752498,0.4219269156455993,0.9066170454025269,0.0,0.0,0.0,0.0,0.0,0.0,-0.0044960798695683,0.0017159087583422,0.120392769575119,0.9927146434783936,-7.511193917786859e-05,0.0005405138211189,-0.0013923593573235,-0.0013758540153503,0.0048479437828063,-0.0133476257324218,0,0,0,0
1.5,1788527700435,0.0,0.0,-0.0048119761049747,0.0002373164752498,0.4219269156455993,0.9066170454025269,0.0,0.0,0.0,0.0,0.0,0.0,-0.0045053558424115,0.0017187064513564,0.1204264536499977,0.9927105903625488,-0.0006670593969445,-0.0009691083154399,0.0003251592702339,-0.0101285576820373,0.021582543849945,-0.0277376174926757,0,0,0,0
1.6,1788527700535,0.0,0.0,-0.0048119761049747,0.0002373164752498,0.4219269156455993,0.9066170454025269,0.0,0.0,0.0,0.0,0.0,0.0,-0.0045235017314553,0.0017127450555562,0.120388276875019,0.9927151203155518,-0.0009373133491658,-0.0001794157127849,-0.0019352273804583,0.009142518043518,0.0037530064582824,0.0080766677856445,1,0,0,0
1.7,1788527700635,0.0,0.0,-0.0048119761049747,0.0002373164752498,0.4219269156455993,0.9066170454025269,0.0,0.0,0.0,0.0,0.0,0.0,-0.0045373877510428,0.0017147967591881,0.1203658580780029,0.992717742919922,-0.0002870055138237,-0.0007327005099834,-1.985511445180367e-05,-0.017091155052185,0.0073903799057006,0.0024805068969726,0,0,0,0
1.8,1788527700735,0.0,0.0,-0.0048119761049747,0.0002373164752498,0.4219269156455993,0.9066170454025269,0.0,0.0,0.0,0.0,0.0,0.0,-0.004565130919218,0.0017191106453537,0.1203184202313423,0.9927234053611756,-0.0005616898857097,0.0002064510269452,-0.0021712035902704,0.0047752857208251,-0.0325207710266113,0.0206031799316406,3,0,0,0
1.9,1788527700835,0.0,0.0,-0.0048119761049747,0.0002373164752498,0.4219269156455993,0.9066170454025269,0.0,0.0,0.0,0.0,0.0,0.0,-0.0045622894540429,0.0017356574535369,0.1203785613179206,0.9927161335945128,-0.0007048362498153,-0.0001685800426264,0.001196238426051,0.0266752839088439,0.0318665504455566,0.0302019119262695,1,0,0,0
2.0,1788527700935,0.0,0.0,-0.0048119761049747,0.0002373164752498,0.4219269156455993,0.9066170454025269,0.0,0.0,0.0,0.0,0.0,0.0,-0.0045649660751223,0.0017592115327715,0.1203480064868927,0.9927197694778442,-3.5832740538213384e-05,0.0008426225491137,0.0015817659747001,0.0109230875968933,-0.0142194032669067,-0.0067176818847656,0,0,0,0
2.1,1788527701035,0.0,0.0,-0.0048119761049747,0.0002373164752498,0.4219269156455993,0.9066170454025269,0.0,0.0,0.0,0.0,0.0,0.0,-0.0045649660751223,0.0017592115327715,0.1203480064868927,0.9927197694778442,-3.5832740538213384e-05,0.0008426225491137,0.0015817659747001,0.0109230875968933,-0.0142194032669067,-0.0067176818847656,0,0,0,0
2.2,1788527701135,0.0,0.0,-0.0048119761049747,0.0002373164752498,0.4219269156455993,0.9066170454025269,0.0,0.0,0.0,0.0,0.0,0.0,-0.0045799640938639,0.0017561810091137,0.1203158050775528,0.9927235245704652,-0.001758358053257,-0.0003520059218132,-0.0019748952795023,0.0144539475440979,0.0193052291870117,0.0119514465332031,0,0,0,0
2.3,1788527701235,0.0,0.0,-0.0048119761049747,0.0002373164752498,0.4219269156455993,0.9066170454025269,0.0,0.0,0.0,0.0,0.0,0.0,-0.004611512646079,0.001791838556528,0.1203070878982544,0.992724359035492,-0.0005367756398994,-0.0013799559185997,-0.000375706568084,-0.0005091428756713,0.0003445744514465,-0.0089836120605468,1,0,0,0
2.4,1788527701335,0.0,0.0,-0.0049387491308152,0.0002952843206003,0.4218275845050812,0.9066625833511353,0.0,0.0,0.0,0.0,0.0,0.0,-0.0046249004080891,0.0018015028908848,0.1202553808689117,0.9927305579185486,0.0015963275994522,3.594600472841153e-05,0.002013847570128,-0.0145185589790344,-0.0082058906555175,0.0040054321289062,8,0,0,0
2.5,1788527701435,0.0,0.0,-0.0049319504760205,0.0002544906456023,0.4217868745326996,0.9066815376281738,-0.0002529667787673,-1.97869008191221e-05,-7.27317256110297e-08,-0.0003154020232614,-0.0011435304768383,-0.0013010377297177,-0.0046326396986842,0.0017667822539806,0.1202308908104896,0.992733597755432,-0.0008282866391776,0.0002621854251372,-0.0013560919765051,0.0156047344207763,-0.0372003316879272,0.0112943649291992,8,0,0,0
2.6,1788527701535,0.0,0.0,-0.0049638347700238,0.0002693093847483,0.421779990196228,0.9066845774650574,8.166346818209828e-05,-9.695466046143666e-05,-9.58617050643664e-08,-0.0002064671425614,0.0015551761025562,0.0009839265840128,-0.0046449853107333,0.0017907693982124,0.1202742233872413,0.9927282333374025,-9.603416567811138e-05,-0.0007701175658875,-0.0009309094527835,0.014729619026184,0.019970417022705,-0.0148849487304687,4,0,0,0
2.7,1788527701635,0.0,0.0,-0.0049974429421126,0.0002681025071069,0.4217462539672851,0.9067001342773438,-0.0002185014667062,0.0002594668489502,6.22430349927371e-08,-0.0011103925062343,0.0005505284061655,-0.0025799195282161,-0.004647240974009,0.0018153861165046,0.1202595606446266,0.992729902267456,0.0009509252619133,0.0003355208176461,0.0022422663630349,-0.012703001499176,0.0052162408828735,-0.0042428970336914,3,0,0,0
2.8,1788527701735,0.0,0.0,-0.0050278040580451,0.0003096807049587,0.4217592477798462,0.9066939353942872,-8.01161597645123e-05,9.512362064534644e-05,8.843628309779573e-08,-0.0010523335076868,0.0015447931364178,-0.0009283054969273,-0.0046786097809672,0.0018692752346396,0.1202333644032478,0.9927328824996948,0.0005454194727457,0.0011236659611652,0.0001755288655105,-0.0001798868179321,-0.0307886600494384,0.0101709365844726,8,0,0,0
2.9,1788527701835,0.0,0.0,-0.0050218072719872,0.000322634470649,0.421774297952652,0.9066869020462036,5.7409133208899015e-05,-6.815831078577756e-05,-3.47693239957495e-08,0.0004273122467566,0.0003596981987357,0.0006566283409483,-0.0046861190348863,0.0018981983885169,0.1202266067266464,0.992733597755432,-0.0005016359375922,0.0008312324011011,-0.0018452983489945,-0.017854630947113,-0.0055352449417114,-0.0223369598388671,8,0,0,0
3.0,1788527701935,0.0,0.0,-0.0050321277230978,0.0003558342577889,0.4217335283756256,0.9067058563232422,-0.0001021869057535,0.000121321360323,-1.6121373119915805e-07,0.0005608722567558,-0.0001347426732536,-0.001192592550069,-0.0046404059976339,0.0018852343782782,0.120220847427845,0.9927346110343932,0.0010567654453612,0.0001914828387569,0.0010410568509693,-0.0089555978775024,0.0116255283355712,-0.0079078674316406,5,0,0,0
3.1,1788527702035,0.0,0.0,-0.0050188130699098,0.0003487587673589,0.4217217564582824,0.9067112803459167,-0.0001033820421518,0.0001227345054773,-3.419071851164394e-08,-0.0007318241987377,4.518970672506839e-05,-0.0012059706496074,-0.0046730265021324,0.0018692379817366,0.1201831400394439,0.9927390217781068,0.0001764060902413,-0.0011482360026265,-2.1378264555385148e-05,-0.0181747674942016,0.0019168257713317,-0.0104751586914062,5,0,0,0
3.2,1788527702135,0.0,0.0,-0.00499032670632,0.0003076600842177,0.4217518270015716,0.9066975712776184,0.0001005077399459,-0.0001193093516043,2.3300490949644296e-08,0.0003555058792699,-0.0008258447633124,0.0011794590391218,-0.0046556834131479,0.00185526907444,0.1201823279261589,0.9927392601966858,-0.0005628522477527,0.0010199962868796,-0.0014272982703095,-0.0031031966209411,-0.0485779047012329,-0.0028352737426757,7,0,0,0
3.3,1788527702235,0.0,0.0,-0.0050082923844456,0.0003356693778187,0.4217159152030945,0.906714141368866,-7.017630674393662e-05,8.330593856887276e-05,1.0059064816251509e-07,-0.0003607170947361,0.0012083424953743,-0.0008193005342036,-0.0046373000368475,0.0018048109486699,0.1202238872647285,0.9927343726158142,-0.0002675932437586,-0.0027262655596499,-0.0002083735344611,0.0206620693206787,0.0215552449226379,0.0032205581665039,6,0,0,0
3.4,1788527702335,0.0,0.0,-0.004952706862241,0.0002493894426152,0.4217184484004974,0.9067132472991944,-0.0001327830236288,0.0001576474448304,9.669695065844006e-09,-0.0002363110834266,-0.0015914012910798,-0.0015835202066227,-0.0046291295439004,0.0018051071092486,0.1201758161187172,0.9927402138710022,0.0008547384721641,0.0011006987109962,0.0003579700817311,-0.0209084153175354,0.0029507279396057,0.0033903121948242,6,0,0,0
3.5,1788527702435,0.0,0.0,-0.0049838125705718,0.000268344534561,0.4217161536216736,0.906714141368866,2.507051227785332e-05,-2.975616715604843e-05,-1.4284059882960262e-07,-0.0011085814330726,-0.0001350922248093,0.0003027677012141,-0.004670132882893,0.0018164301291108,0.1201441437005996,0.9927438497543336,-0.0004633984456663,0.0012485279946261,-0.0017557040241361,-0.0055286884307861,0.0068601369857788,-0.0264186859130859,4,0,0,0
3.6,1788527702535,0.0,0.0,-0.0050294334068894,0.0002847507130354,0.4217025339603424,0.9067202806472778,8.298847712905134e-05,-9.849475757891197e-05,1.1839957321669125e-07,-0.0008929015020839,0.000582564913202,0.0009790749754756,-0.0046837152913212,0.0017839791253209,0.1201671212911605,0.9927409887313844,0.0001236813795544,-0.0025498706170451,5.506744270280261e-05,0.0014684796333312,0.0117121934890747,0.0096321105957031,6,0,0,0
3.7,1788527702635,0.0,0.0,-0.0050147650763392,0.0002478924579918,0.4216665625572204,0.9067370295524596,-0.0001197161137876,0.0001420929681493,1.3146831267678884e-07,-0.000341651670169,-0.0002838529762811,-0.0014003058895468,-0.0046616792678833,0.001787788234651,0.1201471760869026,0.9927434921264648,0.0007167408518853,-0.0017533065166334,0.0012268449971218,0.0145135521888732,-0.0069149136543273,-0.0122098922729492,8,0,0,0
3.8,1788527702735,0.0,0.0,-0.0049560563638806,0.0002104138256981,0.4216788411140442,0.9067316055297852,4.217375951611328e-05,-4.377563529141045e-05,6.453740859728977e-08,0.0006334198988042,-0.0027248729020357,0.000444772769697,-0.0046447115018963,0.0017229942604899,0.1201183944940567,0.9927471876144408,0.0001257646105356,-0.0013270666173194,-0.0016286711984052,-0.0046400427818298,0.0084807872772216,0.0039052963256835,6,0,0,0
3.9,1788527702835,0.0,0.0,-0.004930171649903,0.0002085240557789,0.4216721057891845,0.9067350029945374,7.602627984681459e-05,-8.294822930607625e-05,-9.19825856234243e-08,0.0006468253559432,-5.441711618914269e-05,0.0008314437582157,-0.0046160137280821,0.0017330609261989,0.1201426535844802,0.9927444458007812,0.0005812139392519,0.0005014064988389,0.000872635413233,0.0033032894134521,0.0139200687408447,-0.0235557556152343,9,0,0,0
4.0,1788527702935,0.0,0.0,-0.0049328180029988,0.0002062963321805,0.4216561913490295,0.9067423939704896,1.2254235259897307e-05,-1.4540858839314404e-05,-7.234870446614836e-08,0.0006183187942951,-0.0001509766152594,0.0001331119856331,-0.0046120649203658,0.0017299866303801,0.120136559009552,0.9927452206611632,0.0013674920559595,0.0006944745088509,0.0018119258938908,0.007114291191101,0.0012800097465515,-0.0126705169677734,7,0,0,0
4.1,1788527703035,0.0,0.0,-0.0048879324458539,0.0002028098097071,0.4216518104076385,0.9067447185516356,-9.211771152851676e-05,0.0001093264208587,-8.013969966696255e-08,0.0006413633818738,-0.0009104360942728,-0.0010845242068171,-0.0045834984630346,0.0017225258052349,0.1200885251164436,0.992751121520996,0.0008237038630107,0.0010546120963422,-0.0013674809013432,-0.0042457580566406,-0.0140177607536315,0.0111541748046875,0,0,0,0
4.2,1788527703135,0.0,0.0,-0.0048916107043623,0.0002183787291869,0.4216299057006836,0.9067548513412476,-8.08348411609256e-05,9.592611347302292e-05,-1.097859547307464e-07,0.0001279657444683,0.000614725111518,-0.0009373323991894,-0.0045730443671345,0.001742954365909,0.120094783604145,0.992750346660614,-0.000344494605838,0.0008629066310493,-0.0020910937856042,0.0101640820503234,-0.0195987224578857,-0.0076913833618164,5,0,0,0
4.3,1788527703235,0.0,0.0,-0.0048882630653679,0.0002365622203797,0.4216184020042419,0.9067602157592772,-6.308561686086776e-05,7.48556024694908e-05,6.938018263646678e-08,-8.149998029693961e-05,-0.0001512191083747,-0.0007446873933076,-0.0045506777241826,0.0017248811200261,0.1201172694563865,0.9927478432655334,0.0010983357886019,-0.0008390428649252,0.0020605417851446,-0.0063039660453796,-4.166364669799805e-05,-0.0023193359375,6,0,0,0
4.4,1788527703335,0.0,0.0,-0.0048841489478945,0.0002213112311437,0.4216240644454956,0.9067575335502625,-0.0001170370488032,0.0001388856030685,7.570150563083716e-08,-0.0005128572811372,0.0002640687744133,-0.0013645543949678,-0.0045558409765362,0.0016839979216456,0.1201276257634162,0.9927465319633484,0.0007050188754078,-0.0020216241126784,0.0021158247489549,-0.0046956539154052,-0.0013068914413452,0.0013675689697265,6,0,0,0
4.5,1788527703435,0.0,0.0,-0.0048433654010295,0.0001661491114646,0.4216773509979248,0.906732976436615,0.0001335703399591,-0.0001510526925757,1.9220582873589754e-07,9.361432603327556e-06,-0.0018435526872053,0.0015094436239451,-0.0045396797358989,0.0016664136201143,0.120105966925621,0.992749273777008,0.0005727812159027,0.0009522308200563,-0.0014262328645662,-0.0189656019210815,-0.0327510833740234,-0.0224800109863281,5,0,0,0
4.6,1788527703535,0.0,0.0,-0.0048413821496069,0.0001819063909351,0.4216777682304382,0.9067327976226808,0.0001241212676328,0.0003263440255284,1.750317379984751e-07,-0.0005579845164902,0.0001934216415975,0.001507633482106,-0.0045542018488049,0.0016317069530487,0.1201103404164314,0.99274879693985,-0.0003834094305741,-0.0012673693503847,-0.0020638988844159,-0.0067229866981506,0.0169524550437927,0.0222101211547851,6,0,0,0
4.7,1788527703635,0.0,0.0,-0.0048365611582994,0.000154128530994,0.4216371476650238,0.9067516326904296,-0.0001205878161015,0.0001431075797392,1.1233924837925773e-07,-0.0001818528253352,0.0004107714630663,-0.0013975413748994,-0.0045418059453368,0.0016521262004971,0.1201477497816085,0.9927442669868468,0.0004863902690166,-0.0005857622236417,0.0022016501449785,0.0140104293823242,0.0044429898262023,0.0071649551391601,9,0,0,0
4.8,1788527703735,0.0,0.0,-0.0048809419386088,0.0001943339593708,0.4216477274894714,0.9067465662956238,-0.0001443688634325,0.000171341261717,2.52257913151065e-07,-0.0011905881110578,0.0020855471957474,-0.0016708660405129,-0.0045806476846337,0.0017115753144025,0.1200962886214256,0.9927502870559692,-0.0006385566466997,0.0024469456170801,-0.0021213083447759,-0.0155384540557861,-0.0329232215881347,0.0117683410644531,6,0,0,0
4.9,1788527703835,0.0,0.0,-0.0048719970509409,0.0002445185091346,0.421648234128952,0.9067464470863342,4.249596116111e-05,-0.0003412613725612,1.614709372914375e-07,0.0006275844061747,0.0004619159735739,0.0004225806042086,-0.0045582950115203,0.0017341524362564,0.1200717613101005,0.992753267288208,-0.0002582401861248,6.756017572056833e-05,-0.0012171041489203,-0.0121311545372009,0.009732961654663,-0.0400447845458984,8,0,0,0
5.0,1788527703935,0.0,0.0,-0.004873096011579,0.0002312024589627,0.4216219484806061,0.9067586064338684,-8.346587271554768e-05,9.9041833281348e-05,2.294155056721436e-07,-0.0002155074907932,-0.0003781927516683,-0.0009547306690365,-0.0045627849176526,0.0017213439568877,0.1201135888695716,0.992748200893402,-0.0001234344369998,-0.0005084104860651,0.0022881265298189,-0.007354199886322,0.009617805480957,0.0033483505249023,6,0,0,0
5.1,1788527704035,0.0,0.0,-0.0048617320135235,0.0002129833446815,0.4216611385345459,0.906740427017212,0.0001478962185173,-0.0001682420458162,9.054982754663607e-08,9.882752056000754e-05,-0.0008414284675382,0.0016878325259312,-0.0045422278344631,0.0017221299931406,0.1200976967811584,0.9927501678466796,0.0007634412993595,-0.0019293632992339,0.0013930082617555,-0.0057052969932556,0.0164383649826049,0.0110034942626953,3,0,0,0
5.2,1788527704135,0.0,0.0,-0.0048588402569293,0.0002149329520761,0.4216161370277405,0.9067614078521729,-6.177908977353667e-05,7.330450623280677e-05,5.194873930296273e-08,-0.0005315695889294,-0.0006357992533594,-0.0007333682151511,-0.0045481352135539,0.0017139427363872,0.1200842559337616,0.9927518367767334,-0.0004919146393058,-0.000531117579873,-0.000980624855779,-0.0093531012535095,0.0003315210342407,0.00726318359375,6,0,0,0
5.3,1788527704235,0.0,0.0,-0.0048723286017775,0.0002355348551645,0.4216019213199615,0.906767964363098,-5.524000062315952e-05,6.554107079859824e-05,2.0167520398702476e-08,-0.0001402029884047,0.0009761015535332,-0.0006226216210052,-0.0046032778918743,0.0017209695652127,0.12005116045475,0.9927555918693542,-0.0014289312639582,0.0001918044972847,-0.0013669695098689,0.0084962248802185,0.0065614581108093,0.0261430740356445,4,0,0,0
5.4,1788527704335,0.0,0.0,-0.0049088322557508,0.0002219927264377,0.4216020405292511,0.906767725944519,1.1103636836316243e-09,2.114601318813522e-09,-2.448037045917413e-07,-0.0012753006303682,0.0001022027427097,5.8755676946020685e-06,-0.0045927502214908,0.0016846600919961,0.1200900599360466,0.992750883102417,-0.0002359177742948,-0.0021201683116312,0.0004673839239798,-0.0136607885360717,0.0029365420341491,0.0055227279663085,7,0,0,0
5.5,1788527704435,0.0,0.0,-0.0049006971530616,0.0002011826727539,0.421636015176773,0.9067519903182985,0.0,0.0,0.0,0.0,0.0,0.0,-0.0046018566936254,0.0016630534082651,0.120044507086277,0.992756485939026,0.0001718139993938,-0.0005902521187641,-0.0004594858301683,0.0077909231185913,-0.0037679076194763,-0.0054311752319335,1,0,0,0
5.6,1788527704535,0.0,0.0,-0.0048535857349634,0.0001326375640928,0.4216004014015198,0.9067687392234802,2.7248988818894428e-05,-0.0004604281562255,5.32136224656071e-10,0.0010845345677807,-0.0019408953376114,0.0002394575421931,-0.0045947963371872,0.0016297865658998,0.1200218126177787,0.9927592277526855,-0.0009896285170098,0.0005678502894081,-0.0017211236890138,-0.0055106878280639,-0.0454969406127929,0.0096244812011718,5,0,0,0
5.7,1788527704635,0.0,0.0,-0.0048535857349634,0.0001326375640928,0.4216004014015198,0.9067687392234802,-7.562014358608447e-06,0.0004640591098109,-1.5019687248281309e-07,0.0,0.0,0.0,-0.0045827943831682,0.0016320366412401,0.1200704872608184,0.9927534461021424,0.000151590401283,-0.0006193750963044,0.0015757476962165,0.0018126368522644,0.0114653706550598,0.0186433792114257,3,0,0,0
5.8,1788527704735,0.0,0.0,-0.0048613185063004,0.0001287832856178,0.4216057658195495,0.9067661762237548,0.0001295151038165,-0.0001475415546249,1.7393718868533915e-08,0.0001684008893789,-0.0008373199962079,0.0014986146707087,-0.004604042507708,0.0016480358317494,0.1200646087527275,0.9927539825439452,-0.0001957681622793,-0.001025677586764,0.0019432446194219,0.0022023916244506,0.0042929649353027,0.0143909454345703,8,0,0,0
5.9,1788527704835,0.0,0.0,-0.0048880781978368,0.0001411854755133,0.4216083288192749,0.9067648649215698,9.344125960689974e-06,-1.1085371720231335e-05,-5.604423103551468e-08,-0.0007719955174252,0.0009127901284955,0.000118402960652,-0.0046131573617458,0.0016032177954912,0.1200489848852157,0.9927560091018676,-0.0003653375758915,4.00160172674682e-05,-0.0014705451444451,-0.0040122866630554,-0.0299459099769592,-0.0005464553833007,4,0,0,0
6.0,1788527704935,0.0,0.0,-0.0049233688041567,0.0001199366524815,0.42161825299263,0.9067600965499878,2.2827447378521385e-05,-0.0002268785314112,-2.718729761187996e-08,-0.000851300836075,-9.21912069316022e-05,0.0002302773209521,-0.0046131573617458,0.0016032177954912,0.1200489848852157,0.9927560091018676,-0.0003653375758915,4.00160172674682e-05,-0.0014705451444451,-0.0040122866630554,-0.0299459099769592,-0.0005464553833007,4,0,0,0
6.1,1788527705035,0.0,0.0,-0.0049190390855073,0.000106580206193,0.421570360660553,0.9067822694778442,-0.0001807508755803,0.0002144616914084,-8.498965128428509e-08,-6.341089465422556e-05,-0.0005464554997161,-0.0021070884540677,-0.0046131573617458,0.0016032177954912,0.1200489848852157,0.9927560091018676,-0.0003653375758915,4.00160172674682e-05,-0.0014705451444451,-0.0040122866630554,-0.0299459099769592,-0.0005464553833007,4,0,0,0
6.2,1788527705135,0.0,0.0,-0.0048835347406566,8.256954606622458e-05,0.4215876460075378,0.9067745208740234,5.7121407077003146e-05,-6.156153103225002e-05,-4.6054637400679735e-08,0.000738333154004,-0.0012338761007413,0.0006281375535763,-0.0046309093013405,0.0015557827427983,0.1199755892157554,0.9927648901939392,-0.000727560595052,-0.0011421506876755,-0.0025838380222932,0.0002173781394958,-0.0410569906234741,0.0148296356201171,7,0,0,0
6.3,1788527705235,0.0,0.0,-0.0048913918435573,5.631137173622847e-05,0.421525239944458,0.906803548336029,-0.000235172767416,0.0002789943405721,-5.2439355879912994e-08,-0.0007268621120601,-0.0008133793016895,-0.0027786551509052,-0.0047624558210372,0.0015850067138671,0.1218215450644493,0.9925393462181092,-0.0071299745035709,0.0021769560983096,0.0916053565460581,-1.196625590324402,0.8564651012420654,0.0755701065063476,161,155,-6298,6295
6.4,1788527705335,-3.014084577560425,3.3521127700805664,-0.0048991376534104,1.1331867426633837e-05,0.4346903860569,0.9005666375160217,-0.0051397726859792,0.0031452712614145,6.848443038101897e-07,0.0017487925942987,-0.0051990407519042,0.5853431820869446,-0.0045594936236739,0.001978070475161,0.1486252397298813,0.9888810515403748,0.0083507601271826,0.0238346891319183,0.9283887691758944,0.255898118019104,-0.1420192718505859,-0.0701847076416015,113,37,-11335,9548
6.5,1788527705435,-3.0422534942626958,3.0422534942626958,-0.0043672705069184,0.0028244275599718,0.4754389822483063,0.8797333240509033,0.0094872407710425,-0.0004656222316377,-1.4701504002366384e-05,0.0480740815401077,0.047057207673788,0.9598968625068665,-0.0035511879250407,0.0038460316136479,0.1728198081254959,0.9849395155906676,0.0499377775954564,0.0626278985598755,0.9816858729010772,-0.3324921131134033,-0.2230798006057739,0.1970119476318359,114,36,-10700,9093
6.6,1788527705535,-3.4084506034851074,3.239436626434326,-0.006217997521162,0.0022483034990727,0.5235041975975037,0.8519974946975708,-0.0120793988145191,-0.0102680145325053,1.0788831327696956e-05,-0.0625967606902122,0.0018999194726347,1.01936936378479,-0.0049140220507979,0.0042989859357476,0.2263728678226471,0.9740188121795654,-0.0702010690978565,0.0141479240182442,1.0257074166033733,-0.1923632621765136,0.0412094593048095,-0.1702394485473632,11,46,-9612,10044
6.7,1788527705635,-2.422535181045532,2.3380281925201416,-0.0054666106589138,1.274608075618744e-05,0.562701404094696,0.8266421556472778,0.0047948871570625,-0.0054483588337666,1.9762249018743487e-06,-0.0107322754338383,-0.0427858717739582,0.9504478573799132,-0.0052689975127577,0.0015377644449472,0.2859148979187011,0.9582393765449524,-0.0179034138633623,0.0125683370124613,0.9719868740872848,-0.0827009081840515,0.0159469246864318,0.020538330078125,13,13,-5845,6322
6.8,1788527705735,-3.239436626434326,3.1549296379089355,-0.0054660276509821,-0.0004090543370693,0.5810776948928833,0.8138296604156494,0.0055495493593726,-0.0026916986154567,-2.2487270701787258e-07,-0.0120076742023229,-0.0175653267651796,0.8756470680236816,-0.0052086552605032,0.0008253427222371,0.3147500455379486,0.9491599202156068,-0.0002632186501148,-0.0344718554715699,0.6560268756687822,0.0201576948165893,0.0325258374214172,-0.0846967697143554,119,107,-10159,10629
6.9,1788527705835,-3.521126747131348,3.3521127700805664,-0.0049787648022174,-0.0009668478742241,0.6342911124229431,0.773077666759491,0.0071533828817856,0.0038543848993012,1.3427552697636687e-06,-0.0027863483410328,-0.0155539195984601,1.0462390184402466,-0.0051652137190103,0.0009509800001978,0.3367332518100738,0.9415854811668396,0.0044010968624885,0.0070899425343375,0.8563537635691987,-0.7974953055381775,0.4207927584648132,0.4700040817260742,38,62,-10847,9993
7.0,1788527705935,-3.211267709732056,3.0985915660858154,-0.0049544610083103,-0.0008066564332693,0.6653546690940857,0.7465105652809143,0.010805984975307,0.0014389573146685,1.0659783124150074e-07,-0.0027590575627982,-0.006092061754316,0.9808958172798156,-0.004926205612719,0.0006546881049871,0.4345955848693847,0.9006119966506958,0.0049903589759875,-0.0077622970438576,0.9391643857568918,0.1650137305259704,-0.1931484937667846,0.1282854080200195,67,55,-10938,9834
7.1,1788527706035,-2.873239517211914,2.9577465057373047,-0.0047383694909513,-0.000834897859022,0.7041574120521545,0.7100275754928589,0.007301184492524,-0.0047007106481989,-5.126077724056626e-06,0.0049076974391937,0.0029333063866943,0.9547098875045776,-0.0047021731734275,0.0006196964532136,0.4518052041530609,0.8921040892601013,0.006555372221054,-0.0106725330934177,0.9728477351196771,0.0375157594680786,0.1788511276245117,-0.0494604110717773,88,54,-9393,8627
7.2,1788527706135,-2.5915493965148926,2.619718313217163,-0.0042691119015216,-0.0008408401627093,0.7353618144989014,0.6776608824729919,0.0055428202152595,-0.0097434585887155,-9.799353768096548e-07,-0.0005425653653219,-0.0159855149686336,0.8585035800933838,-0.0043354071676731,0.0003750007599592,0.508102297782898,0.8612858057022095,-0.0049553708493444,-0.0090649549806063,0.7184673867628324,0.249129831790924,-0.172260582447052,-0.1943826675415039,43,57,-7934,8162
7.3,1788527706235,-2.507042169570923,2.4788732528686523,-0.0043514827266335,-0.0008230753010138,0.7582469582557678,0.6519525051116943,0.0042642006603301,-0.0071785828149203,3.741989406276598e-07,-0.0008155875257216,0.0014641889138147,0.7315292954444885,-0.0044509414583444,0.0005551883950829,0.5300034284591675,0.847983717918396,-0.0062944418588192,-0.0003292932233309,0.7341786611949948,-0.1898655295372009,0.1826911568641662,-0.2735109329223633,93,56,-8525,7768
7.4,1788527706335,-2.450704336166382,2.5915493965148926,-0.0040819635614752,-0.0016483906656503,0.7848785519599915,0.6196339726448059,-0.0019035292124956,-0.0053637008384595,1.555862948887915e-06,-0.0112060876563191,-0.0210769213736057,0.7703694105148315,-0.004447360523045,-0.000563028268516,0.5681707262992859,0.8228985071182251,-0.0129214286043994,-0.0059256594091446,0.8619987373516844,-0.0987188816070556,0.1492628455162048,-0.0037603378295898,78,95,-8679,9297
7.5,1788527706435,-2.253521203994751,3.8309860229492183,-0.0039910725317895,-0.0022611876484006,0.808375358581543,0.588649570941925,0.0065352260965186,-0.0021403095198177,1.08879221735982e-06,-0.0094721410423517,-0.0123065244406461,0.7999091744422913,-0.0044460240751504,-0.0012606251984834,0.6105479001998901,0.791965901851654,-0.005854551529177,-0.0248963069465875,0.9946703690809724,-0.0190402269363403,0.0892344713211059,-0.0503921508789062,50,100,-7425,12077
7.6,1788527706535,-2.5352113246917725,4.0,-0.0037926756776869,-0.0032741359900683,0.8480339050292969,0.529918372631073,0.02562812671711,0.0007131169838299,5.435498873545885e-06,-0.0222054161131382,-0.0049782884307205,1.0166025161743164,-0.0046630520373582,-0.0021170675754547,0.6502912044525146,0.7596678137779236,-0.0159303120800451,-0.0110867132197678,1.0517223567502552,-0.0937820076942443,0.1203938126564025,0.0787525177001953,66,78,-8178,12194
7.7,1788527706635,-2.450704336166382,4.084506988525391,-0.0039157611317932,-0.0041653881780803,0.8614587187767029,0.507795512676239,0.027889873758264,-0.0108171955419038,1.1438719015549578e-05,-0.0343102030456066,-0.0195766128599643,1.030994534492493,-0.0053691007196903,-0.0029409239068627,0.6763694882392883,0.7365370988845825,-0.0199039832347174,-0.000452442173425,0.9248206178557734,0.1857942938804626,-0.1838234663009643,-0.2880859375,35,115,-8101,12560
7.8,1788527706735,-2.08450698852539,3.6619718074798575,-0.0040212832391262,-0.0041998699307441,0.8866245150566101,0.4624532759189605,0.0392999783914034,-0.0064477714195986,7.968781769120755e-07,0.0059221950359642,-0.0031757475808262,0.9244782328605652,-0.004909767769277,-0.0028445096686482,0.7121033072471619,0.7020516991615295,0.0025652249107709,-0.0158313382642744,0.8671860834308672,-0.4002925753593445,-0.0184959173202514,-0.0820789337158203,55,74,-7344,11030
7.9,1788527706835,-2.05633807182312,3.746478796005249,-0.0034057525917887,-0.0041093402542173,0.9046204686164856,0.426184594631195,0.0272441362453639,-0.0051846225667389,-8.577496572405507e-06,0.0092817451804876,-0.0087082721292972,0.8923267722129822,-0.0048566805198788,-0.002709156833589,0.7244015336036682,0.6893559098243713,0.0052728187530561,-0.0020546417469222,0.8826614953562922,-0.0159075856208801,0.0063800811767578,-0.4927625656127929,70,72,-8062,10680
8.0,1788527706935,-2.11267614364624,3.7183098793029785,-0.0028372013475745,-0.0037334419321268,0.9226022362709044,0.3857240974903106,0.0298588914507937,-0.0001458582063957,-1.662714223472312e-06,0.01121736317873,0.0010980387451127,0.878045916557312,-0.0038184290751814,-0.002567877061665,0.7633156180381775,0.6460094451904297,0.0119553729366357,-0.0057687159091484,0.942293758110886,-0.0698685646057128,0.1617030501365661,-0.2692823410034179,75,36,-8215,10665
8.1,1788527707035,-2.2253520488739014,3.690140962600708,-0.0015685979742556,-0.0033827563747763,0.9410117864608764,0.3383532166481018,0.0327485988175464,-0.0063278943420407,1.617197185210352e-05,0.0151377776637673,-0.0246181990951299,0.941195011138916,-0.0020411629229784,-0.0026851249858736,0.8034427762031555,0.5953723788261414,0.0081392889191628,-0.0242865982441304,0.8981750246324494,-0.2421744465827942,0.0443944334983825,-0.0644779205322265,57,50,-6832,11565
8.2,1788527707135,-1.2957746982574463,5.183098793029785,-0.0017938929377123,-0.0034737910609692,0.95260089635849,0.304197609424591,0.0260496320810087,-0.0014066838874457,-1.016875786499734e-05,-0.0193103644996881,0.0183438919484615,0.8968004584312439,-0.0028908066451549,-0.0026694303378462,0.8111009001731873,0.584892988204956,-0.0305350551696256,0.0411589154787745,0.8162560469998126,-0.0853314995765686,-0.2506303191184997,-0.4375143051147461,36,115,-5823,14510
8.3,1788527707235,-0.98591548204422,5.943662166595459,-0.0027906626928597,-0.0041662510484457,0.9678277969360352,0.2515636682510376,0.0730624832251076,0.0035200830557211,-5.295708664819414e-05,-0.0212059486657381,0.0174115318804979,1.0487847328186035,-0.0040709041059017,-0.0030597345903515,0.8485934138298035,0.5290210843086243,-0.007079307637412,2.026929223398016e-05,1.0303135876433864,1.4763208627700806,-0.2388979196548462,-0.1264533996582031,22,166,0,19751
8.4,1788527707335,1.97183096408844,8.647887229919434,-0.0024528172798454,-0.0044504692777991,0.9790264368057252,0.2036698013544082,0.1512802165986295,0.0041474443596924,-1.3372388137191002e-06,-0.008466544561088,-0.0100276777520775,0.9921576380729676,-0.0035348432138562,-0.0036959145218133,0.8782995343208313,0.4780835807323456,-0.0078707655598843,-0.0319964241418736,1.0082263564703104,-0.3337097764015198,0.0795000791549682,0.5745820999145508,23,55,6838,23141
8.5,1788527707435,1.5774648189544678,7.746479034423828,-0.0024833339266479,-0.0044903047382831,0.9889540076255798,0.1481335908174514,0.1832110703150668,0.0039203539902825,-2.1796216351607405e-05,-3.3856777008622885e-05,0.001046621822752,1.0397001504898071,-0.0040513966232538,-0.0036392295733094,0.9019438028335572,0.4318192303180694,-0.018265600494711,0.0054716771728138,1.1033418915307596,0.0555119514465332,0.304900586605072,-0.8081855773925781,84,18,6343,19128
8.6,1788527707535,1.211267590522766,5.070422649383545,-0.0028095906600356,-0.004747771192342,0.994575262069702,0.1038727760314941,0.1661757440873918,-0.004257147547939,2.0506953654484168e-05,-0.0041305311024188,-0.0018522688187658,0.945933759212494,-0.0041002547368407,-0.003649590536952,0.9139724969863892,0.4057390987873077,-0.0024269217760613,-0.0032180107201144,0.9386885544744132,-0.8631445169448853,-0.2294248342514038,0.2405204772949218,8,43,3688,10414
8.7,1788527707635,0.7605633735656738,3.436619758605957,-0.003360153408721,-0.0049748667515814,0.9973637461662292,0.0723160579800605,0.0895442308873704,0.0028628154273708,-4.125387500146895e-05,-0.005352372303605,0.0185132343322038,0.5483173131942749,-0.0050464086234569,-0.0036595137789845,0.93074768781662,0.3656090795993805,-0.0011535645306067,0.0091830330697573,0.2992185118548859,-0.6062870025634766,-0.0647988319396972,0.5180301666259766,29,45,2947,6838
8.8,1788527707735,0.0,0.0,-0.0037233245093375,-0.00505156442523,0.9983789324760436,0.0565692819654941,0.0331114942846727,-0.0024214734592542,-1.4129391431889486e-07,-0.000820699322503,0.0017698849551379,0.2348276376724243,-0.0049831513315439,-0.0037116017192602,0.9322361946105956,0.361797034740448,-0.0002249618575435,-0.0016435076297707,-0.0090388256099841,-0.2054172158241272,-0.0050299167633056,-0.0269985198974609,4,0,2118,0
8.9,1788527707835,0.0,0.0,-0.0035904294345527,-0.0050924690440297,0.9984211921691896,0.0558243580162525,-0.0034466000029779,-0.0009247406081146,1.2195790620676984e-07,-0.0007724783499725,-0.0028740975540131,-0.0314507223665714,-0.0049331113696098,-0.0037171421572566,0.9316228628158568,0.3633740246295929,0.0011285881218634,-0.0009574109796487,-0.0100615371684669,0.0407996177673339,0.0840062499046325,0.0613069534301757,8,0,0,0
9.0,1788527707935,0.0,0.0,-0.0035407810937613,-0.0050638178363442,0.9983563423156738,0.0569783821702003,-0.0013835335083639,0.0016105951646263,-9.792636992046468e-08,0.0006909747608006,-0.0002949030895251,-0.0160726774483919,-0.0049152430146932,-0.003740556538105,0.9316023588180542,0.3634265959262848,0.0003861287060134,-0.0008683557002457,-0.0018400472070342,-0.0137621164321899,0.0230308175086975,0.0910873413085937,7,0,0,0
9.1,1788527708035,0.0,0.0,-0.0035407810937613,-0.0050638178363442,0.9983563423156738,0.0569783821702003,0.0,0.0,0.0,0.0,0.0,0.0,-0.0049193063750863,-0.0037611722946166,0.9316022992134094,0.3634265065193176,-0.0010467717743777,-0.0002587324604959,-0.005435998878826,-0.0008575320243835,0.0149382948875427,0.0228538513183593,5,0,0,0
9.2,1788527708135,0.0,0.0,-0.0035407810937613,-0.0050638178363442,0.9983563423156738,0.0569783821702003,0.0,0.0,0.0,0.0,0.0,0.0,-0.0049237525090575,-0.0037194490432739,0.9316381216049194,0.3633352220058441,0.0018081331630519,-0.0013467400334366,0.0058213343110599,-0.0363901853561401,0.0321638584136962,0.0227613449096679,7,0,0,0
9.3,1788527708235,0.0,0.0,-0.0035407810937613,-0.0050638178363442,0.9983563423156738,0.0569783821702003,0.0,0.0,0.0,0.0,0.0,0.0,-0.0048650316894054,-0.0037386417388916,0.9316304922103882,0.3633552193641662,0.0007847973777447,0.0002640715457543,0.004626863068476,-0.0160486102104187,0.0320965647697448,0.0228824615478515,8,0,0,0
9.4,1788527708335,0.0,0.0,-0.0035407810937613,-0.0050638178363442,0.9983563423156738,0.0569783821702003,0.0,0.0,0.0,0.0,0.0,0.0,-0.0048784110695123,-0.0037610214203596,0.9315852522850036,0.3634706139564514,-0.0006281938788981,0.0010429364010704,-0.0038080811032127,0.0017816424369812,-0.003554880619049,0.0568656921386718,9,0,0,0
9.5,1788527708435,0.0,0.0,-0.0035407810937613,-0.0050638178363442,0.9983563423156738,0.0569783821702003,0.0,0.0,0.0,0.0,0.0,0.0,-0.0048475861549377,-0.0037158774212002,0.931626319885254,0.3633663058280945,0.0003624559322923,-0.001554001786958,-2.1713901844395576e-05,-0.0054831504821777,0.0189211368560791,0.0318307876586914,31,190,1371,6330
9.6,1788527708535,0.4507042169570923,3.126760482788086,-0.0033880833070725,-0.0050841304473578,0.9984838366508484,0.0547053590416908,0.0109183530523876,-0.0022747717328366,1.5076161456009708e-07,-0.0007597674266435,-0.006627298425883,0.0910923182964325,-0.0047985641285777,-0.0038403403013944,0.9351572394371032,0.3541794717311859,-0.004531745410437,-0.0070086745577951,0.3792747604843676,0.5341059565544128,0.0971359610557556,0.0804939270019531,143,216,6224,13392
9.7,1788527708635,1.5492957830429075,6.563380241394043,-0.0030891827773302,-0.0050234962254762,0.9993215203285216,0.036354549229145,0.0828290077713501,0.001665776906975,3.682085952914536e-05,0.0034324580337852,-0.0120847951620817,0.4304529130458832,-0.0042913425713777,-0.003878004848957,0.9460709691047668,0.3239080309867859,5.341537387620558e-05,-0.0098153040692639,0.6586494629381164,0.2137927412986755,0.4806027412414551,0.3273639678955078,45,199,6160,21288
9.8,1788527708735,2.11267614364624,8.338027954101562,-0.0022590178996324,-0.0051747490651905,0.9999840259552002,-8.634289770270698e-06,0.1379862359591575,0.0032052668390127,8.760885047379898e-05,-0.0065476172603666,-0.0328975059092044,0.7436514496803284,-0.0035710521042346,-0.0041616801172494,0.9563213586807252,0.2922659814357757,0.0044059774512752,-0.0224076007573124,0.8678713074688116,0.8704751133918762,0.3628687858581543,-0.6466770172119141,90,95,9202,22311
9.9,1788527708835,2.6478872299194336,7.774647712707519,0.0024961442686617,0.0049738427624106,-0.998950183391571,0.0454704686999321,0.1896695343102981,0.0036178068146933,6.897476534994635e-05,0.0038121789693832,0.0025294707156717,0.92471581697464,-0.0018380070105195,-0.004651341587305,0.9698437452316284,0.2436764240264892,0.0156678613669329,-0.0671764304340388,0.6849539137706404,-0.582231879234314,0.3945553302764892,8.40488052368164,16,71,8302,20798
10.0,1788527708935,2.5915493965148926,7.633802890777588,0.0009114787681028,0.0052740415558218,-0.9965770244598388,0.0824958980083465,0.1732720725378972,0.0057305292695489,2.87060829752766e-05,-0.0135087519884109,0.0144637338817119,0.7220748662948608,-0.0027909437194466,-0.0048845745623111,0.9764957427978516,0.2154633700847625,-0.0226843432910071,0.1302189766513985,0.6970307653219056,-0.0248098969459533,0.4278268814086914,0.781855583190918,66,62,7995,21323
10.1,1788527709035,2.760563373565674,7.408450603485107,0.0003497124416753,0.0061536505818367,-0.9935028553009032,0.113640658557415,0.1717884418089626,0.0051611131283485,-1.952281713419137e-05,-0.0288842730224132,-0.0229562576860189,0.6565639972686768,-0.0016473177820444,-0.0060059893876314,0.984492838382721,0.1753142029047012,-0.014136957955552,-0.0253587604932767,0.6911878493986925,-0.1087440848350524,0.3039354681968689,-0.2234220504760742,39,66,9340,19828
10.2,1788527709135,2.8450703620910645,7.267605781555176,-0.0013635704526677,0.0067526516504585,-0.9886969327926636,0.1497695595026016,0.1788366791180926,0.00918481203406,0.0001482238684126,-0.0284499116241931,-0.0434777587652206,0.6275665760040283,-0.0009889658540487,-0.006242630071938,0.9891754984855652,0.1466008871793747,0.0378188954349065,-0.0044695956852888,0.7284708222202392,-0.2322369813919067,0.8744111657142639,-0.067413330078125,67,91,8820,20439
10.3,1788527709235,3.2957746982574463,6.985915660858154,-0.000179293914698,0.0057803830131888,-0.9798499941825868,0.1996510177850723,0.1715111741063247,0.0027850449902891,-6.79475007358181e-05,0.003534554503858,0.0233076103031635,0.5761701464653015,-0.0015243906527757,-0.0055489623919129,0.9938451051712036,0.1106292977929115,0.0013710694740071,-0.0049848034459738,0.5357213331873197,0.0019453763961791,0.2881121039390564,1.5929679870605469,100,56,10815,19006
10.4,1788527709335,3.8309860229492183,6.535211086273193,0.0005743091460317,0.0056360736489295,-0.9749773144721984,0.2222321480512619,0.1710451475431614,0.0012846660326852,-8.417134445650994e-05,0.0006086522480472,0.0284470506012439,0.4755379259586334,-0.0023327721282839,-0.0051701143383979,0.996097445487976,0.0880774930119514,-0.0001053443128374,0.0133141169161017,0.4662424389918089,-0.0277096033096313,0.0881972312927246,-0.5084247589111328,84,64,11973,18242
10.5,1788527709435,3.521126747131348,6.563380241394043,0.0010272584622725,0.0058246166445314,-0.9697247743606568,0.2441289871931076,0.1689331691849695,0.001766822885496,2.7245489133273863e-05,0.0021635885350406,0.0046518496237695,0.4519051611423492,-0.0027694916352629,-0.0051898304373025,0.998096525669098,0.0613904781639575,0.0008907068955242,-0.0038716036203104,0.4373428373904893,0.0210123062133789,-0.019351840019226,-1.0621356964111328,33,84,11081,18598
10.6,1788527709535,3.8309860229492183,6.197183132171631,0.0002372096059843,0.0047095944173634,-0.9631935954093932,0.2687672078609466,0.1713701764040386,0.0033512025954742,1.172836439204624e-05,0.0156928114593029,-0.0180866196751594,0.4578838050365448,-0.0015413779765367,-0.0044109588488936,0.9991657137870787,0.0405711382627487,0.0070833511499777,-0.0426012981557551,0.4819100850075783,0.045402705669403,-0.0266706347465515,0.3263921737670898,104,67,12349,17465
10.7,1788527709635,3.8309860229492183,6.169013977050781,0.000496142427437,0.0059883128851652,-0.9586636424064636,0.2844785153865814,0.1674704552641583,0.0033462238657357,4.8894556300551085e-05,-0.013082256540656,-0.002978848060593,0.3126081228256225,-0.0023260042071342,-0.0055403746664524,0.9996348023414612,0.0263475999236106,-0.0096752236907507,0.0195250932454599,0.3124413555419273,-0.0445355176925659,0.35074383020401,0.6321086883544922,65,96,12027,17910
10.8,1788527709735,3.859154939651489,6.309859275817871,0.0005547668552026,0.0058097867295145,-0.955955684185028,0.2934531271457672,0.1670617818489706,0.0026457689850682,1.6648741992252325e-05,0.0066908178851008,-0.0018806980224326,0.375234991312027,-0.0028388546779751,-0.0054837660863995,0.9999327063560486,0.0098234750330448,-0.0072119282460006,0.0392188314886046,0.3530718925230529,0.126653790473938,0.0117551088333129,-0.1883449554443359,97,70,11962,17579
10.9,1788527709835,3.436619758605957,6.253520965576172,0.0025231658946722,0.005333530716598,-0.9480302929878236,0.3181252777576446,0.1627637302520675,0.0077081064175251,-5.9947783936436586e-05,0.0447322204709053,0.0313259363174438,0.4084639251232147,0.0045708650723099,0.0039508724585175,-0.999914526939392,0.0115921655669808,0.0702924074731275,0.06039928443287,0.4653089242829629,0.5770432353019714,-0.003442645072937,0.7895174026489258,149,86,13921,17803
11.0,1788527709935,4.732394218444824,5.746479034423828,0.0013201480032876,0.0065574846230447,-0.9422005414962769,0.3349828422069549,0.1805250562580702,0.0093489985509051,0.0002120116734553,-0.0798367783427238,-0.0787659287452697,0.232341855764389,0.0031591607257723,0.0058778338134288,-0.9996238350868224,0.0266037657856941,-0.0881215033186883,-0.1018560991405747,0.2043629641863168,-0.5334275960922241,-0.2947641015052795,0.5007114410400391,17,58,11226,17075
11.1,1788527710035,4.11267614364624,5.915493011474609,0.0016656718216836,0.0068890703842043,-0.9371397495269777,0.3488823473453522,0.1555285107009004,0.005570370639286,-3.104069607896782e-05,-0.0080480156466364,0.0166051480919122,0.3104385733604431,0.0035371324047446,0.0058885207399725,-0.9990027546882628,0.0441187098622322,0.0020373217016719,-0.0010557104694207,0.263970897468641,0.2886642813682556,-0.3022014498710632,0.3564586639404297,80,51,12788,16547
11.2,1788527710135,4.309859275817871,5.915493011474609,0.0018725378904491,0.0069778263568878,-0.9350818395614624,0.3543581664562225,0.1573110262345268,0.0025122217109623,4.247294098089037e-05,-0.0013727116165682,0.0076245917007327,0.2341365814208984,0.0039014080539345,0.0060983542352914,-0.9984011054039,0.0560607612133026,-0.001585789857674,0.0070334814650707,0.2579035987651423,0.189906358718872,0.0385720133781433,-1.2079410552978516,54,99,11977,16981
11.3,1788527710235,4.084506988525391,5.88732385635376,0.002095177071169,0.0070369252935051,-0.9309383630752563,0.3651025891304016,0.1636461394656123,0.0039688835595866,-2.646358467577776e-05,0.0008839692454785,0.0118838213384151,0.2686806917190552,0.0043104495853185,0.0063378913328051,-0.9978485107421876,0.0651134029030799,-0.0154589598754301,0.0025008930297673,0.2521738297336114,-0.2665080428123474,0.1056806445121765,0.7045831680297852,67,91,13084,16888
11.4,1788527710335,4.253520965576172,5.915493011474609,0.0023308754898607,0.0074362205341458,-0.9255329370498656,0.3785868883132934,0.1645316892628821,0.005572847792156,-4.412506187047861e-05,-0.0012409330811351,0.0053370506502687,0.2793311774730682,0.0047157052904367,0.0062668332830071,-0.9968758821487428,0.0785940885543823,0.0051937780572413,0.0069029800308479,0.268653433456151,-0.142484962940216,-0.093407928943634,0.4560623168945312,72,72,12532,16789
11.5,1788527710435,4.056337833404541,6.2253522872924805,0.0040774084627628,0.0078526716679334,-0.917738914489746,0.3970856964588165,0.1815656308867186,0.0061956960973748,-0.0001059461046299,-0.0040222336538136,-0.0484483316540718,0.2622236311435699,0.005460700020194,0.0060326177626848,-0.99546480178833,0.0947827994823455,0.01384081709236,-0.1313146816794632,0.24487179158124,-0.2119373679161071,-0.0647794008255004,2.4406661987304688,56,99,11056,18180
11.6,1788527710535,4.2253522872924805,5.97183084487915,0.0025401918683201,0.0067233797162771,-0.911415994167328,0.4114232957363128,0.173593082409644,0.0062662074650417,0.0001290189328392,0.0139422686770558,-0.0549510903656482,0.3597100079059601,0.0046651531010866,0.0055716056376695,-0.9933019280433656,0.1153196468949318,0.0011618869254757,0.0154070077253592,0.3313224885351912,0.133043110370636,0.0354699492454528,-0.9047412872314452,60,69,12510,16517
11.7,1788527710635,4.507042407989502,5.88732385635376,0.0024416311644017,0.0066144773736596,-0.9056977033615112,0.4238653779029846,0.1647768269706636,0.0022976566123418,-2.0496896742160107e-05,0.0070129386149346,-0.0114531312137842,0.2165724039077758,0.0046408288180828,0.0056566651910543,-0.9920566082000732,0.1255791187286377,-0.010598876540617,0.0140302567049122,0.2180667438351753,0.0466411113739013,0.0461872816085815,0.4635086059570312,62,78,11784,16764
11.8,1788527710735,4.169013977050781,5.97183084487915,0.0028883346822112,0.0070465011522173,-0.9007878303527832,0.4341925680637359,0.1644464764757184,0.0068474718559871,-5.7764030629761536e-05,-0.0009389355545863,0.0243600811809301,0.1924293488264084,0.00506192445755,0.0058144126087427,-0.9908572435379028,0.1346939206123352,0.0007502063311181,0.0315379620593659,0.1899054801210584,-0.1957310438156128,-0.0650140047073364,0.8349380493164062,58,75,12711,16540
11.9,1788527710835,4.056337833404541,5.85915470123291,0.0035023367963731,0.0073647280223667,-0.895736813545227,0.4445098340511322,0.1684463118038696,0.0027162057676539,1.054142659681522e-05,-0.0041157859377563,0.0074614370241761,0.2491842955350875,0.0056106327101588,0.0059183109551668,-0.9893531203269958,0.1453066021203994,-0.0083908913143691,0.0170147614622967,0.2555155480301685,0.2382075786590576,0.4095794558525085,-0.3481206893920898,62,99,13173,17073
12.0,1788527710935,4.788732528686523,5.436619758605957,0.0027980974409729,0.0068358462303876,-0.8906822800636292,0.4545661807060241,0.174801646133106,0.0029155760780152,8.450497113512847e-05,0.0017101232660934,-0.0476832762360572,0.2508121132850647,0.0043159257620573,0.0053213611245155,-0.9871311783790588,0.1597658097743988,0.0153233961762924,-0.0293066068808274,0.256973806896744,0.0417506098747253,-0.1608805656433105,0.007542610168457,62,40,12907,15783
12.1,1788527711035,4.732394218444824,5.492957592010498,0.0011150758946314,0.0052373632788658,-0.8863397240638733,0.463004469871521,0.1600773768441759,0.0048691279264264,-0.0001604554550754,-0.0180101934820413,0.041125014424324,0.1140615046024322,0.0024809492751955,0.0049066860228776,-0.9859997034072876,0.1666566133499145,-0.0344588375712318,-0.0530584362427529,0.1038550330133412,0.051607072353363,-0.1980228424072265,2.841593742370605,62,81,13029,15632
12.2,1788527711135,4.647887229919434,5.605633735656738,0.0006697091739624,0.0066711236722767,-0.8840692639350891,0.4673078656196594,0.1711174141404479,0.0042875641166312,-5.392694751214791e-05,-0.0297608114778995,-0.0108002284541726,0.1061829403042793,0.0027223471552133,0.006096389144659,-0.985341489315033,0.1704629063606262,-0.026312512203807,-0.0237470002425469,0.1075254474174515,0.0641705393791198,0.0004718303680419,-0.7904977798461914,82,85,13104,15911
12.3,1788527711235,4.619718074798584,5.605633735656738,-0.0009240263607352,0.0070387362502515,-0.8810847997665405,0.4729050099849701,0.1768519008450885,0.0093395188179116,0.0001021340601303,-0.0312292650341987,-0.0454128831624984,0.1194656640291214,0.0018398519605398,0.0063345804810523,-0.9838940501213074,0.1786310076713562,0.0477154085345187,0.0008073797521524,0.1578139717193196,-0.7024941444396973,-0.3782156705856323,-0.0864229202270507,48,69,12872,15627
12.4,1788527711335,4.760563373565674,5.183098793029785,0.0030340934172272,0.0053050760179758,-0.8752438426017761,0.4836432039737701,0.1500418004941953,0.0064730620957341,-0.0001293646216781,0.0667139291763305,0.0709234625101089,0.2752859890460968,0.004584620706737,0.0039299987256526,-0.9817633628845216,0.1900110244750976,0.0265974473396464,0.0261005934495048,0.1497170932701033,0.654220700263977,-0.0650472044944763,-1.6567869186401367,118,69,16491,14904
12.5,1788527711435,5.098591327667236,5.323943614959717,-0.000640842015855,0.0055497377179563,-0.8746263384819031,0.4847655594348907,0.1809985965284145,0.0025133053153491,-3.3408396316128774e-07,-0.0277897771447896,-0.0192576497793197,-0.0086088152602314,0.0016282256692647,0.0055445786565542,-0.9815356731414796,0.1911917179822921,0.0141653152282049,0.043043107529021,0.077012570608565,-0.2547309994697571,0.1588515043258667,-0.2003679275512695,16,55,13445,14270
12.6,1788527711535,4.535211086273193,5.267605781555176,3.865384496748448e-05,0.0061451457440853,-0.8728235960006714,0.4879970550537109,0.1619266372067266,-0.0009372348933872,4.822638128506396e-06,-0.0049465727061033,0.0083041870966553,0.0694206655025482,0.0023352047428488,0.0057859355583786,-0.9809377789497375,0.1942218840122223,0.0080493429213209,0.0253244379435358,0.0323814591473657,-0.0164036154747009,-0.3488454222679138,-0.0336990356445312,110,66,15635,14537
12.7,1788527711635,5.014084339141846,5.154929637908936,0.0008051025215536,0.0063230562955141,-0.8728448152542114,0.4879562854766845,0.1731742071429091,0.0002274042221266,-8.51463102584402e-05,0.0123570039868354,0.0347277894616127,-0.0252793300896883,0.0024861814454197,0.0058136153966188,-0.9810328483581544,0.1937386989593505,0.0099086231884501,-0.0030982496244622,-0.0110699628739045,-0.1753959655761718,0.1696320176124572,3.3512086868286133,49,81,14086,14895
12.8,1788527711735,5.183098793029785,4.901408672332764,0.0002752013970166,0.005860268138349,-0.8724806308746338,0.4886134564876556,0.1641044439103849,0.0038308973307443,0.000130639842407,0.0015569092938676,-0.0398176982998847,0.0097184870392084,0.0022360514849424,0.0055158203467726,-0.9809045195579528,0.1943989545106887,0.0009932359853651,-0.0054765701052191,-0.0035718471328196,0.2422282695770263,-0.2003757357597351,0.3855791091918945,86,67,15073,14672
12.9,1788527711835,4.957746505737305,4.985915660858154,0.0012115796562284,0.0059775961562991,-0.8728243112564087,0.487996369600296,0.1677880107677564,-0.0061030281953964,-0.0001620778722104,0.0144882788881659,0.0355906747281551,-0.0284159388393163,0.0026448229327797,0.0051039038226008,-0.9811385273933412,0.193220630288124,-0.0005904793842816,-0.0268809885373382,-0.0161801520854151,-0.1211072206497192,0.2685543298721313,0.3076925277709961,101,62,16072,13918
13.0,1788527711935,5.154929637908936,4.985915660858154,0.0009177739266306,0.00555688329041,-0.8734369874000549,0.4869046509265899,0.1692855986681245,-0.001629536356386,2.5341031204597256e-05,0.0063632214441895,-0.0117538906633853,-0.0237761754542589,0.0030761146917939,0.0051849670708179,-0.9813698530197144,0.1920337826013565,-0.0103367716645449,0.0266494079720056,-0.0501184689807802,-0.1438092589378357,-0.0547450184822082,1.3255062103271484,80,90,14469,14716
13.1,1788527712035,5.154929637908936,4.985915660858154,0.0022996314801275,0.0064477957785129,-0.8739622831344604,0.4859457015991211,0.160697492688589,0.0015365900552188,-0.0001460594139279,0.0017358222976326,0.026096373796463,-0.0136521011590957,0.0050983447581529,0.0054778773337602,-0.9814806580543518,0.1914155036211013,0.0135678280041817,0.0363060781084462,-0.0045290330760925,0.0987453460693359,-0.2748010754585266,0.1724109649658203,70,65,15497,13744
13.2,1788527712135,4.788732528686523,4.8450703620910645,-0.0007764175534248,0.0033337466884404,-0.8742516040802002,0.4854610562324524,0.1650176590444622,0.0014013381026344,0.0003155759737176,0.0386075153946876,-0.2476982027292251,-0.0210810080170631,-0.0017715776339173,0.0032807774841785,-0.9818671941757202,0.1895333379507064,-0.0137036487427191,-0.1775517585142091,-0.0996051039557742,0.5552966594696045,0.3372853398323059,3.1986961364746094,112,59,16982,13928
13.3,1788527712235,5.492957592010498,5.014084339141846,-0.0008029423188418,0.0040001724846661,-0.8771948218345642,0.4801173508167267,0.1696415336706006,-0.0009863995879722,8.28153760871141e-05,-0.012410944327712,0.0217944160103797,-0.0962981507182121,0.0005701286718249,0.0039658183231949,-0.9828478693962096,0.1843745112419128,-0.0014748991919254,0.0621021250219542,-0.0653115634231743,-0.023165225982666,-0.1391944885253906,-1.4980077743530271,64,77,14514,14111
13.4,1788527712335,5.239436626434326,4.901408672332764,-0.0006798710674047,0.0042949598282575,-0.8786850571632385,0.4773819744586944,0.1734177316294509,-0.0024816180908644,3.5824680035684666e-05,-0.0128541784361004,0.0031111191492527,-0.0488954819738864,0.0003788694739341,0.0041002202779054,-0.9832894802093506,0.1820026785135269,-0.0200529431768258,-0.0289682615358213,-0.0478602728756136,-0.0645604729652404,0.2941332459449768,-1.0136222839355469,68,98,15067,14228
13.5,1788527712435,4.985915660858154,5.267605781555176,-0.0003877161070704,0.0048891128972172,-0.8794140219688416,0.4760324954986572,0.1671387521415887,0.0012097958618082,-0.0001642382032268,-0.0015530160162597,0.0211675632745027,-0.0001967112184502,0.0011390373110771,0.0046413680538535,-0.9835031032562256,0.1808280646800995,0.021057734783486,-0.0377758067571927,0.0565436140149415,-0.3509696722030639,0.2641463875770569,-0.2127857208251953,49,105,13355,15183
13.6,1788527712535,4.704225540161133,5.126760482788086,0.0002780392533168,0.0041033490560948,-0.8774384260177612,0.4796715974807739,0.1535500248858665,0.0074555783282803,5.965476534634166e-05,0.0365583635866642,0.0007684052689,0.1098792925477027,0.0021335817873477,0.0032035522162914,-0.9825705289840698,0.185850515961647,0.0736821180372498,0.0569367050897506,0.1587523638657868,-0.1833118796348571,0.013585090637207,0.2839536666870117,167,63,15838,14820
13.7,1788527712635,5.408450603485107,4.8450703620910645,-0.0002854077029041,0.0026804511435329,-0.8757691383361816,0.4827227294445038,0.1854232543926317,0.0023714286794324,9.239889149548818e-05,-0.0368005596101284,-0.0789419487118721,-0.0023782353382557,9.422842413187028e-05,0.0027525387704372,-0.9822094440460204,0.187768816947937,-0.0734591515821676,-0.1350579285099099,-0.0271501066646208,0.3527417182922363,-0.4233482480049133,1.4390859603881836,36,42,14834,13837
13.8,1788527712735,4.901408672332764,5.183098793029785,7.79052497819066e-05,0.0042426595464348,-0.8767052292823792,0.481009304523468,0.1637750354782094,-0.004091841061935,9.119759663624491e-06,-0.0464142970740795,0.0419868975877761,-0.0760494694113731,0.0012065535411238,0.0040380600839853,-0.9827625155448914,0.1848243772983551,-0.0005906064145439,-0.0172569240899078,0.0105089225401076,0.0244668126106262,0.0599531531333923,0.2927074432373047,60,78,13895,15084
13.9,1788527712835,4.873239517211914,5.323943614959717,-0.0003250283189117,0.0042450912296772,-0.8758019804954529,0.4826518893241882,0.1718676770986688,0.0006482879519014,-6.438429607658943e-06,-0.0057555735111236,0.0027112867683172,0.0753626078367233,0.0009817713871598,0.004149030894041,-0.9821707606315612,0.187942698597908,-0.0055247731902308,-0.0040231183223786,0.0740191161205129,-0.0072951912879943,0.115671157836914,0.1815605163574218,58,54,14335,14855
14.0,1788527712935,5.042253494262695,5.070422649383545,-0.0012668424751609,0.0044772075489163,-0.8753583431243896,0.4834524691104889,0.17437389334282,-0.0018002379711442,1.648181610116491e-07,-0.0127896489575505,-0.0189747270196676,0.0085505293682217,0.0001397607848048,0.0042576706036925,-0.9819535613059998,0.1890740841627121,0.0362619488454697,0.0088591710986925,0.0214770426748758,-0.8031954169273376,-0.0851152539253234,-0.9183893203735352,57,50,14553,14269
14.1,1788527713035,4.929577350616455,5.239436626434326,0.0010486188111826,0.0036979080177843,-0.8748281598091125,0.4844182133674621,0.1698503658471403,-0.0052712028261951,-0.0001198058214459,0.0330412052571773,0.0177108272910118,-0.0079058445990085,0.001784143038094,0.0033236881718039,-0.9820348024368286,0.1886623054742813,-0.0212409893436835,-0.0164317783240718,-0.0975808108969285,0.0456888079643249,-0.4623546004295349,0.0053358078002929,43,87,14774,14908
14.2,1788527713135,4.929577350616455,5.239436626434326,0.0012172183487564,0.0039963601157069,-0.8747407793998718,0.4845730364322662,0.1646747826424812,0.006265173910401,-7.064642288982418e-05,-0.0005152087542228,0.0190222840756177,0.0369518771767616,0.0023935046046972,0.0033208541572093,-0.9816992282867432,0.1903940737247467,0.0126155684445526,0.0041813108955449,0.0659225348984728,-0.0377951264381408,0.1931537985801696,-0.5778713226318359,53,70,14023,15048
14.3,1788527713235,5.126760482788086,5.070422649383545,0.0009926231577992,0.0038606263697147,-0.8738901019096375,0.48610720038414,0.1659340193848741,-0.0014475536586704,3.313029141591937e-05,0.0001847423118306,-0.0106623657047748,0.0699354484677314,0.001765239983797,0.0033326810225844,-0.9812485575675964,0.1927097141742706,-0.0009455294673544,-0.017619585533317,0.0399154568335558,0.0709763169288635,-0.344175636768341,0.5721139907836914,98,52,14672,14381
14.4,1788527713335,5.070422649383545,5.154929637908936,0.0006218155613169,0.003726287279278,-0.8733622431755066,0.4870564937591553,0.1681786942916967,-0.0004763384492874,-2.591332517694233e-07,0.0,0.0,0.0,0.001775256358087,0.0028151674196124,-0.9809223413467408,0.1943716704845428,0.0270108831851249,0.0058037805689907,0.0587880263310268,-0.086489200592041,0.0310281515121459,0.1912708282470703,37,131,14161,15682
14.5,1788527713435,5.183098793029785,4.873239517211914,0.0009162512142211,0.0031349887140095,-0.8722430467605591,0.4890616536140442,0.1648595612451561,0.0018672136865583,-1.1889227905091698e-05,0.0222271960228681,0.0038550819735974,0.0650098845362663,0.0035977493971586,0.0033779088407754,-0.981117308139801,0.1933507621288299,0.0032583177163196,0.0517239819330896,-0.0789111201065539,0.1083675026893615,-0.027921438217163,-0.0558490753173828,87,66,15750,13850
14.6,1788527713535,4.929577350616455,4.985915660858154,0.0014962406130507,0.0039818342775106,-0.8739325404167175,0.4860285222530365,0.1632701668559484,-0.003831388951506,-4.5994333067761794e-05,-0.0056618428789079,-0.0201601423323154,-0.0798887535929679,0.0028650863096117,0.0034026466310024,-0.9816964268684388,0.1904005408287048,0.0069148448271791,0.0162456226636558,-0.0218124393639561,0.28179532289505,-0.2886443138122558,-0.7967147827148438,87,90,15861,13960
14.7,1788527713635,5.183098793029785,5.042253494262695,0.0012577569577842,0.0043344721198081,-0.8745954036712646,0.4848324060440063,0.1636985775098541,-0.0023973973900303,-2.4526544044799325e-05,-0.0116211576387286,0.0017484618583694,-0.0331627391278743,0.0020750910043716,0.004104807972908,-0.9820613265037536,0.1885057985782623,-0.0246981209643985,-0.0324172891694382,-0.05759250999202,0.0145051479339599,0.2745526432991028,0.6408052444458008,50,77,14391,14736
14.8,1788527713735,5.211267471313477,4.816901206970215,0.0009044441394507,0.0046389987692236,-0.8755658864974976,0.4830756187438965,0.1622226099504647,0.0008950686945789,-1.632597846717533e-05,-0.002416095463559,0.0049812817014753,-0.0192903615534305,0.0024856887757778,0.0045547811314463,-0.9821898341178894,0.1878194212913513,-0.0203724259942319,-0.0568720314119349,-0.0236752074700383,0.028877317905426,-0.1473006606101989,-4.723642826080322,71,71,15298,14269
14.9,1788527713835,5.464788913726807,4.8450703620910645,0.0007087653502821,0.0041976827196776,-0.876188337802887,0.4819500744342804,0.1538242009427907,-0.0039119579677467,0.0002120613199779,0.0231676287949085,-0.0317886807024478,-0.0390968471765518,0.0026737870648503,0.0033384962007403,-0.9825595617294312,0.1858991682529449,-0.0532259839083327,-0.0461985684437485,-0.0868369752622041,0.3391866087913513,0.4182126522064209,-0.1073884963989257,147,104,16608,14253
15.0,1788527713935,5.492957592010498,4.985915660858154,-0.0005996505497023,0.0044512557797133,-0.8776485919952393,0.4792835712432861,0.1805105494740914,-0.0019412486006162,0.000182757361937,-0.0773215591907501,-0.0905985906720161,-0.1250984966754913,0.0003892630338668,0.0047322055324912,-0.983265459537506,0.1821171641349792,0.002513396581658,-0.0185566738849655,-0.0023724101294526,-0.1442064046859741,0.1984040141105651,-1.0909042358398438,33,48,14473,13756
15.1,1788527714035,5.239436626434326,4.901408672332764,-0.0009301617974415,0.0047161178663372,-0.878543496131897,0.4776381552219391,0.1633114189782097,-0.0002480924567742,-7.68710273676485e-05,-0.0008746784296818,0.0157857108861207,0.0085881724953651,0.0012903539463877,0.0049276435747742,-0.9833125472068788,0.1818528920412063,0.0019160220953941,-0.0042213292663145,-0.0294187316854883,0.1211357712745666,0.0841217041015625,0.9983291625976562,75,75,15232,13963
15.2,1788527714135,5.154929637908936,4.873239517211914,-0.0003446042537689,0.0050684032030403,-0.879440426826477,0.4759818613529205,0.1688590230482812,-0.001798170519369,-3.303032098880862e-05,0.000328765832819,0.0028447723016142,-0.0782065391540527,0.0015320796519517,0.0047763306647539,-0.9838316440582277,0.1790259480476379,0.0110632575673877,0.0269899373733377,-0.031858241026133,0.0073139071464538,-0.1236705183982849,0.4122066497802734,67,80,15467,14204
15.3,1788527714235,5.239436626434326,4.901408672332764,-0.0004603173583745,0.0045049102045595,-0.8801783919334412,0.474621444940567,0.1759897803038139,-0.002266034483887,-1.2570041119126456e-06,0.0156772378832101,-0.013043419457972,-0.0325097441673278,0.0008496632799506,0.0037106797099113,-0.9840355515480042,0.1779317259788513,0.0416468490466592,-0.0494896738209801,-0.0292488601315706,0.0798229575157165,-0.0239892601966857,0.0097475051879882,65,60,15120,13807
15.4,1788527714335,5.183098793029785,4.760563373565674,-0.0003155922750011,0.0039327647536993,-0.8805365562438965,0.4739619195461273,0.1737186209201063,-0.0012990871811928,-3.0136558562775487e-05,0.0230535548180341,-0.0056683435104787,-0.0301488023251295,0.0007494203746318,0.0033910330384969,-0.9847272634506226,0.1740691214799881,-0.0009423239157206,0.0043651553785507,-0.1187840970749733,-0.0218408703804016,0.1643740534782409,-0.105168342590332,81,49,15322,14083
15.5,1788527714435,5.154929637908936,5.126760482788086,-0.0007955873152241,0.0032060251105576,-0.8831440806388855,0.4690903723239898,0.164348857036723,-0.0008902741836157,1.342392999143609e-05,0.0021539481822401,-0.0154148703441023,-0.0945339649915695,0.0001956149935722,0.0032969703897833,-0.9849757552146912,0.1726612150669098,-7.026010631126942e-05,-0.0362750782215091,-0.0932027860677865,0.3131597638130188,0.192811906337738,-0.5270862579345703,62,86,14377,14545
15.6,1788527714535,5.267605781555176,5.098591327667236,-0.0003048458602279,0.0032498273067176,-0.8830190300941467,0.4693258106708526,0.1608578761474935,0.0021298395700763,-4.7975920515736e-05,0.0011052119079977,0.0090006524696946,0.0103853112086653,0.0001579262316226,0.0034371074289083,-0.9848386645317078,0.1734387576580047,-0.0122884934581764,-0.0310390163153838,0.0378818874898091,0.0513278841972351,-0.0507197380065918,0.6442070007324219,98,71,13943,14861
15.7,1788527714635,4.788732528686523,5.014084339141846,-0.0006588339456357,0.0030478024855256,-0.8814472556114197,0.4722722768783569,0.1586353593540789,0.0010044529399246,-0.0001102006350457,0.0305066648870706,0.0248490702360868,0.0791966840624809,0.0008486649021506,0.002720657736063,-0.9839283227920532,0.1785414963960647,0.0214094231876183,0.0235385178298497,0.0946863064830972,0.329895555973053,-0.2009453773498535,-0.2299613952636718,116,111,15843,14763
15.8,1788527714735,4.873239517211914,5.323943614959717,0.0008812950691208,0.0034216456115245,-0.8801617622375488,0.4746606647968292,0.1677250843449519,0.0002763096474791,-0.0001395746836209,0.0006960996543057,0.0339177772402763,0.0177207868546247,0.0021144654601812,0.0030017932876944,-0.9838374257087708,0.1790266782045364,0.0011687199087755,0.0145224231993252,0.0155935163485058,-0.2455164790153503,0.183269202709198,-0.0708494186401367,51,60,14449,14837
15.9,1788527714835,4.816901206970215,5.295774459838867,0.0014504169812425,0.0032838589977473,-0.8790798783302307,0.4766609668731689,0.162398806633308,-2.919374293750817e-05,2.997669727497908e-05,0.0194839760661125,0.0145888403058052,0.0736401006579399,0.0020764470100402,0.002920645289123,-0.98331618309021,0.1818693131208419,-0.012106801613403,0.0265859340287962,0.008440743185399,0.1214014291763305,-0.0437147617340087,-1.2144317626953125,50,63,14748,14645
16.0,1788527714935,4.929577350616455,5.070422649383545,0.0008754262235015,0.0035124504938721,-0.8784622550010681,0.4777979850769043,0.1641662316550526,-0.0006078438585647,-8.38018978608972e-05,-0.0139457061886787,0.0105655388906598,0.02237269282341,0.0024216566234827,0.0032821418717503,-0.982986330986023,0.1836336702108383,0.0035653124518945,0.0169517833040809,0.063976182101043,0.227100133895874,-0.070241093635559,0.7923116683959961,81,80,15296,14321
16.1,1788527715035,4.985915660858154,4.8450703620910645,0.0015364703722298,0.0041062640957534,-0.877492368221283,0.479570597410202,0.1715965790377898,-0.000274859883585,-5.425942738339031e-05,-0.0021739820949733,0.0152425253763794,0.0230003092437982,0.0023738481104373,0.0032779769971966,-0.9828310012817384,0.1844638884067535,0.0097862061425108,-0.0305461729582052,0.0098714032685764,-0.5763338804244995,0.1148328185081482,1.0421142578125,123,63,16697,13856
16.2,1788527715135,5.521126747131348,4.8450703620910645,0.0027636885643005,0.0040028975345194,-0.8776168823242188,0.4793381094932556,0.1665921447220282,-0.0057817755548554,-0.0002597987811844,0.0138188209384679,0.0285699199885129,-0.013496876694262,0.0020419964566826,0.0044335946440696,-0.9836929440498352,0.1797900348901748,-0.0432791571119409,-0.0404080315008603,-0.1756309502831588,-1.035759687423706,-0.3374491930007934,0.5386447906494141,29,62,14282,14061
16.3,1788527715235,5.098591327667236,4.788732528686523,0.0007049684645608,0.0046403501182794,-0.8799638152122498,0.4750175476074219,0.157445902303087,-0.0088713857969765,-1.829443658535781e-05,0.0085114911198616,0.0033441954292356,-0.0331552922725677,0.0020801676437258,0.0040357820689678,-0.9838183522224426,0.1791111975908279,0.0014352385560167,-0.0186290068747448,-0.0121290658376423,0.1300640106201172,0.0143212080001831,1.0024757385253906,67,103,15442,14456
16.4,1788527715335,5.183098793029785,4.816901206970215,0.0005441752728074,0.0046032168902456,-0.8804447650909424,0.4741261899471283,0.1596395629759885,-0.0044748962906472,-1.5473299795741648e-07,-0.0016029421240091,-0.0060962131246924,-0.0397775135934352,0.0019107032567262,0.0044679585844278,-0.9841828942298888,0.1770887970924377,-0.0156397325171234,0.0019804748764325,-0.0519047772623828,0.3117226958274841,-0.0869842767715454,-0.1416578292846679,56,86,15234,14540
16.5,1788527715435,4.8450703620910645,5.464788913726807,0.0010407415684312,0.0052907248027622,-0.8814969658851624,0.4721589684486389,0.1736960375872928,-0.0020672310450728,-9.033571185997332e-05,-0.0052517531439661,0.0272075403481721,-0.0478555187582969,0.0053703133016824,0.0051408819854259,-0.9846009612083436,0.1746587753295898,0.005505405541573,0.1362739935074884,-0.0430097293087954,-1.9730224609375,-0.0266141891479492,4.691818237304688,13,145,10728,17913
16.6,1788527715535,4.563380241394043,5.77464771270752,0.0011909179156646,0.0050637479871511,-0.8811646103858948,0.4727810621261596,0.1702288289033454,0.0036575170608581,0.0003199404230524,0.0068030594848096,-0.0870077684521675,0.0666484758257865,0.0038375966250896,0.0047999788075685,-0.9833374619483948,0.1816854178905487,-0.0131963226005456,0.1040638653750893,0.3242749179140871,0.1940681934356689,0.1086556911468505,-3.283865451812744,58,125,12677,17359
16.7,1788527715635,4.507042407989502,5.577464580535889,0.0019379232544451,0.0054457262158393,-0.8740564584732056,0.4857899844646454,0.1657245831853479,0.0021892564641258,1.6933618547147416e-05,-0.0037389197386801,0.0154225258156657,0.2806833386421203,0.0031223203986883,0.004373331554234,-0.9805818796157836,0.1960364580154419,0.0103329193943926,-0.0143539119825452,0.1196535246334885,0.1468542218208313,0.2000159621238708,-0.147435188293457,99,59,13911,15635
16.8,1788527715735,4.507042407989502,5.605633735656738,0.0017861161613836,0.0054310248233377,-0.8706423044204712,0.4918834269046783,0.1713202381215326,0.0024818617810598,4.968332569383581e-05,-0.005976578220725,0.0032364227809011,0.1126221939921379,0.0022856770083308,0.0044654067605733,-0.9792335629463196,0.2026733011007309,-0.0062400389636247,-0.0462320744123121,0.168846955026447,0.0536954402923584,0.041390061378479,0.5783214569091797,63,77,13807,15622
16.9,1788527715835,4.760563373565674,5.352112770080566,0.0006964404601603,0.0050454665906727,-0.8671625256538391,0.4979993402957916,0.169287043658708,0.0025616021813465,6.49626434278115e-05,-0.0083968183025717,-0.0156974308192729,0.1684543341398239,0.0011137081310153,0.003984217531979,-0.9776774644851683,0.2100705206394195,0.0158816105305625,-0.0447986665664732,0.1354419878960607,-0.3533823490142822,0.0361067652702331,0.3836984634399414,83,46,14724,14279
17.0,1788527715935,4.788732528686523,5.183098793029785,-0.0003470153314992,0.0041122934781014,-0.8644875288009644,0.5026372075080872,0.1619421180444753,0.0025224132896983,9.185227438593083e-05,0.0026391292922198,-0.0203901287168264,0.0526521764695644,0.0001018205657601,0.0035200379788875,-0.9776045680046082,0.2104207724332809,0.0241259455564968,-0.056865441871602,-0.0133367894520677,-0.0932220816612243,-0.2494702935218811,0.4748926162719726,87,69,15109,14752
17.1,1788527716035,5.070422649383545,5.126760482788086,-0.0008242564508691,0.0032714291010051,-0.8641804456710815,0.5031707286834717,0.1653119882069875,-0.0022971106880701,-6.283036454623087e-05,-0.0029260737355798,0.0125197041779756,0.0137153454124927,0.0005709044635295,0.0039832796901464,-0.9775490164756776,0.2106695622205734,-0.0104951991794739,-0.0083039042247981,0.0351786439699012,0.1427398324012756,0.2110447287559509,0.0861501693725586,85,91,15004,14278
17.2,1788527716135,5.098591327667236,4.985915660858154,-0.0001001060009002,0.00435535563156,-0.8644221425056458,0.5027477741241455,0.163798225827023,5.371504465000477e-05,-8.379509198437837e-05,-0.0088507924228906,0.0250736493617296,0.0059959078207612,0.0011830562725663,0.0045699784532189,-0.9777450561523438,0.2097437083721161,-0.0117895165045615,0.0253116196903705,-0.024852413448593,0.1659130454063415,0.1042351722717285,-0.8431129455566406,69,98,14715,14815
17.3,1788527716235,4.929577350616455,5.267605781555176,-0.0009829739574342,0.0046147285029292,-0.8649035096168518,0.5019159317016602,0.1712244801538779,-0.0012387675763378,3.436226390291611e-05,-0.0157474540174007,-0.0193938035517931,-0.0201018750667572,-0.0001892838627099,0.0049767894670367,-0.9778751134872437,0.2091302424669265,-0.0113512283906758,-0.0192552363810185,0.0068149201928865,-0.0654150247573852,0.2372224926948547,-0.2219686508178711,49,62,13826,14971
17.4,1788527716335,4.873239517211914,5.183098793029785,-0.0025823784526437,0.0051379958167672,-0.8648067116737366,0.5020720362663269,0.1658513812570573,-0.0015399269466096,2.0589673895185544e-05,-0.0282247122377157,-0.0182179678231477,0.0158581137657165,-0.0010135388001799,0.0055859787389636,-0.977447271347046,0.2111031860113144,0.0065841988743722,-0.0081988204948224,0.0749653053375673,-0.184973657131195,-0.1887829303741455,-1.3499746322631836,37,96,13783,15271
17.5,1788527716435,5.014084339141846,5.154929637908936,-0.0026326111983507,0.0049730171449482,-0.8612546324729919,0.5081425309181213,0.1699348200633364,-0.002985749662208,-4.048921940767192e-06,-0.0079540917649865,-0.0222172141075134,0.1820419877767563,-0.0018781349062919,0.0069196661934256,-0.9765241146087646,0.2152886241674423,-0.006761929353357,0.063225782307641,-0.0506527333445566,-0.3351795673370361,-0.4416183233261108,0.5767364501953125,38,101,13707,15259
17.6,1788527716535,4.422535419464111,5.436619758605957,-0.0038574445061385,0.0055772471241652,-0.8612448573112488,0.5081449151039124,0.1620483716064879,-0.0017892532104959,-8.34579617402472e-05,0.0082065993919968,0.0202544908970594,0.0194373168051242,-0.0022579254582524,0.0059665506705641,-0.9755306839942932,0.2197707444429397,0.0148547938632921,-0.0326401662237211,0.124597964009367,0.0310099720954895,0.3761001825332641,1.065959930419922,31,112,13310,16573
17.7,1788527716635,5.070422649383545,5.126760482788086,-0.0037236951757222,0.0049377027899026,-0.8580654263496399,0.5135031938552856,0.1561187046198011,0.0015974002838517,7.427669163404893e-06,0.0126956002786755,-0.00012040726142,0.1631975919008255,-0.0016883919015526,0.0067123789340257,-0.9741687178611756,0.2257154136896133,-0.0408731112485865,0.0166817108392134,0.0366275475245746,0.2455098628997802,-0.0713425874710083,-0.7878122329711914,96,99,14019,15411
17.8,1788527716735,4.901408672332764,5.295774459838867,-0.0034096981398761,0.0063295089639723,-0.8559067845344543,0.5170802474021912,0.1625005698539114,0.0010639753422738,-2.7489065290150763e-06,-0.0127767212688922,0.0096899308264255,0.0341366752982139,-0.0009657200425863,0.0072107044979929,-0.9738445281982422,0.2270991057157516,-0.0145438762234557,0.0372370367093589,0.0446511147159001,0.0281212329864501,0.0006664395332336,1.3488025665283203,88,65,15001,15126
17.9,1788527716835,5.098591327667236,5.267605781555176,-0.0032203707378357,0.0062647331506013,-0.8543047308921814,0.5197248458862305,0.1674459304367426,0.0023742667469571,-6.28754157275994e-05,0.0065347147174179,0.0076450947672128,0.0669523924589157,-0.000944442115724,0.0068504987284541,-0.972898244857788,0.2311302721500396,0.0083461888520482,-0.024331394044201,0.0573502394163552,-0.1985647678375244,0.1681746840476989,1.3054885864257812,84,52,14087,14861
18.0,1788527716935,4.732394218444824,5.267605781555176,-0.0027736073825508,0.0064112162217497,-0.8527629375457764,0.5222513675689697,0.1695544762971514,0.0008370235971168,-2.9704969411300872e-05,-0.001404930721037,0.0119769498705863,0.0579884871840477,-0.000771852210164,0.0067385155707597,-0.9723893404006958,0.2332658767700195,0.011604826305566,-0.0199008807349806,0.0376529431680584,0.1141012907028198,-0.2302902936935424,-0.9281415939331056,57,59,15331,14698
18.1,1788527717035,5.014084339141846,5.211267471313477,-0.0021742943208664,0.0064532263204455,-0.8519918322563171,0.5235108733177185,0.1648296940383638,-0.0017792168164172,-0.0001111131120892,0.0058314064517617,0.0215674322098493,0.0376335941255092,0.000197154469788,0.0065795173868536,-0.9718965888023376,0.2353164851665496,0.0131413156824351,0.0159377475867451,0.0370934182760819,0.2809692025184631,-0.1461331248283386,-1.1942930221557615,72,81,13750,15502
18.2,1788527717135,4.366197109222412,5.690140724182129,-0.0024277786724269,0.0061606368981301,-0.850808322429657,0.5254344940185547,0.1657384566880624,0.0008510338175313,-0.0001134298818158,-0.0011687278747558,-0.0069096996448934,0.0426097139716148,7.430743426084518e-05,0.0068648010492324,-0.9710257649421692,0.2388765215873718,-0.0001361861820136,0.0543680638010708,0.1453665749188003,-0.1386184096336364,0.189287781715393,0.7167472839355469,43,58,13945,15935
18.3,1788527717235,4.478873252868652,5.352112770080566,-0.0012907162308692,0.0067565999925136,-0.8469305634498596,0.5316590070724487,0.1654979050572168,0.0048413871396261,-7.937556948049576e-05,0.0076056495308876,0.0286773238331079,0.1816524565219879,0.0007503302767872,0.0069225803017616,-0.9688364863395692,0.247603565454483,-0.0015783704436682,0.0073950944805714,0.1539964170957599,-0.0152301788330078,0.0827654004096984,0.1886129379272461,60,70,13577,15715
18.4,1788527717335,4.507042407989502,5.690140724182129,-0.0021706058178097,0.0067549203522503,-0.8430712223052979,0.5377550721168518,0.167542675985804,0.0044232718580374,-1.834444466712416e-05,-0.0166293177753686,-0.0234931409358978,0.1439705640077591,0.0005606235936284,0.0074827410280704,-0.9670379757881165,0.2545216977596283,-0.0034458019233362,-0.0423775143272649,0.1475687904009372,0.0012859106063842,0.2771199941635132,0.4524002075195312,52,68,13359,15708
18.5,1788527717435,4.591549396514893,5.492957592010498,-0.0008705088403075,0.0078250942751765,-0.8394903540611267,0.5433174967765808,0.1691070935608988,-6.772127583236105e-05,1.537171608828211e-05,0.0004466192040126,0.0255376547574996,0.1452984511852264,0.0014598723500967,0.0078401109203696,-0.9652043581008912,0.2613750100135803,-0.0031547717025954,0.0143629255762994,0.1321912663357044,-0.0456920862197876,-0.2746685743331909,0.5075054168701172,44,96,13269,16120
18.6,1788527717535,4.676056385040283,5.183098793029785,-0.0011348440311849,0.0075672846287488,-0.8352137804031372,0.5498720407485962,0.167984409418774,0.0025709751266852,5.968833915846463e-06,0.0083202198147773,-0.0101480213925242,0.1426895558834076,0.0011756662279367,0.008035478182137,-0.9638097286224364,0.2664673626422882,-0.0233871620496698,0.0122755654898079,0.0726892662667273,0.0175043940544128,-0.1365004777908325,0.7908754348754883,68,59,15077,14816
18.7,1788527717635,5.070422649383545,5.042253494262695,-0.0010520820505917,0.0078134778887033,-0.8331992626190186,0.5529166460037231,0.1684124977592988,0.0015779345364459,9.65362463990426e-05,0.0079990066587924,-0.0025428293738514,0.0553537234663963,0.0017961431294679,0.0070832222700119,-0.963105857372284,0.2690234780311584,0.0444251733783467,0.0367029393398801,0.0598594438391824,-0.6423813700675964,-0.2699587941169739,2.0647640228271484,119,58,15437,14264
18.8,1788527717735,5.436619758605957,5.070422649383545,-0.0016206118743866,0.0070177223533391,-0.8324794173240662,0.554009199142456,0.1907095233783579,0.0039998851244727,0.0001161115211073,-0.0845182687044143,-0.09155885130167,-0.0748974233865737,0.0003317315131425,0.0073150815442204,-0.9631006121635436,0.2690421044826507,-0.1051347194945252,-0.1333268298558009,-0.0787629456274039,0.3498919606208801,0.1282235980033874,0.8072433471679688,55,63,14012,14245
18.9,1788527717835,5.098591327667236,4.929577350616455,-0.0018715086625888,0.006981196347624,-0.8328993916511536,0.5533771514892578,0.1750292570626107,-0.0002996330540196,6.361246408562949e-05,-0.0041260560974478,-0.0086639933288097,-0.0294224359095096,0.0009755482897162,0.0073591908439993,-0.9629923701286316,0.269426554441452,-0.0068996318524535,0.060553098182787,0.0608815954428711,-0.1644713282585144,-0.1502111554145813,-0.3150186538696289,85,28,15326,13493
19.0,1788527717935,5.014084339141846,4.8450703620910645,-0.001937961904332,0.0072817574255168,-0.8323951363563538,0.5541313290596008,0.1588952828859916,-0.0018565237791739,1.3619888755670126e-06,-0.0105869323015213,-0.0063274232670664,-0.0140942027792334,0.0010230578482151,0.0068561285734176,-0.9631113409996032,0.269013911485672,0.0387901404359466,0.0359944385685002,0.0111082778459969,0.0852037668228149,-0.0549674034118652,0.5887537002563477,92,67,16450,14101
19.1,1788527718035,4.901408672332764,4.985915660858154,-0.001319239847362,0.0065167285501956,-0.8329690098762512,0.5532797574996948,0.1621628145412431,-0.0015984842827634,-4.2029630989698094e-05,0.0184466447681188,-0.0047809551469981,-0.0338507965207099,0.0006946241483092,0.0064471112564206,-0.9634049534797668,0.2679719924926758,0.0173927933518913,-0.039263399139821,-0.0426487966962532,0.1031597852706909,-0.3219301700592041,0.6713638305664062,43,160,14655,15983
19.2,1788527718135,5.042253494262695,5.014084339141846,-0.0004090119618922,0.0064042061567306,-0.8334748148918152,0.5525201559066772,0.1659856507815087,0.0029523201996418,5.300663243354567e-05,0.0108368452638387,0.0353530459105968,-0.0037990221753716,0.0015438850969076,0.00577590521425,-0.9632598757743835,0.2685045003890991,0.0184829748220173,-0.0015758191508429,0.0604700855041885,-0.1455708742141723,-0.0128969550132751,0.5157327651977539,66,77,14801,14699
19.3,1788527718235,4.957746505737305,5.070422649383545,0.0002570976503193,0.0059820218011736,-0.8320115804672241,0.5547259449958801,0.168121449614597,-0.0001181806871289,-1.7658840887063583e-05,0.0088043082505464,0.0144766336306929,0.0394884906709194,0.0020967256277799,0.0056084254756569,-0.9628863334655762,0.2698410451412201,0.0085496184943437,0.0276104051790015,0.0232134185926751,-0.0803809165954589,-0.2722381949424743,-1.2729120254516602,70,98,15542,14985
19.4,1788527718335,5.183098793029785,4.957746505737305,0.0007755728438496,0.0063494853675365,-0.8321805000305176,0.5544678568840027,0.1701100938369059,-0.0015403888653666,-5.839640734278236e-05,-0.0108445668593049,0.0109041407704353,-0.0333889313042163,0.0030460124835371,0.0062127010896801,-0.9630101919174194,0.2693763375282287,-0.0198495728108378,0.0286095493972087,-0.0111049661985716,0.0448365211486816,0.3409473896026611,0.5517492294311523,79,102,14325,15087
19.5,1788527718435,5.211267471313477,4.929577350616455,0.0006557051092386,0.0066496939398348,-0.8317940831184387,0.5550440549850464,0.1801542302176033,0.0012722344193963,-2.0907471555147345e-05,-0.0005449229502119,-0.0165418945252895,0.0376635678112506,0.0028045177459716,0.0061764847487211,-0.9627264738082886,0.2703917026519775,0.0052511801804692,-0.0217310939889454,0.0340517264139159,-0.3497979640960693,-0.2543594241142273,1.4953575134277344,36,52,15194,13923
19.6,1788527718535,5.295774459838867,4.788732528686523,0.0012108315713703,0.0076148239895701,-0.8325813412666321,0.5538491606712341,0.1612976784971643,-0.0026426157619909,-3.943547446141086e-05,-0.0042348760180175,0.0136651759967207,-0.0704378858208656,0.0034645739942789,0.0069366609677672,-0.963223934173584,0.2685883045196533,-0.0125859657059331,0.0123251119800103,-0.078179017717853,0.1944994330406189,0.2202954888343811,-0.3120832443237304,85,82,15050,14419
19.7,1788527718635,5.183098793029785,4.929577350616455,0.0008065979927778,0.0076282797381281,-0.8336266875267029,0.5522750616073608,0.1616524104524203,0.000410070229496,5.727081925595447e-08,0.0,0.0,0.0,0.0034476276487112,0.0067629171535372,-0.9638125896453856,0.266472578048706,0.0150210587783925,0.0205623335043395,-0.0123424793974915,0.0611101984977722,0.1434948444366455,0.730137825012207,69,67,15436,13832
19.8,1788527718735,5.323943614959717,4.816901206970215,0.0028314492665231,0.0086312191560864,-0.8355301022529602,0.5493695735931396,0.1685375397899263,-0.0044929240978781,-0.0001561082762019,-0.0090779727324843,0.0606959536671638,-0.0877519994974136,0.0057447403669357,0.0074465749785304,-0.9646732211112976,0.2632815241813659,-0.0074067689527344,0.0643370898963663,-0.0973896134191815,-0.1355563402175903,0.0293587446212768,0.5596408843994141,56,67,14879,14132
19.9,1788527718835,4.929577350616455,4.873239517211914,0.0036036812234669,0.0091763827949762,-0.8369905352592468,0.5471286177635193,0.1616970224659923,-0.0002720045187631,-2.157057578997461e-05,-0.0050593451596796,0.0254515912383794,-0.0459808483719825,0.0062679359689354,0.0076095638796687,-0.9652682542800904,0.2610750198364258,-0.0089689430391125,0.0563945793631028,-0.0343240950179521,0.000822901725769,-0.1515052318572998,-0.6818771362304688,55,81,16009,14037
20.0,1788527718935,5.267605781555176,4.788732528686523,0.002761639887467,0.0069287093356251,-0.8370673060417175,0.5470491647720337,0.1686049822419104,-0.0061651580548432,0.0004130386641975,0.01572772487998,-0.1707616299390792,-0.0205521620810031,0.0034810602664947,0.0067775389179587,-0.9657710194587708,0.2592842578887939,-0.1064712610117159,-0.0797442738879651,-0.146568176845179,0.1266980171203613,0.0235230326652526,2.067824363708496,41,91,15771,14590
20.1,1788527719035,4.8450703620910645,5.098591327667236,-0.0008482760749757,0.0064338729716837,-0.8397582173347473,0.542921781539917,0.170738044574105,-0.0045121998464798,6.130813072762252e-05,0.0084836427122354,-0.0443445369601249,-0.0645826980471611,0.0009063920006155,0.00615462847054,-0.9665704965591432,0.2563256621360779,0.010074473413001,-0.0682995352957229,-0.0025258622924572,-0.3628275394439697,0.1489483714103698,1.2987642288208008,27,53,15008,14484
20.2,1788527719135,4.591549396514893,5.154929637908936,-0.0018197824247181,0.0056426827795803,-0.8389239311218262,0.5442163348197937,0.1652202537382346,0.0012995520262504,3.4562027262929184e-05,-0.0038216719403862,-0.0170109122991561,0.0332839004695415,0.0001388294622302,0.0060173729434609,-0.9661450982093812,0.257929265499115,-0.0029447611586772,-0.0142785746608564,0.0387643990042111,0.1559220552444458,0.1127779483795166,-0.2736196517944336,74,113,15070,15680
20.3,1788527719235,4.985915660858154,5.239436626434326,-0.001501515507698,0.0062012108974158,-0.8381107449531555,0.5454626679420471,0.1817962272814534,-0.0015929625929958,-2.5644069099987143e-05,-0.002574500394985,0.0038297101855278,0.0037395972758531,0.0001179445534944,0.006414926610887,-0.9658134579658508,0.2591587603092193,-0.0088482383120624,-0.0331260300221252,-0.0020766127230843,0.2810295820236206,0.0385957956314086,0.0029516220092773,80,115,13804,15231
20.4,1788527719335,4.816901206970215,5.295774459838867,-0.0013542734086513,0.0065806531347334,-0.8379408121109009,0.5457196235656738,0.1682906001189399,-0.001081504417452,-6.60054136229811e-08,-0.0097901560366153,0.0134932324290275,0.0127128018066287,0.0010875761508941,0.0076033305376768,-0.9657636880874634,0.2593095898628235,-0.0715588428490269,0.0936753010495523,-0.0331236542999271,-0.1721858382225036,0.0669803023338317,-0.1581869125366211,38,63,14294,14713
20.5,1788527719435,4.901408672332764,5.408450603485107,-0.0013990250881761,0.0085699670016765,-0.8369446992874146,0.5472185611724854,0.1662581059438379,-0.0026365412767135,-9.162456332138528e-05,-0.0161601267755031,0.029333159327507,0.0722535550594329,0.0010587265715003,0.0084737986326217,-0.964821457862854,0.2627674639225006,0.0066793294473672,-0.0281144004250309,0.0912989433736761,-0.0001062750816345,0.0649110078811645,0.4958457946777344,44,61,14066,14782
20.6,1788527719535,4.591549396514893,5.436619758605957,-0.0014512089546769,0.0082060741260647,-0.8342639207839966,0.551302433013916,0.166795945647256,0.0002895821135414,9.443315620363124e-05,0.0033103770110756,-0.0085583599284291,0.0850218906998634,0.0013808412477374,0.0084460163488984,-0.9637718796730042,0.2665906250476837,-0.0160190677047175,0.0440427952683688,0.0806386205447878,0.0637770295143127,-0.068695068359375,-0.5787725448608398,68,110,13017,16731
20.7,1788527719635,4.619718074798584,5.408450603485107,-0.0008194895926862,0.0082387886941432,-0.8299798369407654,0.5577319860458374,0.1638276054402127,0.0049238544429099,3.922553191473186e-05,0.0106747616082429,-0.0002863854169845,0.1746498942375183,0.0018599033355712,0.0080655254423618,-0.9617365598678588,0.2738509178161621,0.0161046062476042,0.0273274646710349,0.1944273390918995,-0.2123687863349914,-0.2637953758239746,0.4114208221435547,65,83,12920,16579
20.8,1788527719735,4.647887229919434,5.633802890777588,-0.0009228829294443,0.0077467206865549,-0.8256447911262512,0.5641363859176636,0.1708720964843652,0.0041203494848786,-6.896713770920502e-05,0.0040979771874845,0.0081686247140169,0.1621899157762527,0.0013813944533467,0.0078064585104584,-0.958989441394806,0.283331036567688,-0.0125430808084526,-0.0030633948617156,0.1404986236610197,-0.3194937109947204,0.2279549241065979,0.2974767684936523,59,69,13284,15703
20.9,1788527719835,4.563380241394043,5.492957592010498,-0.0019603117834776,0.0076437443494796,-0.8216265439987183,0.56997150182724,0.166952006231638,0.0010508690147586,0.0001331250401737,-0.0168516114354133,-0.0227394718676805,0.139945313334465,2.04453244805336e-05,0.0078836781904101,-0.957182765007019,0.289376825094223,-0.0133467078700334,-0.025666499816209,0.1270600162669232,0.2015368938446045,-0.3146513700485229,-1.9987025260925293,64,94,13268,16097
21.0,1788527719935,4.816901206970215,5.154929637908936,-0.0011342593934386,0.0072179650887846,-0.8174527883529663,0.5759492516517639,0.1629139660194067,0.0021146995565212,-5.555778672327989e-05,0.0344191379845142,0.0273206233978271,0.115546129643917,0.0012589916586875,0.0071713235229253,-0.9555750489234924,0.2946579158306122,0.0221584915512266,0.0405794355185319,0.0632419651837884,0.3182722330093384,0.163786232471466,-0.4554615020751953,131,74,15465,14945
21.1,1788527720035,5.014084339141846,5.126760482788086,-0.0006944555789232,0.006805223878473,-0.8164815306663513,0.5773309469223022,0.1724166418750684,0.0032263792140389,4.183630289957995e-05,0.0061009563505649,-0.0047489660792052,0.0454085953533649,0.0011527193710207,0.0064601683989167,-0.9548248052597046,0.2970969080924988,0.0144900472947836,-0.0162408401794721,0.0698378120411319,0.0986431837081909,0.1727935671806335,0.7700099945068359,58,62,14508,14760
21.2,1788527720135,4.901408672332764,5.154929637908936,-0.0004487067926675,0.0063927783630788,-0.8153340220451355,0.5789555311203003,0.1682606206473373,-0.0021890929997298,-6.145697890279618e-10,0.0085306139662861,-0.0008215215057134,0.0140511095523834,0.0016650296747684,0.005896532908082,-0.9544400572776794,0.2983399331569671,0.0166593553539788,-0.0048542079377008,0.0112591050462443,-0.4361205697059631,-0.1377819180488586,2.377548217773437,119,61,15735,13925
21.3,1788527720235,5.267605781555176,5.042253494262695,0.0011199857108294,0.0054702367633581,-0.814740777015686,0.5797985196113586,0.1679215201497629,-0.0058388372460045,-0.0001047233824371,0.0153092239052057,-0.0163423679769039,0.002022954635322,0.0017854841426014,0.0051446994766592,-0.9543822407722472,0.2985381186008453,-0.0619219941706996,-0.1048976375865443,-0.0631194230829395,0.3995539546012878,0.2132762670516967,0.4271297454833984,47,57,14489,14316
21.4,1788527720335,4.788732528686523,5.183098793029785,-0.0010685923043638,0.0059410585090518,-0.8165213465690613,0.5772837400436401,0.1637037793921069,-0.0035273464537994,5.646079866030007e-05,-0.0051336390897631,-0.0083627440035343,-0.0034270272590219,0.0004175808280706,0.0058135092258453,-0.955080270767212,0.2962899208068847,-0.0044243313856927,-0.0237596249168296,0.015788951348303,0.115541398525238,-0.1244537234306335,-0.2055330276489257,63,89,15067,14158
21.5,1788527720435,5.211267471313477,4.957746505737305,-0.0014989200280979,0.0055076060816645,-0.8154031038284302,0.5788654685020447,0.1637954875463777,0.0028032057279328,-1.2765198873637628e-05,-0.0005600157310254,-0.0050084986723959,0.0409686490893363,0.0003218408674001,0.0057802041992545,-0.9543201327323914,0.2987302243709564,-0.0034898825171634,-0.0069596500802796,0.0505014074710624,0.1538779139518737,0.0164538025856018,-0.5976676940917969,85,94,14021,15027
21.6,1788527720535,5.042253494262695,4.873239517211914,-0.0016486579552292,0.0052480674348771,-0.8140354752540588,0.5807891488075256,0.1633685557683092,0.0031471015306052,-8.04295468849053e-05,0.0072097275406122,0.0204169321805238,0.0490915589034557,0.0003542797639966,0.0055273827165365,-0.953676700592041,0.3007823526859283,0.0064630841114621,0.0135269320169484,0.0497536032936006,0.3882287740707397,-0.0212180614471435,-0.5498580932617188,89,63,15955,14105
21.7,1788527720635,4.929577350616455,5.352112770080566,-0.0010070379357784,0.0053164344280958,-0.8147788047790527,0.5797466039657593,0.1679271719256097,-0.0020685676311594,-4.143818307891337e-05,0.0101517383009195,0.0170757323503494,-0.0447241403162479,0.0004126988351345,0.0052234325557947,-0.954429805278778,0.2983896434307098,0.001599674867434,-0.0226372743869777,-0.0283563122286169,-0.1535747051239013,-0.2030907273292541,-0.8148193359375,55,72,14220,14598
21.8,1788527720735,4.732394218444824,5.183098793029785,-0.0008435284253209,0.0050360318273305,-0.8142907023429871,0.5804348587989807,0.1671585507878707,0.0020229946045297,-3.7145145371062923e-07,0.0090165631845593,0.0218790397047996,0.0559191219508647,0.0022146273404359,0.0056911455467343,-0.9539108872413636,0.3000281453132629,-0.0247993570923788,0.1557656898412734,0.0445635642594719,0.4980543851852417,0.0972771644592285,-0.636408805847168,55,80,14684,15078
21.9,1788527720835,4.816901206970215,5.154929637908936,-0.0016154537443071,0.0032109695021063,-0.8130741715431213,0.5821490287780762,0.1658144965098968,0.0019473158819559,0.0003381911842058,0.0266566090285778,-0.0599470734596252,0.055008627474308,-0.000524578616023,0.003534591756761,-0.9533216953277588,0.3019353449344635,-0.0033772215047792,0.0227612796390994,0.0722405412198256,0.073667287826538,-0.0758423209190368,1.1129779815673828,68,78,14493,15241
22.0,1788527720935,3.690140962600708,4.901408672332764,-0.0025069306138902,0.0031546214595437,-0.8126975893974304,0.5826717615127563,0.1593468768417185,0.002502881132293,4.60550074368519e-08,-0.0178936515003442,-0.0027090683579444,-0.0177444219589233,-0.0014996994286775,0.0039623901247978,-0.9532349705696106,0.3022006452083587,-0.0243517503683856,0.0083893931483346,-0.0358225047455046,-0.0520333051681518,-0.1263250112533569,-1.230229377746582,10,49,9559,13136
22.1,1788527721035,1.2676056623458862,4.14084529876709,-0.0021446298342198,0.0035122989211231,-0.8091421127319336,0.5875985622406006,0.1068114820985717,0.0043204123985932,3.581687863778397e-06,0.0037519175093621,-0.0131894033402204,0.280843049287796,-0.0009298678487539,0.0040228674188256,-0.9497957229614258,0.3128435313701629,-0.0027563780895522,-0.0023832992904323,0.4268959076834722,-0.9381585121154784,0.2708667516708374,-0.323887825012207,52,74,0,12106
22.2,1788527721135,-1.3521126508712769,3.7183098793029785,-0.0022058335598558,0.0028138437774032,-0.7916596531867981,0.6109519004821777,0.0736899500490025,-0.0035746158335732,1.2014744899702151e-05,0.0232198033481836,-0.0164254698902368,0.6188209056854248,-0.0012176027521491,0.0032885009422898,-0.9413792490959167,0.337332010269165,0.0305804972483834,-0.0244989369753551,0.6495405170510533,-0.8814342021942139,0.5832198262214661,0.5624113082885742,321,39,-9164,10459
22.3,1788527721235,-3.380281686782837,3.014084577560425,-0.0025373313110321,0.0040115038864314,-0.7662994265556335,0.6424660682678223,-0.0004924850325046,-0.0056696876845966,3.4744583157783043e-06,-0.0262220464646816,-0.0037409833166748,0.8568472862243652,-0.0010857870802283,0.0046504009515047,-0.9285221099853516,0.3712465763092041,-0.0274444708866932,0.0003354538997688,0.8771798206615135,-0.5566976070404053,0.2938483953475952,-1.1225643157958984,135,97,-13292,10798
22.4,1788527721335,-3.492957830429077,3.323943614959717,-0.0029467637650668,0.0041537345387041,-0.734527587890625,0.6785597205162048,0.0023358286747482,-0.0078735452493097,8.630135211924181e-07,-0.0032762505579739,-0.0047612269409,1.0765581130981443,-0.0015655122697353,0.0049149021506309,-0.903091847896576,0.4294164776802063,-0.0050138604750716,-0.0083030366936389,1.0314759383975334,0.1088910102844238,-0.2121868133544922,0.1441240310668945,51,71,-10259,9753
22.5,1788527721435,-3.126760482788086,3.239436626434326,-0.0031195105984807,0.0039970623329281,-0.6998724937438965,0.714249849319458,0.0037646685762454,-0.0089127075222602,-1.342107866000332e-07,0.0028907048981636,-0.0148097118362784,0.9852261543273926,-0.0017464980483055,0.0048076994717121,-0.8831402063369751,0.4690814316272735,-0.0027345689562044,-0.0067342152423154,1.0045553959956497,-0.0344743132591247,-0.0834107398986816,-0.159372329711914,91,63,-11579,9872
22.6,1788527721535,-3.183098554611206,3.2676055431365967,-0.0030884586740285,0.0042012315243482,-0.6595080494880676,0.7516793608665466,0.0047831063897887,-0.0075697841861677,-1.6605544318464995e-06,6.808527541579679e-05,0.002968733664602,0.9908064007759094,-0.0016942825168371,0.0050382101908326,-0.8535165190696716,0.5210387110710144,-0.0107971304995305,-0.0062924529950496,1.0179426194437688,0.009627342224121,-0.5588876605033875,0.6044597625732422,83,43,-11731,9787
22.7,1788527721635,-3.2676055431365967,3.1549296379089355,-0.0029783588834106,0.0048048319295048,-0.6204304099082947,0.7842411398887634,0.005785608332666,-0.0009590580472747,-1.4394706113449678e-07,-0.0073502399027347,0.0082717835903167,1.0178111791610718,-0.0012914622202515,0.0056268321350216,-0.8291566967964172,0.5589863657951355,-0.0163665611772008,0.0118706021882625,0.9950561305966572,0.0561760663986206,-0.6476195454597473,0.2574167251586914,96,62,-10962,9863
22.8,1788527721735,-3.211267709732056,3.2957746982574463,-0.0024949337821453,0.0051247579976916,-0.5844635367393494,0.8113999366760254,0.0034117333648755,-0.0005964591809808,-5.596938519809902e-07,0.0052060130983591,0.0006993308779783,1.0012083053588867,-0.0006775185465812,0.0059020984917879,-0.8026769757270813,0.5963844060897827,-0.0137767780027477,0.0150684905088433,0.9914486895673844,-0.1011604070663452,-0.4156041145324707,-0.214299201965332,78,61,-10868,9776
22.9,1788527721835,-3.4647886753082275,3.126760482788086,-0.0035198528785258,0.0044077974744141,-0.5436429381370544,0.8392975926399231,0.0049114640174567,-0.0100611473918577,-1.0993112125798177e-05,-0.0045117302797734,-0.110520988702774,0.9541590213775636,-0.0025932975113391,0.0051435315981507,-0.7661365866661072,0.6426520347595215,-0.0186285423570652,-0.0339766601596904,0.9839452652193684,0.1118550896644592,-0.5990501046180725,-1.9367713928222656,50,124,-10046,10893
23.0,1788527721935,-3.211267709732056,3.2676055431365967,-0.0039537656120955,0.0042412369512021,-0.4962799847126007,0.8681431412696838,0.0017031574189927,-0.0034142164939484,-5.860331566008635e-07,-0.0014450731687247,-0.0092092910781502,1.0166994333267212,-0.0025150598958134,0.0053421258926391,-0.7358195185661316,0.6771519780158997,-0.0194207820208953,0.0145601181885678,0.9966523582927658,-0.0730645060539245,-0.6846856474876404,-0.1674766540527343,44,105,-10633,10142
23.1,1788527722035,-3.4084506034851074,3.1549296379089355,-0.004167977720499,0.0042100804857909,-0.45240518450737,0.891792893409729,0.003629770197425,-0.004412461442552,-3.340633252104603e-07,-0.0094692492857575,-0.0181289240717887,0.9737946391105652,-0.0026799459010362,0.0053208377212285,-0.7049115896224976,0.7092701196670532,-0.0195272001768848,-0.0075605179703111,0.9643720043656656,-0.002713143825531,-0.4194730520248413,0.4760446548461914,69,107,-9902,10566
23.2,1788527722135,-3.0985915660858154,3.2676055431365967,-0.0041836164891719,0.0039692539721727,-0.4111763834953308,0.9115375876426696,0.000576329064748,0.0025597712552762,7.735507291908807e-07,-0.0041668168269097,-0.0149103309959173,1.0170475244522097,-0.0028277952224016,0.0051673064008355,-0.6605537533760071,0.7507556676864624,-0.0088439313453148,-0.0031562829054342,1.002720838438859,0.0860154628753662,-0.4188600778579712,-0.4376888275146484,43,65,-11021,9909
23.3,1788527722235,-3.323943614959717,3.2957746982574463,-0.0043561905622482,0.0042673391290009,-0.3653266429901123,0.9308594465255736,0.0038251593609839,-0.0004196456658877,-4.4288953914176244e-07,-0.011495929211378,-0.0080054672434926,0.976069152355194,-0.0027482649311423,0.0055768145248293,-0.6263193488121033,0.7795417308807373,-0.0093125389271346,0.0004580573414012,1.062841445873338,0.1018426418304443,-0.6332582235336304,0.4374122619628906,76,44,-10108,9787
23.4,1788527722335,-3.070422649383545,3.183098554611206,-0.0039061524439603,0.0042832451872527,-0.3146251142024994,0.949198305606842,0.0059362113796181,-0.0056087313249821,-8.704174376014418e-07,0.0091697834432125,0.0006678427453152,0.9663068652153016,-0.002294517122209,0.0053067030385136,-0.5919192433357239,0.8059765696525574,0.0249212850450437,-0.0002137327504935,0.9317352948561176,0.5905267000198364,-0.5998637676239014,-0.7377862930297852,111,92,-11453,10338
23.5,1788527722435,-2.929577350616455,2.9577465057373047,-0.0022821922320872,0.0046316562220454,-0.2668261528015136,0.963730812072754,0.004088662665268,-0.0040731837018037,-2.1550620949462358e-07,-0.0057253437116742,-0.0126141123473644,1.0314397811889648,-0.0013961363583803,0.0050988076254725,-0.542118489742279,0.8402854204177856,-0.048971831082398,-0.0295762339718309,1.0175222261216004,-0.5044645071029663,-0.1861257553100586,-0.9515371322631836,56,47,-9975,8672
23.6,1788527722535,-2.901408433914185,2.8450703620910645,-0.0046401657164096,0.004113889299333,-0.2236117422580719,0.9746586084365844,-0.0004896191738855,-0.0083239438857027,4.747684200123464e-06,-0.0327720269560813,0.0085943061858415,0.8890222907066345,-0.0031794738024473,0.0054035130888223,-0.5070291757583618,0.8619061708450317,-0.0051291658593862,-0.0082441126734917,0.7766669090811402,0.217736542224884,-0.593299388885498,0.4527349472045898,57,41,-7176,7744
23.7,1788527722635,-2.507042169570923,2.6478872299194336,-0.0052665136754512,0.0042978026904165,-0.1889185607433319,0.9819692373275756,-0.0011970894531544,0.0037853655292295,-2.254254704404628e-06,-0.0241126772016286,-0.0042975777760148,0.7388527989387512,-0.0038394061848521,0.0056036645546555,-0.4780490696430206,0.8783069252967834,-0.0177894291358081,-0.017739771405118,0.7511800340920757,0.0834475755691528,-0.7905648946762085,0.2135000228881836,47,80,-8302,8193
23.8,1788527722735,-2.5352113246917725,2.619718313217163,-0.0055963285267353,0.0034705828875303,-0.1464686095714569,0.9891934394836426,0.0048685385846414,-0.0009661911218663,1.3956628040795646e-06,-0.0082547273486852,-0.0186328701674938,0.7331236600875854,-0.0042193345725536,0.0051857670769095,-0.4387198090553283,0.8985990881919861,-0.0074046416542273,-8.749840067738444e-05,0.757519086959354,0.0499261617660522,-0.5502578020095825,-0.1981163024902343,91,73,-8503,8499
23.9,1788527722835,-2.3380281925201416,2.169013977050781,-0.005585147999227,0.0031704735010862,-0.1106104701757431,0.9938430786132812,0.0036620366011989,-0.0055773040586569,-3.090388585938329e-07,-0.0035753983538597,-0.0162210203707218,0.7398074269294739,-0.0043783178552985,0.0049284109845757,-0.4086266756057739,0.9126778244972228,-0.0180629656790439,-0.0017132128271968,0.7212572663290517,-0.1568076014518737,-0.1027264595031738,0.1109647750854492,69,87,-7114,7509
24.0,1788527722935,-2.169013977050781,2.253521203994751,-0.0057662418112158,0.0034303329885005,-0.079571858048439,0.996806502342224,0.007636150292609,-0.0079692473915418,-2.136366118930552e-06,0.0050006271339952,0.0063699483871459,0.6605474352836609,-0.0043733343482017,0.0050106029957532,-0.3806883692741394,0.9246795177459716,0.0089815523915857,-0.0090749610576603,0.7025823335636503,0.134334921836853,0.1585713028907776,0.3354606628417969,36,82,-7663,7345
24.1,1788527723035,-1.8591549396514893,1.887323975563049,-0.0061079361476004,0.003503342391923,-0.0476719215512275,0.998838186264038,-0.0018467280488448,-0.0023635846487969,6.315985310677213e-07,-0.013098700903356,-0.0055047450587153,0.6526992917060852,-0.0047273458912968,0.0051227277144789,-0.3447659015655517,0.938662886619568,0.000631923625585,-0.0103038011794606,0.6339734251196678,0.3146101832389831,-0.3068931102752685,0.3099117279052734,57,42,-6485,6215
24.2,1788527723135,-1.887323975563049,1.8309859037399288,-0.0058201709762215,0.0027848780155181,-0.0157292280346155,0.9998554587364196,0.0066752306065127,-0.0005380994363426,1.019229048568765e-06,0.0019197688670828,-0.0174662284553051,0.5485130548477173,-0.0046444814652204,0.0046488298103213,-0.3214708566665649,0.9468966722488404,-0.0037886399348626,0.0126069498334188,0.4818137992602848,-0.2043716311454773,-0.1208201050758361,0.3117122650146484,104,67,-6750,6400
24.3,1788527723235,-1.774647831916809,1.8028168678283687,-0.0057070958428084,0.0032615179661661,0.0110657196491956,0.9999171495437622,0.0020543612103242,-0.0049881940237003,-3.8129983826413064e-08,0.0050044748932123,0.0035933044273406,0.5461985468864441,-0.0044018933549523,0.004887887276709,-0.2985361218452453,0.9543757438659668,0.0080538479028223,0.0096624363530965,0.560153117150234,0.1073263883590698,0.0647541880607605,0.0957231521606445,105,78,-7518,6824
24.4,1788527723335,-1.5492957830429075,1.5211267471313477,-0.0054777450859546,0.0025654677301645,0.0363520272076129,0.9993207454681396,0.0041550361185057,-0.004944775795826,1.0854721660797277e-06,-0.0016164935659617,-0.0125726899132132,0.5333176255226135,-0.0045336754992604,0.003846101462841,-0.2677292227745056,0.9634758234024048,-0.0025542221440758,-0.0249726381313078,0.4582037311807397,0.1089314222335815,-0.2936400175094604,0.0123519897460937,56,49,-5811,5225
24.5,1788527723435,-1.4929577112197876,1.6056338548660278,-0.0053862472996115,0.0020956038497388,0.0578186698257923,0.998310387134552,0.0010697213535416,-0.0021719554917193,-3.001949513429509e-07,0.0023200949653983,-0.0043932716362178,0.4106384217739105,-0.0044104428961873,0.0036314083263278,-0.2495387941598892,0.96834796667099,0.0043681368519076,-0.0047957308532603,0.4272126405969014,0.0124285817146301,-0.0969417095184326,0.2861738204956054,68,48,-6505,5072
24.6,1788527723535,-1.6338027715682983,1.5774648189544678,-0.0052003883756697,0.0019207175355404,0.0830105394124984,0.9965332746505736,-0.0011472452751762,-0.0008769639132897,-4.256013499138092e-08,-0.0012162667699158,-0.0068898098543286,0.4823135435581207,-0.0043544927611947,0.0034345686435699,-0.2291080802679062,0.973385214805603,-0.0030192636402579,-0.0112413199381135,0.4931124884176947,-0.0324034094810485,-0.0478925704956054,0.0419683456420898,52,63,-5911,5356
24.7,1788527723635,-1.0704225301742554,1.154929518699646,-0.0051112216897308,0.0013639759272336,0.1065236926078796,0.994296133518219,0.0036595591153702,-0.003602980546075,1.4667297201398774e-06,0.0038519673980772,-0.020848473533988,0.4685512781143188,-0.0043708747252821,0.002819649875164,-0.2016316652297973,0.979447603225708,0.0064387469526545,-0.0101525830639856,0.5017750614422289,-0.0329974889755249,-0.1506696939468383,0.1184806823730468,78,87,-4929,4430
24.8,1788527723735,-1.1267606019973757,1.2394366264343262,-0.0049166730605065,0.0010365374619141,0.1231905668973922,0.9923703670501708,-9.758961969857012e-05,-0.0031922431815684,7.880090592101482e-08,-0.0004419890174176,-0.0044049262069165,0.30694180727005,-0.0043846499174833,0.002504956908524,-0.1875426322221756,0.9822434782981871,-0.0031212748566733,-0.0035273988252966,0.2779770036872753,0.0545037388801574,-0.1639014482498169,0.009347915649414,39,41,-4899,4168
24.9,1788527723835,-1.0704225301742554,1.3239436149597168,-0.0051552723161876,0.0010063650552183,0.136188268661499,0.9906690716743468,-0.0039893106948423,0.0004948698676977,-5.55933726122476e-07,-0.007241697050631,-0.001953542465344,0.3084737956523895,-0.0046722637489438,0.0025195004418492,-0.1749937832355499,0.984555184841156,-0.0125756960857268,0.0013226852059538,0.3478349903400217,0.1432417631149292,0.191798448562622,-0.028909683227539,73,90,-5742,5228
25.0,1788527723935,-1.2957746982574463,1.154929518699646,-0.0057129403576254,0.0012489261571317,0.1566096544265747,0.987643301486969,0.0033477768174412,-0.0051664130509156,3.3007261577729985e-07,-0.006882969290018,0.001643422874622,0.3704370260238647,-0.0051294276490807,0.0030514989048242,-0.1529233753681183,0.9882200360298156,-0.0092573297066807,0.0012435170276903,0.3622719063334199,0.0196949243545532,0.088373839855194,-0.0339555740356445,86,105,-4864,5508
25.1,1788527724035,-1.2676056623458862,1.154929518699646,-0.0059598605148494,0.001473271055147,0.1752204000949859,0.9845101237297058,0.0036349319946731,-0.0021359559302992,-4.015951567057402e-07,-0.0018683235393837,0.00532085634768,0.3807192742824554,-0.0052174180746078,0.0032289968803524,-0.1362174451351165,0.9906599521636964,-0.0019918970698135,-0.0023774346294617,0.3667294876852278,-0.0525047183036804,0.0578154921531677,-0.3363552093505859,41,4,-2724,3005
25.2,1788527724135,-0.9577465057373048,0.8732394576072693,-0.005981461610645,0.0014014990301802,0.1907273381948471,0.9816238880157472,0.0013162256367749,-0.001978237751386,4.850628285503746e-07,-0.0016467932146042,-0.0048280009068548,0.3271603584289551,-0.0052675046026706,0.0031869644299149,-0.1209105625748634,0.9926443099975586,-0.0038510365828215,0.0017356698980922,0.3317509161207382,0.0173370838165283,-0.1030699610710144,-0.1754236221313476,55,107,-3550,3716
25.3,1788527724235,0.0,0.0,-0.0060030613094568,0.0013002915075048,0.200268268585205,0.9797218441963196,0.0032520683885591,-0.0033374367335178,3.554361453436357e-07,-0.0001708377822069,-0.0027098953723907,0.0943482294678688,-0.0053168078884482,0.0031343689188361,-0.11292315274477,0.9935845732688904,-0.0005872209945247,-6.119428315157449e-05,0.0119633854479432,-0.0682119131088256,-0.121639609336853,-0.0269804000854492,7,2,409,1532
25.4,1788527724335,0.0563380271196365,2.366197109222412,-0.0059819626621901,0.0012110426323488,0.2008154243230819,0.979610025882721,0.0087382125997865,0.0018933148353784,2.092817011777113e-07,-0.000163946810062,-0.0040405509062111,0.0505051724612712,-0.0053418381139636,0.0029001804068684,-0.1126423478126525,0.9936169981956482,-0.0013687610814269,-0.0120789036937132,0.1067010506066198,0.5882697701454163,0.4136503338813782,-0.0390501022338867,289,304,6880,12214
25.5,1788527724435,1.183098554611206,4.957746505737305,-0.0059467013925313,0.0009904464241117,0.2094896733760833,0.977792263031006,0.0592328235134653,0.0046758159169983,1.2355493652707565e-05,-0.0012710783630609,-0.0111395865678787,0.3617495000362396,-0.0054539693519473,0.003100867383182,-0.0948723703622818,0.9954696893692015,-0.0065727019831784,0.0090763972959483,0.484297674026386,0.1838573217391967,-0.2343486547470092,0.6580638885498047,82,208,5953,17727
25.6,1788527724535,2.281690120697021,7.380281925201416,-0.0058186301030218,0.0008280152687802,0.2492790520191192,0.9684138298034668,0.1387631802223011,0.0024546796469336,1.85121611581342e-06,0.0053861592896282,-0.0234169643372297,0.7226946949958801,-0.005225108936429,0.0024002268910408,-0.0546163506805896,0.998490869998932,0.0048527010199375,-0.0372227240631696,0.774399169153051,1.1979769468307495,-0.0112454891204833,-0.4354104995727539,155,167,9757,23799
25.7,1788527724635,2.7042253017425537,7.943662166595459,-0.0052277906797826,9.269686415791512e-06,0.2880759537220001,0.957593321800232,0.1875944982270794,0.0031583718240063,7.092880760421822e-05,0.0070934630930423,-0.0461035892367363,0.8227424025535583,-0.0049388613551855,0.0016016904264688,-0.0178072154521942,0.9998279809951782,0.0060334689124632,-0.0604210828272652,0.7975827116156768,0.0343413352966308,0.1282364130020141,0.8788585662841797,75,64,8051,21010
25.8,1788527724735,2.8450703620910645,7.492957592010498,-0.0047162910923361,-0.00038569024764,0.3293466567993164,0.9441971778869628,0.1718703559827108,4.52631973439458e-05,4.4329590589370745e-05,0.0053163487464189,-0.0157404746860265,0.7253873944282532,-0.004605402238667,0.001031907275319,0.0209099426865577,0.9997702240943908,0.0077012258265769,-0.0188553866967789,0.7128633679461926,-0.0545003414154052,-0.1615332961082458,-0.8624000549316406,91,38,9665,19335
25.9,1788527724835,3.2676055431365967,6.873239517211914,-0.004604001995176,-0.0007169258315116,0.3443208634853363,0.9388405084609984,0.1737198186821308,-0.0009514796564807,4.414370782589795e-05,-0.0009419415146112,-0.0176401883363723,0.6640294194221497,-0.004548124037683,0.0002282848581671,0.0485278069972991,0.998811423778534,0.0022404495274605,-0.0383263752592267,0.6461547152249016,0.077994704246521,-0.1057155728340148,-0.0079841613769531,74,60,10147,18977
26.0,1788527724935,3.88732385635376,6.169013977050781,-0.0050517357885837,-0.0004383759805932,0.3778125345706939,0.9258682131767272,0.1735025131702529,0.0054341036344754,-2.4953533740407828e-05,-0.0073980176821351,0.0036076069809496,0.4152559041976928,-0.004822801798582,0.0007474469020962,0.0767901986837387,0.9970353245735168,0.0124299027490791,-0.0385013423608397,0.4171557942043253,0.2513447403907776,-0.0826006531715393,-0.3822402954101562,106,79,13130,17010
26.1,1788527725035,4.0,6.309859275817871,-0.0057160314172506,0.0006619642954319,0.3939070999622345,0.9191322326660156,0.1634254380715628,0.0043010750556131,3.5586092037887394e-06,-0.0042580724693834,0.0299031026661396,0.3113880455493927,-0.0052026519551873,0.0025131655856966,0.091563656926155,0.9957825541496276,0.0113101553644762,0.0671857901818867,0.3003143251976015,0.0502492189407348,-0.021568477153778,-2.1091747283935547,78,62,11655,17229
26.2,1788527725135,3.6056337356567374,6.676056385040283,-0.0064166490919888,0.0014212534297257,0.4098672568798065,0.9121215343475342,0.1755263331734138,0.0022614101934419,-7.428875883728856e-05,-0.0067760269157588,-0.0700842440128326,0.3360526859760284,-0.0056135132908821,0.0021604690700769,0.1089272275567054,0.9940314888954164,-0.0262680554900428,-0.2546979479303963,0.383004066851053,0.0743165612220764,0.1340394020080566,-2.9556922912597656,15,78,10176,18568
26.3,1788527725235,4.0,6.2816901206970215,-0.0070571331307291,0.0022336787078529,0.4189951121807098,0.9079583287239076,0.1657821511284834,0.0033721976039068,0.0001291297720704,-0.0118948658928275,0.0388818457722663,0.4103855788707733,-0.0059065846726298,0.0030251573771238,0.1262232363224029,0.9919796586036682,-0.0048386643583982,-0.0710470344260562,0.4872307466879345,0.1382807493209839,0.4765022397041321,-1.9955143928527832,52,61,11113,17577
26.4,1788527725335,3.859154939651489,6.2253522872924805,-0.0072069885209202,0.0020591171924024,0.4445065855979919,0.8957441449165344,0.1715217063097904,0.0054930064532216,-1.488049783689943e-05,-0.0077267228625714,0.0214427672326564,0.3641200065612793,-0.0060411486774683,0.0050936257466673,0.1492642611265182,0.9887657761573792,0.0198277709538801,0.082354822407201,0.3880895980781392,-0.4899970293045044,-0.302787721157074,0.0322399139404296,76,94,12036,18027
26.5,1788527725435,3.91549301147461,6.3380279541015625,-0.0074228723533451,0.0042397128418087,0.4623879790306091,0.8866364359855652,0.1763121513254108,0.0065596054597516,-0.0001483874832057,-0.0133465332910418,0.0230890102684497,0.3743108808994293,-0.0060752565041184,0.0058961333706974,0.1666716635227203,0.9859761595726012,-0.058061821842036,-0.0394989974527278,0.3093533722379185,0.3395051956176758,-0.0870532989501953,-0.3114595413208008,38,68,12222,17699
26.6,1788527725535,4.2253522872924805,5.943662166595459,-0.0068560093641281,0.0018877652473747,0.4785619378089905,0.8780249357223511,0.1636884070173368,-0.0009037168095624,7.37848373856839e-05,0.0251979976892471,-0.0142567986622452,0.3663788735866546,-0.0059390095993876,0.0038718394935131,0.1830969601869583,0.9830693006515504,0.0226828844692186,-0.0115107021443456,0.3712222786638781,-0.1294761300086975,0.3972618579864502,-2.4215216636657715,32,44,12288,16200
26.7,1788527725635,4.366197109222412,6.11267614364624,-0.0051751360297203,0.0009895176626741,0.4855863451957702,0.8741728067398071,0.1645146534999184,0.0061352294459624,0.0001151087760555,0.0411554686725139,-0.0668252110481262,0.3275099694728851,-0.0021899715065956,0.0011818148195743,0.1966079175472259,0.980479061603546,0.1232027361111618,-0.1357075979403291,0.2847436543499268,0.029982566833496,-0.0758705139160156,-0.5595378875732422,72,23,12474,15530
26.8,1788527725735,4.450704097747803,5.408450603485107,-0.0032043638639152,0.0001999302767217,0.4971442520618438,0.8676619529724121,0.1617065982291383,0.0023473589905297,-0.0001077523039249,-0.0261752270162105,0.0340575166046619,0.0795957371592521,-0.0030600391328334,0.000637974590063,0.2047367244958877,0.9788121581077576,-0.0243211451753645,-0.0454951474869192,0.061561107685096,0.0993596315383911,0.017129361629486,0.8586845397949219,95,79,14477,15889
26.9,1788527725835,4.478873252868652,5.521126747131348,-0.0038196116220206,-0.0011804043315351,0.5016772150993347,0.8650456666946411,0.1702973084301004,0.005236933844998,3.561897508062608e-05,-0.031547162681818,-0.0235117953270673,0.1191286891698837,-0.0040705325081944,0.0002092840149998,0.2121107429265976,0.9772371649742126,-0.0013048740312985,-1.2717205180659017e-05,0.1649357210493012,-0.165079653263092,-0.1553489565849304,0.018890380859375,64,75,13564,16282
