time_s,timestamp_ms,wheel_vels__velocity_left,wheel_vels__velocity_right,odom__orient_x,odom__orient_y,odom__orient_z,odom__orient_w,odom__lin_x,odom__lin_y,odom__lin_z,odom__ang_x,odom__ang_y,odom__ang_z,imu__orient_x,imu__orient_y,imu__orient_z,imu__orient_w,imu__angvel_x,imu__angvel_y,imu__angvel_z,imu__acc_x,imu__acc_y,imu__acc_z,wheel_status__current_ma_left,wheel_status__current_ma_right,wheel_status__pwm_left,wheel_status__pwm_right
0.0,1788347920706,0.0,0.0,-0.0034242842812091,-0.0049414997920393,0.5290306210517883,0.8485814332962036,0.0,0.0,0.0,0.0,-3.6489093968583575e-09,0.0,-0.0014744196087121,-0.0056433174759149,0.7924638390541077,0.6098910570144653,0.000602834579127,0.0009241004633613,0.0009668964481979,-0.0317484736442565,-0.0044373273849487,-0.012969970703125,0,0,0,0
0.1,1788347920806,0.0,0.0,-0.0034242842812091,-0.0049414997920393,0.5290306210517883,0.8485814332962036,0.0,0.0,0.0,0.0,-3.6489093968583575e-09,0.0,-0.0014744196087121,-0.0056433174759149,0.7924638390541077,0.6098910570144653,0.000602834579127,0.0009241004633613,0.0009668964481979,-0.0317484736442565,-0.0044373273849487,-0.012969970703125,0,0,0,0
0.2,1788347920906,0.0,0.0,-0.0034242842812091,-0.0049414997920393,0.5290306210517883,0.8485814332962036,0.0,0.0,0.0,0.0,-3.6489093968583575e-09,0.0,-0.0014744196087121,-0.0056433174759149,0.7924638390541077,0.6098910570144653,0.000602834579127,0.0009241004633613,0.0009668964481979,-0.0317484736442565,-0.0044373273849487,-0.012969970703125,0,0,0,0
0.3,1788347921006,0.0,0.0,-0.0034242842812091,-0.0049414997920393,0.5290306210517883,0.8485814332962036,0.0,0.0,0.0,0.0,-3.6489093968583575e-09,0.0,-0.0014744196087121,-0.0056433174759149,0.7924638390541077,0.6098910570144653,0.000602834579127,0.0009241004633613,0.0009668964481979,-0.0317484736442565,-0.0044373273849487,-0.012969970703125,0,0,0,0
0.4,1788347921106,0.0,0.0,-0.0034242842812091,-0.0049414997920393,0.5290306210517883,0.8485814332962036,0.0,0.0,0.0,0.0,-3.6489093968583575e-09,0.0,-0.0014744196087121,-0.0056433174759149,0.7924638390541077,0.6098910570144653,0.000602834579127,0.0009241004633613,0.0009668964481979,-0.0317484736442565,-0.0044373273849487,-0.012969970703125,0,0,0,0
0.5,1788347921206,0.0,0.0,-0.0034242842812091,-0.0049414997920393,0.5290306210517883,0.8485814332962036,0.0,0.0,0.0,0.0,-3.6489093968583575e-09,0.0,-0.0014744196087121,-0.0056433174759149,0.7924638390541077,0.6098910570144653,0.000602834579127,0.0009241004633613,0.0009668964481979,-0.0317484736442565,-0.0044373273849487,-0.012969970703125,0,0,0,0
0.6,1788347921306,0.0,0.0,-0.0034242842812091,-0.0049414997920393,0.5290306210517883,0.8485814332962036,0.0,0.0,0.0,0.0,-3.6489093968583575e-09,0.0,-0.0014744196087121,-0.0056433174759149,0.7924638390541077,0.6098910570144653,0.000602834579127,0.0009241004633613,0.0009668964481979,-0.0317484736442565,-0.0044373273849487,-0.012969970703125,0,0,0,0
0.7,1788347921406,0.0,0.0,-0.0034242842812091,-0.0049414997920393,0.5290306210517883,0.8485814332962036,0.0,0.0,0.0,0.0,-3.6489093968583575e-09,0.0,-0.0014744196087121,-0.0056433174759149,0.7924638390541077,0.6098910570144653,0.000602834579127,0.0009241004633613,0.0009668964481979,-0.0317484736442565,-0.0044373273849487,-0.012969970703125,0,0,0,0
0.8,1788347921506,0.0,0.0,-0.0034242842812091,-0.0049414997920393,0.5290306210517883,0.8485814332962036,0.0,0.0,0.0,0.0,-3.6489093968583575e-09,0.0,-0.0014744196087121,-0.0056433174759149,0.7924638390541077,0.6098910570144653,0.000602834579127,0.0009241004633613,0.0009668964481979,-0.0317484736442565,-0.0044373273849487,-0.012969970703125,0,0,0,0
0.9,1788347921606,0.0,0.0,-0.0034242842812091,-0.0049414997920393,0.5290306210517883,0.8485814332962036,0.0,0.0,0.0,0.0,-3.6489093968583575e-09,0.0,-0.0014744196087121,-0.0056433174759149,0.7924638390541077,0.6098910570144653,0.000602834579127,0.0009241004633613,0.0009668964481979,-0.0317484736442565,-0.0044373273849487,-0.012969970703125,0,0,0,0
1.0,1788347921706,0.0,0.0,-0.0034242842812091,-0.0049414997920393,0.5290306210517883,0.8485814332962036,0.0,0.0,0.0,0.0,-3.6489093968583575e-09,0.0,-0.0014744196087121,-0.0056433174759149,0.7924638390541077,0.6098910570144653,0.000602834579127,0.0009241004633613,0.0009668964481979,-0.0317484736442565,-0.0044373273849487,-0.012969970703125,0,0,0,0
1.1,1788347921806,0.0,0.0,-0.0034242842812091,-0.0049414997920393,0.5290306210517883,0.8485814332962036,0.0,0.0,0.0,0.0,-3.6489093968583575e-09,0.0,-0.0014744196087121,-0.0056433174759149,0.7924638390541077,0.6098910570144653,0.000602834579127,0.0009241004633613,0.0009668964481979,-0.0317484736442565,-0.0044373273849487,-0.012969970703125,0,0,0,0
1.2,1788347921906,0.0,0.0,-0.0034242842812091,-0.0049414997920393,0.5290306210517883,0.8485814332962036,0.0,0.0,0.0,0.0,-3.6489093968583575e-09,0.0,-0.0014744196087121,-0.0056433174759149,0.7924638390541077,0.6098910570144653,0.000602834579127,0.0009241004633613,0.0009668964481979,-0.0317484736442565,-0.0044373273849487,-0.012969970703125,0,0,0,0
1.3,1788347922006,0.0,0.0,-0.0034242842812091,-0.0049414997920393,0.5290306210517883,0.8485814332962036,0.0,0.0,0.0,0.0,-3.6489093968583575e-09,0.0,-0.0014744196087121,-0.0056433174759149,0.7924638390541077,0.6098910570144653,0.000602834579127,0.0009241004633613,0.0009668964481979,-0.0317484736442565,-0.0044373273849487,-0.012969970703125,0,0,0,0
1.4,1788347922106,0.0,0.0,-0.0034242842812091,-0.0049414997920393,0.5290306210517883,0.8485814332962036,0.0,0.0,0.0,0.0,-3.6489093968583575e-09,0.0,-0.0014744196087121,-0.0056433174759149,0.7924638390541077,0.6098910570144653,0.000602834579127,0.0009241004633613,0.0009668964481979,-0.0317484736442565,-0.0044373273849487,-0.012969970703125,0,0,0,0
1.5,1788347922206,0.0,0.0,-0.0034242842812091,-0.0049414997920393,0.5290306210517883,0.8485814332962036,0.0,0.0,0.0,0.0,-3.6489093968583575e-09,0.0,-0.0014744196087121,-0.0056433174759149,0.7924638390541077,0.6098910570144653,0.000602834579127,0.0009241004633613,0.0009668964481979,-0.0317484736442565,-0.0044373273849487,-0.012969970703125,0,0,0,0
1.6,1788347922306,0.0,0.0,-0.0034242842812091,-0.0049414997920393,0.5290306210517883,0.8485814332962036,0.0,0.0,0.0,0.0,-3.6489093968583575e-09,0.0,-0.0014744196087121,-0.0056433174759149,0.7924638390541077,0.6098910570144653,0.000602834579127,0.0009241004633613,0.0009668964481979,-0.0317484736442565,-0.0044373273849487,-0.012969970703125,0,0,0,0
1.7,1788347922406,0.0,0.0,-0.0034242842812091,-0.0049414997920393,0.5290306210517883,0.8485814332962036,0.0,0.0,0.0,0.0,-3.6489093968583575e-09,0.0,-0.0014744196087121,-0.0056433174759149,0.7924638390541077,0.6098910570144653,0.000602834579127,0.0009241004633613,0.0009668964481979,-0.0317484736442565,-0.0044373273849487,-0.012969970703125,0,0,0,0
1.8,1788347922506,0.0,0.0,-0.0034242842812091,-0.0049414997920393,0.5290306210517883,0.8485814332962036,0.0,0.0,0.0,0.0,-3.6489093968583575e-09,0.0,-0.0014744196087121,-0.0056433174759149,0.7924638390541077,0.6098910570144653,0.000602834579127,0.0009241004633613,0.0009668964481979,-0.0317484736442565,-0.0044373273849487,-0.012969970703125,0,0,0,0
1.9,1788347922606,0.0,0.0,-0.0034242842812091,-0.0049414997920393,0.5290306210517883,0.8485814332962036,0.0,0.0,0.0,0.0,-3.6489093968583575e-09,0.0,-0.0014744196087121,-0.0056433174759149,0.7924638390541077,0.6098910570144653,0.000602834579127,0.0009241004633613,0.0009668964481979,-0.0317484736442565,-0.0044373273849487,-0.012969970703125,0,0,0,0
2.0,1788347922706,0.0,0.0,-0.0034242842812091,-0.0049414997920393,0.5290306210517883,0.8485814332962036,0.0,0.0,0.0,0.0,-3.6489093968583575e-09,0.0,-0.0014744196087121,-0.0056433174759149,0.7924638390541077,0.6098910570144653,0.000602834579127,0.0009241004633613,0.0009668964481979,-0.0317484736442565,-0.0044373273849487,-0.012969970703125,0,0,0,0
2.1,1788347922806,0.0,0.0,-0.0034242842812091,-0.0049414997920393,0.5290306210517883,0.8485814332962036,0.0,0.0,0.0,0.0,-3.6489093968583575e-09,0.0,-0.0014744196087121,-0.0056433174759149,0.7924638390541077,0.6098910570144653,0.000602834579127,0.0009241004633613,0.0009668964481979,-0.0317484736442565,-0.0044373273849487,-0.012969970703125,0,0,0,0
2.2,1788347922906,0.0,0.0,-0.0034242842812091,-0.0049414997920393,0.5290306210517883,0.8485814332962036,0.0,0.0,0.0,0.0,-3.6489093968583575e-09,0.0,-0.0014744196087121,-0.0056433174759149,0.7924638390541077,0.6098910570144653,0.000602834579127,0.0009241004633613,0.0009668964481979,-0.0317484736442565,-0.0044373273849487,-0.012969970703125,0,0,0,0
2.3,1788347923006,0.0,0.0,-0.0034242842812091,-0.0049414997920393,0.5290306210517883,0.8485814332962036,0.0,0.0,0.0,0.0,-3.6489093968583575e-09,0.0,-0.0014744196087121,-0.0056433174759149,0.7924638390541077,0.6098910570144653,0.000602834579127,0.0009241004633613,0.0009668964481979,-0.0317484736442565,-0.0044373273849487,-0.012969970703125,0,0,0,0
2.4,1788347923106,0.0,0.0,-0.0034242842812091,-0.0049414997920393,0.5290306210517883,0.8485814332962036,0.0,0.0,0.0,0.0,-3.6489093968583575e-09,0.0,-0.0014744196087121,-0.0056433174759149,0.7924638390541077,0.6098910570144653,0.000602834579127,0.0009241004633613,0.0009668964481979,-0.0317484736442565,-0.0044373273849487,-0.012969970703125,0,0,0,0
2.5,1788347923206,0.0,0.0,-0.0034242842812091,-0.0049414997920393,0.5290306210517883,0.8485814332962036,0.0,0.0,0.0,0.0,-3.6489093968583575e-09,0.0,-0.0014744196087121,-0.0056433174759149,0.7924638390541077,0.6098910570144653,0.000602834579127,0.0009241004633613,0.0009668964481979,-0.0317484736442565,-0.0044373273849487,-0.012969970703125,0,0,0,0
2.6,1788347923306,0.0,0.0,-0.0034242842812091,-0.0049414997920393,0.5290306210517883,0.8485814332962036,0.0,0.0,0.0,0.0,-3.6489093968583575e-09,0.0,-0.0014744196087121,-0.0056433174759149,0.7924638390541077,0.6098910570144653,0.000602834579127,0.0009241004633613,0.0009668964481979,-0.0317484736442565,-0.0044373273849487,-0.012969970703125,0,0,0,0
2.7,1788347923406,0.0,0.0,-0.0034242842812091,-0.0049414997920393,0.5290306210517883,0.8485814332962036,0.0,0.0,0.0,0.0,-3.6489093968583575e-09,0.0,-0.0014744196087121,-0.0056433174759149,0.7924638390541077,0.6098910570144653,0.000602834579127,0.0009241004633613,0.0009668964481979,-0.0317484736442565,-0.0044373273849487,-0.012969970703125,0,0,0,0
2.8,1788347923506,0.0,0.0,-0.0034242842812091,-0.0049414997920393,0.5290306210517883,0.8485814332962036,0.0,0.0,0.0,0.0,-3.6489093968583575e-09,0.0,-0.0014744196087121,-0.0056433174759149,0.7924638390541077,0.6098910570144653,0.000602834579127,0.0009241004633613,0.0009668964481979,-0.0317484736442565,-0.0044373273849487,-0.012969970703125,0,0,0,0
2.9,1788347923606,0.0,0.0,-0.0034242842812091,-0.0049414997920393,0.5290306210517883,0.8485814332962036,0.0,0.0,0.0,0.0,-3.6489093968583575e-09,0.0,-0.0014744196087121,-0.0056433174759149,0.7924638390541077,0.6098910570144653,0.000602834579127,0.0009241004633613,0.0009668964481979,-0.0317484736442565,-0.0044373273849487,-0.012969970703125,0,0,0,0
3.0,1788347923706,0.0,0.0,-0.0034242842812091,-0.0049414997920393,0.5290306210517883,0.8485814332962036,0.0,0.0,0.0,0.0,-3.6489093968583575e-09,0.0,-0.0014744196087121,-0.0056433174759149,0.7924638390541077,0.6098910570144653,0.000602834579127,0.0009241004633613,0.0009668964481979,-0.0317484736442565,-0.0044373273849487,-0.012969970703125,0,0,0,0
3.1,1788347923806,0.0,0.0,-0.0034242842812091,-0.0049414997920393,0.5290306210517883,0.8485814332962036,0.0,0.0,0.0,0.0,-3.6489093968583575e-09,0.0,-0.0014744196087121,-0.0056433174759149,0.7924638390541077,0.6098910570144653,0.000602834579127,0.0009241004633613,0.0009668964481979,-0.0317484736442565,-0.0044373273849487,-0.012969970703125,0,0,0,0
3.2,1788347923906,0.0,0.0,-0.0034242842812091,-0.0049414997920393,0.5290306210517883,0.8485814332962036,0.0,0.0,0.0,0.0,-3.6489093968583575e-09,0.0,-0.0014744196087121,-0.0056433174759149,0.7924638390541077,0.6098910570144653,0.000602834579127,0.0009241004633613,0.0009668964481979,-0.0317484736442565,-0.0044373273849487,-0.012969970703125,0,0,0,0
3.3,1788347924006,0.0,0.0,-0.0034242842812091,-0.0049414997920393,0.5290306210517883,0.8485814332962036,0.0,0.0,0.0,0.0,-3.6489093968583575e-09,0.0,-0.0014744196087121,-0.0056433174759149,0.7924638390541077,0.6098910570144653,0.000602834579127,0.0009241004633613,0.0009668964481979,-0.0317484736442565,-0.0044373273849487,-0.012969970703125,0,0,0,0
3.4,1788347924106,0.0,0.0,-0.0034242842812091,-0.0049414997920393,0.5290306210517883,0.8485814332962036,0.0,0.0,0.0,0.0,-3.6489093968583575e-09,0.0,-0.0014744196087121,-0.0056433174759149,0.7924638390541077,0.6098910570144653,0.000602834579127,0.0009241004633613,0.0009668964481979,-0.0317484736442565,-0.0044373273849487,-0.012969970703125,0,0,0,0
3.5,1788347924206,0.0,0.0,-0.0034242842812091,-0.0049414997920393,0.5290306210517883,0.8485814332962036,0.0,0.0,0.0,0.0,-3.6489093968583575e-09,0.0,-0.0014744196087121,-0.0056433174759149,0.7924638390541077,0.6098910570144653,0.000602834579127,0.0009241004633613,0.0009668964481979,-0.0317484736442565,-0.0044373273849487,-0.012969970703125,0,0,0,0
3.6,1788347924306,0.0,0.0,-0.0034242842812091,-0.0049414997920393,0.5290306210517883,0.8485814332962036,0.0,0.0,0.0,0.0,-3.6489093968583575e-09,0.0,-0.0014744196087121,-0.0056433174759149,0.7924638390541077,0.6098910570144653,0.000602834579127,0.0009241004633613,0.0009668964481979,-0.0317484736442565,-0.0044373273849487,-0.012969970703125,0,0,0,0
3.7,1788347924406,0.0,0.0,-0.0034242842812091,-0.0049414997920393,0.5290306210517883,0.8485814332962036,0.0,0.0,0.0,0.0,-3.6489093968583575e-09,0.0,-0.0014744196087121,-0.0056433174759149,0.7924638390541077,0.6098910570144653,0.000602834579127,0.0009241004633613,0.0009668964481979,-0.0317484736442565,-0.0044373273849487,-0.012969970703125,0,0,0,0
3.8,1788347924506,0.0,0.0,-0.0034242842812091,-0.0049414997920393,0.5290306210517883,0.8485814332962036,0.0,0.0,0.0,0.0,-3.6489093968583575e-09,0.0,-0.0014744196087121,-0.0056433174759149,0.7924638390541077,0.6098910570144653,0.000602834579127,0.0009241004633613,0.0009668964481979,-0.0317484736442565,-0.0044373273849487,-0.012969970703125,0,0,0,0
3.9,1788347924606,0.0,0.0,-0.0034242842812091,-0.0049414997920393,0.5290306210517883,0.8485814332962036,0.0,0.0,0.0,0.0,-3.6489093968583575e-09,0.0,-0.0014744196087121,-0.0056433174759149,0.7924638390541077,0.6098910570144653,0.000602834579127,0.0009241004633613,0.0009668964481979,-0.0317484736442565,-0.0044373273849487,-0.012969970703125,0,0,0,0
4.0,1788347924706,0.0,0.0,-0.0034242842812091,-0.0049414997920393,0.5290306210517883,0.8485814332962036,0.0,0.0,0.0,0.0,-3.6489093968583575e-09,0.0,-0.0014744196087121,-0.0056433174759149,0.7924638390541077,0.6098910570144653,0.000602834579127,0.0009241004633613,0.0009668964481979,-0.0317484736442565,-0.0044373273849487,-0.012969970703125,0,0,0,0
4.1,1788347924806,0.0,0.0,-0.0034242842812091,-0.0049414997920393,0.5290306210517883,0.8485814332962036,0.0,0.0,0.0,0.0,-3.6489093968583575e-09,0.0,-0.0014744196087121,-0.0056433174759149,0.7924638390541077,0.6098910570144653,0.000602834579127,0.0009241004633613,0.0009668964481979,-0.0317484736442565,-0.0044373273849487,-0.012969970703125,0,0,0,0
4.2,1788347924906,0.0,0.0,-0.0034242842812091,-0.0049414997920393,0.5290306210517883,0.8485814332962036,0.0,0.0,0.0,0.0,-7.2651276106228124e-09,0.0,-0.0014969054609537,-0.005668381229043,0.7924590110778809,0.6098968982696533,-0.0008009421877033,-0.0009995068405602,-0.0025691700672828,0.0113944411277771,-0.0092412233352661,0.0175609588623046,0,0,0,0
4.3,1788347925006,0.0,0.0,-0.0034242842812091,-0.0049414997920393,0.5290306210517883,0.8485814332962036,0.0,0.0,0.0,0.0,-5.02356156673045e-09,0.0,-0.0014754561707377,-0.0056649334728717,0.7924807667732239,0.6098687648773193,0.0007298967490468,-0.0023487014049957,0.0018720865370489,-0.0230144262313842,0.0228548645973205,-0.0093202590942382,0,0,0,0
4.4,1788347925106,0.0,0.0,-0.0034242842812091,-0.0049414997920393,0.5290306210517883,0.8485814332962036,0.0,0.0,0.0,0.0,-4.843767165141344e-09,0.0,-0.001405251212418,-0.0057417210191488,0.7925089597702026,0.609831690788269,0.0011184450088286,-0.0021122799540617,0.0028541395502794,0.0091065168380737,0.0106376409530639,-0.0057497024536132,0,0,0,0
4.5,1788347925206,0.0,0.0,-0.0034242842812091,-0.0049414997920393,0.5290306210517883,0.8485814332962036,0.0,0.0,0.0,0.0,-4.673885278805301e-09,0.0,-0.001444305293262,-0.0056948252022266,0.7924817204475403,0.6098672747612,0.0002347319463693,0.003383701478542,-0.0010392782668498,0.0012896060943603,-0.0147616267204284,-0.0076303482055664,0,0,0,0
4.6,1788347925306,0.0,0.0,-0.0034242842812091,-0.0049414997920393,0.5290306210517883,0.8485814332962036,0.0,0.0,0.0,0.0,-5.037539274610481e-09,0.0,-0.0014366079121828,-0.0056741666048765,0.7925084233283997,0.6098328828811646,5.514160547127501e-05,-0.0001533895775614,-0.0006998276517776,0.0085985660552978,-0.0062519311904907,0.0175237655639648,0,0,0,0
4.7,1788347925406,0.0,0.0,-0.0034242842812091,-0.0049414997920393,0.5290306210517883,0.8485814332962036,0.0,0.0,0.0,0.0,-4.763551331166127e-09,0.0,-0.001435930840671,-0.0056715486571192,0.7925137877464294,0.6098260283470154,0.0004089334613914,-0.0012221099065531,0.002317946496473,0.0265793800354003,-0.0045236349105834,0.0265064239501953,0,0,0,0
4.8,1788347925506,0.0,0.0,-0.0034242842812091,-0.0049414997920393,0.5290306210517883,0.8485814332962036,0.0,0.0,0.0,0.0,-4.770138062326623e-09,0.0,-0.0014235479757189,-0.00565339718014,0.7924965620040894,0.6098485589027405,0.0013175667365859,0.0012821576061735,0.001834035229685,-0.0003291368484497,0.0184704065322875,-0.0039939880371093,0,0,0,0
4.9,1788347925606,0.0,0.0,-0.0034242842812091,-0.0049414997920393,0.5290306210517883,0.8485814332962036,0.0,0.0,0.0,0.0,-4.869836978116382e-09,0.0,-0.0014409674331545,-0.0057007940486073,0.7924754023551941,0.609875500202179,-0.0011994327975498,0.000915928113663,-0.0008785163474655,-0.0239765644073486,-0.0326721668243408,-0.0059328079223632,0,0,0,0
5.0,1788347925706,0.0,0.0,-0.0034242842812091,-0.0049414997920393,0.5290306210517883,0.8485814332962036,0.0,0.0,0.0,0.0,-4.9313673144979475e-09,0.0,-0.0014296546578407,-0.0056930258870124,0.792492151260376,0.6098538041114807,-0.0010017602702322,-0.0006769841454359,-0.0017556158666665,0.0082771182060241,0.0137901306152343,-0.0129995346069335,0,0,0,0
5.1,1788347925806,0.0,0.0,-0.0034242842812091,-0.0049414997920393,0.5290306210517883,0.8485814332962036,0.0,0.0,0.0,0.0,-3.6519087753816844e-09,0.0,-0.0014845188707113,-0.0056702755391597,0.7924943566322327,0.6098511219024658,-0.0008319612533534,0.0009110613814104,-0.0001606997512651,-0.0175432562828063,0.0068530440330505,0.0085058212280273,0,0,0,0
5.2,1788347925906,0.0,0.0,-0.0034242842812091,-0.0049414997920393,0.5290306210517883,0.8485814332962036,0.0,0.0,0.0,0.0,-4.783384355278031e-09,0.0,-0.0015031099319458,-0.0056359730660915,0.7924802303314209,0.6098697185516357,0.0018317680884063,-0.0006911000696179,0.0023286740365328,-0.0096536874771118,-0.0239592194557189,-0.0041656494140625,0,0,0,0
5.3,1788347926006,0.0,0.0,-0.0034242842812091,-0.0049414997920393,0.5290306210517883,0.8485814332962036,0.0,0.0,0.0,0.0,-4.8931978469113355e-09,0.0,-0.0015080347657203,-0.0056626070290803,0.792452871799469,0.6099050641059875,-0.0001088364728147,0.0003467873865714,-0.0020594757307615,0.0008735060691833,-0.0289400815963745,0.0209560394287109,0,0,0,0
5.4,1788347926106,0.0,0.0,-0.0034242842812091,-0.0049414997920393,0.5290306210517883,0.8485814332962036,0.0,0.0,0.0,0.0,-4.9283430669788694e-09,0.0,-0.0015101395547389,-0.005667065270245,0.7924745082855225,0.6098767518997192,-0.0015414223753712,0.0007381781766453,-0.0015817137789384,-0.0135034918785095,-0.0018806457519531,0.0120182037353515,0,0,0,0
5.5,1788347926206,0.0,0.0,-0.0034242842812091,-0.0049414997920393,0.5290306210517883,0.8485814332962036,0.0,0.0,0.0,0.0,-4.950747811705014e-09,0.0,-0.0014710491523146,-0.0056403614580631,0.7925029397010803,0.6098401546478271,0.0005933830449771,-0.0008767399005681,0.0007349295132912,0.0005882382392883,0.0241935849189758,0.0066757202148437,0,0,0,0
5.6,1788347926306,0.0,0.0,-0.0034242842812091,-0.0049414997920393,0.5290306210517883,0.8485814332962036,0.0,0.0,0.0,0.0,-4.768326178350435e-09,0.0,-0.0014964789152145,-0.0056401034817099,0.7925066947937012,0.6098352074623108,5.483085392235165e-05,-0.0008641291551577,0.00143867523598,-0.0367209315299987,0.0137537121772766,-0.0077438354492187,0,0,0,0
5.7,1788347926406,0.0,0.0,-0.0034242842812091,-0.0049414997920393,0.5290306210517883,0.8485814332962036,0.0,0.0,0.0,0.0,-4.865545299992391e-09,0.0,-0.0015688203275203,-0.0056317616254091,0.7924906015396118,0.609856128692627,-0.0006545886435507,0.0026803968581085,0.0009107136920282,0.0004212856292724,-0.0017063021659851,0.0029964447021484,0,0,0,0
5.8,1788347926506,0.0,0.0,-0.0034242842812091,-0.0049414997920393,0.5290306210517883,0.8485814332962036,0.0,0.0,0.0,0.0,-4.936479669481741e-09,0.0,-0.0015354054048657,-0.005647568963468,0.7924813032150269,0.6098681688308716,-0.0013208757547571,-0.001742500376826,-0.0023700319207628,0.0266574621200561,-0.0018427968025207,-0.0041866302490234,0,0,0,0
5.9,1788347926606,0.0,0.0,-0.0034242842812091,-0.0049414997920393,0.5290306210517883,0.8485814332962036,0.0,0.0,0.0,0.0,-4.77459005665537e-09,0.0,-0.001528869383037,-0.0056194718927145,0.7925030589103699,0.6098400950431824,0.0005802887447769,-0.0001512733587976,0.0005458062563512,-0.0072302818298339,-0.0077675580978393,0.0047521591186523,0,0,0,0
6.0,1788347926706,0.0,0.0,-0.0034242842812091,-0.0049414997920393,0.5290306210517883,0.8485814332962036,0.0,0.0,0.0,0.0,-4.6820578525341724e-09,0.0,-0.0015001306310296,-0.0056407172232866,0.7924907207489014,0.6098560690879822,-0.0006070101097448,-0.0014602277802868,0.0010053652635227,-0.0061314702033996,0.0191912651062011,-0.005965232849121,0,0,0,0
6.1,1788347926806,0.0,0.0,-0.0034242842812091,-0.0049414997920393,0.5290306210517883,0.8485814332962036,0.0,0.0,0.0,0.0,-4.7698800464957e-09,0.0,-0.0015385793522,-0.0056450404226779,0.7924763560295105,0.6098745465278625,0.000763230483066,-0.0003270921915147,-0.0001588354302376,-0.0002027750015258,-0.0018646121025085,0.0065526962280273,0,0,0,0
6.2,1788347926906,0.0,0.0,-0.0034242842812091,-0.0049414997920393,0.5290306210517883,0.8485814332962036,0.0,0.0,0.0,0.0,-4.9280557412600964e-09,0.0,-0.0014709448441863,-0.0056774178519845,0.7924882173538208,0.6098589301109314,0.0002292015807456,-0.0022783247026733,-0.0010602425766365,0.0109404921531677,0.0266124606132507,-0.0095376968383789,0,0,0,0
6.3,1788347927006,0.0,0.0,-0.0034242842812091,-0.0049414997920393,0.5290306210517883,0.8485814332962036,0.0,0.0,0.0,0.0,-4.726576019464801e-09,0.0,-0.0015410901978611,-0.0056565077975392,0.7924953699111938,0.6098498702049255,-0.0005381974433737,0.0002360779488445,-0.0019773519072574,-0.0074748396873474,-0.0123783349990844,-0.011448860168457,0,0,0,0
6.4,1788347927106,0.0,0.0,-0.0034242842812091,-0.0049414997920393,0.5290306210517883,0.8485814332962036,0.0,0.0,0.0,0.0,-4.683866627885891e-09,0.0,-0.0015585040673613,-0.0056333234533667,0.7924941778182983,0.6098513603210449,0.000584091617905,-0.0003115901756716,0.0023276578775217,0.0002498626708984,-0.0071988701820373,0.0119104385375976,0,0,0,0
6.5,1788347927206,0.0,0.0,-0.0034242842812091,-0.0049414997920393,0.5290306210517883,0.8485814332962036,0.0,0.0,0.0,0.0,-4.766356642704751e-09,0.0,-0.0015248507261276,-0.0056795058771967,0.7924587726593018,0.609897255897522,-0.0003046198436189,0.0002124112741388,-0.0017768547131771,-0.0205802917480468,-0.0158013701438903,-0.013254165649414,0,0,0,0
6.6,1788347927306,0.0,0.0,-0.0034242842812091,-0.0049414997920393,0.5290306210517883,0.8485814332962036,0.0,0.0,0.0,0.0,-4.935203357092632e-09,0.0,-0.0014868630096316,-0.0056710597127676,0.7924578189849854,0.6098985075950623,0.0007597138616157,0.0007413393216429,-0.0019368176316715,-0.004906415939331,0.0105479955673217,-0.0095958709716796,0,0,0,0
6.7,1788347927406,0.0,0.0,-0.0034242842812091,-0.0049414997920393,0.5290306210517883,0.8485814332962036,0.0,0.0,0.0,0.0,-4.71384264955077e-09,0.0,-0.0014725541695952,-0.0057027451694011,0.7924696207046509,0.6098829507827759,-0.0006560288044599,-0.0001459500257897,-0.0010492516941903,-0.0037109851837158,0.0144527554512023,-0.0059890747070312,0,0,0,0
6.8,1788347927506,0.0,0.0,-0.0034242842812091,-0.0049414997920393,0.5290306210517883,0.8485814332962036,0.0,0.0,0.0,0.0,-4.580540391430077e-09,0.0,-0.0014406936243176,-0.005694143474102,0.7924833297729492,0.6098653674125671,0.0017979553451715,-0.0005623329176975,0.0033295201752884,-0.0076923370361328,0.022917628288269,-0.0059709548950195,0,0,0,0
6.9,1788347927606,0.0,0.0,-0.0034242842812091,-0.0049414997920393,0.5290306210517883,0.8485814332962036,0.0,0.0,0.0,0.0,-4.763578420607928e-09,0.0,-0.0014520306140184,-0.0056712320074439,0.7924644351005554,0.6098900437355042,0.0003938549773123,0.0024298565397113,0.0010597068649519,-0.0162275433540344,-0.0222279429435729,0.0010910034179687,0,0,0,0
7.0,1788347927706,0.0,0.0,-0.0034242842812091,-0.0049414997920393,0.5290306210517883,0.8485814332962036,0.0,0.0,0.0,0.0,-4.937116493408665e-09,0.0,-0.0014562522992491,-0.0056747868657112,0.7924322485923767,0.6099318265914917,-0.0006134352744548,0.0012032713805613,-0.0023259377147922,0.0053470730781555,-0.0418727397918701,-0.002542495727539,0,0,0,0
7.1,1788347927806,0.0,0.0,-0.0034242842812091,-0.0049414997920393,0.5290306210517883,0.8485814332962036,0.0,0.0,0.0,0.0,-4.8156691967449206e-09,0.0,-0.0014611678197979,-0.0057051870971918,0.7924472093582153,0.6099121570587158,-0.0013723866087695,-0.0013920591811902,-0.0008785291682298,0.0158493518829345,0.0017992258071899,-0.0167922973632812,0,0,0,0
7.2,1788347927906,0.0,0.0,-0.0034242842812091,-0.0049414997920393,0.5290306210517883,0.8485814332962036,0.0,0.0,0.0,0.0,-4.7873776054530034e-09,0.0,-0.0014187572523951,-0.005716947838664,0.7924559712409973,0.609900712966919,5.478411867912329e-05,-0.0012048354755789,0.0003668323209077,-0.002918004989624,0.0318999290466308,0.0263824462890625,0,0,0,0
7.3,1788347928006,0.0,0.0,-0.0034242842812091,-0.0049414997920393,0.5290306210517883,0.8485814332962036,0.0,0.0,0.0,0.0,-4.774601602974826e-09,0.0,-0.0014308411628007,-0.0057349447160959,0.792439877986908,0.609921395778656,-0.0003391015341042,-0.0005612471872055,0.0006048036355025,-0.0208953619003295,-0.0161006450653076,-0.0024785995483398,0,0,0,0
7.4,1788347928106,0.0,0.0,-0.0034242842812091,-0.0049414997920393,0.5290306210517883,0.8485814332962036,0.0,0.0,0.0,0.0,-4.932035224669562e-09,0.0,-0.0014159362763166,-0.0057265600189566,0.792424201965332,0.6099419593811035,-0.0008328710089965,0.0009204199053915,-0.0021111137943549,-0.0120391249656677,0.0123574137687683,-0.0149784088134765,0,0,0,0
7.5,1788347928206,0.0,0.0,-0.0034242842812091,-0.0049414997920393,0.5290306210517883,0.8485814332962036,0.0,0.0,0.0,0.0,-7.264218560010249e-09,0.0,-0.0013793455436825,-0.0057237586006522,0.7924427390098572,0.6099178791046143,5.214090773209617e-05,0.0003682117762134,-0.0014906233640698,0.0017930269241333,-0.0151460766792297,0.0172853469848632,0,0,0,0
7.6,1788347928306,0.0,0.0,-0.0034242842812091,-0.0049414997920393,0.5290306210517883,0.8485814332962036,0.0,0.0,0.0,0.0,-3.5967961942162674e-09,0.0,-0.0013935528695583,-0.0056829983368515,0.792449951171875,0.609908938407898,0.0009417780191903,0.0002062439138916,0.0017991803726911,-0.0082645416259765,0.031124472618103,0.0030202865600585,0,0,0,0
7.7,1788347928406,0.0,0.0,-0.0034242842812091,-0.0049414997920393,0.5290306210517883,0.8485814332962036,0.0,0.0,0.0,0.0,-4.774408424168541e-09,0.0,-0.0013961996883153,-0.0056710084900259,0.7924308776855469,0.6099337339401245,0.00058392254538,0.0012687698650952,2.172131069291237e-05,0.0009036064147949,-0.0228822231292724,-0.0096902847290039,0,0,0,0
7.8,1788347928506,0.0,0.0,-0.0034242842812091,-0.0049414997920393,0.5290306210517883,0.8485814332962036,0.0,0.0,0.0,0.0,-4.932523278711187e-09,0.0,-0.0013502286747097,-0.0056955572217702,0.792415201663971,0.6099539995193481,0.0005871960540196,3.836985282934948e-05,-0.0019386586483184,0.0016871094703674,-0.0123247504234313,0.0083017349243164,0,0,0,0
7.9,1788347928606,0.0,0.0,-0.0034242842812091,-0.0049414997920393,0.5290306210517883,0.8485814332962036,0.0,0.0,0.0,0.0,-3.700963979724747e-09,0.0,-0.0013331305235624,-0.0057056928053498,0.7924318909645081,0.6099322438240051,-0.001009585955245,0.000570030226043,-0.0017653783389197,-0.0094724297523498,-0.0105568766593933,0.0011186599731445,0,0,0,0
8.0,1788347928706,0.0,0.0,-0.0034242842812091,-0.0049414997920393,0.5290306210517883,0.8485814332962036,0.0,0.0,0.0,0.0,-5.005364567267634e-09,0.0,-0.001374514773488,-0.0056607741862535,0.7924471497535706,0.6099128723144531,0.0010445644839534,0.0006881501142494,0.0023445021334007,-0.0280466079711914,-0.0268968939781188,-0.0097131729125976,0,0,0,0
8.1,1788347928806,0.0,0.0,-0.0034242842812091,-0.0049414997920393,0.5290306210517883,0.8485814332962036,0.0,0.0,0.0,0.0,-4.864610936294866e-09,0.0,-0.0014095371589064,-0.0056768413633108,0.7924491763114929,0.6099099516868591,0.0004070633618681,2.658018394698148e-05,0.0021510101370991,-0.0097342133522033,-0.0028557777404785,-0.0186233520507812,0,0,0,0
8.2,1788347928906,0.0,0.0,-0.0034242842812091,-0.0049414997920393,0.5290306210517883,0.8485814332962036,0.0,0.0,0.0,0.0,-4.937989128706022e-09,0.0,-0.0013967361301183,-0.0057103717699646,0.7924315929412842,0.6099324226379395,-0.0001278417642466,0.0011460276299508,-0.0016422262210425,0.0040315985679626,0.0065263509750366,-0.0311613082885742,0,0,0,0
8.3,1788347929006,0.0,0.0,-0.0034242842812091,-0.0049414997920393,0.5290306210517883,0.8485814332962036,0.0,0.0,0.0,0.0,-3.618590538323474e-09,0.0,-0.0013297200202941,-0.0057093622162938,0.7924536466598511,0.6099041104316711,0.0002966021820149,-0.0025811590824255,-0.0008510528472727,0.0047846436500549,-0.0033797621726989,0.0137138366699218,0,0,0,0
8.4,1788347929106,0.0,0.0,-0.0034242842812091,-0.0049414997920393,0.5290306210517883,0.8485814332962036,0.0,0.0,0.0,0.0,-4.813695664296347e-09,0.0,-0.0013070302084088,-0.0057037603110075,0.7924638986587524,0.6098907589912415,0.000729785288132,-0.0015046924251501,0.002222621975199,-0.0080715417861938,0.0142296552658081,0.0119552612304687,0,0,0,0
8.5,1788347929206,0.0,0.0,-0.0034242842812091,-0.0049414997920393,0.5290306210517883,0.8485814332962036,0.0,0.0,0.0,0.0,-4.920703844391028e-09,0.0,-0.0013061147183179,-0.0057190163061022,0.7924545407295227,0.6099027395248413,5.513202540217072e-05,-0.0001473593290639,0.0014303752677333,-0.0136598944664001,-0.0178912281990051,0.0190591812133789,0,0,0,0
8.6,1788347929306,0.0,0.0,-0.0034242842812091,-0.0049414997920393,0.5290306210517883,0.8485814332962036,0.0,0.0,0.0,0.0,-4.791905539036634e-09,0.0,-0.0013343878090381,-0.0057447738945484,0.7924498915672302,0.6099086403846741,-0.0009597806436929,0.0005388113492967,-0.0018412521903514,-0.0009574890136718,-0.0351356267929077,0.0280027389526367,0,0,0,0
8.7,1788347929406,0.0,0.0,-0.0034242842812091,-0.0049414997920393,0.5290306210517883,0.8485814332962036,0.0,0.0,0.0,0.0,-3.620352906352764e-09,0.0,-0.0012947786599397,-0.0057206861674785,0.7924489974975586,0.6099099516868591,-0.000835949839049,0.0002154299626212,-0.0021258575937405,0.0256776809692382,0.0180542469024658,-0.0311298370361328,0,0,0,0
8.8,1788347929506,0.0,0.0,-0.0034242842812091,-0.0049414997920393,0.5290306210517883,0.8485814332962036,0.0,0.0,0.0,0.0,-3.649276214545693e-09,0.0,-0.001330628991127,-0.0057171201333403,0.7924786806106567,0.609871506690979,-0.0002946391107758,-0.0006891162818659,0.0020993642229385,-0.0206866860389709,0.0165785551071167,-0.0120697021484375,46,202,2594,6668
8.9,1788347929606,1.183098554611206,3.380281686782837,-0.0030603990890085,-0.0051423469558358,0.5336257815361023,0.8456994891166687,0.0387006941462238,-0.0015063522657254,8.346703355426215e-06,0.0057002548128366,-0.0097828255966305,0.2049800604581833,-0.0012877779081463,-0.0058596478775143,0.7975369095802307,0.603240430355072,-0.0071408671154125,0.0077691270737605,0.235804879252236,0.1538308262825012,-0.1718465089797973,0.0486001968383789,224,203,7569,12212
9.0,1788347929706,2.08450698852539,5.830986022949219,-0.0033745723776519,-0.0049113924615085,0.5386918187141418,0.842481791973114,0.0860317702775212,-0.000655466727638,-2.603732830784004e-05,-0.0051426421850919,0.0134796863421797,0.2445559054613113,-0.0013632634654641,-0.0055351536720991,0.8081547617912292,0.5889426469802856,-0.0021500550560941,0.0169732791387027,0.5116517794000096,0.3008015751838684,0.0314892530441284,-0.0281305313110351,143,206,9438,17929
9.1,1788347929806,2.873239517211914,7.352112770080566,-0.0031165804248303,-0.0045608659274876,0.5613101124763489,0.8275870680809021,0.1487175980005973,0.0022823002702796,-5.417908852703184e-06,0.0053888345137238,0.0039421650581061,0.5392179489135742,-0.0014232331886887,-0.005188531242311,0.8183045983314514,0.5747596621513367,0.007100451549661,0.0253047804253598,0.5782731695984721,0.7063438892364502,0.1774839758872985,-0.4533672332763672,114,243,10098,21771
9.2,1788347929906,3.577464818954468,6.450704097747803,-0.0035637412220239,-0.0039765192195773,0.5951372981071472,0.8036063313484192,0.1789550973384447,-0.0072974606583765,1.3580537309275174e-05,0.0006404547602869,-0.0013697410468012,0.483252465724945,-0.0019481144845485,-0.0049479827284812,0.8391854166984558,0.5438194870948792,-0.0027454775686381,-0.003181905460065,0.4312827158937673,0.0099282264709472,0.1616919040679931,-0.1662769317626953,62,156,10608,17975
9.3,1788347930006,3.802816867828369,6.309859275817871,-0.0037721814587712,-0.0036437381058931,0.612052321434021,0.7907998561859131,0.1741212058720108,-0.0003397676441675,-2.3576213381583483e-05,0.0062744817696511,0.0092653790488839,0.4467004239559173,-0.0021460726857185,-0.0048101572319865,0.8496359586715698,0.5273434519767761,0.009655271742735,-0.0085077410989196,0.4716238108471871,-0.0356669425964355,0.3916918039321899,0.5545139312744141,188,94,12121,16487
9.4,1788347930106,3.492957830429077,6.478873252868652,-0.0036200939211994,-0.0032329382374882,0.6195164322853088,0.7849686741828918,0.1784658000000578,-0.0020876926715976,-3.2447109874569576e-05,0.016369080170989,0.0079204868525266,0.4114000201225281,-0.0025023473426699,-0.0039990274235606,0.8618708252906799,0.5071060657501221,-0.0010898715390549,0.031715747743031,0.4536872601676602,-0.3835717439651489,-0.0691778063774108,-0.0772838592529296,53,140,10180,18447
9.5,1788347930206,3.2676055431365967,6.3380279541015625,-0.0035633977968245,-0.0029962775297462,0.6441393494606018,0.7648940086364746,0.1728139816636261,6.272664962903925e-05,-3.7507708869561646e-07,0.0036638856399804,-0.0108295418322086,0.4963543117046356,-0.0021335342898964,-0.004030954092741,0.8730630278587341,0.4875861406326294,0.0091208169416582,-0.0287917744186694,0.4758875739303539,0.2476614713668823,-0.1282804608345031,0.0664329528808593,202,68,13567,16497
9.6,1788347930306,3.746478796005249,6.2816901206970215,-0.0032946513965725,-0.0028136770706623,0.6603899002075195,0.7509103417396545,0.1702385329050652,-0.0001726289755959,-2.733052835749613e-05,0.0070451349020004,0.0016994033940136,0.3355155885219574,-0.0020851604640483,-0.0038135768845677,0.8834094405174255,0.4685819149017334,-0.0021958847433722,-0.0003747093576731,0.3568753708807796,-0.2504342198371887,0.4506182074546814,0.3209686279296875,117,122,11903,16834
9.7,1788347930406,4.084506988525391,6.197183132171631,-0.0027579218149185,-0.0030112804379314,0.6735183596611023,0.7391592264175415,0.1707999963772935,-0.0002810662111005,-3.223580138685856e-06,0.0152573212981224,-0.0034833459649235,0.3800885081291199,-0.0014081066474318,-0.0037113148719072,0.8910423517227173,0.4539028704166412,0.0152943363244013,-0.0140806185348217,0.3532485627667325,0.2394828200340271,0.2640561461448669,-0.02783203125,107,77,12643,14955
9.8,1788347930506,4.450704097747803,5.85915470123291,-0.0027031858917325,-0.0027443231083452,0.6788846850395203,0.7342348694801331,0.172143355671414,0.0030686539205303,-1.4234179485794889e-05,0.0096125109121203,0.0056435754522681,0.3142003417015075,-0.0016044359654188,-0.0034464132040739,0.8959159851074219,0.4442073404788971,0.0019970065703697,0.0167348035427037,0.215638684579013,-0.3933409452438354,0.0240406394004821,0.0018720626831054,62,126,11497,16070
9.9,1788347930606,3.802816867828369,6.056337833404541,-0.0024536265991628,-0.0026154818478971,0.688572108745575,0.7251591086387634,0.1727764092018702,0.0040024655400614,2.861985202234643e-06,0.0078942095860838,-0.0024078923743218,0.2428953200578689,-0.0015100035816431,-0.003228879533708,0.9008225202560424,0.4341729879379272,-0.0020529465462154,0.0129810287559017,0.253102978816703,-0.0638355612754821,-0.001919686794281,0.6215400695800781,113,170,11411,17963
10.0,1788347930706,3.6619718074798575,6.2816901206970215,-0.0022247685119509,-0.0022733528167009,0.7050139307975769,0.709186315536499,0.161645256285524,0.001933079910213,5.5333916191029504e-05,0.0135915521532297,-0.0119130602106451,0.3753679394721985,-0.001427674666047,-0.0027778577059507,0.9096665978431702,0.4153273999691009,0.0005010323207843,0.0324645691404777,0.4209956420216825,-0.7770199775695801,-0.0787224769592285,1.2658843994140625,73,124,11807,16992
10.1,1788347930806,4.084506988525391,6.2253522872924805,-0.0018844915321096,-0.0024272026494145,0.7172513008117676,0.6968078017234802,0.1646348594585814,0.0049201436405181,-9.774122908877347e-06,0.0073343911208212,0.0039823465049266,0.3531800210475921,-0.0009539136663079,-0.0028990926221013,0.9162418842315674,0.4006138443946838,0.0024891931184351,-0.0007393628827964,0.3565653205619948,0.0643718838691711,0.3335394263267517,0.2613801956176758,72,132,10558,17160
10.2,1788347930906,4.084506988525391,6.056337833404541,-0.001936333370395,-0.0022457095328718,0.7229562401771545,0.690887451171875,0.1711639118658618,0.0050257521082623,1.0457373128828734e-05,0.0042824945412576,0.0061322273686528,0.3639659285545349,-0.0007469020783901,-0.0027534654363989,0.922465980052948,0.3860678970813751,0.006972222131004,-0.0381270368899898,0.3433986912137526,0.2532147765159607,0.400723934173584,-0.2323284149169922,224,67,12767,15472
10.3,1788347931006,4.535211086273193,5.85915470123291,-0.0016528347041457,-0.002218812238425,0.7351261377334595,0.6779246926307678,0.1824019392127426,-0.0029203709427141,2.1996882114930516e-05,0.0033741404768079,-0.0036494149826467,0.2973178923130035,-0.00070455763489,-0.002769517712295,0.9283632636070251,0.3716632127761841,-0.0086442668933202,0.0177099668805138,0.2308299571154969,-0.1689871549606323,0.0156683921813964,0.0754880905151367,134,137,11074,16291
10.4,1788347931106,4.309859275817871,6.084506988525391,-0.0012102838372811,-0.0023245392367243,0.7465068697929382,0.6653725504875183,0.1702535385422107,-0.0004503894500891,1.519063242254506e-05,0.0102029154077172,-0.0085040861740708,0.243649885058403,-0.0002874862402677,-0.002582867629826,0.932286500930786,0.3617113530635834,0.0138773670157073,-0.0131762983233713,0.2566983998859268,0.0265432000160217,0.3691726326942444,-0.1516647338867187,91,124,11697,15698
10.5,1788347931206,4.422535419464111,5.915493011474609,-0.0014984657755121,-0.0024865004234015,0.7542325258255005,0.6566008925437927,0.1770995149141643,-0.0034014554704307,3.455925902806472e-05,-0.0026903576217591,-0.0022921490017324,0.2524152994155884,-0.0002363873645663,-0.0028998963534832,0.9377620220184326,0.3472666144371032,0.0071716937129133,-0.0276898195435442,0.3203662293134577,0.3851425647735595,0.0491127371788024,0.1009016036987304,44,150,11076,16399
10.6,1788347931306,4.394366264343262,5.943662166595459,-0.0013643170241266,-0.0025619317311793,0.7586241364479065,0.6515220999717712,0.1727055385682092,0.0022437940544714,4.258154536072391e-05,0.0014605189207941,-0.0071934973821043,0.2842255234718323,-0.0003984607756137,-0.0027645528316497,0.9420377612113952,0.3354954123497009,0.0043736788909996,0.0201883314352351,0.2841736596728423,0.0735660195350647,0.0745173692703247,0.2158079147338867,74,154,11155,16287
10.7,1788347931406,4.366197109222412,5.97183084487915,-0.0012781400000676,-0.0023566693998873,0.7685436606407166,0.6397917866706848,0.1813973927375773,0.0007066966692539,-7.090564117197977e-06,0.0055293822661042,0.0018472286174073,0.2705596685409546,-0.0004507610574364,-0.0025244988501071,0.9458513855934144,0.3245899975299835,-0.0009773576207801,0.0213010999674581,0.2316110128240958,-0.3309107422828674,0.1433188319206237,-0.1595430374145507,129,130,11646,15998
10.8,1788347931506,4.197183132171631,5.830986022949219,-0.0011633692774921,-0.0022806574124842,0.7801571488380432,0.6255783438682556,0.1716133633467637,0.0021075039427676,2.061852149946481e-05,-0.0012676259502768,-0.0019388394430279,0.2626418769359588,-3.664754331111908e-05,-0.0026092194020748,0.9508112668991088,0.3097598850727081,0.0022452141921242,-0.0163395515682699,0.2723580153027583,0.2220569252967834,0.0332741141319274,-0.2925500869750976,174,148,12030,16541
10.9,1788347931606,4.2816901206970215,5.88732385635376,-0.0011210193624719,-0.0020761340856552,0.7876616716384888,0.6161035895347595,0.1668095106061136,0.0052832183128007,4.839555478336724e-05,0.0087010478600859,0.0032852471340447,0.2375700026750564,-0.0002715168520808,-0.0021971575915813,0.95415860414505,0.2992934286594391,0.0196306502363772,0.0182953646345919,0.2308909300947416,-0.3130227327346802,0.0288419723510742,-0.267608642578125,176,125,11939,16259
11.0,1788347931706,4.450704097747803,6.056337833404541,-0.001080758171156,-0.0022903818171471,0.7910333275794983,0.6117677688598633,0.1664094468172107,0.0020819815364996,7.026913461044264e-05,-0.005903631914407,-0.0073474696837365,0.2286397069692611,-0.0007649417966604,-0.0025462312623858,0.9573295712471008,0.2889861464500427,-0.0256644304653082,0.0414454841879885,0.2972277333620732,-0.2998631000518799,0.1265138387680053,-0.3607358932495117,141,107,11166,15871
11.1,1788347931806,4.450704097747803,5.915493011474609,-0.0011389020364731,-0.0020191210787743,0.7996516227722168,0.6004596948623657,0.1726220235521442,0.0038827653187743,8.573259224875366e-05,0.0077186478301882,-0.0034190651495009,0.2618645131587982,0.0003825919702649,-0.0025819689035415,0.9606249928474426,0.2778360545635223,-0.0052972659474887,-0.0733030043551214,0.2433359828776135,0.5839299559593201,0.3901939988136291,0.4071598052978515,147,157,11244,16250
11.2,1788347931906,4.309859275817871,5.943662166595459,-0.0013522311346605,-0.0024036434479057,0.8104342222213745,0.5858232378959656,0.1810964422011488,0.0014898789861798,3.902511650165116e-05,-0.0065946104004979,-0.0021773939952254,0.2473261654376983,-0.0008384408429265,-0.0027122497558593,0.9647727012634276,0.2630695700645447,-0.008158203023551,0.0478483648238007,0.2654392414592162,-0.0480841994285583,0.0345096588134765,-0.9446125030517578,72,144,11414,16290
11.3,1788347932006,4.450704097747803,5.915493011474609,-0.001495674601756,-0.00235355948098,0.8175497055053711,0.5758512616157532,0.1688328426594323,0.0025544889273125,-5.448320725894068e-05,-0.003552725771442,0.0058944937773048,0.2472393363714218,-0.0005350699648261,-0.00284378323704,0.9677133560180664,0.2520365118980407,-0.0173635920224776,-0.0258360249268866,0.2497123457608539,0.1255099773406982,0.4016924500465393,-0.1623163223266601,69,139,11185,16330
11.4,1788347932106,4.253520965576172,5.97183084487915,-0.001872026361525,-0.0022691483609378,0.8210102915763855,0.570905864238739,0.1712268492607361,0.0035228439324994,-6.741904769741095e-05,-0.006218665279448,0.0143647491931915,0.2554461658000946,-0.0009942036122083,-0.002931660041213,0.9705069065093994,0.2410533428192138,-0.0078273117342796,-0.0069427879357061,0.2379092309142113,0.093177318572998,-0.0522859692573547,-0.2191495895385742,42,107,11909,15996
11.5,1788347932206,4.2253522872924805,5.605633735656738,-0.0023485445417463,-0.0021846536546945,0.828879714012146,0.559417724609375,0.179563760465325,-0.0015987382518806,-5.93613855663704e-05,-0.0025988856796175,0.0095332600176334,0.2440790235996246,-0.0015197740867733,-0.0029171640053391,0.972918689250946,0.2311241328716278,-0.0026247971622059,0.0080080642061706,0.1936678767744805,0.091192603111267,-0.3098218441009521,0.1538000106811523,105,110,14209,14792
11.6,1788347932306,4.2816901206970215,5.521126747131348,-0.0033133085817098,-0.0025987806729972,0.8348668217658997,0.5504359006881714,0.16930926192786,0.0006411472708384,-2.9991756572264732e-05,-0.0011289429385215,0.0074103777296841,0.1557324379682541,-0.0022277636453509,-0.0035972325131297,0.974790334701538,0.2230826318264007,-0.0025216790739373,-0.0030353906071851,0.1553753619674822,0.0179592967033386,0.0752537846565246,-0.2079620361328125,85,123,13734,15398
11.7,1788347932406,4.084506988525391,5.605633735656738,-0.0035856687463819,-0.0027275767643004,0.8392937183380127,0.543659508228302,0.1658816686284233,0.0047031440343283,-3.0655199789754826e-05,-0.0079546757042407,0.0027815187349915,0.1993246525526046,-0.0023429617285728,-0.0038236370310187,0.9764626622200012,0.2156400680541992,-0.005075211143553,-0.0142686896947371,0.2167851078697426,-0.1204375624656677,0.2636721134185791,0.2612838745117187,150,101,14217,15279
11.8,1788347932506,4.788732528686523,5.549295902252197,-0.0034548144321888,-0.0029311205726116,0.8423675298690796,0.5388844013214111,0.1732372622151401,0.0060303004822887,1.6284533327041105e-05,-0.0045980950817465,-0.0103694712743163,0.240768551826477,-0.0021705999970436,-0.0039767948910593,0.9788725972175598,0.2044210135936737,0.0009086077581891,0.0140042171373564,0.1423394931054272,-0.0873922109603881,0.2160435914993286,-0.0333814620971679,149,126,12164,15180
11.9,1788347932606,4.619718074798584,5.380281925201416,-0.0032198284752666,-0.0029328854288905,0.8482711315155029,0.5295442938804626,0.1754513175922632,-0.0004001190881831,-2.7255851831135068e-05,-0.000281672575511,-0.0020431862212717,0.1495514959096908,-0.0018390091136097,-0.003926764242351,0.9802004098892212,0.1979603618383407,-0.0005806873089661,-0.023954289055968,0.1376234148278179,0.2535960674285888,-0.1674742102622985,0.0950460433959961,97,68,14872,13636
12.0,1788347932706,4.985915660858154,5.070422649383545,-0.0029352155979722,-0.0031754593364894,0.8500378727912903,0.5267038941383362,0.1682259835766601,-0.0019038940496683,4.30068967338424e-05,6.139305332908407e-05,-0.008454187773168,0.0333334319293499,-0.001605037599802,-0.0040293093770742,0.9806419610977172,0.1957613378763198,-0.0062711512254741,0.0042564285913988,0.0362743574556639,-0.0294433236122131,0.1124307513236999,-0.0947198867797851,87,94,14379,13572
12.1,1788347932806,4.873239517211914,5.380281925201416,-0.0025838648434728,-0.0031496956944465,0.8511054515838623,0.5249789953231812,0.1634568310238524,0.0018405302192666,2.855391628856168e-05,0.0040089134126901,0.0008648526272736,0.0690074637532234,-0.001700660213828,-0.0037468690425157,0.9813249111175536,0.1923139244318008,-0.0017156540378938,0.0525778705453235,0.1660515869571314,-0.0008835196495056,0.0515822172164917,-0.7845926284790039,158,119,13387,14238
12.2,1788347932906,4.704225540161133,5.154929637908936,-0.0021318010985851,-0.0029795640148222,0.8526175618171692,0.522522509098053,0.1729536973418893,0.0031683233269288,-1.5519679361052197e-05,0.0159943271428346,-0.0129068857058882,0.1211988925933837,-0.0003637457266449,-0.0032254010438919,0.9817895889282228,0.1899442970752716,0.01516711825965,-0.0474008501442146,0.0288919309126611,0.3794213533401489,0.1981933116912841,-0.0854988098144531,136,124,14573,14452
12.3,1788347933006,4.619718074798584,5.633802890777588,-0.0013584467815235,-0.0025952991563826,0.8537676930427551,0.5206459760665894,0.1713335209266272,-0.0002689890769882,-8.928815628085572e-06,0.014005733653903,-0.0073405285365879,0.0389618128538131,-0.0006255526095628,-0.0025038151070475,0.98240464925766,0.186747059226036,0.017813812311464,0.0343966052762175,0.1341039052259544,-0.1961872577667236,0.0129250884056091,-0.8225936889648438,153,130,12386,15150
12.4,1788347933106,4.8450703620910645,5.577464580535889,-0.0003531162510626,-0.0019590931478887,0.8595889806747437,0.5109822750091553,0.1644980269832932,0.0002236535198783,5.715642823774289e-05,0.0191178936511278,-0.0141473449766635,0.1719271391630172,0.0005843499675393,-0.0018480597063899,0.9842718839645386,0.1766495555639267,0.0047775530561104,-0.0106309161502485,0.1526053878214459,-0.24764084815979,0.1493412256240844,0.3469877243041992,105,119,11788,15048
12.5,1788347933206,4.478873252868652,5.605633735656738,8.24257149361074e-05,-0.0017546447925269,0.8640797734260559,0.5033518671989441,0.1614120670175935,0.0030414761041793,6.94916201530991e-05,0.0080996034666895,-0.010963181965053,0.2109629809856414,0.0005593439564108,-0.0014829980209469,0.9858576059341432,0.1675780266523361,0.0175539944657543,0.0182359908658128,0.2749202568015268,-0.2921781539916992,0.0020002126693725,-0.1886472702026367,154,46,15146,12949
12.6,1788347933306,5.070422649383545,4.985915660858154,0.0003023382159881,-0.0018723385874181,0.8663836717605591,0.4993753731250763,0.1751848566367981,0.0008672892740933,8.68520145381547e-06,0.0005656438297592,-0.0108353123068809,0.1944586634635925,0.0010671513155102,-0.0016240207478404,0.986411154270172,0.1642842292785644,0.0106900127741626,-0.0054688619105684,-0.0099439819018153,0.4412072300910949,-0.1119157075881958,-0.145573616027832,138,157,13137,14892
12.7,1788347933406,4.2816901206970215,5.605633735656738,0.0004824483185075,-0.0018012351356446,0.8672661185264587,0.4978411495685577,0.1698422889136656,-0.0008363582446497,3.037036853590412e-05,0.0047097844071686,-0.0037743763532489,0.054237138479948,0.0010024830698966,-0.0015334701165556,0.9873051047325134,0.1588248908519745,0.0081082863675736,0.0148191713212903,0.1730528225512713,0.1016910672187805,-0.1703739762306213,-0.312870979309082,104,162,13275,15535
12.8,1788347933506,4.901408672332764,5.549295902252197,0.0010533850872889,-0.0019639551173895,0.8725085258483887,0.488593727350235,0.173187697446755,0.001743219961456,9.371660393616496e-06,0.0069623421877622,-0.010789998807013,0.1570641994476318,0.0017592823132872,-0.001496797427535,0.9884015321731568,0.1518455147743225,-0.0006132385758623,-0.0261006911974266,0.1559757734928414,0.3746410608291626,0.31667560338974,-0.1193141937255859,113,122,11645,15285
12.9,1788347933606,4.450704097747803,5.492957592010498,0.0011734812287613,-0.0024057442788034,0.875895082950592,0.4824941456317901,0.161711618523522,0.0039317086207031,2.538836402242771e-05,-0.0041399579495191,-0.0131755722686648,0.1525396853685379,0.0020125182345509,-0.0018672365695238,0.9893845319747924,0.1452951431274414,-0.001456605317293,-0.0211296533755853,0.1571840872839286,-0.1862850785255432,0.0978556871414184,0.2841024398803711,110,100,15125,13527
13.0,1788347933706,5.295774459838867,5.183098793029785,0.0014261252945289,-0.0024742288514971,0.877110481262207,0.4802800714969635,0.171802348156142,0.0011789617991508,1.974086709788501e-05,0.0028562806546688,-0.0109375640749931,0.106954887509346,0.0026463195681571,-0.001817119307816,0.989909291267395,0.1416661441326141,-0.0031796331580972,-0.030664557754996,0.0455172259686108,0.1394672393798828,0.0766057968139648,-0.1396627426147461,114,124,12519,14521
13.1,1788347933806,5.183098793029785,4.929577350616455,0.0017465919954702,-0.0026267613284289,0.8780003190040588,0.4786496758460998,0.171305345362375,-2.0495090842552382e-05,4.6050062470574376e-05,-0.0030563902109861,-0.0112319784238934,0.0464973822236061,0.0028759194537997,-0.0022387448698282,0.9900754690170288,0.140489712357521,-0.0214744296424384,0.0108843138888525,-0.0149489630274115,-0.4785661101341247,-0.1437474489212036,-0.1924638748168945,185,145,12972,15196
13.2,1788347933906,5.267605781555176,5.014084339141846,0.0024592827539891,-0.0035465275868773,0.8813031315803528,0.4725317656993866,0.1646773891741836,0.0042888041527656,5.815367010009677e-05,-0.000489693484269,-0.0175185427069664,0.1672693043947219,0.0038200318813323,-0.00246471632272,0.9909282326698304,0.1343149691820144,0.0050323491516538,-0.0519342718957672,0.1719420233596575,0.481536865234375,0.1454530954360962,-0.0098752975463867,255,66,14855,12851
13.3,1788347934006,4.901408672332764,5.323943614959717,0.0026176180690526,-0.0039686532691121,0.881787896156311,0.471622109413147,0.1686988468453053,-8.697869165650779e-05,-3.428962163938367e-05,-0.0073574157431721,-0.0140828965231776,-0.0175504218786954,0.0043991589918732,-0.0028414949774742,0.9911282062530518,0.1328061819076538,0.0132110933821696,-0.0787585786862002,0.0726716184689618,0.3760169148445129,0.1859148740768432,-0.1677408218383789,161,136,13381,14243
13.4,1788347934106,4.676056385040283,5.183098793029785,0.0028213765472173,-0.0041694277897477,0.8821545839309692,0.4709330797195434,0.1712225968634551,0.0062618709029781,7.018292303853452e-05,-0.0032952753826975,-0.0117133073508739,0.0330960601568222,0.0044012060388922,-0.002829079516232,0.9913543462753296,0.1311074793338775,0.0007386078339597,0.0109115007857994,0.0272244346819836,-0.073013424873352,0.2337149977684021,0.0711193084716796,78,129,14468,14570
13.5,1788347934206,4.901408672332764,5.408450603485107,0.0032906020060181,-0.0041335420683026,0.883357048034668,0.4686709344387054,0.1688015004210314,0.0012375130019258,2.8685174054532588e-05,0.005961385089904,-0.0060113375075161,0.0418890602886676,0.0048115933313965,-0.002661389298737,0.9916470050811768,0.1288641691207885,0.0074553326380918,-0.0120371710276186,0.056160613616022,-0.1146057844161987,-0.1781870126724243,0.1114387512207031,49,181,11371,16077
13.6,1788347934306,4.478873252868652,5.436619758605957,0.0040580960921943,-0.004244181793183,0.8872862458229065,0.4611819386482239,0.1638310248556458,0.002549438281536,1.4315857177874453e-05,0.006840553600341,-0.0095192389562726,0.1690586507320404,0.0051994528621435,-0.0024967305362224,0.9927342534065248,0.120189644396305,0.0035294730240601,0.0006998507835393,0.1417013681064503,0.1353853344917297,0.0427519083023071,0.2414655685424804,212,74,15213,13522
13.7,1788347934406,4.619718074798584,5.549295902252197,0.0039152526296675,-0.0039480184204876,0.8892006874084473,0.4574834704399109,0.1730932486646561,-0.0006407922247285,-3.4204737796648357e-06,0.0038360364269465,0.0019739910494536,0.0995621904730796,0.0048729525879025,-0.0021956413984298,0.9931991696357728,0.1163050830364227,0.0176088042636742,0.0167993798231527,0.1558054447391383,-0.1140931248664856,0.0035652518272399,-0.3227682113647461,83,83,14337,13564
13.8,1788347934506,5.042253494262695,5.098591327667236,0.0040142186917364,-0.0038827445823699,0.8905406594276428,0.4548693895339966,0.1766489529621578,0.0013437116895229,-3.0693127843015795e-05,0.0050329486839473,-0.0026770699769258,0.1243737861514091,0.0051297666504979,-0.0021256627514958,0.9935379028320312,0.1133655458688736,0.0075895640485304,-0.011992185877942,0.0529753113792323,0.0697014331817627,-0.0972089767456054,-0.1846179962158203,188,98,14338,13817
13.9,1788347934606,4.8450703620910645,4.985915660858154,0.0040722610428929,-0.003665960393846,0.8912603855133057,0.4534588158130646,0.1661558088790131,-0.0026842264274797,3.409099929018116e-06,0.0028962811920791,0.0051528802141547,0.0143442135304212,0.0047790156677365,-0.0021430114284157,0.9935136437416076,0.1135929599404335,0.0060481229429226,0.0286111039813802,-0.00660534882704,-0.065332293510437,-0.2032902240753173,-0.4166984558105469,155,119,15979,13193
14.0,1788347934706,4.676056385040283,5.633802890777588,0.0035076108761131,-0.0034000880550593,0.8910338878631592,0.4539105892181396,0.1753774950745722,0.0011488567971272,-1.116321979329597e-05,-0.0012825216399505,0.0064785094000399,0.0265321210026741,0.0047375299036502,-0.0019580982625484,0.9934975504875184,0.1137378737330436,0.0038552984964109,-0.0241131318532535,0.071118462225751,-0.2924162745475769,0.4112525582313537,0.2080249786376953,62,146,11699,15809
14.1,1788347934806,4.169013977050781,5.549295902252197,0.0028749904595315,-0.0031116348691284,0.8949260115623474,0.4461943805217743,0.1616550230231523,0.0096813861538399,-6.647141310705114e-05,0.003403992857784,0.0195049047470092,0.178996741771698,0.0036385282874107,-0.0019079186022281,0.994683563709259,0.1028967052698135,0.0019462876332614,0.0047105592169821,0.15945320102817,-0.1518356204032898,0.305643081665039,-0.4461746215820312,103,139,14030,15561
14.2,1788347934906,4.676056385040283,5.521126747131348,0.0027727717533707,-0.0031078765168786,0.896541178226471,0.4429408311843872,0.1682908220808418,0.003500445942773,-2.153325653774132e-05,-0.0011489768512547,0.0036150086671113,0.1497822403907776,0.0033981297165155,-0.0019878670573234,0.9953208565711976,0.0965445637702941,0.0012479567751697,0.0021207623321387,0.1386279722685441,-0.093341052532196,0.197614848613739,-0.0692853927612304,153,128,12494,15512
14.3,1788347935006,4.619718074798584,6.02816915512085,0.0022067539393901,-0.0027845667209476,0.9002446532249451,0.4353699386119842,0.1719186192640495,0.00233383499491,-4.522323224144221e-05,0.0041147526353597,0.0131013728678226,0.1561351418495178,0.0024032071232795,-0.0016440348699688,0.9961980581283568,0.0870696082711219,0.0106806526340436,0.0319408641917802,0.3232933793280972,-0.0567619800567626,-0.05386483669281,-0.3574228286743164,93,129,10310,16361
14.4,1788347935106,4.3380279541015625,5.88732385635376,0.0009841388091444,-0.0021652516443282,0.9084660410881042,0.4179518818855285,0.1683804606688064,0.0017753188134197,-5.435534674872156e-05,-0.0036269649863243,0.0181306600570678,0.2646852433681488,0.0017943028360605,-0.0017201676964759,0.9974854588508606,0.0708285123109817,0.0033246965543191,-0.0163045361705919,0.2555267850589535,0.3952804803848266,0.2399280667304992,0.47320556640625,92,129,11467,16328
14.5,1788347935206,4.309859275817871,5.633802890777588,0.0001732882810756,-0.0017381124198436,0.9129666090011596,0.4080305695533752,0.1770125475430569,0.0023325347714931,2.4135307422204252e-05,0.0062526823021471,0.0171692091971635,0.2005099654197693,0.0005288366228342,-0.0015469146892428,0.9980883002281188,0.0617830082774162,-0.0019980796602783,0.0622237499838659,0.1159012504923636,-0.3225388526916504,-0.1274433135986328,-1.1570844650268557,96,102,13949,14673
14.6,1788347935306,4.676056385040283,5.605633735656738,-0.0001504208776168,-0.0016544985119253,0.914228618144989,0.4051953852176666,0.1696054497586256,0.0024058874359888,5.783271462995809e-07,-0.0021534352563321,0.0131873954087495,0.1259693056344986,-8.102506399154663e-05,-0.0018905997276306,0.9984238147735596,0.0560925640165805,-0.0180415915739155,0.0073171990154346,0.131661603547524,0.3174847960472107,-0.0167024731636047,-0.0969104766845703,144,168,12350,15208
14.7,1788347935406,4.591549396514893,5.464788913726807,-0.0010560731170699,-0.0016770687652751,0.9167516827583312,0.3994526863098144,0.1639537306261251,0.0017019059671439,-6.252362752040089e-05,-0.0072929165326058,0.0185119807720184,0.1388119757175445,-0.0008491445332765,-0.0022081490606069,0.9987620115280152,0.0496875531971454,-0.0042446069792275,-0.0086848698717476,0.1337380597076056,-0.1869386434555053,-0.0643959641456604,0.9158248901367188,70,136,12156,15379
14.8,1788347935506,4.788732528686523,5.492957592010498,-0.0030444820877164,-0.0012374115176498,0.9213939905166626,0.3886159062385559,0.1804035434209303,0.0062271296733065,-0.0001231850653397,-0.0065897866152226,0.0347685292363166,0.146566092967987,-0.0026045944541692,-0.0022687632590532,0.9991653561592102,0.0407025776803493,-0.0057368183990276,0.0200927560672917,0.1560446937935515,0.3745743036270141,-0.1097188591957092,-0.7795209884643555,102,123,11957,15544
14.9,1788347935606,4.704225540161133,5.323943614959717,-0.0040810378268361,-0.0008727331878617,0.9241411685943604,0.3820283114910126,0.1745487852179914,0.0032343630108551,-7.620048951943886e-05,0.0017984870355576,0.0139704328030347,0.1494352221488952,-0.0035097347572445,-0.0022404380142688,0.9994134306907654,0.0339936427772045,0.0024769506949157,-0.0094778722505173,0.1573107788466217,0.4247827529907226,0.168721854686737,-0.2021512985229492,140,114,14394,13753
15.0,1788347935706,5.408450603485107,4.478873252868652,-0.0043015708215534,-0.0007505457615479,0.9250317811965942,0.379864752292633,0.1815439937750901,0.0035882589669993,-5.868119979618307e-05,0.0008662459440529,0.0102926110848784,0.0983369201421737,-0.0042653521522879,-0.0023200819268822,0.9994644522666932,0.0323625169694423,-0.007306511399425,0.0285884747872775,-0.0331527558311079,-0.0095371603965759,-0.1231140494346618,0.1922245025634765,100,63,16560,12248
15.1,1788347935806,5.380281925201416,4.788732528686523,-0.0049357516691088,-0.0005617920542135,0.9222895503044128,0.386467695236206,0.1769989015493684,-0.006181249732901,-5.218975612335119e-05,0.0063592684455215,0.0043692514300346,-0.1716318279504776,-0.0045393519103527,-0.0022295759990811,0.9991211295127868,0.0416108965873718,0.0024814746383274,-0.0054265321441909,-0.1694564167786049,-0.3583556413650512,-0.200967788696289,0.1255016326904297,118,200,13828,13995
15.2,1788347935906,5.492957592010498,4.985915660858154,-0.0047069783322513,-0.0007236510282382,0.9206762313842772,0.3902978599071502,0.1741559940270073,-0.0006559683391655,-1.2913165820740588e-05,-0.0066199996508657,-0.0046992627903819,-0.0293959733098745,-0.004143520258367,-0.0023297984153032,0.9990360736846924,0.0436391979455947,-0.0149903224168012,-0.024919981748925,-0.0231375777697566,0.2892966866493225,0.1906828880310058,0.0871257781982421,136,132,13307,13345
15.3,1788347936006,5.436619758605957,4.816901206970215,-0.004258447792381,-0.0007940151263028,0.9200589060783386,0.3917561769485473,0.173911133028164,0.0011498717302134,2.0117443919450303e-05,0.0054965475574135,-0.0137863475829362,-0.0474747158586978,-0.0032884432002902,-0.0022951290011405,0.9989363551139832,0.0459368638694286,-0.0027464831331093,-0.0291989013300156,-0.0517494682879164,0.3209586143493652,-0.0567202568054199,0.1151256561279296,136,121,13704,13710
15.4,1788347936106,5.436619758605957,4.929577350616455,-0.0038677521515637,-0.0009299971861764,0.91945481300354,0.3931757509708404,0.1806273360885994,-0.0002240976071896,8.103295104684647e-05,0.0014194328105077,-0.0173253621906042,-0.0653835013508796,-0.0031933300197124,-0.0022518141195178,0.998849093914032,0.0478044897317886,0.0007903471186613,0.0126561797434624,0.0015205529170976,-0.2664551734924316,0.0611836314201355,0.0433835983276367,130,144,12537,14545
15.5,1788347936206,4.704225540161133,4.957746505737305,-0.0037238849326968,-0.0010203246492892,0.9191034436225892,0.3939972221851349,0.1777019989367228,0.0024245694689634,1.6990303683602702e-09,0.0,0.0,0.0,-0.0025140615180134,-0.0022880882024765,0.9988349080085754,0.0481380708515644,0.0019126312919937,-0.032848764243297,-0.0413121161436682,0.1206582188606262,-0.2266391515731811,0.2546453475952148,97,137,14964,14223
15.6,1788347936306,4.873239517211914,4.957746505737305,-0.0028257560916244,-0.0014292262494564,0.9186731576919556,0.3950057029724121,0.1734270453729937,-0.0004967466360894,-1.97723794057042e-09,0.0,0.0,0.0,-0.0015779305249452,-0.0022999504581093,0.9987934827804564,0.0490280538797378,0.0055212492154391,-0.0260269427066651,-0.0185949446104896,-0.0935051441192627,-0.1070089340209961,0.287144660949707,82,129,14601,14281
15.7,1788347936406,5.014084339141846,5.380281925201416,-0.0016362920869141,-0.001694003585726,0.9190478920936584,0.3941387236118316,0.1751549916103519,0.0021882196914375,6.581504774634426e-05,0.0076220580376684,-0.0331308953464031,0.0480171777307987,-0.0010129772126674,-0.002158535644412,0.9988925457000732,0.046991154551506,0.0067021773783818,-0.0030776745587413,0.0914156812698396,-0.1563488841056823,0.2423104047775268,0.0383243560791015,91,129,12772,13972
15.8,1788347936506,5.239436626434326,5.098591327667236,-0.0011043581180274,-0.0019064146326854,0.9196956753730774,0.3926257193088531,0.1779502568646379,0.0021780822392486,6.788465930768982e-06,0.0005576660623773,-0.0246018376201391,0.0702163502573967,0.0001805974170565,-0.002008450217545,0.9990299344062804,0.0439905859529972,0.0078476940997714,-0.0298913971598704,0.0594478164862746,0.4599862694740295,-0.0703186988830566,-0.0880155563354492,181,82,13511,13682
15.9,1788347936606,4.788732528686523,4.957746505737305,-0.0006454052636399,-0.0019201788818463,0.9204362630844116,0.3908874988555908,0.1836106774444104,0.0004004625952651,7.123271530041033e-05,0.0015351925976574,-0.0081845792010426,0.0154804065823555,4.32012602686882e-05,-0.0023384587839245,0.9990012049674988,0.0446226000785827,-0.0115482081605923,0.0331379338939584,-0.0174243776791651,-0.080761432647705,0.0409125089645385,-0.5924463272094727,149,134,14832,14213
16.0,1788347936706,5.070422649383545,4.985915660858154,-0.0003984803915955,-0.0021696593612432,0.920279324054718,0.391255646944046,0.1727533459357333,0.0011298258704437,-4.990950611624791e-09,0.0,-2.390427189524757e-09,0.0,0.0003932025283575,-0.0020330408588051,0.998983919620514,0.0450192019343376,-0.0058006869164841,0.0190027451145038,-0.0185980878346933,0.0692295432090759,0.210399329662323,-0.4690532684326172,201,139,14136,14178
16.1,1788347936806,4.647887229919434,5.239436626434326,-0.0002354767057113,-0.0022659266833215,0.9203104376792908,0.3911821544170379,0.1774993285520827,0.0004755218205047,-2.1623836396736067e-08,-0.0046564103104174,-0.0076859076507389,0.0141457524150609,0.0006281342357397,-0.0022744601592421,0.9990267157554626,0.0440471284091472,-0.002974342493867,0.0016439342757988,0.0500672480069363,-0.1804947257041931,-0.2332375049591064,0.2069301605224609,139,132,14293,14671
16.2,1788347936906,4.8450703620910645,5.211267471313477,-6.421894067898393e-05,-0.0024293370079249,0.9206681847572328,0.3903385698795318,0.1804021611995338,0.001033209420599,6.794761933672553e-06,-0.0035068963188678,-0.0094692185521125,0.0387990064918994,0.001150881871581,-0.002227496355772,0.9991048574447632,0.0422284640371799,0.0111107164861218,-0.0148902591126564,0.0471000832353403,-0.0158500671386718,0.1942538022994995,0.0141754150390625,77,124,13627,14502
16.3,1788347937006,5.098591327667236,5.126760482788086,-4.9991882406175137e-05,-0.0023438504431396,0.9214884042739868,0.3883988857269287,0.1801406691678358,-0.0036331271848236,2.3417970615233e-05,0.0018122675828635,0.0102974222972989,0.0459735505282878,0.0009684972465038,-0.0025270041078329,0.9991906881332396,0.040132101625204,-0.0051356850903777,-0.015028113519136,0.0508482058365887,0.2169760465621948,-0.274848461151123,0.2353887557983398,152,148,12887,14980
16.4,1788347937106,4.8450703620910645,4.985915660858154,0.0002139651332981,-0.0026315704453736,0.9229816794395448,0.3848349452018738,0.1775283754413234,0.0009874088116853,2.171435202970376e-05,0.0002595283149275,-0.007612966466695,0.0176726188510656,0.0011413237079977,-0.0024224715307354,0.999293088912964,0.0374991744756698,-0.0058697963011082,-0.0066639151633393,-0.0102398380008197,0.118747591972351,-0.090488851070404,-0.0154895782470703,101,118,14850,14065
16.5,1788347937206,4.957746505737305,5.126760482788086,0.0002139651332981,-0.0026315704453736,0.9229816794395448,0.3848349452018738,0.1763713187423112,-0.000534516209111,1.0983763843870892e-09,0.0,0.0,0.0,0.0009214393794536,-0.0024363677948713,0.9992871880531312,0.0376608557999134,0.0099025639268465,0.0202302871238593,0.010384295742792,-0.2558311820030212,-0.1346523165702819,-0.2043228149414062,61,117,14120,13802
16.6,1788347937306,5.098591327667236,5.126760482788086,0.0001385316718369,-0.0024682008661329,0.9231026768684388,0.3845455944538116,0.1790575682596201,0.0017729249344943,-2.116373882728806e-09,0.0051733702421188,0.0055808695033192,0.0132910888642072,0.0011560944840312,-0.0022165141999721,0.9993094205856324,0.0370747968554496,-0.0042986726242311,-0.018058312541268,-0.0054171717394026,0.1317876577377319,0.0256322622299194,-0.3259353637695312,65,145,12613,14784
16.7,1788347937406,4.985915660858154,5.183098793029785,0.0003679008805193,-0.0023200016003102,0.92397141456604,0.3824542164802551,0.1800439643655777,0.0022407369955518,3.736155724552251e-05,0.0056168255396187,-0.0059202210977673,0.0732869729399681,0.0012213317677378,-0.0020477678626775,0.9994008541107178,0.0345298983156681,-0.0046498940262009,-0.0075536714934048,0.0380221622781696,-0.0441923737525939,-0.0631510019302368,-0.1359634399414062,217,106,14397,13579
16.8,1788347937506,5.154929637908936,5.239436626434326,0.0007756711565889,-0.0023995931260287,0.9241072535514832,0.3821248710155487,0.176913103289158,0.0030652715959012,4.3527170525093576e-05,0.0033895364031195,-0.0152472602203488,0.0027413591742515,0.0019179610535502,-0.0019045080989599,0.9994075894355774,0.0343109518289566,0.0125688339388482,-0.0328672607404036,0.0467924604534323,0.2590898275375366,-0.0676621198654174,0.0024566650390625,131,129,12415,14395
16.9,1788347937606,4.704225540161133,5.183098793029785,0.0009967749938368,-0.0022528492845594,0.925118625164032,0.3796701729297638,0.1800360625015812,-0.0005493767875703,-2.788541554066921e-05,0.0040716808289289,0.0039033158682286,0.0461906902492046,0.0013897307217121,-0.0018825279548764,0.9994910955429076,0.0318150259554386,-0.0065680428054226,0.0333441860297967,0.0477826723237582,-0.1738104224205017,0.0145668387413024,-0.1023263931274414,163,62,16369,12494
17.0,1788347937706,4.788732528686523,5.042253494262695,0.000970292603597,-0.0022369693033397,0.9250953793525696,0.3797270655632019,0.1839937339640039,0.0010623993883431,4.735477690161469e-05,0.0001915896573336,0.0012964128982275,-0.0025981466751545,0.0016215331852436,-0.0017660297453403,0.999437689781189,0.0334458500146865,-0.0059794115423469,0.0131410268336682,-0.0097328565925985,0.0066303610801696,0.2165705561637878,0.0042276382446289,112,144,14783,13912
17.1,1788347937806,5.042253494262695,4.985915660858154,0.001066205673851,-0.0022170089650899,0.9247447848320008,0.3805799186229706,0.1745249456050683,-0.0002823106619336,1.5524926416591034e-08,0.0,0.0,0.0,0.001378777436912,-0.0015117721632122,0.9994136095046996,0.0341788381338119,0.0138492233911517,-0.0095742137518207,-0.0486751675165957,0.036742091178894,-0.1703079342842102,-0.2051124572753906,66,120,13921,14198
17.2,1788347937906,4.873239517211914,4.676056385040283,0.0005197629798203,-0.0017156704561784,0.9240039587020874,0.3823787271976471,0.1732987967013856,-0.0006183949715143,-1.845943702033064e-05,0.0049562891945242,0.0095656746998429,-0.0382735878229141,0.0010452680289745,-0.0014196308329701,0.9993920922279358,0.0348185747861862,0.0023797940868355,0.0043324146843546,-0.0344016208736355,0.0413905382156372,-0.0454537272453308,0.2172689437866211,21,65,9857,11449
17.3,1788347938006,2.0281689167022705,3.436619758605957,-6.433451198972762e-05,-0.0012589927064254,0.9238139986991882,0.3828396499156952,0.1285017596805197,0.002251432221037,-1.6989629858537762e-08,0.0011467116419225,0.0171740762889385,0.0179662033915519,-6.139278411865234e-06,-0.0011642705649137,0.999411642551422,0.0342798978090286,-0.002940204645019,0.0150316781521524,0.1168214709033567,-1.1698925495147705,-0.0349436998367309,0.0498476028442382,38,104,3398,9400
17.4,1788347938106,-0.2535211145877838,2.422535181045532,-0.000470272032544,-0.0010041298810392,0.9256153106689452,0.3784640729427337,0.0883032673098556,0.002852738346136,-3.543851581234476e-05,0.0034769456833601,0.0197942182421684,0.2006039917469024,-0.0001673623919486,-0.0011296346783638,0.9998156428337096,0.0191663224250078,0.0007358527465776,-0.0054679548339992,0.3910223244325592,-0.356293261051178,-0.0136324167251586,-0.0953254699707031,78,59,-4054,7395
17.5,1788347938206,-1.97183096408844,1.774647831916809,-0.0005590007640421,-0.0009997062152251,0.9325639009475708,0.3610031604766845,0.0328396464595338,-0.0007655553031239,2.7718323726170508e-06,0.0005997642874717,-0.0023906494025141,0.4379105567932129,-0.0002044616267085,-0.0011742077767848,0.9999990463256836,0.0007966058328747,0.0022686767180675,-0.0026994250885261,0.4563614804193092,-1.0430786609649658,-0.0039703845977783,-0.0416364669799804,141,129,-8752,6430
17.6,1788347938306,-1.7464789152145386,1.8309859037399288,-0.0004161260731052,-0.0011913662310689,0.947849452495575,0.3187160491943359,0.0013118597578914,-0.0020581095451749,2.097339493737627e-07,-0.0015453720698133,-0.0013887995155528,0.5750279426574707,-8.725561201572418e-05,0.0012756707146763,-0.9992917776107788,0.0376080498099327,-0.0015362310010336,-0.0019890151979925,0.5756923770044626,0.0190225839614868,0.051797330379486,0.0163154602050781,95,124,-7911,7071
17.7,1788347938406,-1.94366192817688,1.774647831916809,-0.0002564672904554,-0.0013683083234354,0.9560220241546632,0.2932917773723602,-0.0013620520086756,7.501899304811908e-05,-1.314536788195025e-07,-0.0026998673565685,-0.00451778806746,0.5570299029350281,-0.000241732224822,0.0013947328552603,-0.9979951977729796,0.0632751360535621,-0.004666156855861,0.0034322004637143,0.5535056754120934,0.1874386072158813,-0.0568864941596984,-0.0395851135253906,57,70,-5123,4938
17.8,1788347938506,-1.3521126508712769,1.5492957830429075,-0.0003698718792293,-0.0014743416104465,0.9593288898468018,0.2822868824005127,0.0017179568570288,-0.0028354767187731,1.8865221042608442e-07,-0.0056239268742501,0.002598232589662,0.4861568808555603,-3.596767783164978e-05,0.0016016624867916,-0.9965824484825134,0.0825890377163887,-0.0026719907776874,0.0070913016741623,0.4177521480983311,-0.2243913412094116,0.2124860286712646,0.0435905456542968,108,146,-7441,6198
17.9,1788347938606,-1.4929577112197876,1.5211267471313477,-0.0005448114825412,-0.0016123852692544,0.9661088585853576,0.2581295371055603,-0.000884125325991,0.002401987627511,-1.2715293414835168e-07,-0.0035713999532163,-0.0004917517071589,0.476371556520462,-0.0002109864726662,0.0017815167084336,-0.9937965869903564,0.1111984923481941,0.0003918355263864,-0.008554650288501,0.5241009174309608,0.3087319731712341,-0.0674325227737426,0.025090217590332,116,76,-6944,6050
18.0,1788347938706,-1.5211267471313477,1.4647886753082275,-0.0003838428820017,-0.001783508923836,0.9743225574493408,0.2251495569944381,0.0027881139233099,0.0016919419784867,1.6288648505300158e-07,0.0003411266661714,-0.0019261369016021,0.4591381549835205,-0.0002579493448138,0.0018050447106361,-0.991314709186554,0.1314982026815414,-0.000447312106416,0.0015107251629908,0.454161466446912,-0.2751157283782959,-0.0829072594642639,-0.020033836364746,86,124,-7038,6325
18.1,1788347938806,-1.1267606019973757,1.0985915660858154,-0.0002006664872169,-0.0017367595573887,0.9787152409553528,0.2052157521247863,0.0008901634638221,0.0005722616323122,-3.732935038381818e-09,-0.0005818827194161,-0.0050028208643198,0.3897275030612945,-0.0004362436011433,0.0016928995028138,-0.9885668158531188,0.1507730334997177,-0.0022028234470903,-0.0078970852310368,0.3566740628269523,0.0612521767616272,-0.1330704092979431,-0.0110750198364257,149,97,-5710,5120
18.2,1788347938906,-1.154929518699646,1.2394366264343262,-0.0001870280830189,-0.0017710558604449,0.980277419090271,0.1976185142993927,-0.0001364097303301,-0.0008013779769925,1.4430336611057912e-08,-0.0012527687940746,-0.0014355382882058,0.3284967839717865,-0.0006040763109922,0.0017130272462964,-0.985296070575714,0.1708457171916961,-0.0021393971097487,-0.0044799523784798,0.346481085662935,0.1126431822776794,-0.0549208521842956,0.0268611907958984,90,115,-6036,5164
18.3,1788347939006,-1.154929518699646,1.2676056623458862,-4.139088559895754e-05,-0.0018119444139301,0.9834747314453124,0.1810359209775924,0.0026576987301727,0.001268136930296,1.754079325270377e-07,-0.0009309913148172,-0.0029261393938213,0.3564777672290802,-0.0007722498849034,0.0016419263556599,-0.982339084148407,0.1871005296707153,-0.0006183075906183,-0.0055136454109099,0.3577380477613979,-0.0231757760047912,-0.086035668849945,-0.0037927627563476,83,88,-6048,4897
18.4,1788347939106,-1.0985915660858154,1.0985915660858154,0.0002810509759001,-0.001965508563444,0.9883818626403807,0.151978000998497,-0.0008811403686856,0.0008302891072321,1.1641422947861632e-08,-0.0045617474243044,-0.0035900939255952,0.3569822013378143,-0.0009657982736825,0.001742660999298,-0.9790995717048644,0.2033718824386596,-0.0058205519345894,-0.0036972075152221,0.3365002148642766,-0.0474926233291626,-0.1318749785423278,0.0715255737304687,107,118,-6126,5655
18.5,1788347939206,-0.6760563254356384,0.8169013857841492,0.0002940018021035,-0.0020260377787053,0.9905825853347778,0.1369008719921112,0.0043925293022219,-0.0009106830345878,5.1997577621087214e-08,-0.0017354662995785,-2.296720958838705e-05,0.2678296864032745,-0.001005683094263,0.0018232809379696,-0.975339412689209,0.2207008153200149,-0.0031948555917303,-0.0017103184982456,0.1892013414585939,-0.0975303649902343,0.1466626524925232,0.0614423751831054,169,144,-5151,4237
18.6,1788347939306,0.0,0.0,0.0002716197923291,-0.0020001276861876,0.9913144707679749,0.1314973980188369,0.0004175691191312,-0.0008070536313779,-6.089071048370097e-09,0.0010799198644235,0.0006303592817857,0.2293645739555359,-0.0009551784023642,0.0017754612490534,-0.9738358855247498,0.2272432744503021,-0.0004647559464903,0.0016165016044453,0.0288385578872997,0.0435937643051147,-0.1021407842636108,0.0141553878784179,8,27,948,1532
18.7,1788347939406,2.169013977050781,3.521126747131348,0.0003905548946931,-0.002038033446297,0.9918192625045776,0.1276324540376663,0.0084851214055096,-0.0009557880057814,-1.5521029356793696e-08,-0.000481407449115,-0.0037683355621993,0.0134693291038274,-0.0012277336791157,0.0017491439357399,-0.972988784313202,0.2308424860239029,0.0003285549115546,-0.0032807221533789,0.204628768913687,1.2399837970733645,0.1786704659461975,0.0727291107177734,156,222,8820,13169
18.8,1788347939506,4.0,6.02816915512085,0.0006513278931379,-0.0018197167664766,0.9936825037002563,0.1122109442949295,0.1359622656761978,0.0042892456539292,1.06177110762793e-05,0.0088555850088596,-0.0054070525802671,0.2807753980159759,-0.0013190424069762,0.0013745818287134,-0.969344675540924,0.2456977665424347,0.0075358596989537,-0.0100646458330708,0.3178574090131007,0.7557082772254944,-0.0898554325103759,0.0144176483154296,136,221,11397,18445
18.9,1788347939606,4.450704097747803,6.535211086273193,0.001100335502997,-0.0015753975603729,0.995453953742981,0.095224529504776,0.184406666084082,0.0036116636449215,2.5402109072610724e-05,0.0037526707164943,-0.0102595938369631,0.3723696172237396,-0.0016757240518927,0.0010265158489346,-0.96512371301651,0.2617871165275574,0.0056529490370255,-0.015332033208622,0.4167437443709268,-0.272415280342102,-0.0310737490653991,-0.1312227249145507,74,98,9451,16678
19.0,1788347939706,3.88732385635376,6.14084529876709,0.0013091616565361,-0.0014631273224949,0.9962891340255736,0.0860473662614822,0.1860444153312878,0.003879754766621,4.596917479304094e-05,0.0060499813407659,-0.0089115807786583,0.3896836042404175,-0.0021621398627758,0.0005825273692607,-0.9606804847717284,0.2776475250720978,0.0040359526055586,0.0064236348746074,0.3362926340143314,-0.1757378578186035,0.0069286823272705,-0.2011032104492187,189,53,13330,15044
19.1,1788347939806,4.478873252868652,5.943662166595459,0.0022528530098497,-0.0011325004743412,0.9975268840789796,0.0702409893274307,0.1759647040578652,0.0046358850518868,0.0001122233497467,0.0103544443845748,-0.0187792964279651,0.3046684265136719,-0.0025169188156723,8.920766413211823e-05,-0.9574129581451416,0.2887111604213714,0.0025375884124604,0.0038172627233488,0.2172014691554187,-0.1364752054214477,0.2924887537956238,-0.0494470596313476,150,145,11272,15903
19.2,1788347939906,4.478873252868652,5.915493011474609,0.0030643816571682,-0.0003681622038129,0.9987077116966248,0.0507275313138961,0.174972889446264,0.0054464664920064,2.148344531401471e-05,0.0052806078456342,-0.0010535597102716,0.2511363923549652,-0.0027870442718267,-0.0006806114688515,-0.9529114365577698,0.3032352924346924,0.0018631851109816,0.0407932767626088,0.2689945580779484,-0.2286429405212402,-0.2041319012641906,0.5043258666992188,111,136,11043,16115
19.3,1788347940006,4.366197109222412,5.830986022949219,0.0035097198560833,-0.000510144745931,0.9992442727088928,0.038708034902811,0.176371535782562,0.0052415157494315,4.895030636616651e-05,-0.0022563934326171,-0.013145811855793,0.2445022165775299,-0.0034603364765644,-0.0007213251665234,-0.949421763420105,0.3139839470386505,-0.0080073036106135,-0.0138725537361856,0.2396600960540906,0.3281997442245483,0.1770031452178955,-0.1769695281982422,77,133,11312,16395
19.4,1788347940106,4.394366264343262,5.88732385635376,0.0035397114697843,-0.0003384044393897,0.9994534254074096,0.0328680053353309,0.1834884156611674,0.0062762240336554,-1.1090502686851037e-05,0.0081841200590133,-0.001082036178559,0.2472945749759674,-0.0038067931309342,-0.0009521069005131,-0.9459330439567566,0.3243381381034851,-0.0088188653508471,-0.0480193296369754,0.2360098365725476,0.419100821018219,0.4013093113899231,0.0895156860351562,67,131,11153,16254
19.5,1788347940206,4.8450703620910645,5.492957592010498,0.0033526045735925,-0.0005035485373809,0.9997764825820924,0.0208641458302736,0.1761079478886937,0.0052410777034458,-8.561459138754933e-05,-0.0017632482340559,0.0129668647423386,0.2575607299804687,-0.003132545389235,-0.0002425126731395,-0.941701352596283,0.3364354372024536,-0.0051256042111898,0.0083804068053514,0.125435005680029,-0.0791409015655517,0.0052055716514587,0.0181646347045898,139,120,11925,15158
19.6,1788347940306,4.422535419464111,5.352112770080566,0.0028922613710165,-0.0012517612194642,0.9999383687973022,0.0106393415480852,0.1789338351001874,0.0016452788931377,-5.998357583779673e-05,-0.0060518253594636,0.0052525489591062,0.0724633932113647,-0.0032678646966814,0.0004922691732645,-0.9404234290122986,0.3399894535541534,-0.0408129608664535,-0.0155933641337313,0.0255205029009348,0.2465460896492004,-0.0866826772689819,0.2497138977050781,73,189,13022,16176
19.7,1788347940406,5.295774459838867,5.239436626434326,0.0024492726661264,-0.001848271000199,0.9999813437461852,0.0052812197245657,0.1780576874964472,0.0045670946393899,-2.45461047743327e-05,-0.0047159632667899,0.0043086870573461,0.1291903257369995,-0.0028951549902558,0.0011542038992047,-0.9385334849357604,0.3451743721961975,-0.0191309124628358,0.0113203012910427,0.0180099441130837,-0.1064761281013488,-0.2987935543060303,-0.0006475448608398,114,132,12434,13991
19.8,1788347940506,5.042253494262695,5.014084339141846,0.0024298573844134,-0.0019457548623904,0.999983549118042,0.0048242635093629,0.1738884359436071,-0.001606552976114,3.949151879200679e-07,-0.0038893879391252,0.0007282287115231,0.0184359941631555,-0.0028780121356248,0.0013750093057751,-0.9380534291267396,0.3464758694171905,-0.0079772246074853,0.0034843237339368,0.0330714004871593,-0.2555909752845764,-0.0694071054458618,0.3644952774047851,172,112,14023,14006
19.9,1788347940606,4.901408672332764,5.098591327667236,0.0022939792834222,-0.0023347393143922,0.9999895095825196,0.0032166691962629,0.1779900638141387,0.0008310759438492,1.6051739821158443e-08,0.0,0.0,0.0,-0.0029158927500247,0.0016301423311233,-0.9378203749656676,0.3471048474311828,-0.0067310726560679,0.0075520493959137,0.0045106217670839,-0.0658749938011169,-0.1340169906616211,0.1829919815063476,124,106,14479,13901
20.0,1788347940706,4.901408672332764,5.014084339141846,0.0021817903034389,-0.0026333327405154,0.9999896287918092,0.0030229922849684,0.1822191433153957,-0.0001976928162293,2.5224948996429623e-08,0.0,0.0,0.0,-0.0028283763676881,0.0021846611052751,-0.9378578066825868,0.3470014631748199,-0.0059818120646524,0.014042038837093,-0.0056436565949703,0.0132637023925781,-0.1790983080863952,-0.2122344970703125,170,135,14398,14166
20.1,1788347940806,4.901408672332764,5.014084339141846,0.0017781367059797,-0.0031798211857676,0.9999889731407166,0.0029621163848787,0.1775145042503564,0.00159485644129,-5.538361326842568e-05,-0.0103081753477454,0.0096427462995052,0.0018761447863653,-0.0029267417266964,0.0025578346103429,-0.937839150428772,0.3470486402511596,-0.0081926722592738,-0.0154786654045929,-0.0028939138868978,0.2564097642898559,0.1261026859283447,-0.0227670669555664,148,103,14488,14078
20.2,1788347940906,4.901408672332764,4.957746505737305,0.0017781367059797,-0.0031798211857676,0.9999889731407166,0.0029621163848787,0.184376420460376,-0.0001315417702145,-5.8930602127939334e-09,0.0,0.0,0.0,-0.0030751805752515,0.0031188316643238,-0.9380014538764954,0.3466037511825561,-0.0175440491121645,0.0249139816325023,-0.0156090265590751,-0.1573562026023864,-0.082862377166748,-0.2784223556518554,100,115,14502,14349
20.3,1788347941006,5.323943614959717,5.154929637908936,0.0019664217252284,-0.0042271250858902,0.9999827146530152,0.0035872925072908,0.1778498770172221,0.0012296101895974,2.519243663713953e-05,-0.0177811123430728,-0.002349023008719,-0.0126791335642337,-0.0036576157435774,0.0031788973137736,-0.9380767941474916,0.3463934361934662,0.0134728526679083,-0.0307634715035681,0.0126855862273571,-0.0097679495811462,0.0772424936294555,0.1962766647338867,137,109,13001,13514
20.4,1788347941106,4.8450703620910645,5.267605781555176,0.0020905183628201,-0.0041289897635579,0.9999867081642152,0.0022798851132392,0.1755770805004695,0.0030467078092577,7.523764618450047e-06,0.0042606769129633,-0.0054439031518995,0.0550316348671913,-0.0034377165138721,0.0030771754682064,-0.9374092221260072,0.3481991291046142,0.0116281701805449,-0.0058418091459707,0.0806829378446293,0.128507912158966,0.0834476351737976,-0.0030670166015625,181,98,14828,13274
20.5,1788347941206,4.704225540161133,5.042253494262695,0.0020647656638175,-0.0040987120009958,0.9999879002571106,0.0017551955534145,0.1734344314134207,-0.0021810973151893,-1.9766999732672323e-08,0.0,0.0,0.0,-0.0030601536855101,0.0032775178551673,-0.9374526143074036,0.3480840921401977,-0.0118503307689929,0.0238598102022429,-0.024319382277389,-0.0527916550636291,0.0775511860847473,-0.0476341247558593,125,148,15304,13925
20.6,1788347941306,4.788732528686523,5.042253494262695,0.00172537448816,-0.0040915412828326,0.999988317489624,0.0019359475700184,0.1813343760040489,0.0008702362393226,-4.182219375455465e-05,0.0002673938288353,0.0146623533219099,-0.0077321645803749,-0.0029855063185095,0.0031288266181945,-0.9374855756759644,0.3479973673820495,0.0025832729314927,0.0025084352743056,0.0030602554125606,0.0451158881187438,-0.1009234189987182,-0.137700080871582,80,117,14817,14003
20.7,1788347941406,5.042253494262695,4.760563373565674,0.0013046258827671,-0.0039758938364684,0.9999896287918092,0.0018350147875025,0.1779168574209262,-0.000410900093122,-4.119715517537039e-05,0.0035474868491292,0.01297193672508,0.0031602273229509,-0.0020588692277669,0.0032319342717528,-0.9378482699394226,0.3470243215560913,0.0085441317798064,0.0397543057246244,-0.0603821461427504,-0.2170342206954956,-0.0763818621635437,-0.7112331390380859,66,109,15365,13788
20.8,1788347941506,5.070422649383545,4.929577350616455,0.0009187413961626,-0.003581958124414,0.9999772906303406,0.0056462567299604,0.1717825397995394,-0.001421299411047,4.086847163169563e-06,0.004366835579276,0.0033580467570573,-0.0564458705484867,-0.0021640053018927,0.0030753714963793,-0.9388520121574402,0.3443004190921783,0.0052332919062825,-0.0094140361811981,-0.0638012561117002,0.1999149918556213,-0.0527130961418151,0.2352447509765625,153,118,15002,13324
20.9,1788347941606,4.873239517211914,4.985915660858154,0.0008391413139179,-0.0038475235924124,0.999959409236908,0.0081077106297016,0.1753273885553881,0.0023256960572581,-3.587846346928797e-05,-0.0026963045820593,0.0076838918030261,-0.0395637936890125,-0.0020539537072181,0.0033165346831083,-0.9397425055503844,0.3418608009815216,0.0073806554100028,0.014167374548889,-0.0514715910469675,-0.0133471488952636,-0.0620971322059631,-0.084390640258789,164,113,15405,13315
21.0,1788347941706,4.563380241394043,5.267605781555176,0.0005707759410142,-0.0037790446076542,0.9999512434005736,0.0091080879792571,0.1798764428677456,-0.0011315510905906,-5.050996774632035e-05,0.0027924310415983,0.011640653014183,-0.0426541194319725,-0.0018684435635805,0.0032719941809773,-0.9398310780525208,0.3416189551353454,0.0085234145534444,-0.0080101078332511,0.0724313791405148,0.0612462759017944,0.191792607307434,-0.243621826171875,105,148,14110,14429
21.1,1788347941806,5.098591327667236,5.211267471313477,0.0004791037936229,-0.0038782593328505,0.9999654293060304,0.0073447353206574,0.1769222687742293,0.0031294800666855,-5.5743455982524384e-06,-0.0016068904660642,0.0032742267940193,0.0676423609256744,-0.001777458935976,0.0035380451008677,-0.9388047456741332,0.3444271683692932,-0.0035594270132751,0.009339773986597,0.0575646632468938,-0.2134619951248169,0.0595905184745788,-0.2368421554565429,78,119,12865,14375
21.2,1788347941906,4.732394218444824,5.239436626434326,0.0005921361153014,-0.0039832121692597,0.9999822378158568,0.0043940036557614,0.1777092806943428,0.0034826051763635,4.437248294803138e-06,-0.0023298060987144,-0.0052134324796497,0.0583117119967937,-0.0021375967189669,0.0035614287480711,-0.9379717111587524,0.3466871082782745,-0.0051264442359056,-0.0047385231222478,0.045816880872585,0.0513955950736999,-0.1644298434257507,0.0033740997314453,141,142,13979,14317
21.3,1788347942006,5.014084339141846,5.070422649383545,0.0006101669277995,-0.0043026488274335,0.999990463256836,0.0004907479160465,0.1770494868075012,0.0019006815318533,3.120060118874606e-05,-0.0055116713047027,-0.0054616681300103,0.0501515679061412,-0.0019456455484032,0.0039765797555446,-0.9368792176246644,0.3496250808238983,-0.0125386150376284,0.0219027129148641,0.0338347142637696,-0.2365572452545166,-0.0845540165901184,0.0502147674560546,68,112,14123,13787
21.4,1788347942106,5.352112770080566,4.985915660858154,0.0006187091348692,-0.004314272198826,0.9999905228614808,0.0002001571119762,0.1835904471240479,0.0007580130384854,1.2644985625116346e-06,-0.0005073096835985,-0.0004344346234574,0.0128829013556241,-0.0024996409192681,0.0037637911736965,-0.9370657205581664,0.3491237461566925,0.0083324921576627,-0.0343527005321848,-0.0247124728582575,0.1128320693969726,-0.0124083757400512,-0.1165094375610351,72,118,12789,13998
21.5,1788347942206,5.436619758605957,5.098591327667236,0.0008429067675024,-0.0043617938645184,0.9999899864196776,0.0004963290411978,0.1769164594759475,0.000567081207011,4.732614605984828e-08,0.0,0.0,0.0,-0.0023228861391544,0.0038246363401412,-0.9369864463806152,0.3493370115756988,-0.0056317769399361,0.0077776077267868,0.0115972797294061,-0.1780431866645813,0.1814897656440735,-0.1197090148925781,130,100,12723,13767
21.6,1788347942306,5.323943614959717,4.985915660858154,0.001597884343937,-0.0042689060792326,0.9999891519546508,0.0009389990009367,0.1769292489276803,0.0010820254667323,4.245772949137551e-05,0.0017500740941613,-0.0134640615433454,-0.0101760290563106,-0.0029982859268784,0.0033349804580211,-0.937259554862976,0.3486035466194153,0.0027610018125353,0.0035900300708881,-0.0180905573860556,-0.2441715598106384,0.1051117181777954,-0.0642271041870117,96,121,12895,13982
21.7,1788347942406,5.295774459838867,4.985915660858154,0.0017753655556589,-0.0040810098871588,0.9999893307685852,0.0011948876781389,0.1726765877518358,0.0029942831538592,2.930135749153013e-08,0.0,0.0,0.0,-0.0032438049092888,0.0027724113315343,-0.9372363686561584,0.3486686050891876,0.0090804911071812,-0.0097542643899901,0.0060348598215614,0.0528180003166198,-0.2034612894058227,-0.0757074356079101,158,125,13135,14160
21.8,1788347942506,5.070422649383545,5.098591327667236,0.0019953297451138,-0.0038930522277951,0.9999898076057434,0.001094318460673,0.1822745161735707,0.000245616621529,5.3083865499017175e-05,0.0079835336655378,-0.0093288645148277,0.0042094774544239,-0.0033015348017215,0.0028511527925729,-0.9371994137763976,0.3487666249275207,0.0012900956668522,-0.0122661283324335,0.0087004812493279,0.030489444732666,0.1063190698623657,-0.0129375457763671,167,98,13750,13658
21.9,1788347942606,4.676056385040283,5.183098793029785,0.0019953297451138,-0.0038930522277951,0.9999898076057434,0.001094318460673,0.185171494859829,-0.0001605566575665,-3.135855367796637e-08,0.0,0.0,0.0,-0.0028531039133667,0.002761073410511,-0.937209963798523,0.348743200302124,-0.002795134554001,-0.0091124696563883,0.0165728195467134,-0.2347232699394226,0.041275680065155,0.2460517883300781,48,139,13938,14631
22.0,1788347942706,5.323943614959717,5.042253494262695,-0.001547937397845,0.0033397837541997,-0.9999930262565612,0.0006027549970895,0.1843867161652833,-0.002540615082624,1.50873099561253e-05,0.0017945640720427,-0.0027339234948158,0.023363621905446,-0.0024843644350767,0.0025242231786251,-0.9365645051002502,0.3504772782325744,0.0059300325201445,0.0092005816919966,-0.0108029926578261,-0.2205811738967895,-0.1400959491729736,0.5051908493041992,78,134,13089,13821
22.1,1788347942806,4.929577350616455,5.492957592010498,-0.0014877066714689,0.0030815657228231,-0.9999939799308776,0.0005082108546048,0.1780295057001722,0.0005393854915028,-1.4837125535370402e-05,0.0108005870133638,0.002527097472921,-0.0039645065553486,-0.0023017711937427,0.0025008022785186,-0.9366984963417052,0.3501204252243042,-0.0162786407456235,0.0199226639939385,-0.0093162662766421,0.0126750469207763,0.0976008176803588,-0.0481195449829101,69,191,10878,15815
22.2,1788347942906,4.394366264343262,5.690140724182129,-0.0012092142133042,0.0031386155169457,-0.9999929070472716,0.0016914402367547,0.1773620033590504,0.0058893093584777,-7.092324590959213e-09,-0.0023060219828039,0.0114931790158152,0.0495133325457572,-0.0018077921122312,0.0024914732202887,-0.9336655735969543,0.3581328392028808,0.0073535112130417,0.0172573586391251,0.1876036777885831,0.054532766342163,-0.1714486479759216,-0.1260566711425781,76,128,12976,14967
22.3,1788347943006,4.2253522872924805,5.577464580535889,-0.0006776464288122,0.0029208129271864,-0.9998764395713806,0.0154297789558768,0.1789699625741072,0.0013786734449509,-1.710710629862179e-05,0.0020029777660965,0.0027433994691818,0.1488600373268127,-0.0016524968668818,0.0025256173685193,-0.9312163591384888,0.3644545674324035,-0.0054794172895905,-0.0074171107243668,0.1459620967555089,-0.0156952142715454,0.0378093719482421,0.0720148086547851,151,141,13957,15215
22.4,1788347943106,4.901408672332764,5.098591327667236,-0.0009312918991781,0.0027395840734243,-0.9997951984405518,0.0200306680053472,0.1747307818224986,0.003356955565047,3.7347690701686967e-05,0.0019808884244412,-0.0060661081224679,0.0712582021951675,-0.001905495300889,0.0022332752123475,-0.929440438747406,0.3689605295658111,-0.0019205787650745,-0.0120011405867916,0.0343879883734624,-0.1029102802276611,-0.128656804561615,-0.0918788909912109,91,79,14911,13254
22.5,1788347943206,5.126760482788086,4.957746505737305,-0.0013038049219176,0.0028441622853279,-0.9998037219047546,0.0195641908794641,0.1747203593234766,0.0007178290101173,4.100840244441962e-05,-0.0011230057571083,-0.0072098849341273,-0.0104922465980052,-0.0024579381570219,0.002026978880167,-0.9298222661018372,0.3679952621459961,0.0044360355261804,-0.0026609463096274,0.010215348483274,0.1404004693031311,0.0016814470291137,0.2947225570678711,82,91,14768,13195
22.6,1788347943306,4.985915660858154,4.873239517211914,-0.0013414762215688,0.0028106530662626,-0.999813675880432,0.0190514996647834,0.1822238511194776,0.0011414160869151,-1.3548889152732086e-08,0.0013615330681204,-0.0015616905875504,-0.0217391364276409,-0.0022945078089833,0.0022935448214411,-0.9307119846343994,0.3657385110855102,-0.0097629014732141,0.0178715208164373,-0.0569141251616187,-0.0773312449455261,0.0412323474884033,-0.4165019989013672,57,110,15143,13470
22.7,1788347943406,5.436619758605957,4.563380241394043,-0.0016280623385682,0.0029544618446379,-0.9998634457588196,0.0161749627441167,0.179736131566146,-0.0001801743206227,3.3437182654658724e-05,-0.0023586556781083,-0.0081987809389829,-0.0541226379573345,-0.0027031190693378,0.0023375479504466,-0.9316712617874146,0.3632848262786865,0.0073776061959853,-0.0262960620362065,-0.0614392139061752,0.4415202140808105,-0.0690925121307373,-0.0950803756713867,74,122,15807,12993
22.8,1788347943506,5.154929637908936,4.478873252868652,-0.001800918020308,0.0033336060587316,-0.9999684691429138,0.0069794463925063,0.1760275926238496,-0.003346175117026,8.68050085104939e-06,-0.0043294546194374,-0.0029258439317345,-0.1698579788208007,-0.0028614737093448,0.0024838913232088,-0.93482768535614,0.3550814688205719,-0.0044306532042911,-0.0029779143983613,-0.1621721400967324,-0.0440104603767395,0.062274694442749,-0.2331762313842773,142,111,16612,12800
22.9,1788347943606,5.464788913726807,4.929577350616455,0.0019726131577044,-0.0032783630304038,0.999992609024048,0.0003181553911417,0.1741292579864574,0.0001459424271689,-2.277331456470343e-05,0.0043942024931311,0.002599115949124,-0.1513098627328872,-0.0030234642326831,0.0023291353136301,-0.9372603297233582,0.3486093878746032,0.0095000790090102,-0.0088039048561849,-0.146090359433822,0.2514116764068603,-0.2184231877326965,-0.1062631607055664,126,116,13271,13642
23.0,1788347943706,5.521126747131348,4.901408672332764,0.0018275955226272,-0.0032074628397822,0.999988615512848,0.0030410015024244,0.1740696999599973,-0.0026269891230864,-2.4622548241007733e-05,0.0027719305362552,0.006518471520394,-0.1152684390544891,-0.0028321733698248,0.0025125807151198,-0.9383068680763244,0.3457831144332886,-0.0166054497330705,0.017841805413779,-0.0491769713027083,-0.1176618337631225,-0.0804239511489868,0.0753650665283203,142,148,13158,13567
23.1,1788347943806,5.408450603485107,4.8450703620910645,0.001894777175039,-0.0032605526503175,0.9999783039093018,0.0053873336873948,0.1753096255687208,0.0002420386942077,1.6854384856925278e-05,0.0013246532762423,-0.0024983906187117,-0.0415839031338691,-0.0026619266718626,0.0023034559562802,-0.9392753839492798,0.3431461751461029,0.0045266928482932,0.0253803197782968,-0.0611938711844914,0.0742841362953186,0.0493208765983581,0.0236434936523437,156,108,13724,13577
23.2,1788347943906,5.295774459838867,4.957746505737305,0.0013523476663976,-0.0029596588574349,0.9999549388885498,0.0089149866253137,0.1786400393622544,-0.0045317847836007,-4.6253171735592495e-05,0.0066724512726068,0.0101426960900425,-0.0334940627217292,-0.0022145705297589,0.0022547300904989,-0.940097987651825,0.3408899307250976,0.011376951369543,0.0158788926961641,-0.0522394811342715,-0.1083948612213134,0.0124901533126831,0.2335939407348632,66,130,14092,13361
23.3,1788347944006,5.408450603485107,4.760563373565674,0.001410880475305,-0.0026211531367152,0.9999342560768129,0.0110710617154836,0.1794934374982542,-0.0021978141509485,3.6702812703026406e-05,0.0056800441816449,-0.0017912321491166,-0.0312613993883132,-0.0022472264245152,0.0019675390794873,-0.9407168626785278,0.3391798138618469,0.005724691470086,0.0066749971659774,-0.0415386139871007,-0.1702191233634948,-0.1537940502166748,0.040964126586914,102,111,13645,13957
23.4,1788347944106,5.183098793029785,4.873239517211914,0.001519254525192,-0.0027820419054478,0.9999208450317384,0.0121747972443699,0.1802399819400888,-0.0004826822048326,1.8337069839858764e-05,-0.0067972582764923,-0.0045213974080979,-0.0465260259807109,-0.0020645866170525,0.0022448515519499,-0.9416885375976562,0.3364719748497009,0.0027385613074618,0.0074011497294683,-0.0514208989847512,0.0126062631607055,-0.091015338897705,0.1687002182006836,86,112,14333,13579
23.5,1788347944206,5.380281925201416,5.014084339141846,0.0011479469249024,-0.0028661985415965,0.9998860359191896,0.0147752724587917,0.1800232694765695,-0.0005924248317939,-3.625637286693927e-05,0.000244383350946,0.0067641828209161,-0.0672502145171165,-0.0020068539306521,0.0021447604522109,-0.942111313343048,0.335287481546402,0.0117696027543266,-0.0092667393641965,0.0129831578342127,0.1332268118858337,0.1810719966888427,0.3490314483642578,78,137,13382,13397
23.6,1788347944306,5.464788913726807,5.042253494262695,0.0006775999208912,-0.0028696607332676,0.9998435974121094,0.0174403227865695,0.1796662444958111,-0.0014591853491581,-1.76386385443475e-05,-0.0011130352504551,0.009912084788084,-0.0551205538213253,-0.0015809796750545,0.0024968460202217,-0.9427909255027772,0.3333714306354522,-0.0022497382584231,0.0209211410698513,-0.0503543968082876,-0.1422393918037414,-0.028588056564331,0.1921415328979492,144,110,13591,13095
23.7,1788347944406,4.901408672332764,4.816901206970215,0.0005302489153109,-0.0029486767016351,0.9997965097427368,0.0199481602758169,0.176601684597172,-0.0027310130240298,8.329505707888761e-07,0.0016551986336708,0.0055631352588534,-0.0463112369179725,-0.0013760291039943,0.0026493780314922,-0.9438026547431946,0.3304961621761322,-0.0026069919228577,0.0208795177664468,-0.045290403524889,-0.4122829437255859,0.1357327699661255,-0.2870845794677734,67,83,10635,12571
23.8,1788347944506,2.422535181045532,4.14084529876709,0.000435338151874,-0.0029577002860605,0.9997871518135072,0.0204106848686933,0.1733823252557135,-0.0006681051271274,-1.0577705056214364e-05,-0.000472717161756,0.0040591862052679,-0.019534595310688,-0.0012207068502902,0.0028071878477931,-0.9428293704986572,0.3332617878913879,-0.0003287528176782,-0.0010669061522616,0.1592781460875912,-1.3207592964172363,-0.0107013583183288,0.1379346847534179,72,119,2451,11188
23.9,1788347944606,0.0,3.577464818954468,6.048778959666379e-05,-0.0031619991641491,0.9999538660049438,0.0090723717585206,0.0959291119678123,0.0027637406008465,6.0934543036228844e-06,-0.0029582157731056,0.0023113714996725,0.3193448781967163,-0.0014565335586667,0.0027209883555769,-0.936094045639038,0.3517362177371979,0.0090617679701755,-0.0307254750437502,0.5496799791539887,-0.1731314659118652,0.0421296954154968,-0.1094264984130859,71,114,-4335,10046
24.0,1788347944706,-2.563380241394043,2.9577465057373047,-0.0003847683547064,0.0028162645176053,-0.999392032623291,0.0347477160394191,0.0243774002162242,0.0008960251307984,-1.0162978814891213e-07,0.0080658551305532,-0.0029587051831185,0.6983577013015747,-0.0012770481407642,0.0025136899203062,-0.9207425713539124,0.3901603519916534,0.004163534904787,0.0086654293295449,0.8797096621247419,-0.7078463435173035,0.3010817170143127,-0.0155591964721679,244,119,-13560,8780
24.1,1788347944806,-2.7323944568634038,2.563380241394043,-0.0003096319851465,0.0029066572897136,-0.996997058391571,0.0773838907480239,-0.0055332003196017,0.0008041950555021,-7.180184540043262e-07,0.0030612640548497,-0.0034258719533681,0.8675940632820129,-0.0012703528627753,0.0026069423183798,-0.9042381048202516,0.4270189702510834,0.0032785826722926,0.0062884401710774,0.9549305892236712,0.2220572233200073,-0.0636687278747558,0.0053606033325195,39,95,-8448,8106
24.2,1788347944906,-2.366197109222412,2.5352113246917725,-0.0001589380117366,0.0030313672032207,-0.9953826665878296,0.0959376841783523,0.0018518685491793,-0.0013180974652861,7.57213465311152e-09,-0.0047237505204975,0.0044630984775722,0.788131833076477,-0.001298882998526,0.0027477759867906,-0.8894596695899963,0.4570036232471466,0.0044966289074555,-0.0086996420427829,0.7577028009664875,0.1546767354011535,0.1509942412376403,-0.0030860900878906,135,156,-9954,8486
24.3,1788347945006,-2.507042169570923,2.197183132171631,-0.0002268057578476,0.0028978104237467,-0.9911549091339112,0.1326781809329986,0.0036446344425781,-0.0002664289651403,8.60768389907106e-08,0.0060940543189644,-0.0026616076938807,0.7985823154449463,-0.0011460417881608,0.0026436652988195,-0.8732601404190063,0.4872458875179291,-0.0013458339502525,0.0030971307185996,0.6642961339956351,0.1960574984550476,-0.2744295597076416,-0.0041656494140625,41,75,-7078,7157
24.4,1788347945106,-2.507042169570923,2.3380281925201416,-0.0001548699219711,0.0027249765116721,-0.9825647473335266,0.1859006881713867,-0.0008594248254911,0.0025805783013648,9.411033805415073e-08,0.0004110667796339,-0.0021880837157368,0.6741095185279846,-0.0011201715096831,0.0025033699348568,-0.853471040725708,0.5211330652236938,-0.0036899363644465,-0.0022645191827963,0.6948564089311124,0.1110454201698303,-0.1461907029151916,-0.0038738250732421,93,93,-7596,7219
24.5,1788347945206,-1.8028168678283687,1.774647831916809,-0.0002771499275695,0.0027407677844166,-0.9764052033424376,0.2159290909767151,0.0039407394644205,-0.0013995858582318,1.3880786509203568e-07,0.000350163783878,-0.0042375223711133,0.6061063408851624,-0.0012164143845438,0.002462824806571,-0.8383393883705139,0.545141875743866,-0.0011727388821912,-0.0030514874602092,0.5691940158594371,-0.0062353610992431,-0.1570667624473571,0.0930500030517578,116,134,-7494,6520
24.6,1788347945306,-1.7183098793029783,1.7464789152145386,-0.0003957260632887,0.0027679689228534,-0.9734591841697692,0.2288434207439422,-0.0028190173427423,0.000837359382343,-1.961030663043902e-07,-0.0023595779202878,-0.0060851243324577,0.55161452293396,-0.0014537787064909,0.0025561340153217,-0.8246869444847107,0.5655817985534668,-0.0084478846562938,-0.0007738803825085,0.5460479458256589,-0.0561882853507995,-0.230074942111969,-0.0077190399169921,140,96,-8164,7216
24.7,1788347945406,-1.7464789152145386,1.8028168678283687,-0.0006559658795595,0.0026643397286534,-0.965956211090088,0.2586908638477325,0.0026094212023894,0.0008215625790095,4.763396511617641e-07,0.0048987455666065,-0.0080070067197084,0.5492668747901917,-0.0017376765608787,0.0021950546652078,-0.8048750162124634,0.5934377908706665,-0.0035027725496539,-0.0110780950821641,0.6142397448292455,-0.0197909474372863,0.0978890657424926,-0.0374164581298828,107,115,-8094,6929
24.8,1788347945506,-1.436619758605957,1.4929577112197876,-0.0007912570144981,0.002794997068122,-0.955276608467102,0.2956994771957397,0.0038061264078449,-0.0032381051596396,-2.0063735375189805e-07,0.0022649683523923,0.0010805443162098,0.4553577005863189,-0.0017075780779123,0.0023711137473583,-0.7911602854728699,0.6116020083427429,0.0022829081587613,0.0038019375821367,0.3963141834585361,-0.1003835797309875,-0.021864891052246,-0.0305557250976562,127,61,-6486,5752
24.9,1788347945606,-1.5492957830429075,1.5211267471313477,-0.0009274407057091,0.0026075772475451,-0.9486355781555176,0.3163588941097259,-0.0031833210297953,0.0021204397041014,-2.0419321123372247e-07,0.0012368598254397,-0.0055995336733758,0.4788881242275238,-0.0017764018848538,0.0021239463239908,-0.7742023468017578,0.6329320669174194,7.394387732396075e-05,-0.0006582253898634,0.465861009394657,-0.1801829934120178,-0.1381169557571411,0.0194082260131835,93,87,-6865,5869
25.0,1788347945706,-1.5211267471313477,1.6056338548660278,-0.0009788308525457,0.0025699448306113,-0.9449644088745116,0.3271614909172058,-0.0007728959153375,-0.0004512968451447,-7.617527344660715e-08,0.0008047521696425,-0.0037320421542972,0.4616613984107971,-0.0020539052784442,0.001851974055171,-0.7611846327781677,0.6485294103622437,0.0024816590074769,-0.0135627675880722,0.4512356465343046,0.1743442416191101,-0.0110604763031005,-0.0053014755249023,77,121,-6830,5530
25.1,1788347945806,-1.154929518699646,1.211267590522766,-0.0013408672530204,0.0024286042898893,-0.9376420378684998,0.3475914299488067,-0.0006039842183488,-0.0009323463574729,-6.369966833573606e-08,0.0010424889624118,-0.0091575710102915,0.4631403982639313,-0.0022364761680364,0.0017344132065773,-0.7485989928245544,0.6630169749259949,-0.0023118236793914,-0.0058209416274978,0.403405456709505,0.3633789420127868,-0.1286090612411499,-0.0917463302612304,69,90,-5350,4526
25.2,1788347945906,-1.211267590522766,1.2957746982574463,-0.0013784976908937,0.0023911036550998,-0.9276465177536012,0.3734493553638458,0.0013128032947341,0.0011664639871283,-1.483634782692237e-07,0.0003452142118476,0.0032001670915633,0.3166962265968323,-0.0020480379462242,0.0017665401101112,-0.7357886433601379,0.6772058010101318,0.0050998496533178,0.0033794062627216,0.3367346374480037,-0.1173886060714721,-0.020990252494812,-0.0557117462158203,171,154,-6240,5098
25.3,1788347946006,-1.2957746982574463,1.3521126508712769,-0.0013032781425863,0.0022846958599984,-0.9211471676826476,0.3892055749893188,-0.0003117977303017,0.0027483623602362,5.344301005040653e-08,0.000649573339615,-0.0019516652682796,0.3572689294815063,-0.0019992152228951,0.0016842409968376,-0.7246308922767639,0.6891322135925293,0.0009342560072591,0.0002905612807335,0.3422802983088877,-0.1546581983566284,-0.1250572800636291,-0.0739545822143554,119,124,-5632,4663
25.4,1788347946106,-1.211267590522766,1.0704225301742554,-0.0013518051709979,0.0022251128684729,-0.9174264073371888,0.3978969752788543,0.000617361630028,-0.0023006907582853,-2.86430269724246e-08,0.001592032960616,-0.0037970379926264,0.3876723349094391,-0.0021505337208509,0.0016693910583853,-0.712794303894043,0.701367974281311,-0.0018740168630643,-0.0029161727954261,0.3789345764389825,-0.0358045697212219,-0.0551186203956604,0.034031867980957,121,174,-5528,5600
25.5,1788347946206,-0.6760563254356384,0.7605633735656738,-0.0014722686028108,0.0023158695548772,-0.9102843999862672,0.4139743745326996,0.0011030421163047,-0.0003537872237262,1.4961227513161094e-07,-0.0009553424897603,-0.0028506773523986,0.3675470948219299,-0.0022277003154158,0.0016106404364109,-0.7024555206298828,0.7117223739624023,0.0013795836658575,-0.0049085011372639,0.2545345023954252,0.1553074717521667,-0.0706120133399963,-0.0862836837768554,85,94,-5113,4193
25.6,1788347946306,-0.9577465057373048,0.9577465057373048,-0.0014327568933367,0.0022999704815447,-0.9021393060684204,0.4314363300800323,-3.0315134639524055e-05,0.0005520539082911,6.162864105493068e-08,0.0008700288599357,0.0008645327761769,0.2427449375391006,-0.0021492028608918,0.0016415873542428,-0.6929011344909668,0.721027672290802,0.0010196997172409,-0.002454738156709,0.2692401392554817,-0.0921589732170105,0.1028276681900024,-0.0086936950683593,171,78,-5092,4070
25.7,1788347946406,0.0,2.281690120697021,-0.0015343909617513,0.0022825528867542,-0.8957528471946716,0.4445439577102661,0.0114915190237313,0.0028589687138987,7.169881514178174e-07,-0.0014948049793019,-0.0030559997539967,0.3167290389537811,-0.0022416403517127,0.0015961565077304,-0.6827061176300049,0.7306878566741943,-8.555453256454341e-05,-0.0037954039356348,0.3731247867321695,0.6000035405158997,0.2564442753791809,-0.0691471099853515,155,291,-3608,11156
25.8,1788347946506,0.0,4.929577350616455,-0.00144538434688,0.0023086769506335,-0.8904802203178406,0.4550139307975769,0.0459957891976317,0.0036995831142686,-4.685026481867407e-06,0.0008751715067774,0.0025718959514051,0.5079717636108398,-0.0021002888679504,0.0017157457768917,-0.6635181307792664,0.7481553554534912,0.0014390225969069,0.0041815511935074,0.6218517604628441,0.360672116279602,0.1551528573036193,0.0724058151245117,71,272,3381,16577
25.9,1788347946606,2.507042169570923,8.28169059753418,-0.0013697738759219,0.0023075807839632,-0.8748149871826172,0.4844498932361603,0.0996142673572249,0.0015994887670226,1.2407664657544484e-05,0.0003457960265222,-0.0014609579229727,0.7493699193000793,-0.0020047295838594,0.0017639342695474,-0.6270087957382202,0.7790075540542603,0.0080496099773261,-0.0103703695388421,0.8373422937140754,0.5447429418563843,0.5729068517684937,0.0376014709472656,140,268,8026,22545
26.0,1788347946706,1.8591549396514893,8.507041931152344,-0.0009717165958136,0.0025047436356544,-0.8389076590538025,0.5442671179771423,0.1869845486525142,-0.0030842218226352,-4.392784129301817e-05,0.0012893279781565,0.0110557358711957,0.9388217926025392,-0.0017816359177231,0.0020054280757904,-0.5940077304840088,0.8044548630714417,0.0071365813406612,0.0072686623099733,0.9806140277225124,-0.3052356243133545,0.3113911151885986,0.1300668716430664,37,134,5625,21851
26.1,1788347946806,2.507042169570923,7.661972045898437,-0.0006087764631956,0.0025822937022894,-0.8125840425491333,0.5828380584716797,0.1777405241229756,0.0018017532326128,-3.187246919118867e-05,-0.0002251513651572,0.0050185858272016,0.9205322265625,-0.0014380170032382,0.0023590363562107,-0.5494105219841003,0.8355479836463928,-0.0052765148127114,0.0006112014298397,0.6848695700943678,-0.219312310218811,-0.3357847929000854,0.0871496200561523,77,105,8053,19401
26.2,1788347946906,2.7042253017425537,7.323943614959717,-0.0004694198723882,0.002707309089601,-0.8032424449920654,0.5956459045410156,0.1841791551606632,0.0017193883788894,-2.9347103459036123e-05,-0.0015882573788985,0.0063784378580749,0.686255693435669,-0.0010240264236927,0.0022629471495747,-0.5226634740829468,0.8525354266166687,0.0073096881001839,0.0096993025310089,0.7530468337599331,-0.1558117866516113,-0.0404638648033142,-0.0863075256347656,178,100,10064,18101
26.3,1788347947006,4.2253522872924805,6.3380279541015625,2.126069739460945e-05,0.00273017748259,-0.7823171019554138,0.62287437915802,0.166610942221274,0.0046607625180073,-1.4527042599048815e-05,-0.0011608422501012,0.0118801696226,0.7100322842597961,-0.000854461453855,0.0027563152834773,-0.501282811164856,0.8652787208557129,0.0013466872111073,0.0147857901805489,0.3592563824241126,-0.2883979678153991,-0.0206304192543029,-0.3197584152221679,62,144,8523,17895
26.4,1788347947106,3.239436626434326,6.535211086273193,0.0002617716090753,0.0030521110165864,-0.7663975358009338,0.6423591375350952,0.1765381373219561,0.0031489029693024,3.191394402733592e-05,-0.0028543383814394,-0.0008514618966728,0.3874279856681824,-0.0009087985381484,0.0030457563698291,-0.4786368608474731,0.8780072331428528,-0.0079228446506863,-0.0112072808208902,0.4573302600989105,-0.1034790873527526,0.1507936120033264,0.4063844680786133,120,142,10993,18037
26.5,1788347947206,4.169013977050781,6.253520965576172,0.0002043719869107,0.0031577029731124,-0.745573878288269,0.6664155125617981,0.1771551362423259,0.0022985283395472,-2.7983875017531027e-05,-0.0052494253031909,-0.0013243013527244,0.3820821642875671,-0.0009443964809179,0.0029116999357938,-0.4626122415065765,0.8865554928779602,0.0041178384358507,-0.0315793605517417,0.3174542105225589,0.0905794501304626,-0.0614046454429626,-0.0431270599365234,68,136,10335,16676
26.6,1788347947306,3.521126747131348,6.647887229919434,0.0001876963069662,0.0030300351791083,-0.7402498126029968,0.6723250150680542,0.1804798084696526,0.001324183297125,-1.4591663524911952e-05,0.0028589125722646,-0.0049811005592346,0.3442627489566803,-0.0011780252680182,0.0028086127713322,-0.4482480585575104,0.8939040899276733,-0.0058448661828687,-0.0106650400790637,0.4087857758823217,-0.1803006529808044,-0.1368533372879028,0.2403707504272461,124,153,10267,17427
26.7,1788347947406,3.6619718074798575,6.169013977050781,7.540220394730568e-06,0.0029566455632448,-0.724892795085907,0.6888554096221924,0.172902695472385,0.0006678227643331,-9.433089039174845e-06,0.0029162373393774,-0.0026000675279647,0.4257510602474212,-0.0009655253961682,0.0027775699272751,-0.4319181144237518,0.9019079804420472,0.0008543237134028,0.0051406464258015,0.3494515478043951,0.1992189288139343,-0.2866613864898681,-0.6274032592773438,68,135,12614,16198
26.8,1788347947506,4.760563373565674,5.126760482788086,-7.579382508993149e-05,0.0030279601924121,-0.7152671813964844,0.6988445520401001,0.180703422921606,0.0049608932195309,9.808006602487117e-06,-0.0111831380054354,0.0038916643243283,0.2278818786144256,-0.0012745885178446,0.0030873678624629,-0.4247319996356964,0.905312955379486,-0.009213747835581,0.0206924899467202,-0.0131010083761794,-0.3778984546661377,0.1610862612724304,0.0920181274414062,72,143,14174,14246
26.9,1788347947606,5.070422649383545,5.239436626434326,-0.0004697474651038,0.0031280019320547,-0.713973343372345,0.7001656889915466,0.1778135278282968,0.0002663217386956,1.0520276840870118e-05,-0.0117684016004204,-0.0066922730766236,0.0479698032140731,-0.0016083009541034,0.0027170116081833,-0.423511803150177,0.9058850407600404,0.0033933650682524,-0.0104321859549067,0.0507179690961518,0.239736258983612,-0.031247854232788,-0.1633472442626953,84,172,12661,14525
27.0,1788347947706,5.042253494262695,5.295774459838867,-0.0007280339486896,0.0032359049655497,-0.7128509879112244,0.7013076543807983,0.1849189592892529,-0.0005664150019153,-5.227180778827876e-07,-0.0110570397228002,-0.0047880192287266,0.0678372383117675,-0.0021776361390948,0.0023128306493163,-0.4209064543247223,0.9070984721183776,0.0003483917102157,-0.0219565807008817,0.0727117237807556,-0.0252626538276672,0.065129816532135,-0.1182947158813476,166,113,12792,14184
27.1,1788347947806,4.647887229919434,5.098591327667236,-0.0014420907245948,0.0027258533518761,-0.7107868790626526,0.7034006714820862,0.1805446416337398,0.0028608046742166,5.596200056699457e-05,-0.0007701076683588,-0.012491569854319,0.0428075678646564,-0.0022115120664238,0.0015985844656825,-0.4182623326778412,0.9083222150802612,0.0105052135924631,-0.0141451988769674,0.0444670535546072,0.2564149498939514,0.0306205153465271,0.059483528137207,149,107,15270,13623
27.2,1788347947906,4.366197109222412,5.633802890777588,-0.001635153312236,0.0019863124471157,-0.708194375038147,0.7060127258300781,0.1786825623444654,0.0015671971122448,2.271003833887021e-05,0.0041370494291186,-0.009785802103579,0.062632143497467,-0.0022287555038928,0.0012629814445972,-0.4161516726016998,0.9092916250228882,-0.003025639272666,-0.0024687679409213,0.1339239657639387,-0.3601548671722412,0.3953803181648254,-0.2594966888427734,59,139,12582,15540
27.3,1788347948006,4.535211086273193,5.464788913726807,-0.0020940289832651,0.0010148754809051,-0.7027274370193481,0.7114553451538086,0.1748110083801183,0.0031472767631098,6.49295050646079e-05,0.0079967277124524,-0.0206935890018939,0.1425142735242843,-0.0024078357964754,-5.934573709964752e-05,-0.4094242751598358,0.9123409390449524,0.0171323782245302,-0.0494476906739373,0.1300045903708291,0.5040733814239502,-0.2309059500694275,0.1289482116699218,161,127,12591,15474
27.4,1788347948106,4.873239517211914,5.605633735656738,-0.0019899720791727,0.000933377246838,-0.7002980709075928,0.7138471603393555,0.1763776560194081,0.0033171773553534,-6.713129572970572e-05,0.0056698350235819,0.0003230748698115,0.1444121450185775,-0.0023127300664782,-0.0007316339761018,-0.4011989235877991,0.91598778963089,0.0188773680067819,-0.0923131090829232,0.1470546280075414,0.4752197265625,0.1074949502944946,-0.0138664245605468,79,127,11562,15127
27.5,1788347948206,4.957746505737305,5.577464580535889,-0.001850557513535,0.0004940837970934,-0.6940969228744507,0.7198790311813354,0.180632077455547,0.0034194010852043,3.463705958523558e-07,0.0087642595171928,-0.0008466904400847,0.1545886397361755,-0.0016911383718252,-4.924926906824112e-05,-0.3948569893836975,0.9187410473823548,0.0115968659903326,0.0571610701615083,0.1474265276600989,-0.077933669090271,-0.0689135789871215,-2.1016016006469727,89,130,13391,15566
27.6,1788347948306,4.816901206970215,5.070422649383545,-0.002120014745742,0.0004851462435908,-0.6872560977935791,0.7264119982719421,0.17573632052322,0.0009302066331394,-1.2954060829490576e-05,-0.002837442792952,-0.0005377265042625,0.1016908586025238,-0.0020812358707189,-0.0003377068787813,-0.389577180147171,0.9209913611412048,-0.0186545119386552,-0.0130113718002414,0.0878102787645773,0.2548538446426391,0.1945454478263855,-0.6495609283447266,134,105,13892,14549
27.7,1788347948406,4.647887229919434,5.183098793029785,-0.0021006742026656,5.646573845297098e-05,-0.6858158707618713,0.7277721166610718,0.1764173112900296,-0.0011198695958981,4.8062966495939584e-05,0.0095960805192589,-0.0033229363616555,0.0663697272539138,-0.0020712874829769,-0.0005643237382173,-0.3873748183250427,0.9219197630882264,-0.0071784955677586,0.019639311199714,0.0522823220579147,0.0514246225357055,0.0354068875312805,-0.2441015243530273,60,132,14320,14636
27.8,1788347948506,5.352112770080566,4.816901206970215,-0.0022645140998065,-2.6987632736563683e-05,-0.6850594878196716,0.7284836769104004,0.1819401920440519,-0.0015231677143167,4.263743490752259e-05,-0.0025614709593355,-0.0073913033120334,0.043921124190092,-0.0021975403651595,-0.0008670547977089,-0.3878028094768524,0.921739399433136,-0.0094173954009587,-0.0105110790525216,-0.1021846341804856,-0.3286938071250915,-0.2886275053024292,0.0333681106567382,44,98,14013,13468
27.9,1788347948606,5.239436626434326,4.929577350616455,-0.0023660825099796,-0.0002220394089818,-0.6880257725715637,0.7256823182106018,0.1733452286119433,-0.0017861455280234,-1.9331554260168787e-06,0.0003144086513202,-0.0031036816071718,-0.0729772076010704,-0.0021557360887527,-0.0010779062286019,-0.3909350633621216,0.9204151034355164,0.001310757378041,-0.0062341567991675,-0.0665062902302849,-0.0683537721633911,0.00093275308609,0.3179817199707031,66,116,14065,13339
