time_s,timestamp_ms,wheel_vels__velocity_left,wheel_vels__velocity_right,odom__orient_x,odom__orient_y,odom__orient_z,odom__orient_w,odom__lin_x,odom__lin_y,odom__lin_z,odom__ang_x,odom__ang_y,odom__ang_z,imu__orient_x,imu__orient_y,imu__orient_z,imu__orient_w,imu__angvel_x,imu__angvel_y,imu__angvel_z,imu__acc_x,imu__acc_y,imu__acc_z,wheel_status__current_ma_left,wheel_status__current_ma_right,wheel_status__pwm_left,wheel_status__pwm_right
0.0,1788349397159,0.0,0.0,0.0027307313866913,-0.0058892210945487,0.9647145867347716,0.2632175087928772,3.959004947425148e-05,-4.461142446079277e-05,-6.041933643384389e-08,-6.042512904969044e-05,0.0007020193152129,0.0004577706567943,0.003466697409749,-0.0054875081405043,0.990484654903412,0.1374701261520385,-1.592081401138456e-05,-0.0003551988590495,0.0015860639120326,-0.0164101123809814,-0.0196133255958557,0.0089731216430664,0,0,0,0
0.1,1788349397259,0.0,0.0,0.0027307313866913,-0.0058892210945487,0.9647145867347716,0.2632175087928772,3.959004947425148e-05,-4.461142446079277e-05,-6.041933643384389e-08,-6.042512904969044e-05,0.0007020193152129,0.0004577706567943,0.003466697409749,-0.0054875081405043,0.990484654903412,0.1374701261520385,-1.592081401138456e-05,-0.0003551988590495,0.0015860639120326,-0.0164101123809814,-0.0196133255958557,0.0089731216430664,0,0,0,0
0.2,1788349397359,0.0,0.0,0.0027307313866913,-0.0058892210945487,0.9647145867347716,0.2632175087928772,3.959004947425148e-05,-4.461142446079277e-05,-6.041933643384389e-08,-6.042512904969044e-05,0.0007020193152129,0.0004577706567943,0.003466697409749,-0.0054875081405043,0.990484654903412,0.1374701261520385,-1.592081401138456e-05,-0.0003551988590495,0.0015860639120326,-0.0164101123809814,-0.0196133255958557,0.0089731216430664,0,0,0,0
0.3,1788349397459,0.0,0.0,0.0027307313866913,-0.0058892210945487,0.9647145867347716,0.2632175087928772,3.959004947425148e-05,-4.461142446079277e-05,-6.041933643384389e-08,-6.042512904969044e-05,0.0007020193152129,0.0004577706567943,0.003466697409749,-0.0054875081405043,0.990484654903412,0.1374701261520385,-1.592081401138456e-05,-0.0003551988590495,0.0015860639120326,-0.0164101123809814,-0.0196133255958557,0.0089731216430664,0,0,0,0
0.4,1788349397559,0.0,0.0,0.0027307313866913,-0.0058892210945487,0.9647145867347716,0.2632175087928772,3.959004947425148e-05,-4.461142446079277e-05,-6.041933643384389e-08,-6.042512904969044e-05,0.0007020193152129,0.0004577706567943,0.003466697409749,-0.0054875081405043,0.990484654903412,0.1374701261520385,-1.592081401138456e-05,-0.0003551988590495,0.0015860639120326,-0.0164101123809814,-0.0196133255958557,0.0089731216430664,0,0,0,0
0.5,1788349397659,0.0,0.0,0.0027307313866913,-0.0058892210945487,0.9647145867347716,0.2632175087928772,3.959004947425148e-05,-4.461142446079277e-05,-6.041933643384389e-08,-6.042512904969044e-05,0.0007020193152129,0.0004577706567943,0.003466697409749,-0.0054875081405043,0.990484654903412,0.1374701261520385,-1.592081401138456e-05,-0.0003551988590495,0.0015860639120326,-0.0164101123809814,-0.0196133255958557,0.0089731216430664,0,0,0,0
0.6,1788349397759,0.0,0.0,0.0027307313866913,-0.0058892210945487,0.9647145867347716,0.2632175087928772,3.959004947425148e-05,-4.461142446079277e-05,-6.041933643384389e-08,-6.042512904969044e-05,0.0007020193152129,0.0004577706567943,0.003466697409749,-0.0054875081405043,0.990484654903412,0.1374701261520385,-1.592081401138456e-05,-0.0003551988590495,0.0015860639120326,-0.0164101123809814,-0.0196133255958557,0.0089731216430664,0,0,0,0
0.7,1788349397859,0.0,0.0,0.0027307313866913,-0.0058892210945487,0.9647145867347716,0.2632175087928772,3.959004947425148e-05,-4.461142446079277e-05,-6.041933643384389e-08,-6.042512904969044e-05,0.0007020193152129,0.0004577706567943,0.003466697409749,-0.0054875081405043,0.990484654903412,0.1374701261520385,-1.592081401138456e-05,-0.0003551988590495,0.0015860639120326,-0.0164101123809814,-0.0196133255958557,0.0089731216430664,0,0,0,0
0.8,1788349397959,0.0,0.0,0.0027307313866913,-0.0058892210945487,0.9647145867347716,0.2632175087928772,3.959004947425148e-05,-4.461142446079277e-05,-6.041933643384389e-08,-6.042512904969044e-05,0.0007020193152129,0.0004577706567943,0.003466697409749,-0.0054875081405043,0.990484654903412,0.1374701261520385,-1.592081401138456e-05,-0.0003551988590495,0.0015860639120326,-0.0164101123809814,-0.0196133255958557,0.0089731216430664,0,0,0,0
0.9,1788349398059,0.0,0.0,0.0027307313866913,-0.0058892210945487,0.9647145867347716,0.2632175087928772,3.959004947425148e-05,-4.461142446079277e-05,-6.041933643384389e-08,-6.042512904969044e-05,0.0007020193152129,0.0004577706567943,0.003466697409749,-0.0054875081405043,0.990484654903412,0.1374701261520385,-1.592081401138456e-05,-0.0003551988590495,0.0015860639120326,-0.0164101123809814,-0.0196133255958557,0.0089731216430664,0,0,0,0
1.0,1788349398159,0.0,0.0,0.0027307313866913,-0.0058892210945487,0.9647145867347716,0.2632175087928772,3.959004947425148e-05,-4.461142446079277e-05,-6.041933643384389e-08,-6.042512904969044e-05,0.0007020193152129,0.0004577706567943,0.003466697409749,-0.0054875081405043,0.990484654903412,0.1374701261520385,-1.592081401138456e-05,-0.0003551988590495,0.0015860639120326,-0.0164101123809814,-0.0196133255958557,0.0089731216430664,0,0,0,0
1.1,1788349398259,0.0,0.0,0.0027307313866913,-0.0058892210945487,0.9647145867347716,0.2632175087928772,3.959004947425148e-05,-4.461142446079277e-05,-6.041933643384389e-08,-6.042512904969044e-05,0.0007020193152129,0.0004577706567943,0.003466697409749,-0.0054875081405043,0.990484654903412,0.1374701261520385,-1.592081401138456e-05,-0.0003551988590495,0.0015860639120326,-0.0164101123809814,-0.0196133255958557,0.0089731216430664,0,0,0,0
1.2,1788349398359,0.0,0.0,0.0027307313866913,-0.0058892210945487,0.9647145867347716,0.2632175087928772,3.959004947425148e-05,-4.461142446079277e-05,-6.041933643384389e-08,-6.042512904969044e-05,0.0007020193152129,0.0004577706567943,0.003466697409749,-0.0054875081405043,0.990484654903412,0.1374701261520385,-1.592081401138456e-05,-0.0003551988590495,0.0015860639120326,-0.0164101123809814,-0.0196133255958557,0.0089731216430664,0,0,0,0
1.3,1788349398459,0.0,0.0,0.0027307313866913,-0.0058892210945487,0.9647145867347716,0.2632175087928772,3.959004947425148e-05,-4.461142446079277e-05,-6.041933643384389e-08,-6.042512904969044e-05,0.0007020193152129,0.0004577706567943,0.003466697409749,-0.0054875081405043,0.990484654903412,0.1374701261520385,-1.592081401138456e-05,-0.0003551988590495,0.0015860639120326,-0.0164101123809814,-0.0196133255958557,0.0089731216430664,0,0,0,0
1.4,1788349398559,0.0,0.0,0.0027307313866913,-0.0058892210945487,0.9647145867347716,0.2632175087928772,3.959004947425148e-05,-4.461142446079277e-05,-6.041933643384389e-08,-6.042512904969044e-05,0.0007020193152129,0.0004577706567943,0.003466697409749,-0.0054875081405043,0.990484654903412,0.1374701261520385,-1.592081401138456e-05,-0.0003551988590495,0.0015860639120326,-0.0164101123809814,-0.0196133255958557,0.0089731216430664,0,0,0,0
1.5,1788349398659,0.0,0.0,0.0027307313866913,-0.0058892210945487,0.9647145867347716,0.2632175087928772,3.959004947425148e-05,-4.461142446079277e-05,-6.041933643384389e-08,-6.042512904969044e-05,0.0007020193152129,0.0004577706567943,0.003466697409749,-0.0054875081405043,0.990484654903412,0.1374701261520385,-1.592081401138456e-05,-0.0003551988590495,0.0015860639120326,-0.0164101123809814,-0.0196133255958557,0.0089731216430664,0,0,0,0
1.6,1788349398759,0.0,0.0,0.0027307313866913,-0.0058892210945487,0.9647145867347716,0.2632175087928772,3.959004947425148e-05,-4.461142446079277e-05,-6.041933643384389e-08,-6.042512904969044e-05,0.0007020193152129,0.0004577706567943,0.003466697409749,-0.0054875081405043,0.990484654903412,0.1374701261520385,-1.592081401138456e-05,-0.0003551988590495,0.0015860639120326,-0.0164101123809814,-0.0196133255958557,0.0089731216430664,0,0,0,0
1.7,1788349398859,0.0,0.0,0.0027307313866913,-0.0058892210945487,0.9647145867347716,0.2632175087928772,3.959004947425148e-05,-4.461142446079277e-05,-6.041933643384389e-08,-6.042512904969044e-05,0.0007020193152129,0.0004577706567943,0.003466697409749,-0.0054875081405043,0.990484654903412,0.1374701261520385,-1.592081401138456e-05,-0.0003551988590495,0.0015860639120326,-0.0164101123809814,-0.0196133255958557,0.0089731216430664,0,0,0,0
1.8,1788349398959,0.0,0.0,0.0027307313866913,-0.0058892210945487,0.9647145867347716,0.2632175087928772,3.959004947425148e-05,-4.461142446079277e-05,-6.041933643384389e-08,-6.042512904969044e-05,0.0007020193152129,0.0004577706567943,0.003466697409749,-0.0054875081405043,0.990484654903412,0.1374701261520385,-1.592081401138456e-05,-0.0003551988590495,0.0015860639120326,-0.0164101123809814,-0.0196133255958557,0.0089731216430664,0,0,0,0
1.9,1788349399059,0.0,0.0,0.0027307313866913,-0.0058892210945487,0.9647145867347716,0.2632175087928772,3.959004947425148e-05,-4.461142446079277e-05,-6.041933643384389e-08,-6.042512904969044e-05,0.0007020193152129,0.0004577706567943,0.003466697409749,-0.0054875081405043,0.990484654903412,0.1374701261520385,-1.592081401138456e-05,-0.0003551988590495,0.0015860639120326,-0.0164101123809814,-0.0196133255958557,0.0089731216430664,0,0,0,0
2.0,1788349399159,0.0,0.0,0.0027307313866913,-0.0058892210945487,0.9647145867347716,0.2632175087928772,3.959004947425148e-05,-4.461142446079277e-05,-6.041933643384389e-08,-6.042512904969044e-05,0.0007020193152129,0.0004577706567943,0.003466697409749,-0.0054875081405043,0.990484654903412,0.1374701261520385,-1.592081401138456e-05,-0.0003551988590495,0.0015860639120326,-0.0164101123809814,-0.0196133255958557,0.0089731216430664,0,0,0,0
2.1,1788349399259,0.0,0.0,0.0027307313866913,-0.0058892210945487,0.9647145867347716,0.2632175087928772,3.959004947425148e-05,-4.461142446079277e-05,-6.041933643384389e-08,-6.042512904969044e-05,0.0007020193152129,0.0004577706567943,0.003466697409749,-0.0054875081405043,0.990484654903412,0.1374701261520385,-1.592081401138456e-05,-0.0003551988590495,0.0015860639120326,-0.0164101123809814,-0.0196133255958557,0.0089731216430664,0,0,0,0
2.2,1788349399359,0.0,0.0,0.0027307313866913,-0.0058892210945487,0.9647145867347716,0.2632175087928772,3.959004947425148e-05,-4.461142446079277e-05,-6.041933643384389e-08,-6.042512904969044e-05,0.0007020193152129,0.0004577706567943,0.003466697409749,-0.0054875081405043,0.990484654903412,0.1374701261520385,-1.592081401138456e-05,-0.0003551988590495,0.0015860639120326,-0.0164101123809814,-0.0196133255958557,0.0089731216430664,0,0,0,0
2.3,1788349399459,0.0,0.0,0.0027307313866913,-0.0058892210945487,0.9647145867347716,0.2632175087928772,3.959004947425148e-05,-4.461142446079277e-05,-6.041933643384389e-08,-6.042512904969044e-05,0.0007020193152129,0.0004577706567943,0.003466697409749,-0.0054875081405043,0.990484654903412,0.1374701261520385,-1.592081401138456e-05,-0.0003551988590495,0.0015860639120326,-0.0164101123809814,-0.0196133255958557,0.0089731216430664,0,0,0,0
2.4,1788349399559,0.0,0.0,0.0027307313866913,-0.0058892210945487,0.9647145867347716,0.2632175087928772,3.959004947425148e-05,-4.461142446079277e-05,-6.041933643384389e-08,-6.042512904969044e-05,0.0007020193152129,0.0004577706567943,0.003466697409749,-0.0054875081405043,0.990484654903412,0.1374701261520385,-1.592081401138456e-05,-0.0003551988590495,0.0015860639120326,-0.0164101123809814,-0.0196133255958557,0.0089731216430664,0,0,0,0
2.5,1788349399659,0.0,0.0,0.0027307313866913,-0.0058892210945487,0.9647145867347716,0.2632175087928772,3.959004947425148e-05,-4.461142446079277e-05,-6.041933643384389e-08,-6.042512904969044e-05,0.0007020193152129,0.0004577706567943,0.003466697409749,-0.0054875081405043,0.990484654903412,0.1374701261520385,-1.592081401138456e-05,-0.0003551988590495,0.0015860639120326,-0.0164101123809814,-0.0196133255958557,0.0089731216430664,0,0,0,0
2.6,1788349399759,0.0,0.0,0.0027307313866913,-0.0058892210945487,0.9647145867347716,0.2632175087928772,3.959004947425148e-05,-4.461142446079277e-05,-6.041933643384389e-08,-6.042512904969044e-05,0.0007020193152129,0.0004577706567943,0.003466697409749,-0.0054875081405043,0.990484654903412,0.1374701261520385,-1.592081401138456e-05,-0.0003551988590495,0.0015860639120326,-0.0164101123809814,-0.0196133255958557,0.0089731216430664,0,0,0,0
2.7,1788349399859,0.0,0.0,0.0027307313866913,-0.0058892210945487,0.9647145867347716,0.2632175087928772,3.959004947425148e-05,-4.461142446079277e-05,-6.041933643384389e-08,-6.042512904969044e-05,0.0007020193152129,0.0004577706567943,0.003466697409749,-0.0054875081405043,0.990484654903412,0.1374701261520385,-1.592081401138456e-05,-0.0003551988590495,0.0015860639120326,-0.0164101123809814,-0.0196133255958557,0.0089731216430664,0,0,0,0
2.8,1788349399959,0.0,0.0,0.0027307313866913,-0.0058892210945487,0.9647145867347716,0.2632175087928772,3.959004947425148e-05,-4.461142446079277e-05,-6.041933643384389e-08,-6.042512904969044e-05,0.0007020193152129,0.0004577706567943,0.003466697409749,-0.0054875081405043,0.990484654903412,0.1374701261520385,-1.592081401138456e-05,-0.0003551988590495,0.0015860639120326,-0.0164101123809814,-0.0196133255958557,0.0089731216430664,0,0,0,0
2.9,1788349400059,0.0,0.0,0.0027307313866913,-0.0058892210945487,0.9647145867347716,0.2632175087928772,3.959004947425148e-05,-4.461142446079277e-05,-6.041933643384389e-08,-6.042512904969044e-05,0.0007020193152129,0.0004577706567943,0.003466697409749,-0.0054875081405043,0.990484654903412,0.1374701261520385,-1.592081401138456e-05,-0.0003551988590495,0.0015860639120326,-0.0164101123809814,-0.0196133255958557,0.0089731216430664,0,0,0,0
3.0,1788349400159,0.0,0.0,0.0027307313866913,-0.0058892210945487,0.9647145867347716,0.2632175087928772,3.959004947425148e-05,-4.461142446079277e-05,-6.041933643384389e-08,-6.042512904969044e-05,0.0007020193152129,0.0004577706567943,0.003466697409749,-0.0054875081405043,0.990484654903412,0.1374701261520385,-1.592081401138456e-05,-0.0003551988590495,0.0015860639120326,-0.0164101123809814,-0.0196133255958557,0.0089731216430664,0,0,0,0
3.1,1788349400259,0.0,0.0,0.0027376138605177,-0.0058935466222465,0.9647257924079896,0.2631765305995941,0.0001573986058568,-0.000179835639275,-2.576057531170674e-07,-9.260794467991218e-05,-0.0003388941113371,0.0018003238365054,0.0034691980108618,-0.0055030556395649,0.9904832243919371,0.1374798864126205,-0.0009702272831847,-0.0002934188121131,-0.0006320322226399,-0.0039320588111877,0.0058077573776245,0.0162315368652343,0,0,0,0
3.2,1788349400359,0.0,0.0,0.0026833601295948,-0.0058892210945487,0.964726448059082,0.2631745040416717,0.0001096300646056,-0.0001259563671994,1.158734686504042e-07,0.000316759746056,0.0016689876792952,0.0012782752746716,0.003433434292674,-0.0054928250610828,0.9904848337173462,0.1374694555997848,0.0007669082294099,-0.0006647983871356,0.00076724942552,0.0093690156936645,0.0021502971649169,0.0018568038940429,0,0,0,0
3.3,1788349400459,0.0,0.0,0.0026948531158268,-0.0059081502258777,0.9647100567817688,0.2632340490818023,-0.0001452605687019,0.0001669211502815,-9.674823289271488e-08,-0.0008152331574819,0.0006690105656161,-0.0016655612271279,0.0033995294943451,-0.0054905693978071,0.9904746413230896,0.1375436931848526,0.0013029320961784,0.0021819108089254,-0.0004691141400038,-0.0456486940383911,0.0094096064567565,-0.0125141143798828,0,0,0,0
3.4,1788349400559,0.0,0.0,0.0027468532789498,-0.0058916332200169,0.9647048115730286,0.263253390789032,-0.0001236029257309,0.0001417956563694,5.817131790333368e-08,-1.4369316886586604e-05,-0.0017204472096636,-0.0014400506624951,0.0034866100177168,-0.0055017927661538,0.9904726147651672,0.1375558823347091,-0.0006529325378185,-0.0010170649306896,-0.0006561587837156,-0.0150377750396728,-0.0067452192306518,-0.0250911712646484,0,0,0,0
3.5,1788349400659,0.0,0.0,0.0027545616030693,-0.0059011643752455,0.9647064208984376,0.2632473111152649,0.0,0.0,0.0,0.0,0.0,0.0,0.0035127410665154,-0.0055108834058046,0.990474283695221,0.137542650103569,-0.001182591957488,-0.0020782861268294,-0.0013701845814909,-0.0083924531936645,-0.0084920525550842,-0.0035247802734375,0,0,0,0
3.6,1788349400759,0.0,0.0,0.0027545616030693,-0.0059011643752455,0.9647064208984376,0.2632473111152649,0.0,0.0,0.0,0.0,0.0,0.0,0.0035535683855414,-0.0054671270772814,0.9904733896255492,0.1375494301319122,0.0004591769010902,-0.0017028477339904,-0.0019013606250438,-0.0108705759048461,-0.0256280303001403,3.337860107421875e-05,0,0,0,0
3.7,1788349400859,0.0,0.0,0.0027545616030693,-0.0059011643752455,0.9647064208984376,0.2632473111152649,0.0,0.0,0.0,0.0,0.0,0.0,0.0034705493599176,-0.0054878713563084,0.990473210811615,0.1375523954629898,-0.0004746775518518,4.115539179300649e-05,0.0016605063430569,-0.0147124528884887,0.0396333336830139,0.0091781616210937,0,0,0,0
3.8,1788349400959,0.0,0.0,0.0027545616030693,-0.0059011643752455,0.9647064208984376,0.2632473111152649,0.0,0.0,0.0,0.0,0.0,0.0,0.003464825451374,-0.0054761031642556,0.9904677867889404,0.1375920921564102,0.0009447314905585,0.0016407328565995,-0.0010007216477926,-0.01457941532135,-0.0216403007507324,0.0036334991455078,0,0,0,0
3.9,1788349401059,0.0,0.0,0.0027283416129648,-0.0058511607348918,0.9647015929222108,0.2632660269737243,0.0,0.0,0.0,0.0,0.0,0.0,0.0034831715747714,-0.005499199964106,0.9904658198356628,0.1376045495271682,-0.001006011114667,-0.001198752680565,-0.0004779771619049,-0.0311705470085144,0.0128787755966186,0.0037307739257812,0,0,0,0
4.0,1788349401159,0.0,0.0,0.0027283416129648,-0.0058511607348918,0.9647015929222108,0.2632660269737243,0.0,0.0,0.0,0.0,0.0,0.0,0.0035330634564161,-0.0054739825427532,0.9904705882072448,0.1375699639320373,0.0005926483940535,-0.0019061986719012,-0.0008352337703569,0.0002622604370117,0.0050835013389587,-0.001662254333496,0,0,0,0
4.1,1788349401259,0.0,0.0,0.0028030385728925,-0.0058813258074223,0.9647011756896972,0.2632664740085602,-2.995932773136965e-07,5.080456576063986e-07,7.506317424554196e-09,-0.0003736146900337,-0.0031667386647313,-3.539099998306483e-05,0.0035337395966053,-0.0054550617933273,0.990468204021454,0.1375884264707565,5.59043181477287e-05,0.0003645834533283,0.0018704276169764,0.002092957496643,0.0244760513305664,-0.0052003860473632,0,0,0,0
4.2,1788349401359,0.0,0.0,0.0028133620508015,-0.0058639645576477,0.9646949172019958,0.2632898986339569,0.0,0.0,0.0,0.0,0.0,0.0,0.0035217888653278,-0.0054504424333572,0.9904619455337524,0.1376335024833679,0.0005941133145773,-0.0001326886741018,-0.0004759852308012,-0.0335893034934997,-0.0043188333511352,-0.0088739395141601,0,0,0,0
4.3,1788349401459,0.0,0.0,0.002832103986293,-0.0058263456448912,0.9646955728530884,0.2632877230644226,0.0,0.0,0.0,0.0,0.0,0.0,0.0035485476255416,-0.0054127424955368,0.990464448928833,0.1376165449619293,-0.0004431526535067,0.0012288455374135,-0.0004488815745074,-0.0501832365989685,-0.0447046756744384,0.0161666870117187,0,0,0,0
4.4,1788349401559,0.0,0.0,0.0028087492100894,-0.0058228443376719,0.964691698551178,0.2633023560047149,7.063467093359165e-05,-8.154975475953291e-05,1.231764840843534e-07,-4.117717980989255e-05,-0.0005659445887431,0.0008125528693199,0.0035352976992726,-0.0054161455482244,0.9904665946960448,0.1376007497310638,-0.0006431936828187,-0.0019035605305642,-0.0003040926817648,0.0165238380432128,0.0129224061965942,-0.0034189224243164,0,0,0,0
4.5,1788349401659,0.0,0.0,0.0028132027946412,-0.0058249202556908,0.9646897912025452,0.2633090615272522,-2.359690276011956e-05,2.6436603210794607e-05,-1.163325175517334e-07,-3.313880006317049e-05,-0.0001853959693107,-0.0002699932665564,0.0035058874636888,-0.005382090806961,0.9904621839523317,0.1376351416110992,0.0021948770609,-0.00120320062619,0.001124772392709,0.0010133981704711,0.023122489452362,-0.0069961547851562,0,0,0,0
4.6,1788349401759,0.0,0.0,0.0027878540568053,-0.0057867118157446,0.9646844267845154,0.2633300125598907,0.0,0.0,0.0,0.0,0.0,0.0,0.003527058288455,-0.0053865183144807,0.9904596209526062,0.1376527845859527,0.0002668814070996,-0.0009358895878736,0.0012404306121663,-0.0263682603836059,-0.0092449784278869,0.01806640625,0,0,0,0
4.7,1788349401859,0.0,0.0,0.0028440461028367,-0.0057801846414804,0.9646819233894348,0.2633386850357055,-8.959015688795653e-05,0.0001024049798825,6.319013559946267e-09,-8.171396621037275e-05,-0.0001936806365847,-0.0010305778123438,0.0035576429218053,-0.0053663114085793,0.9904585480690002,0.1376606076955795,0.0005954131511813,4.566294619941844e-05,-0.0022505340642106,-0.0107382535934448,-0.0329734683036804,-0.0197029113769531,0,0,0,0
4.8,1788349401959,0.0,0.0,0.0028235879726707,-0.0057692062109708,0.9646793603897096,0.2633486688137054,0.0,0.0,0.0,0.0,0.0,0.0,0.0035211630165576,-0.0053450735285878,0.9904610514640808,0.137644737958908,0.0007659045794128,3.725765031718096e-05,-0.0006491060301086,-0.0099754333496093,0.0116174221038818,-0.0195951461791992,0,0,0,0
4.9,1788349402059,0.0,0.0,0.0028148777782917,-0.005789890885353,0.9646736979484558,0.2633688747882843,-7.699506434937906e-05,8.633506289868061e-05,-7.26856036969476e-08,-0.0009346202132292,0.0001278600248042,-0.000872857752256,0.003550624474883,-0.005348184145987,0.9904650449752808,0.1376146674156189,5.783964159762345e-05,-0.001036425389726,0.002543838528773,-0.0105630755424499,-0.0027776360511779,-0.014230728149414,0,0,0,0
5.0,1788349402159,0.0,0.0,0.0028363978490233,-0.0057620657607913,0.9646878838539124,0.2633174359798431,7.821363329311389e-05,-8.968615081449781e-05,-1.6297901369701654e-07,-0.0003244170511607,-0.0005874391645193,0.0008922426495701,0.0035290112718939,-0.0053179031237959,0.9904583096504213,0.1376649141311645,0.0009182027605291,0.0015801735729648,-0.0001092740682629,-0.0352256894111633,-0.0374987721443176,0.0108213424682617,0,0,0,0
5.1,1788349402259,0.0,0.0,0.0028619607910513,-0.0057011540047824,0.9646810293197632,0.2633436918258667,-9.405991511712067e-05,0.0001074851742064,8.769306976078862e-08,0.0006667186389677,-9.422652510693295e-05,-0.0010769986547529,0.0035506011918187,-0.0052858144044876,0.990459144115448,0.1376595199108123,0.0005918638639157,0.0012746532963354,-0.0017021912946193,0.0039595365524291,0.0229551196098327,-0.0141515731811523,0,0,0,0
5.2,1788349402359,0.0,0.0,0.0028378458227962,-0.0056993723846971,0.9646830558776855,0.2633363902568817,0.0001166713442831,-0.000133501134125,-1.423750092158401e-07,0.0004702454025391,-0.0004131177265662,0.0013347927015274,0.0035580797120928,-0.0053127435967326,0.9904597401618958,0.1376534551382064,-0.0017109162679022,0.0002174862987145,-0.0015410210469711,0.0091235041618347,0.003689706325531,-0.0070037841796875,0,0,0,0
5.3,1788349402459,0.0,0.0,0.0028718677349388,-0.0057110507041215,0.9646824598312378,0.2633377909660339,0.0001094571476509,-0.0001258995263949,-1.348530637468501e-08,0.0007474984158761,-0.0005800307844765,0.0012529498199,0.0035801362246274,-0.0052969893440604,0.9904616475105286,0.1376401633024215,0.0005848888873234,0.0002073757003018,0.0012883833709881,-0.0235922336578369,0.0159081816673278,-0.0087757110595703,0,0,0,0
5.4,1788349402559,0.0,0.0,0.0028592515736818,-0.0057149268686771,0.96467924118042,0.2633498609066009,-5.095924047087715e-05,5.880570957384224e-05,-5.6168837459361395e-08,-0.000334466836648,0.0005269855610094,-0.0005842552054673,0.0035636015236377,-0.005308018065989,0.9904579520225524,0.1376667022705078,0.0004158197924594,0.0003912564921609,0.0002394581944956,-0.0233048796653747,-0.0053882598876953,-0.007033348083496,0,0,0,0
5.5,1788349402659,0.0,0.0,0.0028532240539789,-0.0057181841693818,0.9646784663200378,0.2633527219295501,0.0,0.0,0.0,0.0,0.0,0.0,0.0035743881016969,-0.0052960626780986,0.990458369255066,0.1376640051603317,-0.0002952086284734,0.000925956543251,-0.0018915474741874,-0.0073205828666687,-0.0110695958137512,0.0073299407958984,0,0,0,0
5.6,1788349402759,0.0,0.0,0.002847260562703,-0.0057017588987946,0.9646911025047302,0.2633068561553955,0.0001047137367214,-0.0001192301845774,5.1068287903394897e-08,-0.0002833636535797,0.0001242503349203,0.0012008860940113,0.0035801483318209,-0.0052962256595492,0.9904651641845704,0.1376155018806457,-0.0003331480801528,-0.0015584007491788,-0.000340463035642,0.0033544898033142,0.0051373243331909,-0.0087842941284179,0,0,0,0
5.7,1788349402859,0.0,0.0,0.0028673498891294,-0.005723656155169,0.9646946787834167,0.2632928490638733,0.0001816535179935,-0.000207369096259,3.4868804618817075e-08,0.0004101291997358,-0.0004654399235732,0.0020755771547555,0.0035766549408435,-0.0053093759343028,0.9904675483703612,0.1375970244407653,0.0004092116285066,-0.0006792592574667,0.0023647166555747,0.0105709433555603,-0.021543800830841,-0.0034561157226562,0,0,0,0
5.8,1788349402959,0.0,0.0,0.0028995191678404,-0.0057151219807565,0.9646992087364196,0.2632763385772705,7.023722956246394e-05,-8.049938577410983e-05,3.2458955939056296e-08,0.0007881700876168,-0.0013562445528805,0.0007938800263218,0.003629338927567,-0.0053061936050653,0.9904686212539672,0.1375889629125595,0.0005789680872178,-0.0003147713639255,0.0002334038125428,-0.0425354838371276,-0.0163969993591308,0.0145111083984375,0,0,0,0
5.9,1788349403059,0.0,0.0,0.0029029217548668,-0.0057151764631271,0.9647025465965272,0.2632640600204468,-9.72341983318832e-06,1.0406379110971204e-05,1.82900689241098e-07,0.0001997750077862,0.0003579744661692,-0.0001050532664521,0.0035983892157673,-0.0053046131506562,0.9904714226722716,0.1375693529844284,-0.0006402167946309,0.0007295671850169,-0.0001133711092569,-0.0221742391586303,-0.0163439512252807,0.0216960906982421,0,0,0,0
6.0,1788349403159,0.0,0.0,0.0028889412060379,-0.005735064856708,0.9647053480148317,0.2632531821727752,1.6399443231140914e-05,-1.8228222397182405e-05,-9.590084774492788e-09,-0.0010222934652119,-0.0002819415240082,0.000184938267921,0.0036050975322723,-0.0053219692781567,0.9904713034629822,0.1375694274902343,-0.0015517334124053,-0.0006732413827927,-0.0013757404373923,-0.0133570432662963,0.0074396133422851,-0.0195503234863281,0,0,0,0
6.1,1788349403259,0.0,0.0,0.00286849681288,-0.0057629514485597,0.9646950364112854,0.2632905840873718,-0.0001340893778781,0.0001547210913682,-4.9962337024374544e-08,-0.0012964829802513,0.0005020432290621,-0.0015418862458318,0.0035900911316275,-0.0053203683346509,0.9904768466949464,0.1375298053026199,0.0016506088106271,-0.0010368453269947,0.0029067645757578,-0.0346155762672424,-0.01233971118927,-0.0016489028930664,0,0,0,0
6.2,1788349403359,0.0,0.0,0.0028327144682407,-0.0057444376870989,0.9647014737129213,0.2632679939270019,-6.086056435106526e-05,6.967349282296964e-05,1.2052374051437694e-07,-0.0007542718667536,0.0009069601073861,-0.0006899120053276,0.0035402383655309,-0.0053344490006566,0.9904730319976808,0.137558177113533,-0.0001189472174305,0.0007045993250752,0.0019152548775717,0.0022392272949218,-0.022684097290039,-0.0070552825927734,0,0,0,0
6.3,1788349403459,0.0,0.0,0.002864166162908,-0.0057722250930964,0.9647025465965272,0.2632631063461303,-4.978235104489096e-05,5.7067022876883006e-05,-1.924246518748427e-08,-0.0002844115660991,-0.0005583942402154,-0.0005756465252488,0.0035877274349331,-0.0053496211767196,0.9904705286026,0.137574017047882,0.0007600785644731,-0.0004993362200846,-0.0006572857042918,-0.0077062845230102,0.0097673535346984,0.0127897262573242,0,0,0,0
6.4,1788349403559,0.0,0.0,0.002929288893938,-0.005775508005172,0.964708924293518,0.2632391452789306,6.434273857706633e-05,-7.333828278720246e-05,-4.6943910643500186e-08,5.708490061806515e-05,-0.001688802614808,0.0007207536255009,0.0036447215825319,-0.0053528696298599,0.9904747009277344,0.1375420838594436,-0.0004835000727646,-0.0024414795127781,-0.0008341346674896,0.0001662373542785,0.0060820579528808,0.016387939453125,0,0,0,0
6.5,1788349403659,0.0,0.0,0.0029309396632015,-0.0057929870672523,0.9647013545036316,0.2632661461830139,-9.67867144996149e-05,0.0001104682179051,-1.722495878006209e-07,-0.0006582177593372,-0.000241002664552,-0.0011141292052343,0.0036432081833481,-0.0053470367565751,0.9904738664627076,0.1375491619110107,0.0011956711334252,-0.0003384205187107,-0.0008925354907167,-0.0213314890861511,0.0347629189491272,-0.0015077590942382,0,0,0,0
6.6,1788349403759,0.0,0.0,0.0029278977308422,-0.0057644536718726,0.9647042751312256,0.2632559835910797,-0.0001112252784354,0.0001274572587102,-2.971851277064588e-08,0.0009605893865227,-0.0004976685158908,-0.0012842998839914,0.0035787792876362,-0.0053332019597291,0.9904723167419434,0.1375625282526016,0.0004023978820002,0.0023471565865421,0.0013152545919706,0.0015157461166381,-0.0138102769851684,-0.0070228576660156,0,0,0,0
6.7,1788349403859,0.0,0.0,0.0029278977308422,-0.0057644536718726,0.9647042751312256,0.2632559835910797,0.0,0.0,0.0,0.0,0.0,0.0,0.0035522077232599,-0.0053566908463835,0.990465521812439,0.1376103311777115,4.776322166707874e-05,0.0015899284184568,-0.0021724923532916,-0.0357526540756225,0.0064570903778076,0.0002031326293945,0,0,0,0
6.8,1788349403959,0.0,0.0,0.0029278977308422,-0.0057644536718726,0.9647042751312256,0.2632559835910797,0.0,0.0,0.0,0.0,0.0,0.0,0.0035459324717521,-0.0053638983517885,0.990469753742218,0.137580394744873,-0.0019005764684413,0.0026986496733932,-0.0015313947960156,-0.0069097280502319,-0.0419197082519531,0.018050193786621,0,0,0,0
6.9,1788349404059,0.0,0.0,0.0029278977308422,-0.0057644536718726,0.9647042751312256,0.2632559835910797,0.0,0.0,0.0,0.0,0.0,0.0,0.0035197250545024,-0.0053449962288141,0.990476131439209,0.1375354081392288,-0.0004877514329316,-0.0003180462217072,0.0014782518483424,0.0008444190025329,0.0224600434303283,0.0128211975097656,0,0,0,0
7.0,1788349404159,0.0,0.0,0.0029278977308422,-0.0057644536718726,0.9647042751312256,0.2632559835910797,0.0,0.0,0.0,0.0,0.0,0.0,0.0035438537597656,-0.0053517362102866,0.9904768466949464,0.1375301331281662,0.001005944641198,-0.000343599429187,0.0019819228567954,-0.0158007144927978,-0.0008072257041931,0.0055780410766601,0,0,0,0
7.1,1788349404259,0.0,0.0,0.0028623896650969,-0.0057774009183049,0.9647161960601808,0.2632128596305847,0.0,0.0,0.0,0.0,0.0,0.0,0.0035543078556656,-0.0053746066987514,0.9904760122299194,0.1375346034765243,-0.0004840557836705,0.0014503869336746,0.0009479212825393,-0.0358186364173889,-0.0219438076019287,0.0037298202514648,0,0,0,0
7.2,1788349404359,0.0,0.0,0.0028457194566726,-0.0057782940566539,0.9647140502929688,0.263220876455307,0.0,0.0,0.0,0.0,0.0,0.0,0.0035912552848458,-0.0053668320178985,0.9904726147651672,0.1375583112239837,-0.0004644104388235,0.0005520779505627,-0.0023153964911566,-0.02932870388031,0.0065289735794067,0.0074033737182617,0,0,0,0
7.3,1788349404459,0.0,0.0,0.0028457194566726,-0.0057782940566539,0.9647140502929688,0.263220876455307,0.0,0.0,0.0,0.0,0.0,0.0,0.0035666292533278,-0.0053748656064271,0.9904751777648926,0.1375398486852646,4.500489390522818e-05,-0.0013418321509207,5.419985377564591e-05,-0.0252757668495178,-0.0076377391815185,0.0163459777832031,0,0,0,0
7.4,1788349404559,0.0,0.0,0.0028457194566726,-0.0057782940566539,0.9647140502929688,0.263220876455307,0.0,0.0,0.0,0.0,0.0,0.0,0.0035525718703866,-0.0053559821099042,0.9904729127883912,0.1375577747821808,0.0018177552067306,-0.0004952231376628,0.001837725356691,-0.0123622417449951,0.0046921968460083,-0.0177488327026367,0,0,0,0
7.5,1788349404659,0.0,0.0,0.0028457194566726,-0.0057782940566539,0.9647140502929688,0.263220876455307,0.0,0.0,0.0,0.0,0.0,0.0,0.003536726348102,-0.0053784120827913,0.9904679656028748,0.1375923007726669,-0.0006651579033027,0.0020140439150059,-0.0015436523944195,-0.0282802581787109,-0.0217800140380859,-0.0142230987548828,0,0,0,0
7.6,1788349404759,0.0,0.0,0.0028457194566726,-0.0057782940566539,0.9647140502929688,0.263220876455307,0.0,0.0,0.0,0.0,0.0,0.0,0.0035669784992933,-0.0054121008142828,0.990466058254242,0.1376047432422638,-0.0013780855972391,0.0007592105736012,-0.0006529219861365,-0.0163910388946533,-0.0284662246704101,0.0163192749023437,0,0,0,0
7.7,1788349404859,0.0,0.0,0.0028457194566726,-0.0057782940566539,0.9647140502929688,0.263220876455307,0.0,0.0,0.0,0.0,0.0,0.0,0.0035312827676534,-0.0054060155525803,0.9904745221138,0.1375448256731033,0.0002227601549979,0.0012780025510148,0.0025438629718874,-0.0264502167701721,0.0200205445289611,0.0146436691284179,0,0,0,0
7.8,1788349404959,0.0,0.0,0.0028457194566726,-0.0057782940566539,0.9647140502929688,0.263220876455307,0.0,0.0,0.0,0.0,0.0,0.0,0.0034622522071003,-0.0053989728912711,0.990470826625824,0.1375732868909835,0.000873227904904,3.849720334146397e-05,0.0017239846791052,-0.0197007656097412,-0.0050481557846069,0.0056009292602539,0,0,0,0
7.9,1788349405059,0.0,0.0,0.0028457194566726,-0.0057782940566539,0.9647140502929688,0.263220876455307,0.0,0.0,0.0,0.0,0.0,0.0,0.0034561641514301,-0.0054034404456615,0.9904679656028748,0.137593612074852,0.0004001393550293,0.0005757677859365,0.002016240903147,-0.0177918672561645,-0.0048816204071044,-0.0177316665649414,0,0,0,0
8.0,1788349405159,0.0,0.0,0.0028457194566726,-0.0057782940566539,0.9647140502929688,0.263220876455307,0.0,0.0,0.0,0.0,0.0,0.0,0.0034784851595759,-0.0053828889504075,0.9904639720916748,0.1376226544380188,-0.0004755651036499,0.0010869978264768,-0.0014982475215611,-0.0199712514877319,-0.021529197692871,-0.0087919235229492,0,0,0,0
8.1,1788349405259,0.0,0.0,0.0028457194566726,-0.0057782940566539,0.9647140502929688,0.263220876455307,0.0,0.0,0.0,0.0,0.0,0.0,0.003481819294393,-0.0053790099918842,0.9904688596725464,0.137588158249855,-0.0006718072740123,-0.0008240915979872,-0.0011874962090658,-0.0020623207092285,0.0232685208320617,0.0003070831298828,0,0,0,0
8.2,1788349405359,0.0,0.0,0.0028457194566726,-0.0057782940566539,0.9647140502929688,0.263220876455307,0.0,0.0,0.0,0.0,0.0,0.0,0.0033971155062317,-0.0053493054583668,0.9904670715332032,0.1376041024923324,0.0005899037169424,-0.0001252608914076,0.0019033060385392,-0.0093138217926025,-0.0057743191719055,-0.017745018005371,0,0,0,0
8.3,1788349405459,0.0,0.0,0.002660846337676,-0.005742410197854,0.9646905064582824,0.2633101940155029,-0.0002281234789909,0.0002614995484357,7.025312112618389e-08,-0.00040592829464,0.0052936263382434,-0.0025703685823827,0.0033605843782424,-0.0053527290001511,0.9904687404632568,0.1375926733016967,0.0004254104687357,-0.0001275766419804,0.0015967111510594,-0.035556137561798,-0.0020369887351989,-0.0105628967285156,0,0,0,0
8.4,1788349405559,0.0,0.0,0.0026555354706943,-0.005735267419368,0.9646991491317748,0.2632786333560943,-7.418110102832987e-05,8.415259498078219e-05,1.0250903757904757e-08,0.0001541133824503,0.0006762591656297,-0.0008389760041609,0.0033363075926899,-0.0053529972210526,0.9904677271842957,0.1376006305217743,-0.0006701258824085,0.0023737175224724,-0.0018885682676128,-0.0225194096565246,-0.0523171424865722,0.0108642578125,0,0,0,0
8.5,1788349405659,0.0,0.0,0.0026214462704956,-0.0057294652797281,0.9646968841552734,0.2632874846458435,-3.268382552721736e-05,3.689287189011988e-05,3.4640450551401576e-08,-0.0001347665966022,0.0013601372484117,-0.0003529076348058,0.0033648833632469,-0.0053390618413686,0.9904725551605223,0.1375660449266433,-0.0003124012391599,-0.0011776243565361,0.0002347443887839,-0.0140559077262878,-0.0077707171440124,0.0145740509033203,0,0,0,0
8.6,1788349405759,0.0,0.0,0.0026421742513775,-0.0056884475052356,0.9646997451782228,0.263277530670166,0.0001113221787662,-0.0001272550513846,6.460139696059949e-08,0.0014595144893974,-9.755460632732138e-05,0.0012745610438287,0.0033712657168507,-0.0053050927817821,0.9904706478118896,0.1375808268785476,0.0003994293060165,-0.0019001447369846,0.0004128617609678,0.016447901725769,0.0185439586639404,-0.0069055557250976,0,0,0,0
8.7,1788349405859,0.0,0.0,0.0026135914959013,-0.0056965937837958,0.9646894335746764,0.2633154094219208,-0.0001377192450089,0.0001578695291149,-1.5225143778371917e-07,-0.0005611603264696,0.0023580819834023,-0.001554429414682,0.0033215163275599,-0.0053150318562984,0.9904652237892152,0.1376206129789352,-0.0004801774488365,0.003173921096663,0.0004152303792093,-0.0077711343765258,-0.013507604598999,0.0091667175292968,0,0,0,0
8.8,1788349405959,0.0,0.0,0.0026135914959013,-0.0056965937837958,0.9646894335746764,0.2633154094219208,0.0,0.0,0.0,0.0,0.0,0.0,0.0033736266195774,-0.0052868090569972,0.990459144115448,0.1376643925905227,0.0008650264917058,-0.0002658638902261,-0.0017171294510638,0.0945000648498535,-0.0305752754211425,0.0095348358154296,31,78,1276,2398
8.9,1788349406059,1.2394366264343262,2.760563373565674,0.0026135914959013,-0.0056965937837958,0.9646894335746764,0.2633154094219208,0.0005882645680179,0.0002170883338215,-4.829614184031466e-09,0.0,0.0,0.0,0.0032234909012913,-0.0053415726870298,0.9910999536514282,0.1329736858606338,-0.0010235184087192,0.0108155217075276,0.1601902413384823,0.13360595703125,0.0931207537651062,0.1158180236816406,220,203,8361,11115
9.0,1788349406159,3.633802890777588,6.169013977050781,0.0025029554963111,-0.0057516228407621,0.966626524925232,0.2561129927635193,0.0879789133585666,0.0098647209337854,-1.91532900378593e-05,-0.0011945975711569,0.0073750843293964,0.1942448168992996,0.0034221326932311,-0.0051323035731911,0.9927501082420348,0.1200383678078651,0.0219780312647793,-0.0247402970808393,0.3781844881541262,0.9109644889831544,0.0337188839912414,0.1841564178466797,128,215,10147,19044
9.1,1788349406259,3.549295663833618,6.788732528686523,0.0023466106504201,-0.005313238594681,0.9741336703300476,0.2258979380130767,0.1776318116223415,0.008924263205392,5.498054176856255e-05,0.000403408659622,0.006208156235516,0.4521172344684601,0.0031187366694211,-0.0049042906612157,0.9956152439117432,0.0933619290590286,0.0133714356834289,-0.01877472331356,0.4771087204808026,-0.0537327527999877,0.2165297865867614,0.3297204971313476,87,87,10848,18310
9.2,1788349406359,3.6619718074798575,6.676056385040283,0.001996150240302,-0.0054708803072571,0.97912859916687,0.2031581550836563,0.1776635074869123,-0.0026654689141899,-3.111839714689794e-05,-0.00270437146537,0.0113413855433464,0.4773282408714294,0.0027257362380623,-0.0051846699789166,0.997372567653656,0.0722052976489067,0.0023245592892731,-0.0037760516085874,0.5141805714814514,0.0938261747360229,0.3429584503173828,0.177408218383789,110,129,9993,18106
9.3,1788349406459,2.7323944568634038,4.873239517211914,0.0018582232296466,-0.0054041645489633,0.9815462231636048,0.1911399662494659,0.1712045214223818,0.000348932740075,2.976171902326836e-06,0.0029324130155146,0.0034502416383475,0.4824130535125732,0.0024936152622103,-0.0047179711982607,0.9987636804580688,0.0494228675961494,0.0116891554206969,-0.0009916179516496,0.4679929885662586,-0.2724885940551758,0.402144193649292,0.065988540649414,16,22,6022,10492
9.4,1788349406559,1.2957746982574463,2.169013977050781,0.001668332144618,-0.0053262305445969,0.9849001169204712,0.1730335652828216,0.1281986345390618,0.0061149324125308,3.750880613513028e-05,-0.0161011479794979,-0.0058238226920366,0.3463192582130432,0.0020019235089421,-0.0051412181928753,0.9992473125457764,0.0383970625698566,0.0071093417155941,0.013177625317765,0.2051520061687673,-0.8655931949615479,0.1695143580436706,-0.1700668334960937,16,16,2671,4695
9.5,1788349406659,0.0,0.0,0.0014196208212524,-0.0053785820491611,0.9868026375770568,0.1618320494890213,0.0082810549703639,-0.0014623718919505,-6.551234052991865e-07,8.286213414976373e-05,0.0005712619167752,0.0516563840210437,0.0023913588374853,-0.0051604267209768,0.9994189143180848,0.0336073972284793,-0.0006406899775579,-0.0146465891344313,0.0034028244133523,0.0719082951545715,0.0003905296325683,0.0723094940185546,8,0,0,0
9.6,1788349406759,0.0,0.0,0.0017197716515511,-0.0054685329087078,0.9870543479919434,0.1602836847305297,-0.001523354842129,-0.0020659365357389,1.430436946476031e-07,-0.0011599212884902,-0.000696332892403,0.0396990850567817,0.0023897811770439,-0.0052194828167557,0.999459981918335,0.0323550999164581,-0.0020687724293822,0.0012847937476825,0.0228727100131145,0.0415149927139282,-0.0431128144264221,0.002150535583496,0,0,0,0
9.7,1788349406859,0.0,0.0,0.001701749744825,-0.0054825264960527,0.987088978290558,0.1600702106952667,0.0001125933110407,0.0001204664539198,7.934088807706431e-08,-0.0006231116130948,0.0005572212976403,0.0083511443808674,0.0023509161546826,-0.0052046189084649,0.9994630813598632,0.0322643965482711,-0.0006114169079033,-0.0007521252688231,-0.0018218576224218,0.0027820467948913,-0.0092400908470153,-0.0013751983642578,0,0,0,0
9.8,1788349406959,0.0,0.0,0.001647621858865,-0.0054622218012809,0.98710834980011,0.1599519997835159,0.0,0.0,0.0,0.0,0.0,0.0,0.0023700837045907,-0.0052154352888464,0.99946391582489,0.0322350226342678,-0.0008167134541696,-0.0006175859449398,0.0021920775847102,-0.0137723088264465,0.0232084989547729,0.031036376953125,0,0,0,0
9.9,1788349407059,0.0,0.0,0.0017245650524273,-0.0054669375531375,0.987099587917328,0.1600051820278167,0.0,0.0,0.0,0.0,0.0,0.0,0.0024396497756242,-0.0051920283585786,0.9994634985923768,0.0322446152567863,0.0002394873649039,-0.001108868092355,0.0019412875383048,-0.0097250938415527,0.0227693915367126,0.0058956146240234,0,0,0,0
10.0,1788349407159,0.0,0.0,0.0017749622929841,-0.0054525886662304,0.987109363079071,0.1599446386098861,0.0,0.0,0.0,0.0,0.0,0.0,0.0024460684508085,-0.0051915422081947,0.9994619488716124,0.0322954021394252,7.188988131770541e-05,0.0024093193144144,-0.0017144316082758,-0.0260209441184997,-0.0329298973083496,0.0075445175170898,0,0,0,0
10.1,1788349407259,0.0,0.0,0.0017465353012084,-0.0054602092131972,0.9870994091033936,0.1600057184696197,-0.000208277491203,0.0002391004832316,7.508823360259868e-08,-0.0004728197236545,0.0010497769108042,-0.0023858612403273,0.002470782957971,-0.0051945792511105,0.9994632005691528,0.0322526544332504,-0.0009902583217069,-0.0023749234951428,-0.0022555733358361,-0.0085339546203613,0.0048977732658386,-0.017496109008789,0,0,0,0
10.2,1788349407359,0.0,0.0,0.0017852734308689,-0.00546820089221,0.9871053099632264,0.1599691063165664,0.0,0.0,0.0,0.0,0.0,0.0,0.0024996045976877,-0.005191296339035,0.9994639754295348,0.0322276949882507,-0.0009038290241838,-0.0010698711719863,-0.0005295177677518,0.0052640438079833,0.0155063271522521,0.0166635513305664,0,0,0,0
10.3,1788349407459,1.0140844583511353,1.6338027715682983,0.0018454641103744,-0.0054757073521614,0.9871020913124084,0.1599879562854766,0.0005527498573143,0.0001646651250967,2.6015567391769725e-07,-0.0003218012861907,-0.0017772616120055,-0.0014536902308464,0.002633792348206,-0.0051873093470931,0.9994661211967468,0.0321499034762382,0.000168461588192,-0.005704569330926,0.0070442061320513,1.9477360248565676,0.0560536384582519,0.2544775009155273,263,135,5875,7303
10.4,1788349407559,2.563380241394043,4.14084529876709,0.0015514306724071,-0.005325133446604,0.9881805181503296,0.1531945914030075,0.1005621855377167,0.0048574589520518,-6.180868254165583e-06,0.0015394685324281,0.0086854025721549,0.1969024240970611,0.00218709371984,-0.0051019378006458,0.9996538758277892,0.0257172584533691,0.0007126101103949,0.015289278032128,0.207187715589773,0.7000277042388916,-0.1380922794342041,-0.1110763549804687,120,213,9930,14867
10.5,1788349407659,4.2816901206970215,6.478873252868652,0.0013486219104379,-0.0049901637248694,0.9891635179519652,0.1467267870903015,0.1347007272093688,0.0013848283988945,-1.3812900830543404e-05,0.0131273055449128,0.0091126216575503,0.2724709212779999,0.0017507337033748,-0.0048623168841004,0.9999247193336488,0.0111307334154844,-0.0035330142301891,0.0076262931725837,0.3288111708877471,0.4100382328033447,0.2020497322082519,0.187774658203125,78,182,11543,18781
10.6,1788349407759,3.746478796005249,6.02816915512085,0.0006417006370611,-0.0049021891318261,0.9913423657417296,0.1312094181776046,0.1803764502433616,-0.0019122155403747,-6.69234742081494e-05,0.0042622489854693,0.0209301207214593,0.3704751133918762,-0.0012057144194841,0.004579815082252,-0.9999738931655884,0.0054560024291276,0.0128789156960087,0.0051963686038682,0.3374330942979293,-0.4272692799568176,-0.0848602652549743,0.1489896774291992,186,86,14307,15822
10.7,1788349407859,4.084506988525391,5.97183084487915,0.0010130668524652,-0.0041782590560615,0.994247555732727,0.1070199087262153,0.177814476335,0.0019515018448372,2.1857255244083045e-05,0.0102030551061034,-0.0066786110401153,0.248402714729309,-0.0014383159577846,0.0040488308295607,-0.9997189044952391,0.023315891623497,-0.0037138968230744,0.0090752148836597,0.2427606670460878,-0.155497133731842,0.3501787185668945,-0.3635540008544922,120,106,12774,16104
10.8,1788349407959,3.577464818954468,6.253520965576172,0.0015623060753569,-0.0038882803637534,0.99551659822464,0.0944946184754371,0.1769017432637118,0.0038962701715452,-1.7134595871666688e-05,0.0110968155786395,-0.0066091958433389,0.2659527957439422,-0.0017247851938009,0.0037433998659253,-0.999334156513214,0.0362519957125186,-0.000680840938369,-0.0016484327774202,0.2929371856695462,-0.1425450444221496,0.1633637547492981,0.3292551040649414,87,142,11958,17620
10.9,1788349408059,3.633802890777588,6.309859275817871,0.0019732033833861,-0.0034531464334577,0.9970098733901978,0.0771706029772758,0.1759026594489774,0.0010735691998709,-5.5142122151068606e-05,0.0126815037801861,-0.0130917513743042,0.3886159658432007,-0.002758621238172,0.0031591849401593,-0.998580276966095,0.0531025752425193,0.0181615974958196,-0.0772652086450644,0.3692496848027834,0.1143020391464233,0.1952517628669738,0.8700838088989258,123,128,11971,17196
11.0,1788349408159,4.02816915512085,5.802816867828369,0.0022685211151838,-0.0034741130657494,0.9982284307479858,0.0593530721962451,0.1664737051464965,0.0066625299705772,4.0691892269254285e-05,-0.0012757511576637,-0.0142261870205402,0.2965025603771209,-0.0025890571996569,0.0030999155715107,-0.997688055038452,0.0678404793143272,-0.0006745350905458,-0.008149257323281,0.2795257656871291,0.2354247570037841,-0.0535999536514282,0.3001012802124023,81,104,13085,16524
11.1,1788349408259,4.197183132171631,5.915493011474609,0.0021518047433346,-0.0033074030652642,0.9987977147102356,0.0488617643713951,0.1762212469931135,0.000616117290268,-7.279456744199951e-05,0.0029138391837477,0.0056416932493448,0.2359650284051895,-0.0028341757133603,0.0029194522649049,-0.9966462254524232,0.0817300230264663,0.0082456650914429,-0.0476617697231587,0.2403298802825286,0.1525570154190063,0.2609758973121643,-0.7821569442749023,97,143,12330,16446
11.2,1788349408359,3.91549301147461,6.0,0.0023620862048119,-0.0033647762611508,0.999328911304474,0.0363974347710609,0.163880770376749,0.0025099030174007,2.6546708838962664e-06,-0.0024423373397439,-0.0018643599469214,0.2453995198011398,-0.0028109000995755,0.0030351355671882,-0.9956817030906676,0.0927414745092392,0.0013097978440636,-0.015112153372201,0.2697948618965788,0.0905544161796569,-0.0814470648765564,0.7669858932495117,72,173,11105,18301
11.3,1788349408459,4.253520965576172,5.605633735656738,0.0022041329648345,-0.0033763544633984,0.9995806217193604,0.0286764614284038,0.1753623729240084,0.0020837651453208,-5.530026880530707e-06,7.514421304222196e-05,0.0056213145144283,0.3288942873477936,-0.0026529813185334,0.002894477918744,-0.9943091869354248,0.1064608767628669,0.0064130904276134,0.0065967699468374,0.2244165788769728,0.1933412551879882,-0.5212506055831909,-0.2704744338989258,165,62,14096,15345
11.4,1788349408559,4.450704097747803,6.0,0.0023854367900639,-0.0030218495521694,0.9998198747634888,0.0185860954225063,0.1883826695571462,-0.0005810480415949,2.148401596210297e-06,0.0095435865223407,-0.0062876064330339,0.151616632938385,-0.0023357709869742,0.0028390306979417,-0.9932423830032348,0.1160008609294891,-0.0038458729996926,0.0173733374243755,0.2760191829086056,0.0328638553619384,0.0999225974082946,0.0076160430908203,84,119,11189,16215
11.5,1788349408659,4.309859275817871,5.85915470123291,-0.0024080171715468,0.0030195468571037,-0.9999897480010986,0.002356712706387,0.1824697796367766,0.0005169472612041,-2.6019193721305096e-06,0.0015702833188697,-0.0111234094947576,0.2569644749164581,-0.0026394352316856,0.0028332490473985,-0.991141676902771,0.1327524930238723,-0.0124437322003277,-0.0072595864193088,0.2493545171238572,0.2686060070991516,-0.2080641388893127,0.1596031188964843,82,153,11820,16693
11.6,1788349408759,4.450704097747803,6.0,-0.0017469122540205,0.0027522903401404,-0.9998769760131836,0.0153423752635717,0.1780322650907503,0.0007665811237091,-2.28173309316196e-05,0.0171475801616907,0.0164766106754541,0.2713435590267181,-0.0022463090717792,0.0024991538375616,-0.989497184753418,0.1445132344961166,0.0174061064007329,-0.004452596135181,0.2623688143411648,-0.1316426992416381,0.0762091875076294,0.0092716217041015,75,97,11459,16115
11.7,1788349408859,4.11267614364624,5.690140724182129,-0.0020627246703952,0.0027257779147475,-0.9997663497924804,0.0213450696319341,0.170148197227256,0.001014774699464,5.917492801532668e-05,0.0012636356987059,-0.0132093643769621,0.2381904423236847,-0.0023982739076018,0.0022761858999729,-0.988103449344635,0.153755247592926,-0.004761455694527,-0.0045756282772285,0.1548866788148703,-0.0432928204536438,0.1217684149742126,0.4853830337524414,61,178,12601,17193
11.8,1788349408959,4.732394218444824,5.521126747131348,-0.0020512666087597,0.0024359091185033,-0.9995620846748352,0.0294193439185619,0.1723684380344687,0.0023834373892757,5.148493251410803e-06,0.0067537175491452,0.0011560848215594,0.1712366193532943,-0.0023440485820174,0.001689851284027,-0.9862859845161438,0.1650202721357345,0.0176119063841241,0.0020864332233364,0.1360586644250115,0.1454127430915832,-0.1269287467002868,-0.7114114761352539,176,78,12661,15220
11.9,1788349409059,4.704225540161133,5.464788913726807,-0.0021394849754869,0.0021394321229308,-0.9990840554237366,0.0426827557384967,0.1707973068899014,0.001081426787633,3.894125347893462e-05,-0.0018095562700182,0.00225600018166,0.137379989027977,-0.0025687562301754,0.0017398437485098,-0.9852431416511536,0.1711325347423553,0.0126857986146724,-0.007433599819327,0.1710378427516497,0.3925902843475342,0.1074662804603576,0.4136390686035156,78,162,12397,15844
12.0,1788349409159,4.084506988525391,5.97183084487915,-0.002253589220345,0.0018242270452901,-0.9986081123352052,0.0526634715497493,0.1793604684562572,0.0037724542841355,0.0001267252640623,0.0038883797824382,-0.0161298532038927,0.2271860986948013,-0.0024563642218708,0.0015235310420393,-0.9836201667785645,0.1802303045988083,0.0002721064344421,0.0125181598746895,0.2531284649624126,-0.8682874441146851,-0.0962361097335815,0.480961799621582,49,100,12194,16562
12.1,1788349409259,3.9718310832977295,5.943662166595459,-0.0025060130283236,0.0016894196160137,-0.9982208013534546,0.0595495328307151,0.1658240714120056,0.0045838896198802,6.562280930195084e-05,0.0054157837294042,-0.0108447102829813,0.2743379175662994,-0.0027807522565126,0.0012895781546831,-0.9814066886901855,0.1919152736663818,0.0045422447422231,-0.0157888293462295,0.2357705190010961,0.244308054447174,0.0057478547096252,-0.4595527648925781,78,109,12857,16399
12.2,1788349409359,4.450704097747803,5.915493011474609,-0.0025631329044699,0.0016816674033179,-0.9974774718284608,0.0709167718887329,0.1717068669901125,-0.0014057366354632,5.706629812316628e-05,-0.0024766095448285,-0.0127258226275444,0.244477167725563,-0.0027768928557634,0.0013698749244213,-0.978412628173828,0.2066379189491272,-0.0093070332513891,0.0031971237594931,0.2533120763068432,-0.2580387592315674,0.2079169750213623,0.7369985580444336,115,134,11261,16397
12.3,1788349409459,4.450704097747803,5.943662166595459,-0.0026185452006757,0.0020162221044301,-0.9958413243293762,0.0910447537899017,0.1651103672319591,0.0088014736945783,5.683177214361203e-06,-0.0079156160354614,-0.0047087054699659,0.2561521530151367,-0.0029225489124655,0.0016297250986099,-0.9759878516197203,0.217799499630928,-0.0063898298389579,-0.0201847354847418,0.2354073586875047,0.1612827181816101,0.2037565112113952,-0.1591157913208007,110,109,11457,16433
12.4,1788349409559,4.619718074798584,5.915493011474609,-0.0025267717428505,0.0023792870342731,-0.9946852326393129,0.1029042750597,0.1760396582503514,0.006823210265417,2.001692246785883e-05,-0.0053106327541172,-0.0011391383595764,0.2430247515439987,-0.0029942011460661,0.0019903611391782,-0.9726746678352356,0.2321446686983108,0.0041873405646155,-0.0162019863016548,0.2644448678488301,0.0595567822456359,0.2489922642707824,0.7049026489257812,80,120,10725,16479
12.5,1788349409659,4.11267614364624,6.0,-0.0024794498458504,0.0028065829537808,-0.9940012097358704,0.1093047931790351,0.1696342020741205,0.0015750098397784,2.7645627799262172e-05,-0.0159322507679462,0.0029100046958774,0.2528861463069916,-0.0026103556156158,0.0028436668217182,-0.969832181930542,0.2437431961297989,-0.004418973499371,0.0160449112422638,0.2818539853865082,-0.037670612335205,0.2756903767585754,-0.3817014694213867,67,135,12370,16404
12.6,1788349409759,4.14084529876709,5.830986022949219,-0.0020459054503589,0.0036891992203891,-0.9914833903312684,0.1301645934581756,0.1698786666860479,0.0074755010301748,2.7422816344567983e-05,-0.0135329142212867,0.0060484800487756,0.2550949454307556,-0.0026336656883358,0.0032471762970089,-0.9668985605239868,0.2551269829273224,-0.022217223258939,0.0114458774747673,0.2423136511629327,0.0741728544235229,0.0856691598892211,-0.1324625015258789,60,138,12394,16827
12.7,1788349409859,3.91549301147461,5.943662166595459,-0.0020045801065862,0.0042979656718671,-0.989821434020996,0.1422358155250549,0.1731286989136634,0.0020538880024749,-4.716167564919874e-05,-0.0110494215041399,0.0040688011795282,0.2762363255023956,-0.0025872495025396,0.0040641464293003,-0.962686002254486,0.2705782055854797,-0.0060262801740319,-0.0021632295032794,0.2734119502762914,-0.0972939729690551,0.061342716217041,0.0686550140380859,64,113,13046,16563
12.8,1788349409959,3.9718310832977295,6.0,-0.0016379263252019,0.0044895890168845,-0.9879111051559448,0.1549476683139801,0.1773585122093325,-3.713503730075031e-05,-1.769233246566588e-05,-0.000539144326467,0.0153453685343265,0.2545211911201477,-0.002190395258367,0.0041970806196331,-0.9595706462860109,0.2814280688762665,0.0042108396286964,0.0175065440264379,0.220557926158731,-0.3557354211807251,0.061604619026184,0.2068548202514648,72,111,13047,16298
12.9,1788349410059,4.760563373565674,5.549295902252197,-0.0016841370379552,0.0044847493991255,-0.9862226843833924,0.1653540432453155,0.1783707513778686,0.0009534982453874,9.499050727576071e-05,-6.374992517521605e-05,-0.0084912190213799,0.1739928424358368,-0.0022318940609693,0.0042416797950863,-0.9569112658500672,0.2903408706188202,-0.0110077397273887,0.0074196956362868,0.1289180478611213,-0.3752791881561279,-0.2308059334754943,0.5545568466186523,120,97,14142,15147
13.0,1788349410159,4.366197109222412,5.6619720458984375,-0.0020928061567246,0.0042452192865312,-0.9857884049415588,0.1679249405860901,0.174114082898023,-0.0001194085869766,2.54484736072809e-05,0.0085584130138158,-0.022762818261981,0.1303525567054748,-0.0028034932911396,0.0039972625672817,-0.955146074295044,0.2960946559906006,0.0074553228125459,-0.0345678759444655,0.1429357770642525,0.3766719698905945,-0.1838333010673523,-0.0072412490844726,115,100,13727,15203
13.1,1788349410259,4.704225540161133,5.492957592010498,-0.0022326144389808,0.0039316317997872,-0.9838213920593262,0.1790950298309326,0.1738978485386913,0.0036578637380687,-7.999345175302498e-05,-0.0018198556499555,-0.0077130403369665,0.137426882982254,-0.0030638771131634,0.003438233397901,-0.9525271654129028,0.3044186234474182,0.0170314016852071,-0.0815118446832511,0.154995451218749,0.4574096202850342,0.0079506635665893,-0.4198579788208008,160,109,12640,15693
13.2,1788349410359,4.450704097747803,5.380281925201416,-0.0019703675061464,0.0036503302399069,-0.9827265739440918,0.1850169003009796,0.1722997236412884,0.0041466643733528,0.0001148777030977,0.0057053752243518,-0.0003519134188536,0.0914658978581428,-0.0023538256064057,0.0033704089000821,-0.9509146809577942,0.3094260096549988,0.0114781500619481,0.0634477795730116,0.0599833906493433,-0.0910598039627075,-0.2003437876701355,-1.8503284454345703,44,128,13270,16089
13.3,1788349410459,4.985915660858154,5.633802890777588,-0.0025451311375945,0.0034072618000209,-0.9814225435256958,0.1918115615844726,0.1746337748953284,0.0012615262794997,5.115332461772093e-05,0.004354637581855,-0.0217701457440853,0.1603701263666153,-0.0030752513557672,0.002977124415338,-0.94893079996109,0.3154551386833191,-0.0102169934394385,-0.0589770132736755,0.159783939251776,0.6205781698226929,0.1851127743721008,-0.5181779861450195,96,105,11494,15175
13.4,1788349410559,4.478873252868652,5.492957592010498,-0.0021986227948218,0.0027956156991422,-0.9797711968421936,0.2000894248485565,0.1808086401014517,0.0002880726154245,-1.9844164554019918e-05,0.0114931324496865,0.0056735188700258,0.1579932570457458,-0.0025093462318181,0.0024888115003705,-0.9460105895996094,0.3241164684295654,0.0108436161317499,0.0098196228630292,0.1481370339816695,-0.0091236233711242,-0.0009182691574096,-0.0034551620483398,67,125,13297,15680
13.5,1788349410659,4.3380279541015625,5.577464580535889,-0.0027621060144156,0.0021677610930055,-0.9785497784614564,0.2059802860021591,0.177828981363513,0.0003678065870425,1.0029758453129505e-05,0.0109190493822097,-0.0280248895287513,0.1541537493467331,-0.0031226398423314,0.0016822889447212,-0.943815052509308,0.3304552137851715,0.0067950919898014,-0.032905557791429,0.1463318845657229,0.1776426434516906,0.097575843334198,0.1244096755981445,131,115,13831,15204
13.6,1788349410759,5.014084339141846,5.521126747131348,-0.0028967573307454,0.0016329609788954,-0.976886510848999,0.2137326300144195,0.1761710618782108,0.001088028485606,-4.375887519392591e-05,0.0019530518911778,0.0088124023750424,0.1321250796318054,-0.002998380921781,0.0011741537600755,-0.9409688115119934,0.3384779691696167,0.0093833145586613,0.0008088965728509,0.1296450913198255,0.1536557078361511,0.1380903720855713,0.1155071258544921,131,60,13705,13469
13.7,1788349410859,4.2253522872924805,5.549295902252197,-0.0028325177263468,0.0015590088441967,-0.9766058325767516,0.2150128781795501,0.1738860366563647,0.0007885850279687,-8.50894021333995e-06,0.0035118833184242,0.0017336516175419,0.0515838265419006,-0.0035044467076659,0.0007611103355884,-0.939547061920166,0.3424009680747986,0.0079342847980862,-0.0167108837836119,0.1728166468799759,0.071756362915039,0.2495570182800293,-0.0925188064575195,111,137,13990,15693
13.8,1788349410959,4.366197109222412,5.521126747131348,-0.0032326411455869,0.0012759058736264,-0.9751157760620116,0.2216692715883255,0.1711459431758921,0.0013915628068837,-1.775376906589137e-05,-0.0008051742915995,0.007394733838737,0.1722484678030014,-0.0035122707486152,0.0009368322789669,-0.936880111694336,0.3496318757534027,-0.001482836519011,0.0007023628708587,0.1594317192574182,-0.1731196641921997,0.0454258322715759,0.4259529113769531,110,103,13635,15615
13.9,1788349411059,5.070422649383545,5.098591327667236,-0.003857739502564,0.0013459029141813,-0.9724186658859252,0.233206570148468,0.1788862732866808,0.0002915524492871,-7.52636542790752e-05,-0.0028993911109864,-0.0035132823977619,0.1502504199743271,-0.0041994620114564,0.0007865671068429,-0.9337438344955444,0.3579163551330566,-0.0009453140375564,-0.0077590999091946,0.1354681817912491,0.0112937688827514,0.0632358193397522,0.0884876251220703,161,119,13442,14763
14.0,1788349411159,4.366197109222412,5.6619720458984375,-0.0044671213254332,0.0011882544495165,-0.9711505770683287,0.2384222447872162,0.1688792565349648,0.0010837732905256,7.895325105869766e-05,-0.0013416283763945,-0.0145457359030842,0.1037579625844955,-0.0049537541344761,0.0004396634176373,-0.932251513004303,0.3617767989635467,0.0044341517737085,-0.0341416066894045,0.1395655283708962,-0.1502692699432373,-0.0310155749320983,0.151193618774414,65,104,13271,15283
14.1,1788349411259,4.816901206970215,5.521126747131348,-0.0052194334566593,0.0012775011127814,-0.9692835211753844,0.245887279510498,0.1612566007326486,0.0044953167938293,0.0001254971659978,-0.005404433235526,-0.018141008913517,0.1551760882139206,-0.0053097512573003,0.0006525488570332,-0.929735004901886,0.3681903779506683,-0.0262487486279071,0.0211510446089608,0.1715266954905059,-0.0130329728126525,0.0442575812339782,0.1622657775878906,111,126,12025,15663
14.2,1788349411359,4.2816901206970215,5.549295902252197,-0.0057928171008825,0.0010163295082747,-0.9685119390487672,0.2488976120948791,0.1669280492083319,0.0039828446089417,3.5766584095574793e-05,0.0062063755467534,-0.0307101756334304,0.151895597577095,-0.0062703490257263,-0.0001862067729234,-0.9270678758621216,0.374841034412384,0.0241405441890083,-0.0825401979448991,0.1481076057623293,0.1898286342620849,0.2471228241920471,0.7719573974609375,55,120,13934,15490
14.3,1788349411459,4.394366264343262,5.549295902252197,-0.0063951751217246,0.0006283121183514,-0.9655163884162904,0.2602631747722626,0.16065486632697,0.0035234023578908,-5.267499733355917e-05,-0.0013316847616806,-0.006539290305227,0.1434288322925567,-0.0066652651876211,-0.0001986967399716,-0.923788845539093,0.38284432888031,0.000871178344382,-0.0498166918277867,0.1552508074783563,0.4958145022392273,0.0919280648231506,-0.2987213134765625,117,135,13556,15557
14.4,1788349411559,5.070422649383545,5.183098793029785,-0.0064334291964769,0.000971500063315,-0.9640380144119264,0.2656847834587097,0.1757226079511258,0.0004695057753179,-6.506708017925619e-06,-0.002746770856902,0.0046478216536343,0.0743105337023735,-0.0065854713320732,-8.831359446048737e-05,-0.9218552112579346,0.3874784708023071,0.0137336963251465,-0.0170229660742331,0.0265356349938093,-0.175631046295166,-0.1753363609313964,1.056413650512695,95,97,13615,14449
14.5,1788349411659,5.154929637908936,5.070422649383545,-0.0064128772355616,0.0007184476125985,-0.9635151028633118,0.2675761282444,0.1671067675238541,0.0014217176953649,5.242797925083905e-05,0.0023437079507857,-5.7602792367106304e-05,0.0350135937333107,-0.0063815768808126,-8.793920278549194e-05,-0.9212836623191832,0.3888388574123382,0.0070559611818385,0.053116671683935,0.0459158150751676,0.0120002031326293,0.0496562719345092,-1.0857467651367188,182,118,14161,14109
14.6,1788349411759,4.760563373565674,5.211267471313477,-0.0070196511223912,0.0006632779259234,-0.9634580612182616,0.267766386270523,0.1727189650640241,-0.0020691915019068,5.008027916885644e-05,-0.0054006138816475,-0.0299922619014978,0.009888993576169,-0.0071460846811532,-0.0002600103616714,-0.9213799834251404,0.3885971009731293,-0.0004531475126693,-0.0365712151297789,-0.0080670512823123,0.1493630409240722,-0.0730126500129699,-0.5254306793212891,102,118,14239,14780
14.7,1788349411859,4.985915660858154,5.239436626434326,-0.0072575807571411,0.0002978458069264,-0.962993860244751,0.2694255709648132,0.1671222103088086,0.0009000032084229,3.809225569119502e-05,0.0120550710707902,-0.013331607915461,0.0691871345043182,-0.0072657596319913,-0.0007427725940942,-0.9201454520225524,0.3915086686611175,0.0076238220839645,-0.0131769329833636,0.0748860551116951,0.2135865688323974,0.1287919282913208,-0.1458597183227539,93,107,13480,14493
14.8,1788349411959,5.492957592010498,4.929577350616455,-0.0071417717263102,0.0004318890860304,-0.9624285697937012,0.2714405059814453,0.1768390821813592,-0.0009516701724724,-9.184111761231451e-06,-0.0039623002521693,0.0018120526801794,0.0175615400075912,-0.0070278719067573,-0.00061094481498,-0.9197378158569336,0.3924699425697326,0.0124943103910276,0.0026013462730348,-0.0072236581884034,-0.0470000505447387,-0.0725835561752319,0.2090997695922851,160,105,14220,13357
14.9,1788349412059,5.295774459838867,5.126760482788086,-0.0070609501563012,0.0003108895616605,-0.9628074765205384,0.2700960338115692,0.1672937046336809,-0.0019851556016703,1.4313663062337056e-07,0.0,0.0,0.0,-0.0068917972967028,-0.0007276916876435,-0.9204853177070618,0.3907158970832824,0.0023781851747703,0.000444766099225,0.0030844079517681,0.0083615779876708,0.2527008056640625,0.2099180221557617,106,131,13485,14094
15.0,1788349412159,5.239436626434326,5.014084339141846,-0.0069769308902323,0.0002364454558119,-0.9627005457878112,0.2704789638519287,0.1757421877253828,0.0014401241914083,-2.7761915965030412e-09,0.0028481534682214,0.0017584892921149,0.0116538135334849,-0.0069253304973244,-0.0006755217909812,-0.9200981259346008,0.3916261494159698,0.007408076236353,-0.0003041763907438,0.0145943023888246,0.040600836277008,0.0265272855758667,-0.0277261734008789,136,120,13679,14356
15.1,1788349412259,5.295774459838867,4.957746505737305,-0.0067615639418363,-3.82191501557827e-05,-0.9628828763961792,0.2698347270488739,0.1768377663438305,0.0008530975273085,-3.3138118538406137e-08,0.0028935931622982,0.0072331237606704,-0.0520921722054481,-0.006724813953042,-0.0009221127256751,-0.920620620250702,0.390399307012558,0.0018764938993862,-0.0073820486842278,-0.0695698809366219,0.0154169201850891,-0.111887514591217,-0.2849578857421875,123,138,13749,14463
15.2,1788349412359,5.154929637908936,4.957746505737305,-0.0065059992484748,0.0001676902174949,-0.9632510542869568,0.2685237526893616,0.1750468527911445,0.001494520395483,5.380568455863924e-08,-0.0039563491009175,0.0010068359551951,-0.0147022828459739,-0.0065795378759503,-0.0006375843659043,-0.9208921790122986,0.3897614181041717,-0.0112215471642924,0.0068879717773489,-0.0225779755723123,0.0459823608398437,-0.0555527806282043,0.0271110534667968,130,146,14005,14604
15.3,1788349412459,4.732394218444824,5.211267471313477,-0.0065876012668013,6.451806984841824e-05,-0.9633995890617372,0.2679884433746338,0.1807897607306471,0.0028358193063898,-4.5513864145701713e-08,0.0002857054932974,-0.0057228663936257,-0.0132644865661859,-0.0063474550843238,-0.0005264841020107,-0.9211950898170472,0.3890489637851715,-0.0151755906201421,0.0121866388436318,-0.0125468221781417,-0.1252946853637695,-0.0274857878684997,0.5333824157714844,81,134,14495,14701
15.4,1788349412559,4.901408672332764,5.070422649383545,-0.0061985878273844,0.0002346861874684,-0.9633714556694032,0.2680987119674682,0.1701635757356991,0.0018948040143902,-3.161948011670587e-05,-0.0026885834522545,0.0191591847687959,0.0052398922853171,-0.0058472510427236,-0.0003301715478301,-0.9207324981689452,0.3901503384113312,0.014959524055993,-0.003034314560544,-0.0104432675883903,0.1510294079780578,-0.3259713649749756,-0.1773891448974609,137,100,15050,14147
15.5,1788349412659,5.126760482788086,5.183098793029785,-0.0053025758825242,0.0003208902198821,-0.9630853533744812,0.2691439092159271,0.1703458320123461,-0.000598727861404,-0.0001127192272872,0.0153859369456768,0.0146919265389442,-0.0014675713609904,-0.0050639640539884,-0.0003775162622332,-0.9207189083099364,0.3901935517787933,0.0028788985428785,0.0236946187129603,0.0009284435830376,0.0819709300994873,-0.0053513050079345,-0.1822576522827148,123,136,13099,14999
15.6,1788349412759,5.126760482788086,5.070422649383545,-0.0046624257229268,0.0004147917497903,-0.9628588557243348,0.2699646353721618,0.1659467446119244,0.0018478326219701,-2.130407562210825e-08,0.0,0.0,0.0,-0.0041057709604501,0.0002487683668732,-0.9202412366867064,0.3913299143314361,-0.0119163021633028,0.0340625938856642,-0.0080025907588417,-0.2647331357002258,-0.0071595311164855,0.407841682434082,164,133,14226,14076
15.7,1788349412859,4.873239517211914,5.380281925201416,-0.004040113184601,0.0007724816678091,-0.9627765417099,0.2702673375606537,0.171822320634703,-0.0025147029280194,-0.0001666337897124,-0.0067618042230606,0.026859913021326,0.0121929133310914,-0.0031133471056818,0.0003291741013526,-0.919833481311798,0.3922965824604034,0.0013225102821738,0.0135350980729278,0.0606756639734707,-0.0535759329795837,0.1179681420326232,0.4207420349121094,133,116,13860,14338
15.8,1788349412959,4.647887229919434,5.211267471313477,-0.0024996623396873,0.0009346678853034,-0.9622026681900024,0.2723213136196136,0.1793240823026146,0.0015892257034807,-9.488927390667936e-07,-0.0035095196217298,0.0222563482820987,0.0649632140994072,-0.0021254913881421,0.0010475115850567,-0.918752133846283,0.3948276937007904,-0.0094428882914541,0.019393713682739,0.0482535767410577,-0.1089754104614257,0.1069036126136779,0.3541431427001953,70,129,14670,14788
15.9,1788349413059,5.183098793029785,5.211267471313477,-0.0009189585689455,0.0017014581244438,-0.961253821849823,0.2756582498550415,0.1720596945986038,-0.0014954236327334,-8.391486884161349e-05,-0.0008626543567515,0.0208327881991863,0.0279987826943397,-0.0012494390830397,0.0016739601269364,-0.9179123640060424,0.3967776298522949,-0.016289142138142,-0.0085393158218683,0.02145309902551,0.094664990901947,0.2432215213775634,0.1159915924072265,96,121,13011,14717
16.0,1788349413159,4.2816901206970215,5.690140724182129,0.0003987698582932,0.0025239149108529,-0.9600763320922852,0.2797262668609619,0.1670376840860712,0.0001737175469883,-9.505152460744444e-05,-0.0072795976884663,0.0348765775561332,0.1269868314266204,0.0002672942355275,0.0027499813586473,-0.9157201051712036,0.4018073081970215,-0.0092730975986536,0.037960125618977,0.1888597990366304,-0.0901658535003662,-0.050991415977478,-0.2730989456176758,112,134,13553,15596
16.1,1788349413259,5.014084339141846,5.295774459838867,0.0011921485420316,0.0030258907936513,-0.9582231044769288,0.2860031723976135,0.1807078126908257,-0.0008137185126194,-0.0001112513912276,-0.0021806766744703,0.0241158809512853,0.0929170325398445,0.0008583907037973,0.0032174997031688,-0.9137141108512878,0.4063441157341003,-0.005975585887162,0.0060780910947103,0.0213989586738327,0.1164138317108154,0.1686946749687194,0.1891756057739257,124,79,13729,14000
16.2,1788349413359,4.563380241394043,5.211267471313477,0.001621332601644,0.0032333154231309,-0.9581918716430664,0.2861036658287048,0.1667846186467776,0.0022261797010337,-4.8203833748649086e-05,-0.0035514258779585,0.0219122972339391,0.0049528563395142,0.0014944868162274,0.0037855599075555,-0.9131861925125122,0.4075222313404083,-0.0074086905241342,0.0151525980489193,0.0325740380818599,-0.2069970369338989,-0.2280922532081604,-0.0094146728515625,89,119,12936,14730
16.3,1788349413459,4.8450703620910645,5.295774459838867,0.0016013553831726,0.0037333243526518,-0.9572415351867676,0.2892615795135498,0.1746806939160319,0.0010404592522403,2.5348458963727827e-05,-0.0035701435990631,-0.0132817784324288,0.0540518015623092,0.0013283062726259,0.0039730463176965,-0.9119735360145568,0.4102276861667633,0.0018433721901826,0.0148709600026259,0.0561711926959925,-0.1688451766967773,-0.1414745450019836,0.1955795288085937,56,117,13979,14378
16.4,1788349413559,4.619718074798584,5.7183098793029785,0.0014156081015244,0.003782712155953,-0.9557549953460692,0.2941359877586365,0.1776717360265943,0.001360167760434,3.43457006312201e-05,-0.0046267947182059,-0.0092318952083587,0.1299131661653518,0.0009062681347131,0.0039604287594556,-0.909935176372528,0.4147307872772217,-0.0099976016784941,-0.0029406749949222,0.1975969950018663,-0.1994686722755432,0.1133723855018615,0.0129890441894531,129,101,12320,15178
16.5,1788349413659,4.507042407989502,5.323943614959717,0.0007360074087046,0.003596275113523,-0.9545308947563172,0.2980893552303314,0.1688616795805086,0.0022762686329737,4.682367647816704e-05,-0.0013200216926634,-0.0296624060720205,0.1709732562303543,-0.0004222420975565,0.0033960044384002,-0.9069489240646362,0.42122682929039,0.010173275307608,-0.0681685835858151,0.1526225582322178,0.4894335269927978,0.2206313610076904,-0.2632064819335937,108,88,15069,13970
16.6,1788349413759,5.267605781555176,5.154929637908936,-0.001139044528827,0.0030838558450341,-0.952452540397644,0.3046692013740539,0.1681538628802843,0.0005001589025679,6.592727780347549e-05,-0.0004680056590586,-0.0372486151754856,0.0331902168691158,-0.0006552366539835,0.0035067852586507,-0.9057052135467528,0.4238930344581604,-0.0145539078696677,0.0324825791132738,0.0211885268596545,-0.3287975788116455,-0.0449458360671997,-0.9681949615478516,73,114,12569,14627
16.7,1788349413859,4.929577350616455,5.239436626434326,-0.0020071931648999,0.0030458471737802,-0.9521005749702454,0.3057631552219391,0.1727589464591608,0.0001014021264467,0.0001403031224529,-0.0052998480387032,-0.0424905903637409,0.0281129665672779,-0.0024741077795624,0.002666057087481,-0.904960572719574,0.4254800081253052,0.003277821123963,-0.0085166125239678,0.0230993849241618,-0.2498534917831421,-0.0680603981018066,0.4417257308959961,162,130,13703,14451
16.8,1788349413959,4.507042407989502,5.380281925201416,-0.0023745459038764,0.0028575561009347,-0.9512505531311036,0.3083968758583069,0.1695961959172684,0.0001036211628072,-3.526021026211566e-05,-0.0006631953292526,0.0031945335213094,0.0716052651405334,-0.0027008606120944,0.002531505189836,-0.9038280844688416,0.4278799593448639,-0.0003900238553227,0.0002862037606258,0.0926908649106441,-0.1811205744743347,0.1996013522148132,0.2574415206909179,53,152,12846,16156
16.9,1788349414059,4.591549396514893,5.6619720458984375,-0.0028589270077645,0.0026934673078358,-0.9503753781318665,0.3110805749893188,0.1689786735139865,0.0046002951576856,3.723302890420177e-06,0.0004489017883315,-0.0221110899001359,0.1196961849927902,-0.0032136486843228,0.0020030625164508,-0.90073424577713,0.4343540072441101,0.0031862892658225,-0.0278938317873442,0.1681903012257228,-0.1278789639472961,0.105631947517395,0.7242355346679688,158,80,12636,15125
17.0,1788349414159,4.169013977050781,5.633802890777588,-0.0029350337572395,0.0024779692757874,-0.9479010105133056,0.3185419142246246,0.1726572512941658,0.0037197830916101,-7.848292545785157e-06,-0.0033707353286445,0.0005051080370321,0.156583160161972,-0.0034836689010262,0.0017721569165587,-0.8976072072982788,0.4407790899276733,0.0119225374496715,-0.0048203784235648,0.1591786545049641,-0.0118890404701232,0.0605099201202392,0.2410287857055664,165,86,13861,13840
17.1,1788349414259,4.732394218444824,5.098591327667236,-0.0034316831734031,0.0017439801013097,-0.9454672932624816,0.3256943225860595,0.1682784139499026,-0.0004187006874091,-1.481001095528388e-05,0.0068981954827904,-0.001849514665082,0.021385408937931,-0.0039075873792171,0.0011164089664816,-0.8959124088287354,0.444212257862091,0.000214522483162,-0.0531439614550974,0.0298861060697769,0.3649989366531372,0.423297107219696,0.0678968429565429,136,99,14434,14856
17.2,1788349414359,4.732394218444824,5.098591327667236,-0.0026718587614595,0.0019535911269485,-0.9451550841331482,0.3266050219535827,0.1703372161710832,-0.0019251713826736,3.1346792971370615e-05,0.0032132570631802,0.0172225926071405,0.0103791886940598,-0.0029000295326113,0.0015953602269291,-0.895550012588501,0.4449487328529358,0.0112708193045939,0.052097339421962,-0.0112107042388509,-0.2485658526420593,-0.0053098201751708,-1.0291194915771484,42,118,14483,15207
17.3,1788349414459,4.591549396514893,5.070422649383545,-0.0031389943324029,0.0021267831325531,-0.9449847936630248,0.3270925283432007,0.1768138233773684,0.001994363706453,0.0001014258534093,-0.0123987477272748,-0.0151933711022138,0.0202890560030937,-0.0031418921425938,0.0015122722834348,-0.8943533301353455,0.4473477602005005,0.0006620522490196,0.0305504950490535,0.0533632286602737,-0.072080373764038,-0.0717641711235046,-0.7292613983154297,71,109,14884,15122
17.4,1788349414559,5.070422649383545,5.239436626434326,-0.0029346330557018,0.0020133364014327,-0.9438048601150512,0.3304840326309204,0.1720318600268275,0.0008831339240185,1.7967605591989336e-05,-0.0029397322796285,0.0039070551283657,0.0485590137541294,-0.0033980598673224,0.0015767971053719,-0.8934982419013977,0.4490510821342468,-0.0036945303338855,-0.0190458742642423,0.0506189689725188,0.2237429618835449,0.2560949921607971,0.2523632049560547,139,132,13363,14658
17.5,1788349414659,4.788732528686523,4.901408672332764,-0.0031211455352604,0.0018946439959108,-0.9427769184112548,0.3334041535854339,0.164064167304749,0.0058959502527149,3.6284967027885184e-05,-0.0042631179094314,-0.0108284885063767,0.0513857044279575,-0.0033356817439198,0.001489458605647,-0.8923282027244568,0.4513722658157348,-0.0027027477778956,-0.0054903610881501,0.0435988785601868,0.0320445895195007,-0.1732105016708374,0.2027101516723632,158,98,15380,14597
17.6,1788349414759,4.732394218444824,5.098591327667236,-0.0033981981687247,0.0019914258737117,-0.9422292113304138,0.3349457383155823,0.1706632054578067,0.0002959357462345,8.184166991845134e-05,-0.0019052715506404,-0.007878697477281,0.0428192503750324,-0.0036042919382452,0.0013406556099653,-0.891412615776062,0.4531762599945068,0.010910830885414,0.0022973981375407,0.0455062119873979,-0.1930692791938781,-0.0393434166908264,0.4849958419799804,100,74,15388,14095
17.7,1788349414859,5.042253494262695,5.070422649383545,-0.0033772611059248,0.0017400025390088,-0.9420892596244812,0.3353407979011535,0.1741467999766521,0.0019486010596378,1.561702205544599e-05,0.009657546877861,-0.0025919605977833,0.0164895057678222,-0.0035486537963151,0.0013005640357732,-0.8913280367851257,0.4533432424068451,-0.0059771343143367,0.0025341726532743,0.0173200900485211,-0.032407522201538,0.1693003177642822,-0.0981626510620117,46,156,12927,15604
17.8,1788349414959,4.535211086273193,5.295774459838867,-0.0032826110254973,0.0018950868397951,-0.9415578246116638,0.3368301093578338,0.1637620880187893,0.0024057257173737,-0.0001206563045326,-0.0097573110833764,0.0227505788207054,0.0777213871479034,-0.0037348242476582,0.0014339052140712,-0.8892560601234436,0.4573923349380493,0.0057210795305789,-0.0239229649802699,0.0432464687998346,-0.1817438602447509,-0.2362471222877502,0.7108221054077148,74,160,12874,16558
17.9,1788349415059,5.295774459838867,5.154929637908936,-0.0038215764798223,0.0017046221764758,-0.9385336637496948,0.345162570476532,0.1758205815542301,0.0060383123567672,0.0001295454085997,0.0004659096011891,-0.0148922950029373,0.1564602106809616,-0.004324066452682,0.0009273663163185,-0.886018693447113,0.4636285603046417,0.0090397073374644,-0.0303054364208092,0.1256254254879163,-0.0254393815994262,-0.4522543549537658,0.394291877746582,165,83,13833,13578
18.0,1788349415159,5.070422649383545,4.901408672332764,-0.0041531338356435,0.0014844633406028,-0.9381155371665956,0.3462943732738495,0.1785291843064197,-0.0041716172986882,1.873112463464581e-07,0.0,9.663780886626228e-09,0.0,-0.0043026292696595,0.0011725444346666,-0.8863926529884338,0.4629126787185669,-0.0081995987069997,0.0312263619397337,-0.0291743959175234,-0.3173972368240356,0.4052892923355102,0.2419118881225586,186,134,14399,14512
18.1,1788349415259,5.323943614959717,5.098591327667236,-0.0041181971319019,0.0012590824626386,-0.9385929107666016,0.344999760389328,0.1735519371380522,0.0008641934924953,-3.146369950401204e-08,0.0175717212259769,-0.0042359628714621,-0.0210072807967662,-0.00424016546458,0.0006996467709541,-0.8866978287696838,0.4623294472694397,0.0136147252756195,-0.0132288776966888,-0.0096120960206899,0.2812291383743286,-0.1122108697891235,-0.316009521484375,152,109,13544,13960
18.2,1788349415359,4.929577350616455,5.098591327667236,-0.0038144560530781,0.0014276156434789,-0.938690423965454,0.34473717212677,0.1706951530560997,0.0018333518305708,-2.9211332124962503e-05,-0.0026642449665814,0.0168606173247098,-0.0136780403554439,-0.0036374730989336,0.0010933214798569,-0.886824369430542,0.4620910584926605,-0.0001081917005973,0.0242895206317115,0.0109293428524913,-0.0622809529304504,0.1863697171211242,0.0527534484863281,151,122,14857,14102
18.3,1788349415459,4.676056385040283,5.014084339141846,-0.0029670810326933,0.0013336990959942,-0.9385414123535156,0.3451513648033142,0.1794712346376631,0.0009677764838823,8.139578406568416e-09,0.0054960716515779,0.0136394435539841,0.0016452587442472,-0.0027932235971093,0.0009742770344018,-0.886599600315094,0.4625281691551208,0.0015917766275892,0.018636621857558,0.0059936175577417,-0.4438640475273132,0.1169149875640869,0.2445497512817382,41,75,12558,12806
18.4,1788349415559,2.760563373565674,3.7183098793029785,-0.0018239561468362,0.0015975281130522,-0.9375794529914856,0.3477626144886017,0.1290678384230237,0.0015088760613828,-5.844720639574637e-05,-0.0078017436899244,0.0245289467275142,0.0959833934903144,-0.0020011495798826,0.0013634301722049,-0.8852770924568176,0.4650575518608093,-0.0065866519516134,0.0151773056764406,0.1020286664623711,-1.4536845684051514,0.237958014011383,-0.1722164154052734,59,51,2723,9918
18.5,1788349415659,0.0,2.5915493965148926,-0.0017555304802954,0.001518900739029,-0.9351211786270142,0.3543204665184021,0.0795030838560362,-0.0022556229876211,8.983933156538554e-06,0.0041510593146085,0.000859341409523,0.2754290699958801,-0.0019759610295295,0.0011839959770441,-0.8779772520065308,0.4786969721317291,0.0025893210497227,-0.0096364942889493,0.4103185562403071,-0.2060102224349975,0.2618456482887268,-0.1448268890380859,63,53,-3306,7595
18.6,1788349415759,-2.3380281925201416,1.7183098793029783,-0.0016438368475064,0.0015616076998412,-0.9283410906791688,0.3717223107814789,0.0284323805863145,-0.0048841279775024,-1.8769429323532327e-06,-0.0015687788836658,0.0063720089383423,0.4163918793201446,-0.0018229791894555,0.0011815018951892,-0.8630794882774353,0.505063533782959,0.0011589063472452,0.0003373142982218,0.6045927726904539,0.3993487358093261,-0.3970735669136047,0.1177053451538086,132,153,-8131,6576
18.7,1788349415859,-2.05633807182312,1.8591549396514893,-0.0016824284102767,0.0014159582788124,-0.910682201385498,0.4131017327308655,0.0028721944591222,0.0004385510820183,-1.384010458930786e-07,-0.0038883369415998,-0.0019132695160806,0.5508789420127869,-0.0018428619951009,0.001216891221702,-0.8500033020973206,0.5267727971076965,-0.0088324278912776,0.0035272988470222,0.542310914474706,0.0268012285232543,-0.1171296238899231,0.0069408416748046,85,126,-6767,6986
18.8,1788349415959,-1.4929577112197876,1.5774648189544678,-0.0017312843119725,0.0014374252641573,-0.8985139727592468,0.4389391243457794,0.0068022132423056,-0.000217565364673,9.333633904247556e-07,0.0007197021623142,-0.0054767881520092,0.569980263710022,-0.0019547129049897,0.0011937813833355,-0.8318024277687073,0.5550671219825745,-0.0008744106131096,-0.0072565190674942,0.5180174065771128,0.0494015216827392,-0.1283244490623474,0.0266809463500976,80,87,-6591,5548
18.9,1788349416059,-1.4929577112197876,1.4647886753082275,-0.0020262734033167,0.0014775753952562,-0.8881744742393494,0.4594994187355041,3.0438484446736296e-05,-0.0034583200791919,-8.960698645744385e-08,-0.0029381182976067,-0.0083958655595779,0.4570093154907226,-0.002247828990221,0.0011929729953408,-0.8203564286231995,0.5718469619750977,-0.0020943298756902,-0.0094263943687753,0.4732498923065711,-0.1790192723274231,0.2002636790275573,0.08673095703125,127,115,-6512,6160
19.0,1788349416159,-1.408450722694397,1.5211267471313477,-0.0021987599320709,0.0014905710704624,-0.8835852742195129,0.4682628214359283,0.0035673360109437,0.0003596561880815,7.497007137762765e-07,-0.0038205676246434,-0.0081114685162901,0.4734533429145813,-0.0025333613157272,0.0010722279548645,-0.8081866502761841,0.5889200568199158,0.0031978449011296,-0.0093196940159398,0.4138856737230357,-0.0385037660598754,0.1537296772003173,0.0435695648193359,107,130,-7108,5996
19.1,1788349416259,-1.6056338548660278,1.4929577112197876,-0.0026366123929619,0.0013243816792964,-0.8660881519317627,0.4998826384544372,0.0024814375702275,-0.0012401693793449,6.656679183397027e-07,0.0001287579652853,-0.0065865032374858,0.4565633535385132,-0.0028036553412675,0.0009244019165635,-0.7917616367340088,0.6108231544494629,0.0037748571331965,-0.0048330574002271,0.4723778285058474,0.1292605996131897,-0.0113937258720397,-0.0465831756591796,76,147,-6544,6090
19.2,1788349416359,-1.183098554611206,1.2957746982574463,-0.0027720713987946,0.0011835366021841,-0.8553258180618286,0.5180816650390625,0.0045410282664754,-0.0024112643994613,2.9991654901726256e-07,0.0012394040822982,-0.006656321696937,0.3877550661563873,-0.0029260646551847,0.0008080340921878,-0.7807466387748718,0.6248403787612915,-0.0010822550781253,-0.0041193086034798,0.2929685899098872,-0.126462697982788,-0.1227491497993469,0.0662183761596679,65,83,-5283,4168
19.3,1788349416459,-1.154929518699646,1.1267606019973757,-0.0029341299086809,0.0011273440904915,-0.8467859029769897,0.5319245457649231,0.0030874164060649,0.0015026820494114,4.03646624093467e-07,-0.0004378570010885,-0.0041889511048793,0.352585107088089,-0.0030608661472797,0.0007424158975481,-0.7713658213615417,0.6363843083381653,-0.0013159109438896,-0.0052326775296169,0.3495808451068357,-0.1160110235214233,-0.0585647225379943,0.0196962356567382,95,110,-5774,5446
19.4,1788349416559,-1.2676056623458862,1.183098554611206,-0.0030018109828233,0.0010896545136347,-0.8428250551223755,0.5381781458854675,0.0023109950021226,-0.0014870914385391,1.852627007170424e-07,0.0004682046419475,-0.0045891944319009,0.3537376224994659,-0.003141957335174,0.0006634891033172,-0.7607886791229248,0.6489917635917664,0.0010074433852003,-0.0008282775859256,0.3628085120328947,-0.0814895033836364,-0.1299921870231628,0.0356979370117187,89,127,-5494,5131
19.5,1788349416659,-1.211267590522766,1.2957746982574463,-0.0032056886702775,0.0010007597738876,-0.8280162215232849,0.5606940984725952,0.0019877217742183,-0.0014288766857074,8.876436399261364e-08,-0.0021425536833703,-0.0036948807537555,0.3464581370353699,-0.0033210981637239,0.0005980366840958,-0.7466619610786438,0.665195107460022,-0.0009514897703921,-0.0029159874374827,0.3553057159294531,-0.0533621907234191,-0.0147429108619689,0.073735237121582,111,142,-5647,5051
19.6,1788349416759,-0.9577465057373048,0.7887324094772339,-0.0033868052996695,0.0010011582635343,-0.818252682685852,0.5748479962348938,0.0007855406952145,-0.0036380685029073,1.9507543713354593e-08,-0.0012104843044653,-0.0043743327260017,0.2740110456943512,-0.0034941304475069,0.0005608303472399,-0.7376000881195068,0.6752286553382874,-0.0021626530526614,-0.0052696534673342,0.2265590462746571,-0.0358701348304748,-0.0930942296981811,0.0053052902221679,54,86,-3934,4261
19.7,1788349416859,0.0,0.0,-0.0034007418435066,0.0009401865536347,-0.8149914741516113,0.5794620513916016,-0.0014891767922164,-0.0071707123744933,-6.015095566216863e-07,0.0021334239281713,-0.0024432330392301,0.2222270220518112,-0.0035847499966621,0.0003929855301976,-0.7318248152732849,0.6814833283424377,0.0007239438706695,-0.0098000083112438,0.1226082320919942,0.0975257754325866,-0.2378506064414978,0.098388671875,88,186,3341,5400
19.8,1788349416959,1.6338027715682983,2.873239517211914,-0.0036698686890304,0.0006965773645788,-0.8106659054756165,0.5854970216751099,0.0435909147144612,0.0020391183180924,2.1590647622951355e-05,0.0015191452112048,-0.0090061444789171,0.1472952365875244,-0.0037288544699549,0.0002208892256021,-0.7290144562721252,0.6844881176948547,0.0042115111278224,-0.0013719148534793,0.1945173153218861,1.1675219535827637,0.2510088682174682,-0.1604433059692382,192,234,9185,12912
19.9,1788349417059,3.577464818954468,5.549295902252197,-0.0032148454338312,0.00100261811167,-0.8034099340438843,0.5954167246818542,0.1344797868809041,0.0107926803510687,1.4723884771310046e-05,0.0030057684052735,0.0046061803586781,0.2673521041870117,-0.003217939287424,0.0006130496039986,-0.7195022106170654,0.6944824457168579,-0.0021209316054491,0.0247476182081379,0.2827391056853627,0.5126955509185791,-0.1212136149406433,-0.2802038192749023,71,218,11273,18230
20.0,1788349417159,4.422535419464111,6.563380241394043,-0.0030602971091866,0.0007460996275767,-0.7935364246368408,0.6085144877433777,0.183621818608899,0.0097522770310598,-2.566616341706137e-05,0.0039656879380345,0.0005149869830347,0.3953362107276916,-0.0031212903559207,0.0003839014098048,-0.7076741456985474,0.7065320014953613,0.0007675151071245,-0.0176678638682835,0.3956616789412702,-0.1564216613769531,-0.1289460659027099,-0.1852474212646484,64,104,9899,17365
20.1,1788349417259,4.2253522872924805,5.97183084487915,-0.0027749333530664,-5.956005770713091e-05,-0.7827780246734619,0.6222948431968689,0.1830357681662194,-0.0030940873850694,-4.756406732426136e-05,0.0170920174568891,-0.0038072054740041,0.3138969540596008,-0.0028297593817114,-0.0005419477820396,-0.6965279579162598,0.7175239324569702,0.0204856353344559,-0.0373055337355174,0.2770907004033111,0.1780174970626831,-0.038265585899353,0.8891658782958984,184,85,12779,15882
20.2,1788349417359,3.9718310832977295,5.85915470123291,-0.0030707120895385,-0.0005558984121307,-0.779248058795929,0.626707911491394,0.169164908050701,0.0015945635125747,1.6813105261568345e-05,0.0085373781621456,-0.0216440167278051,0.2223611176013946,-0.0028004003688693,-0.0010216673836112,-0.686363935470581,0.727252185344696,-0.0054428252369107,-0.0013743000961029,0.2399247931461103,-0.143771231174469,0.0100657939910888,-0.0824708938598632,77,114,12960,16539
20.3,1788349417459,4.056337833404541,5.85915470123291,-0.0032343105413019,-0.0016438234597444,-0.7668567299842834,0.641808032989502,0.1707101760126304,0.0024881327537284,0.0001132422555365,0.0117679387331008,-0.0209356434643268,0.2422644197940826,-0.0029971795156598,-0.0020444635301828,-0.6783555150032043,0.7347248792648315,0.0135716957332538,-0.0181215257670601,0.2417788858600282,0.2864280343055725,-0.0537834763526916,-0.1721868515014648,101,129,12786,16689
20.4,1788349417559,4.169013977050781,5.690140724182129,-0.003819559700787,-0.0020425666589289,-0.7590287923812866,0.6510427594184875,0.1743069301746918,0.0018979340650243,-4.666213377386633e-06,0.0066614928655326,-0.0059557049535214,0.2683229744434356,-0.0035540433600544,-0.0027592936530709,-0.6673135757446289,0.7447633147239685,0.0131427629798389,-0.0206927434173209,0.2495538467447957,0.310191810131073,0.1322181224822998,0.065521240234375,147,78,14410,14721
20.5,1788349417659,4.732394218444824,5.408450603485107,-0.0041577452793717,-0.0026380827184766,-0.754198431968689,0.6566280722618103,0.1695564449117799,-0.0024787716450282,4.9291052765530585e-05,0.0045073423534631,-0.0121642034500837,0.1175438165664672,-0.0036574015393853,-0.002945564687252,-0.6632234454154968,0.7484067678451538,-0.0047418298806238,0.0199804649160528,0.1297967247531431,0.0026572942733764,-0.0047735571861267,0.0884637832641601,86,142,12365,15975
20.6,1788349417759,4.2816901206970215,5.690140724182129,-0.0043901922181248,-0.0026442464441061,-0.7485287189483643,0.6630825400352478,0.1751265200736298,0.0015354452088127,6.736010056726634e-06,0.0003768550232052,-0.0062294444069266,0.1642869561910629,-0.0040651280432939,-0.0032644094899296,-0.6576712131500244,0.753287136554718,0.0032136774514967,-0.0266115678967998,0.1761555658974814,0.3197595477104187,0.1868881583213806,-0.1048316955566406,109,99,13853,15041
20.7,1788349417859,4.732394218444824,5.492957592010498,-0.0048290337435901,-0.0027432602364569,-0.7441653609275818,0.6679723262786865,0.173658995426863,0.0018322975392926,-2.564232259307937e-05,-0.0120311705395579,-0.0007588373846374,0.1449167281389236,-0.0045105377212166,-0.0031648222357034,-0.6510158777236938,0.7590441703796387,-0.012040236494248,-0.0018406437044774,0.1475785956597208,0.0516832470893859,-0.3378581404685974,-0.0702857971191406,123,116,12389,15706
20.8,1788349417959,4.647887229919434,5.605633735656738,-0.0049255136400461,-0.0026018421631306,-0.7387139201164246,0.6739961504936218,0.1758818922734843,0.0033623157350532,-1.103178970389471e-05,-0.0002743786608334,-0.0031289076432585,0.1665922403335571,-0.0046157808974385,-0.0032215090468525,-0.6453707218170166,0.7638487219810486,-0.0037449800382004,-0.0141433671635429,0.1577775828032784,-0.1030592918395996,0.1263892650604248,0.2362060546875,55,124,12472,15397
20.9,1788349418059,4.253520965576172,5.633802890777588,-0.0051677762530744,-0.0021303254179656,-0.7339372038841248,0.6791943311691284,0.1821695721667803,-0.0001930746980776,-2.344829303868116e-05,-0.0108824670314788,0.0069822156801819,0.1491409242153167,-0.0049803545698523,-0.0028331708163022,-0.6403527855873108,0.7680595517158508,-0.0092091280282204,-0.0076250845739232,0.1380580416257934,0.0473852157592773,0.028963029384613,0.5197811126708984,107,101,13818,15217
21.0,1788349418159,4.450704097747803,5.549295902252197,-0.0054545938037335,-0.0018488781061023,-0.7317328453063965,0.6815673112869263,0.169469631503383,0.0021200687428222,1.8560453415554927e-05,-0.0171303618699312,-0.0011445899726822,0.1444224417209625,-0.005302739329636,-0.0023507243022322,-0.6351414918899536,0.7723740339279175,-0.0119678571172982,0.0267813755127235,0.1543607880786215,-0.087157666683197,0.038556158542633,-0.1052913665771484,101,121,13161,15480
21.1,1788349418259,4.732394218444824,5.577464580535889,-0.0061026327311992,-0.0015046040061861,-0.7240902185440063,0.6896766424179077,0.1752160428499505,0.0010641491222411,4.639847320597401e-05,-0.0060332580469548,-0.0217661969363689,0.1400073766708374,-0.0057164886966347,-0.0017417399212718,-0.6283497214317322,0.7779080271720886,-0.0156837151091748,0.045465355622962,0.1439764132654788,-0.3139787912368774,0.1018406748771667,-0.8487844467163086,149,108,12300,15424
21.2,1788349418359,4.957746505737305,5.154929637908936,-0.0065227467566728,-0.0015119374729692,-0.7183766961097717,0.6956220865249634,0.1667554131698855,0.0064091610222696,-5.734728699851366e-05,-0.0060448562726378,-0.0036115800030529,0.1513178497552871,-0.0063510704785585,-0.0024215094745159,-0.6229705810546875,0.7822157144546509,0.002917665030316,-0.0431003155718716,0.1493319132188571,0.4513711929321289,-0.0669391751289367,-0.7517766952514648,97,83,14742,13469
21.3,1788349418459,4.816901206970215,5.380281925201416,-0.0062769781798124,-0.0011259601451456,-0.717032253742218,0.6970108151435852,0.177276961505019,-0.0021583237403183,1.6508777445154048e-07,-0.0038437899202108,0.0090218009427189,0.0328969433903694,-0.0060811201110482,-0.0019204718992114,-0.6218753457069397,0.783090353012085,0.0006055580366002,0.0058705467219298,0.031887099592251,0.0473690629005432,0.179788589477539,-0.1766462326049804,65,108,13852,14005
21.4,1788349418559,5.098591327667236,5.211267471313477,-0.0061483536846935,-0.0007544017862528,-0.7164420485496521,0.6976190805435181,0.1612476471212389,0.0008194691439014,-2.4688683729679825e-05,-0.007853508926928,0.0158720798790454,0.0387343876063823,-0.0060773184522986,-0.0013063643127679,-0.6196883916854858,0.7848233580589294,-0.0020729642825098,-0.0001930627768147,0.04254747092297,-0.0832050442695617,-0.0132383108139038,0.3544063568115234,145,93,13084,14519
21.5,1788349418659,5.323943614959717,4.901408672332764,-0.0060178143903613,3.988109529018402e-05,-0.7150697112083435,0.6990272402763367,0.1664540634787463,-0.0008856943708568,-5.138060221549923e-05,-0.0056307432241737,0.0115546826273202,-0.0104419765993952,-0.0060486746951937,-0.0007600300014019,-0.619878888130188,0.7846738696098328,-0.0167695821562361,-0.0002951454772598,-0.0637522939198458,-0.0904704928398132,-0.0559985041618347,-0.1791934967041015,154,106,14637,13273
21.6,1788349418759,5.267605781555176,4.816901206970215,-0.0059803905896842,9.372690692543983e-05,-0.7172380685806274,0.6968026161193848,0.1734554923918306,0.0042233420909822,5.588384499716072e-07,-0.0069079045206308,0.0042928899638354,-0.0740493014454841,-0.0058499220758676,-0.0006559286266565,-0.6220766305923462,0.7829341888427734,0.0060709286636535,0.0154135209692444,-0.0645326075658089,0.0175533294677734,-0.1239530444145202,-0.3841304779052734,149,102,14554,13733
21.7,1788349418859,5.267605781555176,4.704225540161133,-0.0056825829669833,0.0001473885495215,-0.7183758616447449,0.6956319212913513,0.1661279996432994,-0.0043255337415049,4.687903446261474e-06,0.0068675554357469,0.0109243858605623,-0.0691339075565338,-0.0059481849893927,-9.786523878574371e-05,-0.6252548694610596,0.7803980112075806,-0.0092440701212358,0.0264364711450484,-0.0682686234788621,-0.1515137553215026,-0.0301367044448852,-0.2241029739379882,119,150,13381,15207
21.8,1788349418959,4.816901206970215,5.014084339141846,-0.0059615513309836,0.0005916147492825,-0.7200177311897278,0.6939297914505005,0.181068533966881,0.0046816298549637,-9.496808515801002e-06,0.0010530659928917,0.0043747117742896,-0.0250864923000335,-0.0058576269075274,-0.0001755384728312,-0.6249088644981384,0.7806757092475891,-0.0013410658271409,-0.0117977855684907,-0.0167642545514039,0.1788486838340759,-0.0474439859390258,0.0256004333496093,92,120,14819,14143
21.9,1788349419059,4.901408672332764,5.070422649383545,-0.0051029520109295,0.0010433222632855,-0.7199462652206421,0.6940102577209473,0.175030513808384,0.0021515840629639,-3.728775252538919e-05,0.0067971055395901,0.0216650180518627,-0.0013071513967588,-0.0052529657259583,0.0002901963889598,-0.625055193901062,0.7805629372596741,0.0007788546586557,-0.0072042376296827,0.0080503937084575,0.1862120032310485,0.0534214377403259,-0.0730543136596679,52,101,14648,13939
22.0,1788349419159,5.126760482788086,4.732394218444824,-0.005070243962109,0.0010292085353285,-0.7199040651321411,0.6940544247627258,0.1754274976086195,0.0028135378218535,7.02785849517742e-06,0.0020473385229706,-0.0012075547128915,-0.0004943897365592,-0.0052124755457043,0.0004543215036392,-0.62515789270401,0.7804808616638184,-0.0050763607585953,0.0086515988613749,-0.0054784377283376,-0.0227301716804504,-0.2810577154159546,-0.0757761001586914,83,97,14875,13911
22.1,1788349419259,4.873239517211914,5.183098793029785,-0.0049698995426297,0.001050351653248,-0.7204586863517761,0.6934792399406433,0.1747213574668021,-0.0001590420127129,1.5857318750499645e-05,0.0021712258458137,0.0037654731422662,-0.0333056338131427,-0.0049650566652417,0.0003171479329466,-0.6260520815849304,0.7797653079032898,0.0046705243689137,0.0025710088063741,0.0009594826329129,-0.0991213917732238,0.3132954239845276,-0.0707321166992187,56,93,14537,13732
22.2,1788349419359,5.098591327667236,5.014084339141846,-0.0048502841964364,0.0010337434941902,-0.7205702662467957,0.6933640837669373,0.174948527130257,0.0038583192647286,-8.001183517399878e-06,-0.0017278153682127,0.0038427836261689,0.0122476359829306,-0.005269861780107,0.0002185581251978,-0.6255753636360168,0.7801459431648254,-0.0060180985153229,-0.0166824980399523,-0.0021374272570544,0.0212788581848144,0.0373386144638061,0.3417577743530273,42,99,13664,13975
22.3,1788349419459,5.323943614959717,4.929577350616455,-0.0052182935178279,0.0009944343473762,-0.720565676689148,0.6933663487434387,0.1776334683579453,0.0015300887447119,-1.670200621796601e-05,-0.0087328804656863,0.0074997376650571,-0.0034068683162331,-0.0053244801238179,0.0002531949430704,-0.6259962916374207,0.7798078656196594,-0.0047203788301944,-0.002351897942707,-0.015617089362341,0.2197787165641784,0.075930118560791,0.0332040786743164,117,108,13119,14459
22.4,1788349419559,5.267605781555176,5.070422649383545,-0.0053972611203789,0.0010022127535194,-0.7203192710876465,0.693621039390564,0.1696874088297266,0.0010835252255953,2.9918535926895083e-05,0.0013274475932121,-0.0072536901570856,0.0138076758012175,-0.0056083686649799,0.0001707356423139,-0.6254076361656189,0.7802779078483582,5.6326421606187546e-05,-0.0210736932930545,0.0241917877975429,0.0292804241180419,-0.2037823796272277,0.0829143524169921,128,79,13132,13786
22.5,1788349419659,5.014084339141846,4.985915660858154,-0.0056099477224051,0.0009229504503309,-0.7203259468078613,0.6936124563217163,0.1780979668144477,0.001241570605263,3.275968896201649e-05,-0.0038310722447931,-0.0088138449937105,-0.000485881260829,-0.0056295283138751,0.0003320211544632,-0.6258273124694824,0.7799413204193115,-0.0036601823639945,0.0081935933521616,-0.0199826948344465,0.1786726117134094,0.235803484916687,-0.2091283798217773,143,136,14229,14183
22.6,1788349419759,4.873239517211914,5.070422649383545,-0.0053499243222177,0.0013481613714247,-0.7204668521881104,0.693467378616333,0.1677105260469553,-0.000564849380825,-3.189743526004826e-05,-0.0040075010620057,0.017462570220232,0.0070432289503514,-0.0054768892005085,0.0010243449360132,-0.6255182027816772,0.7801896333694458,-0.0105798654763954,0.0041689447816264,0.0048757891483479,0.0250126123428344,0.1169667840003967,0.2213220596313476,37,116,14435,13834
22.7,1788349419859,5.154929637908936,4.929577350616455,-0.005304392427206,0.0014677833532914,-0.7202728390693665,0.6936690807342529,0.1741117011697625,-0.0014481180468265,1.8518161709692312e-06,0.003146942704916,-0.0012634773738682,-0.0065432782284915,-0.005329605191946,0.0008359793573617,-0.6255972981452942,0.7801274657249451,0.0059571012279454,0.0103663890030634,-0.01407776582288,-0.013573408126831,-0.0606846809387207,0.0467691421508789,60,90,13764,14187
22.8,1788349419959,5.802816867828369,4.704225540161133,-0.0052692843601107,0.0014822845114395,-0.7206838726997375,0.6932422518730164,0.1770461719803355,0.0017354080159482,-9.621445637662944e-05,0.0032209323253482,0.0099828699603676,-0.0047980104573071,-0.0053909411653876,0.0008606621995568,-0.6261829137802124,0.7796571850776672,-0.0025746937707452,-0.004963761495358,-0.0154608780357145,0.0690501928329467,-0.3176153898239136,0.3534536361694336,118,41,14699,11672
22.9,1788349420059,5.098591327667236,4.873239517211914,-0.0054490538313984,0.0012173918075859,-0.7218677401542664,0.6920085549354553,0.1709520312616134,0.0005900172685233,-3.9252583576170763e-07,0.0024235539603978,-0.0120175126940011,-0.0674078613519668,-0.0054901940748095,0.0003614407032728,-0.6314674019813538,0.7753828763961792,0.0013186195057097,-0.0075927282842797,-0.1922064686526491,0.0236458182334899,0.2284528613090515,0.4716005325317383,84,109,14754,13268
23.0,1788349420159,5.295774459838867,4.873239517211914,-0.0054099825210869,0.0010475730523467,-0.7291103601455688,0.6843740940093994,0.1736872226760979,0.0017141018062591,-7.499219161238781e-05,0.0020323067437857,0.0118446461856365,-0.0827450603246688,-0.0055537167936563,0.0002250494435429,-0.6348884701728821,0.7725839018821716,0.0063210259482286,-0.0055987627962547,-0.1054896407967573,0.0438060760498046,-0.2552632093429565,0.2961702346801758,124,99,14259,13602
23.1,1788349420259,5.380281925201416,4.901408672332764,-0.0056939809583127,0.0008178085554391,-0.7309792041778564,0.682375431060791,0.1763401414367062,0.0021636476630087,-5.413286289769802e-05,0.0001785425993148,0.00185753533151,-0.0331847630441188,-0.0054902518168091,6.274040788412094e-05,-0.6380083560943604,0.7700099349021912,0.0140754907659357,0.0102773594502026,-0.0366808036612713,-0.1126160025596618,-0.1557477116584777,0.1419048309326172,117,82,13752,13405
23.2,1788349420359,5.521126747131348,4.788732528686523,-0.0053699733689427,0.0010105720721185,-0.7325426340103149,0.680699348449707,0.1808405611471008,0.0051733036459885,-5.635153842327784e-05,-0.0027620177716016,0.0044821496121585,-0.0445616394281387,-0.0053594317287206,0.0004376685246825,-0.6395251750946045,0.7687513828277588,-0.0024523359316891,0.0032460345248092,-0.0340123888597907,0.3059116005897522,-0.1074523329734802,-0.172189712524414,203,48,15490,11712
23.3,1788349420459,5.830986022949219,4.647887229919434,-0.005237893667072,0.0010673529468476,-0.7342674136161804,0.6788392663002014,0.1707878224190825,-0.0033384695729453,-5.311282726072967e-05,0.0015751649625599,0.0057612932287156,-0.0997089222073555,-0.0052632670849561,0.0001771971583366,-0.6444960832595825,0.7645894885063171,0.0082462964309794,-0.0113531382939863,-0.1759544436172115,0.0259780287742614,-0.1743660569190979,0.1113262176513671,94,50,14411,11748
23.4,1788349420559,5.380281925201416,4.563380241394043,-0.0052083823829889,0.0007933704182505,-0.7393808364868164,0.6732668280601501,0.1737649511743899,0.002594286931187,-7.583646341589368e-06,0.0011481555411592,-0.001615064102225,-0.1694633513689041,-0.0053176144137978,1.8987804651260376e-05,-0.6499808430671692,0.7599319219589233,-0.0018070315003417,-0.0065788382114394,-0.1470710281659231,0.0421454906463623,0.1996811628341674,-0.0188169479370117,88,78,15722,12387
23.5,1788349420659,5.436619758605957,4.450704097747803,-0.0052555068396031,0.0005475594662129,-0.7473415732383728,0.6644189357757568,0.1692974590386332,-0.0022565804005647,-4.5474690632642125e-05,0.0052046845667064,0.0075515192002058,-0.1467202603816986,-0.0052300617098808,-8.84421169757843e-05,-0.6567433476448059,0.7540959715843201,0.0035142905740984,0.0038630295858046,-0.1478277610669526,-0.1027541756629943,0.1331751346588134,0.1228513717651367,127,60,15733,12741
23.6,1788349420759,5.746479034423828,4.563380241394043,-0.0054621053859591,0.0006833421066403,-0.7525123357772827,0.6585552096366882,0.1818665696632301,0.0017025965529224,2.7507615962337823e-05,-0.0118615105748176,-0.0046244002878665,-0.1583956629037857,-0.0055115465074777,-1.4669261872768402e-05,-0.6620511412620544,0.7494384050369263,-0.0211181017419838,0.001521341887688,-0.162674173301612,0.0576262474060058,0.0752506256103515,-0.0083122253417968,81,87,14497,12454
23.7,1788349420859,5.126760482788086,4.647887229919434,-0.0054461928084492,0.0005988904740661,-0.7561757564544678,0.654345691204071,0.1694429833387165,-0.0005442988543543,3.372118204411178e-05,-0.002582061337307,-0.0086407512426376,-0.0724537745118141,-0.0054697105661034,-0.0002395836636424,-0.6664347052574158,0.745543360710144,0.0079946245955407,-0.0216596242169804,-0.087451095140219,-0.0444424152374267,-0.2148728966712951,0.217228889465332,105,58,16501,12219
23.8,1788349420959,4.985915660858154,4.929577350616455,-0.0054341033101081,0.0002221774775534,-0.7595286965370178,0.650451123714447,0.1569215129604132,-0.0124753841663767,-1.1094065106007982e-06,0.0019394430564716,-0.0034382692538201,-0.1147427931427955,-0.0055023413151502,-0.0006414363160729,-0.6707623600959778,0.7416517734527588,0.0031315429997699,-0.0112760136551916,-0.0654605447646453,0.0026811361312866,0.0938484668731689,0.3545589447021484,113,113,14869,13504
23.9,1788349421059,5.042253494262695,4.957746505737305,-0.0053866994567215,-4.5779161155223846e-05,-0.7610978484153748,0.6486147046089172,0.1717304836551269,0.0007914069434619,-4.746702500300848e-05,0.009187807328999,0.0019323753658682,-0.0715199038386344,-0.00538931787014,-0.000837555155158,-0.6720132231712341,0.7405190467834473,-8.972995305408427e-05,-0.0187741470855252,-0.0423252837100075,0.0353024005889892,0.0192297101020813,0.4369955062866211,111,78,14981,13244
24.0,1788349421159,4.985915660858154,4.8450703620910645,-0.0053207697346806,-0.0001537778880447,-0.7626650333404541,0.6467716693878174,0.1778009528770598,-0.000401598687675,0.0001001479488683,-0.000303809705656,-0.0174019075930118,-0.0334470979869365,-0.0052744783461093,-0.0008799228817224,-0.6743404269218445,0.7384012937545776,-0.0018690380085531,-0.0118621112118982,-0.0497107008672243,0.096972644329071,-0.143835961818695,0.7239580154418945,132,99,15273,13636
24.1,1788349421259,4.985915660858154,4.985915660858154,-0.0051694735884666,0.0003163318615406,-0.7645794153213501,0.6445087194442749,0.1812332904546719,0.0033423242223755,-1.0699753024428903e-07,-0.0126091679558157,-0.0016933997394517,-0.0432676821947097,-0.0051196878775954,-0.0002591647207736,-0.6759823560714722,0.7369000315666199,-0.0114298991252564,0.0048228691426153,-0.0505788584085664,-0.2943249344825744,0.0320430994033813,0.2356815338134765,94,106,14025,14211
24.2,1788349421359,5.239436626434326,5.042253494262695,-0.0051694735884666,0.0003163318615406,-0.7645794153213501,0.6445087194442749,0.1655060084108397,0.0025954052683993,1.6445110451975506e-07,0.0,0.0,0.0,-0.0046943137422204,-0.000230205245316,-0.6754670739173889,0.7373751401901245,-0.0042333853728705,-0.0027268807974502,-0.0016062409448775,0.1195031404495239,-0.0453822612762451,0.1834583282470703,67,107,13290,14086
24.3,1788349421459,5.408450603485107,5.070422649383545,-0.0041998112574219,0.0010253747459501,-0.7646632790565491,0.6444154977798462,0.1674535077219428,-0.0020502245000047,-6.687457745821331e-05,0.0027073437813669,0.0393980853259563,-0.0039881831035017,-0.0041659027338027,0.000603255815804,-0.6758655905723572,0.7370129227638245,-0.0172329229717066,0.0448098952169881,-0.0260463491196193,-0.1991260647773742,-0.1441351771354675,0.0842208862304687,87,107,12790,14240
24.4,1788349421559,5.295774459838867,5.154929637908936,-0.0038152781780809,0.0014879597583785,-0.7646045088768005,0.6444867253303528,0.1665903405119209,0.0052810904259867,-1.4369090990287018e-07,1.8931999079541132e-08,-7.572799631816451e-08,6.058239705453161e-06,-0.0039806170389056,0.0011868542060256,-0.6755704879760742,0.7372837066650391,-0.0026971857022044,-0.002172747184779,0.0090510581133337,-0.125273048877716,-0.0199134945869445,-0.1561412811279297,141,99,13307,13771
24.5,1788349421659,5.380281925201416,5.014084339141846,-0.0036532855592668,0.0016039544716477,-0.7644827961921692,0.6446318030357361,0.1796709299302762,5.506712517071272e-05,-5.662618120787555e-05,0.0006538534653373,0.0080464631319046,0.0077258283272385,-0.003757475875318,0.0012557366862893,-0.6756576895713806,0.737204909324646,-0.0036559733884629,-0.0046645505468944,-0.0149264710934698,0.110278844833374,-0.0965584516525268,0.1149215698242187,144,128,13421,14465
24.6,1788349421759,5.042253494262695,5.042253494262695,-0.0036532855592668,0.0016039544716477,-0.7644827961921692,0.6446318030357361,0.181320163264795,0.0035538045173316,1.4619016196049328e-08,0.0,0.0,0.0,-0.0042834095656871,0.0011494504287838,-0.6755908727645874,0.7372635006904602,-0.0136125379494844,0.0006164021137674,0.0061113387054142,-0.115601360797882,-0.0216486454010009,0.0393943786621093,159,98,14351,14231
24.7,1788349421859,4.704225540161133,5.070422649383545,-0.0044619543477892,0.0013056073803454,-0.7636393904685974,0.6456263661384583,0.1769483397588662,0.0023966466511906,2.1845138946199867e-05,-0.0003930353559553,-0.0122629394754767,0.0462757833302021,-0.0048159975558519,0.0003457386046648,-0.6741331815719604,0.738594114780426,0.0084735139271872,-0.0373425218971691,0.0729274303439987,0.4329560399055481,-0.0065152645111083,-0.1952657699584961,127,66,15424,14188
24.8,1788349421959,4.8450703620910645,5.042253494262695,-0.0048255566507577,0.0009966399520635,-0.7633295655250549,0.6459904313087463,0.1762482401384489,-0.0008436289641381,3.8917775201357885e-05,-0.0016870310064405,-0.0110511779785156,0.0049784258008003,-0.0052212802693247,0.000295422039926,-0.674266517162323,0.7384696006774902,-0.0086331065230261,-0.0029149300493251,-0.0031583424313762,0.0323512554168701,0.1039660573005676,0.2368841171264648,61,106,14938,14147
24.9,1788349422059,5.211267471313477,5.070422649383545,-0.0048255566507577,0.0009966399520635,-0.7633295655250549,0.6459904313087463,0.18700859797558,0.0040813775057034,8.080025026230007e-08,0.0,0.0,0.0,-0.0050888070836663,0.0001918850466609,-0.6741677522659302,0.7385607361793518,0.0081486364714395,-0.0078068289282212,-0.0001425398591512,0.1343498826026916,-0.0062609910964965,0.1309833526611328,77,169,12799,15205
25.0,1788349422159,5.098591327667236,5.042253494262695,-0.0045809145085513,0.0013019159669056,-0.7627526521682739,0.6466728448867798,0.1727993052851421,0.0036183902099492,-3.164113167171719e-05,-0.0035386269446462,0.018629590049386,0.0438375137746334,-0.0047858394682407,0.000197866000235,-0.6726215481758118,0.7399712204933167,-0.0016748567373818,0.0018882698485473,0.0299395001862943,-0.2733302712440491,-0.0590220093727111,0.0068531036376953,99,83,14042,13759
25.1,1788349422259,4.732394218444824,4.985915660858154,-0.0048852059990167,0.0006328849121928,-0.7621113061904907,0.6474273800849915,0.1841625655975786,0.0049930609562982,-1.4844432018847168e-07,8.879824520136027e-08,-8.587083044631073e-08,1.1990690836682916e-05,-0.0047087641432881,-0.0002572368830442,-0.6723036170005798,0.7402605414390564,0.0047848923177372,0.0295581952581634,0.0528396986546471,0.1424183845520019,0.1477548480033874,0.2032718658447265,155,113,15515,14408
25.2,1788349422359,5.098591327667236,4.760563373565674,-0.0043122377246618,0.000371703878045,-0.7616652250289917,0.6479562520980835,0.1833640439199591,0.0036053080203098,-5.3021061451403325e-05,0.0013871687697246,0.0230237450450658,-0.0171533469110727,-0.0042017893865704,-0.0003265421837568,-0.6724804639816284,0.740103006362915,0.0124235452557309,-0.0015446701010641,-0.0049377002254147,0.0121689438819885,-0.0189248919486999,0.1004190444946289,71,77,14738,13382
25.3,1788349422459,3.521126747131348,4.366197109222412,-0.004037847276777,0.0001726748887449,-0.7628018260002136,0.6466196179389954,0.168948854422244,0.0008966916098081,-7.4823871765626575e-06,0.0004351584066171,0.0013984063407406,-0.0268499366939067,-0.003812950104475,-7.888302206993103e-05,-0.6740418672561646,0.7386834025382996,0.0020585591320575,0.0283651877474218,-0.0125206752551827,-0.6549415588378906,0.2158268094062805,-0.0659046173095703,16,105,6495,12000
25.4,1788349422559,1.211267590522766,3.774647951126098,-0.0038187659811228,0.0006495246198028,-0.7571023106575012,0.6532848477363586,0.0982658453491926,0.0032792848563168,7.093506085157098e-06,-0.0083804726600646,-0.0050666010938584,0.2902183532714844,-0.0038705002516508,0.0001551927998661,-0.6672179698944092,0.7448525428771973,-0.0066281785530946,-0.0056670403428402,0.3312479514234192,-0.7289924621582031,0.1969784498214721,-0.1162700653076171,36,133,0,10953
25.5,1788349422659,-1.3239436149597168,3.211267709732056,-0.0038295693229883,0.000657700235024,-0.7364189028739929,0.676514744758606,0.0384093529000863,0.0035550717403248,2.862126618183359e-06,0.0015266491100192,0.0008561271824873,0.6245221495628357,-0.0038267606869339,0.0001647938042879,-0.641020655632019,0.7675140500068665,0.0029740265566258,0.0078566125865432,0.6329069852483465,-0.668779194355011,0.0129880309104919,-0.0790090560913086,202,113,-9745,9723
25.6,1788349422759,-3.4647886753082275,2.8450703620910645,-0.0035894135944545,0.0004695592215284,-0.7103742361068726,0.7038148641586304,-0.0105210066266537,-0.0070516800390258,-1.1904460003336006e-06,-0.0025108586996793,-0.0067447340115904,0.9364476203918456,-0.0036890543997287,3.146566450595856e-05,-0.6105861663818359,0.7919413447380066,-0.0104843472824722,-0.0073552234704598,0.9557357036045384,0.089209496974945,-0.2179633378982544,0.2546968460083008,87,114,-9979,9264
25.7,1788349422859,-2.676056385040283,2.5915493965148926,-0.0038363689091056,0.0007654776563867,-0.6767702698707581,0.7361838221549988,0.0060460409237458,-0.0101554342328009,8.959896367994903e-07,-0.0040522301569581,-0.0040759439580142,0.8115438222885132,-0.0038913208991289,0.0002828491851687,-0.5786588191986084,0.8155604600906372,-0.0060430582012015,-0.0032339771858191,0.7699842788435115,-0.0091224908828735,-0.2317621111869812,0.2618274688720703,105,79,-8189,8060
25.8,1788349422959,-2.3943662643432617,2.253521203994751,-0.0037899492308497,0.0008304979419335,-0.6659300327301025,0.7460041642189026,-0.0041313995974751,-0.0159965909506898,1.1354288973350948e-07,0.0009824206354096,0.0015167760429903,0.7351619005203247,-0.0039226096123456,0.000314861536026,-0.5411600470542908,0.8409103751182556,-0.0080538321487429,-0.0065220877167517,0.7466417862653234,-0.1818587779998779,-0.2464619278907776,-0.0058832168579101,98,64,-7988,6977
25.9,1788349423059,-2.3380281925201416,2.309859037399292,-0.0038614531513303,0.0008115560049191,-0.6225274205207825,0.7825881242752075,0.0015959589465872,-0.0091983165248518,-7.928003991297965e-08,0.0032729057129472,-0.0012523126788437,0.6565044522285461,-0.0039212955161929,0.0003007296472787,-0.5157985091209412,0.8567009568214417,0.0069045228318638,-0.0044518826713051,0.6506774946363572,0.0301081538200378,0.1100642085075378,-0.0085077285766601,99,98,-7825,7314
26.0,1788349423159,-2.253521203994751,2.2253520488739014,-0.0040633007884025,0.0009095157729461,-0.5961971879005432,0.8028273582458496,-0.0001927614601857,-0.0025290107739428,7.653767649910466e-07,-0.0067162807099521,-0.0001933519961312,0.6841450929641724,-0.0041413251310586,0.0003460217267274,-0.4897729754447937,0.8718401193618774,-0.0047976757673188,-0.0013163313654143,0.6403445175247364,0.0164426565170288,0.06818288564682,0.1440725326538086,103,141,-8086,7793
26.1,1788349423259,-1.6901408433914185,1.6901408433914185,-0.0042171631939709,0.0010606892174109,-0.5700979232788086,0.8215651512145996,0.0051362516497753,-0.0096735942644865,6.666232047476695e-07,-0.002005400834605,-0.0018781091785058,0.5805053114891052,-0.0043170368298888,0.0005228696390986,-0.4570963680744171,0.8894065618515015,-0.0015827207617713,0.0040438526524044,0.4849159366866513,-0.0331140756607055,-0.027972400188446,-0.0016555786132812,135,99,-7476,6935
26.2,1788349423359,-2.0,1.9154930114746092,-0.0040722219273447,0.0011586986947804,-0.5453827381134033,0.838176429271698,0.0004838769201227,-0.0053343986935706,-5.479527158063388e-07,0.0021140484604984,0.0002587200724519,0.5738325119018555,-0.0041879387572407,0.0006489222869277,-0.4346012771129608,0.9006130695343018,0.0015290577133614,0.0039430263969764,0.5782600860474902,-0.131952166557312,-0.1021630764007568,0.0232505798339843,65,113,-7164,6653
26.3,1788349423459,-1.7183098793029783,1.7183098793029783,-0.0040088780224323,0.0012106839567422,-0.5265437364578247,0.8501377105712891,0.0030174211117902,-8.525223217102568e-05,-6.352559965705019e-08,0.0013228093739598,-0.0005746583337895,0.5623472929000854,-0.0040559526532888,0.0006969487294554,-0.4043218791484833,0.914607584476471,0.0046882301543745,0.0002666453691128,0.5467030111112033,0.181573212146759,-0.2091304659843444,-0.0649499893188476,100,44,-6014,4977
26.4,1788349423559,-1.408450722694397,1.408450722694397,-0.0038456625770777,0.00109760730993,-0.5042312145233154,0.8635594248771667,0.0032917450347463,-0.0029303143416758,-9.356757616695745e-08,0.00456123938784,-0.0028754060622304,0.4286887049674988,-0.0039499336853623,0.000581506639719,-0.3862381875514984,0.9223904609680176,0.0036100814003036,-0.0058554158183994,0.4417850700524697,-0.084015667438507,0.1869623064994812,0.0221729278564453,146,104,-6959,6141
26.5,1788349423659,-1.5211267471313477,1.5492957830429075,-0.0038218218833208,0.0011211482342332,-0.4851787388324737,0.8744059205055237,-0.001730994456674,-0.0024132606483,-3.1131746306874295e-08,0.00131640676409,-0.0005760791245847,0.4725217521190643,-0.0039279581978917,0.0006394395604729,-0.3669838011264801,0.9302188754081726,0.0004227137926756,0.0007848625540647,0.4353565585458821,-0.0506823658943176,0.0078022480010986,0.003763198852539,92,120,-6799,5796
26.6,1788349423759,-1.154929518699646,1.183098554611206,-0.003776985919103,0.0010869833640754,-0.4760306775569916,0.8794198632240295,0.0009005392954788,-0.0013522193908792,-1.2868505141699084e-07,0.0028829958755522,-0.0021706656552851,0.4649249315261841,-0.0038798181340098,0.0005416339263319,-0.3467185795307159,0.9379611015319824,0.0011287387122465,-0.0053775387139609,0.4764824474153415,0.1309050321578979,0.0047664642333984,0.0163774490356445,58,110,-5303,4657
26.7,1788349423859,-1.0985915660858154,1.0985915660858154,-0.0038381163030862,0.000942473183386,-0.4483379423618316,0.8938554525375366,0.0023516782807479,-0.0032331054397068,-1.38567348608361e-08,0.0003955832507926,-0.0033548458013683,0.3133274018764496,-0.0039360793307423,0.0004349248483777,-0.3274056017398834,0.9448756575584412,-0.0007259873938704,-0.0034031383861565,0.3234021614523435,-0.0818275809288024,0.1293835043907165,0.013040542602539,135,89,-6021,5461
26.8,1788349423959,-1.2394366264343262,1.183098554611206,-0.0038080154918134,0.0008497575181536,-0.4314753711223602,0.9021162986755372,0.0013816778424514,-0.005764287390467,-2.579808314098129e-07,0.0033102508168667,-0.0035510163288563,0.3850141763687134,-0.0038779964670538,0.0003427285701036,-0.3111567795276642,0.95035058259964,0.0034929527498509,-0.0035346576410012,0.3734242387961352,-0.0818758010864257,0.0580945611000061,-0.033843994140625,87,77,-5345,4893
26.9,1788349424059,-1.211267590522766,1.211267590522766,-0.0037991690915077,0.0008444853010587,-0.4157834351062774,0.9094552397727966,0.0015691384497685,-0.0021752143187129,-2.5480364928032696e-07,0.000424355152063,0.0014945568982511,0.349371999502182,-0.003876032307744,0.0003510238602757,-0.2958984673023224,0.9552115201950072,0.0008608256216271,0.0016985081008982,0.349015851143679,-0.0428123474121093,0.0043808221817016,0.0091352462768554,98,93,-5481,4980
27.0,1788349424159,-1.042253494262695,0.9577465057373048,-0.0037382468581199,0.0009332339977845,-0.4091066420078277,0.9124783873558044,0.0022411964580334,-0.0027412960231444,-2.0432350156557027e-07,0.0011347606778144,0.0036403182893991,0.3415350615978241,-0.0036678416654467,0.0004591522738337,-0.2756754755973816,0.9612436294555664,0.008209758734209,-0.0015929296494394,0.4160114998663535,0.2636740207672119,-0.1279290914535522,-0.0019035339355468,62,9,-3823,3559
27.1,1788349424259,-0.8450704216957092,0.8450704216957092,-0.0034513198770582,0.0008298660395666,-0.3888881206512451,0.9212781190872192,0.0011468268332728,-0.0004080303972623,4.4492481892991e-07,0.0070365681312978,-0.0065979855135083,0.2207158654928207,-0.003520181402564,0.0003894763067364,-0.2665711343288421,0.9638087153434752,0.0029874178217506,-0.0007812314829508,0.2117117255517923,-0.0522557497024536,0.2807204127311706,-0.1572389602661132,109,63,-4656,3860
