time_s,timestamp_ms,wheel_vels__velocity_left,wheel_vels__velocity_right,odom__orient_x,odom__orient_y,odom__orient_z,odom__orient_w,odom__lin_x,odom__lin_y,odom__lin_z,odom__ang_x,odom__ang_y,odom__ang_z,imu__orient_x,imu__orient_y,imu__orient_z,imu__orient_w,imu__angvel_x,imu__angvel_y,imu__angvel_z,imu__acc_x,imu__acc_y,imu__acc_z,wheel_status__current_ma_left,wheel_status__current_ma_right,wheel_status__pwm_left,wheel_status__pwm_right
0.0,1788350512604,0.0,0.0,-0.0024567148648202,0.0039417473599314,-0.9995312094688416,0.0302618090063333,0.0,0.0,0.0,0.0,0.0,0.0,-0.0030741272494196,0.0035187052562832,-0.9841864705085754,0.1770739555358886,9.69463103649021e-05,-0.0021359925621738,-0.0001158454723143,-0.0256271958351135,-0.0115508437156677,-0.0507373809814453,0,0,0,0
0.1,1788350512704,0.0,0.0,-0.0024567148648202,0.0039417473599314,-0.9995312094688416,0.0302618090063333,0.0,0.0,0.0,0.0,0.0,0.0,-0.0030741272494196,0.0035187052562832,-0.9841864705085754,0.1770739555358886,9.69463103649021e-05,-0.0021359925621738,-0.0001158454723143,-0.0256271958351135,-0.0115508437156677,-0.0507373809814453,0,0,0,0
0.2,1788350512804,0.0,0.0,-0.0024567148648202,0.0039417473599314,-0.9995312094688416,0.0302618090063333,0.0,0.0,0.0,0.0,0.0,0.0,-0.0030741272494196,0.0035187052562832,-0.9841864705085754,0.1770739555358886,9.69463103649021e-05,-0.0021359925621738,-0.0001158454723143,-0.0256271958351135,-0.0115508437156677,-0.0507373809814453,0,0,0,0
0.3,1788350512904,0.0,0.0,-0.0024567148648202,0.0039417473599314,-0.9995312094688416,0.0302618090063333,0.0,0.0,0.0,0.0,0.0,0.0,-0.0030741272494196,0.0035187052562832,-0.9841864705085754,0.1770739555358886,9.69463103649021e-05,-0.0021359925621738,-0.0001158454723143,-0.0256271958351135,-0.0115508437156677,-0.0507373809814453,0,0,0,0
0.4,1788350513004,0.0,0.0,-0.0024567148648202,0.0039417473599314,-0.9995312094688416,0.0302618090063333,0.0,0.0,0.0,0.0,0.0,0.0,-0.0030741272494196,0.0035187052562832,-0.9841864705085754,0.1770739555358886,9.69463103649021e-05,-0.0021359925621738,-0.0001158454723143,-0.0256271958351135,-0.0115508437156677,-0.0507373809814453,0,0,0,0
0.5,1788350513104,0.0,0.0,-0.0024567148648202,0.0039417473599314,-0.9995312094688416,0.0302618090063333,0.0,0.0,0.0,0.0,0.0,0.0,-0.0030741272494196,0.0035187052562832,-0.9841864705085754,0.1770739555358886,9.69463103649021e-05,-0.0021359925621738,-0.0001158454723143,-0.0256271958351135,-0.0115508437156677,-0.0507373809814453,0,0,0,0
0.6,1788350513204,0.0,0.0,-0.0024567148648202,0.0039417473599314,-0.9995312094688416,0.0302618090063333,0.0,0.0,0.0,0.0,0.0,0.0,-0.0030741272494196,0.0035187052562832,-0.9841864705085754,0.1770739555358886,9.69463103649021e-05,-0.0021359925621738,-0.0001158454723143,-0.0256271958351135,-0.0115508437156677,-0.0507373809814453,0,0,0,0
0.7,1788350513304,0.0,0.0,-0.0024567148648202,0.0039417473599314,-0.9995312094688416,0.0302618090063333,0.0,0.0,0.0,0.0,0.0,0.0,-0.0030741272494196,0.0035187052562832,-0.9841864705085754,0.1770739555358886,9.69463103649021e-05,-0.0021359925621738,-0.0001158454723143,-0.0256271958351135,-0.0115508437156677,-0.0507373809814453,0,0,0,0
0.8,1788350513404,0.0,0.0,-0.0024567148648202,0.0039417473599314,-0.9995312094688416,0.0302618090063333,0.0,0.0,0.0,0.0,0.0,0.0,-0.0030741272494196,0.0035187052562832,-0.9841864705085754,0.1770739555358886,9.69463103649021e-05,-0.0021359925621738,-0.0001158454723143,-0.0256271958351135,-0.0115508437156677,-0.0507373809814453,0,0,0,0
0.9,1788350513504,0.0,0.0,-0.0024567148648202,0.0039417473599314,-0.9995312094688416,0.0302618090063333,0.0,0.0,0.0,0.0,0.0,0.0,-0.0030741272494196,0.0035187052562832,-0.9841864705085754,0.1770739555358886,9.69463103649021e-05,-0.0021359925621738,-0.0001158454723143,-0.0256271958351135,-0.0115508437156677,-0.0507373809814453,0,0,0,0
1.0,1788350513604,0.0,0.0,-0.0024567148648202,0.0039417473599314,-0.9995312094688416,0.0302618090063333,0.0,0.0,0.0,0.0,0.0,0.0,-0.0030741272494196,0.0035187052562832,-0.9841864705085754,0.1770739555358886,9.69463103649021e-05,-0.0021359925621738,-0.0001158454723143,-0.0256271958351135,-0.0115508437156677,-0.0507373809814453,0,0,0,0
1.1,1788350513704,0.0,0.0,-0.0024567148648202,0.0039417473599314,-0.9995312094688416,0.0302618090063333,0.0,0.0,0.0,0.0,0.0,0.0,-0.0030741272494196,0.0035187052562832,-0.9841864705085754,0.1770739555358886,9.69463103649021e-05,-0.0021359925621738,-0.0001158454723143,-0.0256271958351135,-0.0115508437156677,-0.0507373809814453,0,0,0,0
1.2,1788350513804,0.0,0.0,-0.0024567148648202,0.0039417473599314,-0.9995312094688416,0.0302618090063333,0.0,0.0,0.0,0.0,0.0,0.0,-0.0030741272494196,0.0035187052562832,-0.9841864705085754,0.1770739555358886,9.69463103649021e-05,-0.0021359925621738,-0.0001158454723143,-0.0256271958351135,-0.0115508437156677,-0.0507373809814453,0,0,0,0
1.3,1788350513904,0.0,0.0,-0.0024567148648202,0.0039417473599314,-0.9995312094688416,0.0302618090063333,0.0,0.0,0.0,0.0,0.0,0.0,-0.0030741272494196,0.0035187052562832,-0.9841864705085754,0.1770739555358886,9.69463103649021e-05,-0.0021359925621738,-0.0001158454723143,-0.0256271958351135,-0.0115508437156677,-0.0507373809814453,0,0,0,0
1.4,1788350514004,0.0,0.0,-0.0024567148648202,0.0039417473599314,-0.9995312094688416,0.0302618090063333,0.0,0.0,0.0,0.0,0.0,0.0,-0.0030741272494196,0.0035187052562832,-0.9841864705085754,0.1770739555358886,9.69463103649021e-05,-0.0021359925621738,-0.0001158454723143,-0.0256271958351135,-0.0115508437156677,-0.0507373809814453,0,0,0,0
1.5,1788350514104,0.0,0.0,-0.0024567148648202,0.0039417473599314,-0.9995312094688416,0.0302618090063333,0.0,0.0,0.0,0.0,0.0,0.0,-0.0030741272494196,0.0035187052562832,-0.9841864705085754,0.1770739555358886,9.69463103649021e-05,-0.0021359925621738,-0.0001158454723143,-0.0256271958351135,-0.0115508437156677,-0.0507373809814453,0,0,0,0
1.6,1788350514204,0.0,0.0,-0.0024567148648202,0.0039417473599314,-0.9995312094688416,0.0302618090063333,0.0,0.0,0.0,0.0,0.0,0.0,-0.0030741272494196,0.0035187052562832,-0.9841864705085754,0.1770739555358886,9.69463103649021e-05,-0.0021359925621738,-0.0001158454723143,-0.0256271958351135,-0.0115508437156677,-0.0507373809814453,0,0,0,0
1.7,1788350514304,0.0,0.0,-0.0024567148648202,0.0039417473599314,-0.9995312094688416,0.0302618090063333,0.0,0.0,0.0,0.0,0.0,0.0,-0.0030741272494196,0.0035187052562832,-0.9841864705085754,0.1770739555358886,9.69463103649021e-05,-0.0021359925621738,-0.0001158454723143,-0.0256271958351135,-0.0115508437156677,-0.0507373809814453,0,0,0,0
1.8,1788350514404,0.0,0.0,-0.0024567148648202,0.0039417473599314,-0.9995312094688416,0.0302618090063333,0.0,0.0,0.0,0.0,0.0,0.0,-0.0030741272494196,0.0035187052562832,-0.9841864705085754,0.1770739555358886,9.69463103649021e-05,-0.0021359925621738,-0.0001158454723143,-0.0256271958351135,-0.0115508437156677,-0.0507373809814453,0,0,0,0
1.9,1788350514504,0.0,0.0,-0.0024567148648202,0.0039417473599314,-0.9995312094688416,0.0302618090063333,0.0,0.0,0.0,0.0,0.0,0.0,-0.0030741272494196,0.0035187052562832,-0.9841864705085754,0.1770739555358886,9.69463103649021e-05,-0.0021359925621738,-0.0001158454723143,-0.0256271958351135,-0.0115508437156677,-0.0507373809814453,0,0,0,0
2.0,1788350514604,0.0,0.0,-0.0024567148648202,0.0039417473599314,-0.9995312094688416,0.0302618090063333,0.0,0.0,0.0,0.0,0.0,0.0,-0.0030741272494196,0.0035187052562832,-0.9841864705085754,0.1770739555358886,9.69463103649021e-05,-0.0021359925621738,-0.0001158454723143,-0.0256271958351135,-0.0115508437156677,-0.0507373809814453,0,0,0,0
2.1,1788350514704,0.0,0.0,-0.0024567148648202,0.0039417473599314,-0.9995312094688416,0.0302618090063333,0.0,0.0,0.0,0.0,0.0,0.0,-0.0030741272494196,0.0035187052562832,-0.9841864705085754,0.1770739555358886,9.69463103649021e-05,-0.0021359925621738,-0.0001158454723143,-0.0256271958351135,-0.0115508437156677,-0.0507373809814453,0,0,0,0
2.2,1788350514804,0.0,0.0,-0.0024567148648202,0.0039417473599314,-0.9995312094688416,0.0302618090063333,0.0,0.0,0.0,0.0,0.0,0.0,-0.0030741272494196,0.0035187052562832,-0.9841864705085754,0.1770739555358886,9.69463103649021e-05,-0.0021359925621738,-0.0001158454723143,-0.0256271958351135,-0.0115508437156677,-0.0507373809814453,0,0,0,0
2.3,1788350514904,0.0,0.0,-0.0024567148648202,0.0039417473599314,-0.9995312094688416,0.0302618090063333,0.0,0.0,0.0,0.0,0.0,0.0,-0.0030741272494196,0.0035187052562832,-0.9841864705085754,0.1770739555358886,9.69463103649021e-05,-0.0021359925621738,-0.0001158454723143,-0.0256271958351135,-0.0115508437156677,-0.0507373809814453,0,0,0,0
2.4,1788350515004,0.0,0.0,-0.0024567148648202,0.0039417473599314,-0.9995312094688416,0.0302618090063333,0.0,0.0,0.0,0.0,0.0,0.0,-0.0030741272494196,0.0035187052562832,-0.9841864705085754,0.1770739555358886,9.69463103649021e-05,-0.0021359925621738,-0.0001158454723143,-0.0256271958351135,-0.0115508437156677,-0.0507373809814453,0,0,0,0
2.5,1788350515104,0.0,0.0,-0.0024567148648202,0.0039417473599314,-0.9995312094688416,0.0302618090063333,0.0,0.0,0.0,0.0,0.0,0.0,-0.0030741272494196,0.0035187052562832,-0.9841864705085754,0.1770739555358886,9.69463103649021e-05,-0.0021359925621738,-0.0001158454723143,-0.0256271958351135,-0.0115508437156677,-0.0507373809814453,0,0,0,0
2.6,1788350515204,0.0,0.0,-0.0024567148648202,0.0039417473599314,-0.9995312094688416,0.0302618090063333,0.0,0.0,0.0,0.0,0.0,0.0,-0.0030741272494196,0.0035187052562832,-0.9841864705085754,0.1770739555358886,9.69463103649021e-05,-0.0021359925621738,-0.0001158454723143,-0.0256271958351135,-0.0115508437156677,-0.0507373809814453,0,0,0,0
2.7,1788350515304,0.0,0.0,-0.0024567148648202,0.0039417473599314,-0.9995312094688416,0.0302618090063333,0.0,0.0,0.0,0.0,0.0,0.0,-0.0031248033046722,0.0034866062924265,-0.9841785430908204,0.1771179288625717,-0.0006224377251218,0.0001627395505702,0.0003317354887903,0.0002790689468383,0.0310305953025817,0.0086889266967773,0,0,0,0
2.8,1788350515404,0.0,0.0,-0.0025698493700474,0.0039210920222103,-0.9995295405387878,0.0303102415055036,0.0001699746292537,-0.000195731080158,2.249374726825976e-08,0.0006945178611204,-0.0045636119320988,0.0019217761000618,-0.0031415149569511,0.0034903027117252,-0.9841806888580322,0.1771049797534942,0.0009753351714768,0.0006555855302508,0.0004232444612179,-0.0053930878639221,-0.0011399388313293,0.0068292617797851,0,0,0,0
2.9,1788350515504,0.0,0.0,-0.0025698493700474,0.0039210920222103,-0.9995295405387878,0.0303102415055036,0.0,0.0,0.0,0.0,0.0,0.0,-0.0031526898965239,0.0034790225327014,-0.984180748462677,0.1771052628755569,-9.36692040386631e-05,0.0002898537071677,6.279276545658422e-05,-0.0074166655540466,-0.0138835906982421,0.0140018463134765,0,0,0,0
3.0,1788350515604,0.0,0.0,-0.0025698493700474,0.0039210920222103,-0.9995295405387878,0.0303102415055036,0.0,0.0,0.0,0.0,0.0,0.0,-0.0032048169523477,0.0034513184800744,-0.9841799736022948,0.1771091818809509,0.0006095775396304,0.0008436566320786,-0.0010010831302854,0.0005063414573669,-0.0249450802803039,-0.0003700256347656,0,0,0,0
3.1,1788350515704,0.0,0.0,-0.0025698493700474,0.0039210920222103,-0.9995295405387878,0.0303102415055036,0.0,0.0,0.0,0.0,0.0,0.0,-0.003236012533307,0.00344780087471,-0.9841769337654114,0.1771251410245895,-0.0002794423625312,-0.0002211207997453,0.000767067695673,-0.0054656267166137,-0.0158720016479492,-0.0111083984375,0,0,0,0
3.2,1788350515804,0.0,0.0,-0.0025698493700474,0.0039210920222103,-0.9995295405387878,0.0303102415055036,0.0,0.0,0.0,0.0,0.0,0.0,-0.0032151537016034,0.003456468693912,-0.984178364276886,0.1771174073219299,0.0004619626954045,-4.506293306084186e-05,-0.0005125603141648,-0.0481243729591369,-0.0355967283248901,0.0229616165161132,0,0,0,0
3.3,1788350515904,0.0,0.0,-0.0025698493700474,0.0039210920222103,-0.9995295405387878,0.0303102415055036,0.0,0.0,0.0,0.0,0.0,0.0,-0.0032380428165197,0.0034807054325938,-0.9841790199279784,0.1771132498979568,-0.0009979973444012,-0.0014553047263473,0.0004174938997121,-0.0125056505203247,-0.0276765823364257,-0.0380535125732421,0,0,0,0
3.4,1788350516004,0.0,0.0,-0.0025698493700474,0.0039210920222103,-0.9995295405387878,0.0303102415055036,0.0,0.0,0.0,0.0,0.0,0.0,-0.0032657077535986,0.0034755216911435,-0.984178364276886,0.1771161258220672,0.0007091155875656,0.0001322113696536,6.116513127398184e-05,0.0031237006187438,0.0333331227302551,-0.0073413848876953,0,0,0,0
3.5,1788350516104,0.0,0.0,-0.0025698493700474,0.0039210920222103,-0.9995295405387878,0.0303102415055036,0.0,0.0,0.0,0.0,0.0,0.0,-0.003304942511022,0.0034603290259838,-0.9841740727424622,0.1771401315927505,-0.0002944350811642,-0.0009161846971843,0.0002399492979152,0.0059285163879394,0.0044416785240173,0.0015821456909179,0,0,0,0
3.6,1788350516204,0.0,0.0,-0.0028244596906006,0.0038990515749901,-0.9995277523994446,0.0303483288735151,-7.65220076008532e-06,9.898082933331026e-06,1.1962461071835297e-07,0.0005513608339242,-0.0023205229081213,-0.0001125507696997,-0.0033732429146766,0.0034552672877907,-0.9841711521148682,0.1771545261144638,-0.0010067024421861,-0.0002042671006262,0.0011304708284355,-0.0061529874801635,-0.0205331444740295,0.0033321380615234,0,0,0,0
3.7,1788350516304,0.0,0.0,-0.0028277055826038,0.003917152993381,-0.999527633190155,0.0303535088896751,1.7530762191118755e-05,-2.105129585315617e-05,-2.62538036627456e-07,-0.0007157498621381,-0.0001069283680408,0.0002055137010756,-0.0033963350579142,0.003443069756031,-0.9841706156730652,0.1771574467420578,0.0002709687165667,-0.0018488215825372,0.0010869551998737,-0.0281694531440734,-0.0027114748954772,0.0069808959960937,0,0,0,0
3.8,1788350516404,0.0,0.0,-0.0028568843845278,0.003915921319276,-0.999527096748352,0.0303668528795242,5.121852245716944e-05,-5.924026103092016e-05,5.513234397380356e-07,1.66501213243464e-05,-0.0012788230087608,0.0005785612156614,-0.0033927494660019,0.0034631276503205,-0.9841700792312622,0.1771602034568786,5.060223230054028e-05,0.0005126488262814,0.000597510621584,-0.0010709166526794,-0.0293566584587097,0.0446538925170898,0,0,0,0
3.9,1788350516504,0.0,0.0,-0.0028301950078457,0.003919284325093,-0.9995269179344176,0.0303746983408927,2.7121467812896192e-05,-3.0633718444934346e-05,-3.935809621078769e-07,-0.0001022989526973,0.0010819371091201,0.0003220222424715,-0.0034271851181983,0.0034547448158264,-0.9841694235801696,0.177163079380989,-0.0004594164607624,-0.0020429332072073,0.0002251159987705,7.557868957519531e-05,0.0066709518432617,-0.0073213577270507,0,0,0,0
4.0,1788350516604,0.0,0.0,-0.0028462919872254,0.0039477413520216,-0.9995272159576416,0.0303610917180776,-2.862996384126548e-05,3.2337886698891075e-05,4.164004714109426e-07,-0.0009404044249095,0.0007536670891568,-0.0003181913343723,-0.0033865021541714,0.0034807613119482,-0.9841716289520264,0.1771509945392608,0.0005819511573099,0.0007041666944288,-0.0006453727718529,-0.0097936987876892,0.0034542679786682,-0.0055227279663085,0,0,0,0
4.1,1788350516704,0.0,0.0,-0.0028405305929481,0.0039531574584543,-0.999527096748352,0.0303636025637388,8.81119695007722e-06,-9.952015756162377e-06,-1.282875057076109e-07,-0.0002062536950688,0.0002331024879822,0.0001006026068353,-0.0033959662541747,0.0034715579822659,-0.9841697812080384,0.177161768078804,0.0012922585644235,-0.0005408701212424,0.000598103004584,-0.0225535035133361,-0.007439374923706,-0.0109291076660156,0,0,0,0
4.2,1788350516804,0.0,0.0,-0.0028634811751544,0.0039417906664311,-0.9995267987251282,0.0303716417402029,3.0462892325463717e-05,-3.57975619528163e-05,-4.547561031454314e-07,0.0004673129878938,-0.001019652117975,0.0003464171895757,-0.0034422110766172,0.0034713931381702,-0.9841707944869996,0.1771551072597503,0.0009294212266643,-0.0008893317877695,0.0002399429977314,-0.0180245041847229,0.0358585715293884,-0.017979621887207,0,0,0,0
4.3,1788350516904,0.0,0.0,-0.002889112336561,0.0039330897852778,-0.9995267391204834,0.0303715579211711,0.0,0.0,0.0,0.0002257092710351,-0.0007378028240054,-5.946704277448589e-06,-0.003453760407865,0.0034757368266582,-0.9841607213020324,0.1772105395793914,-0.0001369351863545,-0.0014191847098272,0.0002390261950556,-0.0110220909118652,0.0269794464111328,-0.0036191940307617,0,0,0,0
4.4,1788350517004,0.0,0.0,-0.0029167723841965,0.0039459830150008,-0.9995245337486268,0.0304408706724643,6.370296423176811e-05,-7.322211844411702e-05,2.278548988504025e-07,-2.5476076643826677e-06,-0.0004840729525312,0.0007327579078264,-0.0034734243527054,0.0034811273217201,-0.984156847000122,0.1772318035364151,-0.0006405686170916,0.0005137199953751,6.266307743035814e-05,-0.0167417526245117,-0.0177283287048339,-0.0073060989379882,0,0,0,0
4.5,1788350517104,0.0,0.0,-0.0028576925396919,0.003974397201091,-0.99952495098114,0.0304298400878906,-3.773939681928511e-05,4.263941618056362e-05,5.549307274381992e-07,-0.0010281114373356,0.0023146886378526,-0.0004138762305956,-0.0034263608977198,0.0035085491836071,-0.9841643571853638,0.1771907359361648,-0.0001397549537437,-0.0010504377547248,-0.0013591253172853,-0.0139127373695373,0.0041896104812622,-0.001840591430664,0,0,0,0
4.6,1788350517204,0.0,0.0,-0.0029013829771429,0.0039599393494427,-0.9995256662368774,0.0304031241685152,-0.0001008279738772,0.0001153003756943,1.9072295376993627e-07,0.0005678679444827,-0.0019149557920172,-0.0011724979849532,-0.0034362599253654,0.0034914277493953,-0.9841657280921936,0.1771831065416336,-0.0004926633129799,0.001974356839178,-0.0001105003140629,-0.03928804397583,-0.0105121731758117,0.016092300415039,0,0,0,0
4.7,1788350517304,0.0,0.0,-0.0028684260323643,0.0039770887233316,-0.9995258450508118,0.030400238931179,1.3258565917709942e-05,-1.497733591732889e-05,-1.9501136137210918e-07,-0.0009791558841243,0.001842142548412,0.0001704737660475,-0.0034376382827758,0.0035282131284475,-0.9841665029525756,0.1771782785654068,-0.0010058105565983,-0.0004574909857483,0.0002096653351132,-0.026588499546051,-0.0583259463310241,0.0321559906005859,0,0,0,0
4.8,1788350517404,0.0,0.0,-0.0028988283593207,0.0039813267067074,-0.9995260834693908,0.0303852036595344,-1.7229580212707863e-05,1.9462578012547508e-05,2.539237165574651e-07,0.0006584647926501,-0.000871104421094,-0.0002050177281489,-0.0034673530608415,0.0035023763775825,-0.984165370464325,0.1771838963031768,-0.0004743888366179,1.6282197790516385e-05,0.0003986934541699,-0.0289994478225708,-0.0262300968170166,-0.0288171768188476,0,0,0,0
4.9,1788350517504,0.0,0.0,-0.0029184343293309,0.003978578839451,-0.9995256662368774,0.0303984731435775,2.269063484660585e-05,-2.5631706869247884e-05,-3.345638412549541e-07,-0.0004129758162889,-0.0002051357150776,0.0002550059871282,-0.0034696301445364,0.0035011693835258,-0.9841662645339966,0.1771791875362396,-0.0003215588340575,0.001088483320448,-0.0004658464443681,-0.0362114310264587,-0.0083692073822021,0.0071649551391601,0,0,0,0
5.0,1788350517604,0.0,0.0,-0.0029340330511331,0.0039848736487329,-0.999526023864746,0.0303867142647504,-1.2363523193921536e-05,1.396593464918932e-05,1.8252183889962882e-07,-0.0004700523277278,-0.0006906990893185,-0.0001495084579801,-0.0034534214064478,0.0035103159025311,-0.9841655492782592,0.177182912826538,0.0002279099628213,0.0023664666595125,7.401527245339427e-05,-0.0088738799095153,-0.0279159545898437,-0.0251893997192382,0,0,0,0
5.1,1788350517704,0.0,0.0,-0.0028594294562935,0.0039818049408495,-0.999526023864746,0.0303927566856145,-1.6406557989717246e-06,1.853317807696625e-06,2.4315190254231633e-08,-1.427591996616684e-05,0.0023308175150305,1.4221222954802215e-06,-0.0034049861133098,0.0035201953724026,-0.9841681122779846,0.1771699786186218,-0.0003221975123568,0.0003901868152719,-0.0002899703545159,-0.0114833116531372,0.0025342106819152,0.0197954177856445,0,0,0,0
5.2,1788350517804,0.0,0.0,-0.0028493658173829,0.0039853095076978,-0.9995264410972596,0.0303793270140886,-6.709770733709569e-06,7.579115096762371e-06,9.826476348843849e-08,-0.000108958032797,2.2771357180317864e-05,-7.999054651008919e-05,-0.0034277513623237,0.0035202512517571,-0.9841636419296264,0.1771938651800155,-0.001167253710308,-0.000820194172151,0.0004016950975644,0.006089448928833,0.0153647661209106,-0.0466060638427734,0,0,0,0
5.3,1788350517904,0.0,0.0,-0.0028745105955749,0.0040072090923786,-0.9995250701904296,0.030419073998928,4.792819263185074e-05,-5.547814117939943e-05,5.321229162391196e-07,-0.0011426013661548,0.0008838959038257,0.0005568696069531,-0.0034306272864341,0.0035343514755368,-0.9841606020927428,0.1772107928991317,0.0005576745583089,-0.0001387487278399,6.448960975947971e-05,-0.0154550075531005,-0.029422104358673,0.0233354568481445,0,0,0,0
5.4,1788350518004,0.0,0.0,-0.0028623810503631,0.0040220217779278,-0.99952495098114,0.0304206348955631,5.677881044195808e-06,-6.414514420453415e-06,-8.37525574002767e-08,-0.0005867256550118,0.0005109192570671,6.724041304551065e-05,-0.0034344550222158,0.0035513509064912,-0.9841619729995728,0.1772030889987945,-0.0001505546765792,-0.0004879692020062,-0.0002907549675409,-0.0118553042411804,0.0014597177505493,0.0234308242797851,0,0,0,0
5.5,1788350518104,0.0,0.0,-0.0028838161379098,0.004024710971862,-0.9995248913764954,0.0304206553846597,6.6766588769365485e-06,-7.542865776153257e-06,-9.851167390599445e-08,-0.0003607274556998,-0.0006628733244724,6.581615889444947e-05,-0.0034619402140378,0.0035505499690771,-0.984160304069519,0.1772111654281616,0.0002226995681372,0.0008228542690137,-0.0001217247192154,-0.0015934705734252,-0.0254278779029846,0.0377492904663085,0,0,0,0
5.6,1788350518204,0.0,0.0,-0.0028931486885994,0.0040087094530463,-0.9995248317718506,0.0304242353886365,-8.588744707222975e-06,9.703338016450448e-06,1.2767179590635842e-07,0.0005229529342614,0.0006427380139939,-9.23344778129831e-05,-0.0034449128434062,0.0035330997779965,-0.9841583967208862,0.1772229224443435,0.000205363833166,-0.0003028159374369,0.0004182254140146,-0.0228307843208313,-0.0184763669967651,-0.0215005874633789,0,0,0,0
5.7,1788350518304,0.0,0.0,-0.0028730859048664,0.0039964197203516,-0.9995245337486268,0.0304384138435125,3.486064070243978e-05,-3.938486751697225e-05,-5.146576718290533e-07,0.0003536184376571,0.000383913051337,0.0004014036967419,-0.0034260684624314,0.003527601249516,-0.9841580986976624,0.1772248446941375,0.0002027352724604,0.0002301889950352,-0.0001135127563511,-0.0386428833007812,0.011853814125061,-0.0070552825927734,0,0,0,0
5.8,1788350518404,0.0,0.0,-0.0028734151273965,0.0039800200611352,-0.9995247721672058,0.030433690175414,-3.1902024995016325e-05,3.604436387807868e-05,4.7036887487637723e-07,0.0006879836437292,0.0002997755655087,-0.0003591584973037,-0.0034170681610703,0.0035113673657178,-0.9841617941856384,0.1772050410509109,2.582681315128609e-05,0.0002372551569722,-0.0011818390149852,-0.0277386307716369,0.0132368206977844,0.0234975814819335,0,0,0,0
5.9,1788350518504,0.0,0.0,-0.0028696963563561,0.0039911633357405,-0.9995248913764954,0.0304291509091854,-6.328217476714593e-06,8.057373322358935e-06,1.002441465840242e-07,-0.0004018775944132,1.6272932043648325e-05,-8.152419468387961e-05,-0.0034387959167361,0.0035117100924253,-0.9841616749763488,0.1772052645683288,0.0007377073462109,-0.0010040293277018,-0.0008310380560316,-0.0047828555107116,-0.0350953936576843,-0.0053424835205078,0,0,0,0
6.0,1788350518604,0.0,0.0,-0.0028825281187891,0.0039848261512815,-0.999525249004364,0.030414693057537,1.4497335895479486e-05,-1.6377615655391616e-05,-2.13328130461943e-07,5.513769428944215e-05,-0.0001177299418486,0.0001705067261354,-0.0034390892833471,0.0035185059532523,-0.984161376953125,0.1772064417600631,-0.000759561530921,0.0006515011910329,0.000270830971483,-0.015518307685852,0.002780795097351,-0.0142192840576171,0,0,0,0
6.1,1788350518704,1.1267606019973757,1.211267590522766,-0.0028899537865072,0.0039889346808195,-0.9995253086090088,0.030414056032896,-2.221789796415298e-06,2.5099956901738268e-06,3.2700100902864886e-08,-0.0001723532914184,-0.0002900857361964,-2.6148365577682853e-05,-0.0035112053155899,0.0035523017868399,-0.9841410517692566,0.1773170977830886,-0.0020783377455491,-0.0050514318717214,0.0080775853976313,0.8893716931343079,0.0965070724487304,0.090677261352539,60,236,4569,10566
6.2,1788350518804,2.2253520488739014,4.169013977050781,-0.0030716569162905,0.0040101851336658,-0.9993992447853088,0.034288216382265,0.0400728990070771,-0.002493391440801,1.3873719360950811e-05,0.0010886719683185,-0.0055260146036744,0.1509432196617126,-0.0036186836659908,0.0035028094425797,-0.9827280044555664,0.1849874258041381,0.002262796872551,0.0047044759995363,0.2006143636887111,0.9740464091300964,-0.4382073879241943,-0.1674890518188476,91,319,9742,17729
6.3,1788350518904,3.4084506034851074,6.619718074798584,-0.003133709076792,0.0039182091131806,-0.9990275502204896,0.043803434818983,0.1244412744405571,-0.0015838489911842,-1.0795077185269582e-05,0.0041479137726128,-0.0037438999861478,0.221054807305336,-0.0040392447263002,0.003350612707436,-0.9802549481391908,0.1976683288812637,0.003053418961303,-0.0138121162609539,0.3250014413796329,0.5244461297988892,0.2210683822631836,0.2741346359252929,46,403,11661,23599
6.4,1788350519004,3.9718310832977295,6.535211086273193,-0.0034502455964684,0.0038647842593491,-0.998044490814209,0.0622930154204368,0.1770143319917874,-0.0002444374209405,2.972192437309739e-05,0.0027444439474493,0.0001352734398096,0.3674474358558655,-0.0047187805175781,0.0029315231367945,-0.9759438633918762,0.2179515808820724,0.0096529510743832,-0.0582028941161983,0.3802119074110752,-0.187139630317688,0.2243503928184509,-0.3887615203857422,32,348,7923,23259
6.5,1788350519104,3.380281686782837,6.2816901206970215,-0.0051062675192952,0.0034865331836044,-0.9968313574790956,0.079303853213787,0.1704463648038352,0.00167896481353,0.0001199195120908,0.0047802701592445,-0.0454166568815708,0.3669535219669342,-0.0066740680485963,0.0026777060702443,-0.972097635269165,0.2344665825366974,-0.0079359681818186,-0.0463915572964569,0.3703075905491361,-0.0106329321861267,0.2791928648948669,-0.0325336456298828,30,378,8255,22510
6.6,1788350519204,2.1408450603485107,4.309859275817871,-0.0065180207602679,0.0036865475121885,-0.995129942893982,0.0982864797115325,0.1543651805903772,0.0016406605932016,0.000136150843873,-0.0012670265277847,-0.0149868372827768,0.3938285410404205,-0.0019832476973533,0.0039293700829148,-0.967999279499054,0.2509141564369201,0.0060068812027035,0.2833260846420725,0.3614616154646324,-0.7248486876487732,-0.0563821792602539,2.293459892272949,13,145,4013,12587
6.7,1788350519304,0.0,1.0985915660858154,-0.0013491910649463,0.0044419607147574,-0.9936012029647828,0.1128493994474411,0.0931200472389851,0.0028821711098152,-6.434533473821024e-05,-0.0099314535036683,0.0273425783962011,0.2946810722351074,-0.0022401753813028,0.0041608288884162,-0.9644574522972108,0.2641960978507995,0.0008981918652542,-0.0101372111093794,0.1276187818897628,-0.6961167454719543,-0.2423790693283081,0.0802488327026367,7,13,874,3324
6.8,1788350519404,0.0,0.0,-0.0015968005172908,0.0044461148791015,-0.9928464889526368,0.1193044409155845,0.0043679512094357,-0.0005483903571356,-1.2525663050368317e-06,9.844533633440732e-05,-0.0045711696147918,0.0377782024443149,-0.0023028189316391,0.0041972007602453,-0.9642321467399596,0.265016108751297,0.0007629212789898,0.0002372110894334,0.0263896989839039,-0.0414962172508239,-0.1949248909950256,0.1883497238159179,0,0,0,0
6.9,1788350519504,0.0,0.0,-0.0016633269842714,0.004498123191297,-0.9927879571914672,0.1197874173521995,0.0012665486803958,-0.0011903340912316,-5.854276333415759e-07,0.0,-4.736629310997387e-09,0.0,-0.0022368468344211,0.0042287623509764,-0.9642851948738098,0.2648229300975799,-0.0006537267584272,-0.0018376860939878,6.198888646389685e-05,0.0695040225982666,-0.0577985644340515,0.041452407836914,0,0,0,0
7.0,1788350519604,0.0,0.0,-0.0016073692822828,0.0045322030782699,-0.9927586913108826,0.1200292110443115,0.0008624595308149,-0.0009868631683022,-2.080687520208053e-07,-0.0010933770099654,0.0023813107982277,0.0099270949140191,-0.002230729907751,0.004239865578711,-0.964284896850586,0.2648236751556396,0.0002584072635552,0.0012956815524798,-0.0022357388003826,-0.0596241950988769,0.0323207378387451,-0.0122394561767578,0,0,0,0
7.1,1788350519704,0.0,0.0,-0.0016105505637824,0.0045270514674484,-0.9927574396133424,0.1200402155518531,0.0,0.0,0.0,0.0,0.0,0.0,-0.0023178551346063,0.0041964882984757,-0.9642840623855592,0.2648267745971679,0.0002400725394177,-0.0002228410801759,-0.0015356385750311,-0.0112080574035644,-0.0435051918029785,-0.0034351348876953,0,0,0,0
7.2,1788350519804,0.0,0.0,-0.0016105505637824,0.0045270514674484,-0.9927574396133424,0.1200402155518531,0.0,0.0,0.0,0.0,0.0,0.0,-0.0023405319079756,0.0041975500062108,-0.9642794728279114,0.2648433744907379,-0.0001109940485176,-0.0019049569828496,0.0002246921296329,0.0063257217407226,0.0068776607513427,0.0146608352661132,0,0,0,0
7.3,1788350519904,0.0,0.0,-0.0016105505637824,0.0045270514674484,-0.9927574396133424,0.1200402155518531,0.0,0.0,0.0,0.0,0.0,0.0,-0.0023227930068969,0.0041903862729668,-0.964284896850586,0.2648236751556396,0.0008623033748809,0.0011393856511032,-0.0015176650393462,-0.0292919278144836,-0.0166354179382324,-0.0105562210083007,0,0,0,0
7.4,1788350520004,0.0,0.0,-0.0016105505637824,0.0045270514674484,-0.9927574396133424,0.1200402155518531,0.0,0.0,0.0,0.0,0.0,0.0,-0.0023170076310634,0.0041955038905143,-0.9642885327339172,0.2648104131221771,0.0004158505851822,0.0008394225952654,-0.0006445928043212,-0.0471215844154357,0.003160536289215,0.0002641677856445,0,0,0,0
7.5,1788350520104,0.0,0.0,-0.0016105505637824,0.0045270514674484,-0.9927574396133424,0.1200402155518531,0.0,0.0,0.0,0.0,0.0,0.0,-0.0023272931575775,0.004191662184894,-0.9642847180366516,0.2648244500160217,0.000247188965658,0.0001345544928614,-0.0006703982694167,-0.018587589263916,-0.0093533992767333,-0.0302925109863281,142,186,4587,7364
7.6,1788350520204,2.253521203994751,2.8450703620910645,-0.0018116094870492,0.0044333608821034,-0.9926736950874328,0.1207312867045402,0.003930635142985,-0.0023849268576722,-7.357402743060303e-09,0.0034089507535099,-0.0104855159297585,0.0340382903814315,-0.0035894932225346,0.0035871900618076,-0.9635757207870485,0.2673874795436859,0.0059268259845045,-0.0617112646283239,0.0381819122301311,0.7215174436569214,-0.3540583848953247,0.1667098999023437,102,501,7936,17379
7.7,1788350520304,3.211267709732056,5.802816867828369,-0.0228346399962902,0.0015002128202468,-0.991824746131897,0.125538945198059,0.1363481537090986,0.0014221458842386,0.0011290980442648,0.000514346465934,-0.5239095091819763,0.1075335592031478,-0.0208175331354141,-0.0012633008882403,-0.9628416299819946,0.2692603468894958,-0.00367824788849,-0.5080875243758359,0.1038212522992202,0.1068633198738098,-0.0320383310317993,0.4664325714111328,87,462,11979,23617
7.8,1788350520404,4.14084529876709,6.478873252868652,-0.0299210771918296,-0.0021781050600111,-0.990663766860962,0.1329858899116516,0.128704158740941,0.000643347082555,0.0008623705155227,0.1191019490361213,-0.3063260018825531,0.3026325404644012,-0.0298894774168729,-0.0081127500161528,-0.9581619501113892,0.2845461964607239,0.0106819576267498,0.0116989612277419,0.1763078572107164,0.4065481424331665,0.0202499032020568,-0.24664306640625,50,427,11344,23903
7.9,1788350520504,4.197183132171631,6.563380241394043,-0.0215882118791341,0.0002177616115659,-0.9886999130249025,0.1483456343412399,0.1824528544620887,0.005183958515866,-0.000856829218807,-0.0245459862053394,0.2403088957071304,0.1724054664373397,-0.0216337870806455,-0.003106290474534,-0.9563187956809998,0.2915076911449432,0.0061101225200346,0.2812862455394806,0.1672021938619147,0.6474608182907104,-0.1738264560699463,-0.6284770965576172,20,478,7895,25441
8.0,1788350520604,3.6056337356567374,6.732394218444824,-0.0212401412427425,-0.0002425722777843,-0.9861371517181396,0.1645672917366027,0.1722552104670833,0.0165673427067635,7.74166616684015e-05,0.0197675302624702,-0.0358675494790077,0.4108788073062897,-0.0208424758166074,-0.0032174531370401,-0.9516482353210448,0.3064653575420379,0.0120218645478967,-0.0464253433372289,0.4065906951714407,-0.0992277264595031,-0.2753024101257324,0.3510475158691406,16,338,7271,23036
8.1,1788350520704,3.6619718074798575,6.507042407989502,-0.0220410134643316,-0.0011647599749267,-0.982799232006073,0.1833530664443969,0.1622396619730557,0.0016424934337774,5.045234032788815e-05,0.0109647577628493,-0.000911699142307,0.3589840531349182,-0.0213658362627029,-0.0043042842298746,-0.9443545937538148,0.3282061815261841,0.0036975878363666,0.0334358061245658,0.3338925245243435,0.0330296754837036,0.1056310534477233,0.2000074386596679,16,404,7781,23880
8.2,1788350520804,3.4084506034851074,6.591549396514893,-0.0217277817428112,-0.0014433537144213,-0.981101930141449,0.1922624856233596,0.1644573530722681,0.0066310128968925,-8.952313005774337e-05,0.021131619811058,0.0091668115928769,0.3615494668483734,-0.022229989990592,-0.0053116204217076,-0.938730776309967,0.3438927233219147,0.020840884643902,-0.0362008214184841,0.3629650081967189,0.0564002394676208,-0.0606646537780761,-0.1999893188476562,16,385,9152,23279
8.3,1788350520904,3.774647951126098,6.366197109222412,-0.0225194673985242,-0.0023070005699992,-0.9771721363067628,0.2112394124269485,0.1669760075649115,0.0020421616017112,6.008555256717919e-05,0.0217052530497312,-0.0030867916066199,0.3436837494373321,-0.0216866042464971,-0.005618798546493,-0.9337037801742554,0.3573450446128845,0.0137321582357572,0.01247774400987,0.292461715151515,0.2067592740058899,-0.0538575053215026,0.164285659790039,20,359,9026,22792
8.4,1788350521004,4.14084529876709,6.2816901206970215,-0.0227451957762241,-0.002973252441734,-0.9728562235832214,0.2302707731723785,0.1726277864115565,0.0014854121992948,-6.195846016833057e-06,0.0188075825572013,-0.0054218196310102,0.2596664726734161,-0.0221279356628656,-0.0063886204734444,-0.9277089238166808,0.3725931942462921,0.017031796876925,-0.018072853514569,0.2555522335626666,-0.0681899785995483,0.2267561554908752,-0.0177135467529296,30,381,8495,22822
8.5,1788350521104,4.253520965576172,6.366197109222412,-0.023048099130392,-0.0030764043331146,-0.9696648120880128,0.2433298379182815,0.1651388344206425,0.0058320865181623,6.533851679368848e-05,0.0041474518366158,-0.0206203740090131,0.2677691578865051,-0.0223729237914085,-0.0064324475824832,-0.9231135249137878,0.383822351694107,0.0004039438941696,-0.016701247732819,0.2882221289529595,0.0552508831024169,0.1262443661689758,-0.3158750534057617,17,405,7696,22873
8.6,1788350521204,3.7183098793029785,6.394366264343262,-0.0227600242942571,-0.003114404855296,-0.967906415462494,0.2502587735652923,0.1662040000320965,0.0096872755992699,-1.770246002950569e-05,0.011073125526309,0.0102112488821148,0.2908104062080383,-0.0216550286859273,-0.0065499395132064,-0.9178970456123352,0.3961733281612396,0.0169187164496544,0.0157707754005171,0.3080271167057593,0.0336699485778808,-0.047522485256195,0.2829828262329101,20,369,9708,22696
8.7,1788350521304,3.492957830429077,6.253520965576172,-0.0231186468154191,-0.0036379257217049,-0.9644036293029784,0.2633969485759735,0.178953684755127,0.0011806830685464,6.43764617836932e-05,0.0129904728382825,-0.0327953286468982,0.2970767021179199,-0.0222705043852329,-0.00729541759938,-0.9105216264724731,0.4127968549728393,0.0234247964698073,0.0192309806988886,0.331893601084589,-0.0450767874717712,0.0664044618606567,-0.1470756530761718,18,368,10564,22728
8.8,1788350521404,3.94366192817688,6.2253522872924805,-0.0223155859857797,-0.004041829612106,-0.957751989364624,0.2866998314857483,0.1641042780697421,0.0085963408932031,-3.956694952180485e-05,0.0126092107966542,0.0098623912781476,0.2972324192523956,-0.021465303376317,-0.0072921765968203,-0.9048759937286376,0.4250710904598236,0.0106338980940043,0.0023454469996305,0.2995574349300041,0.0328508615493774,-0.0432592630386352,-0.2988958358764648,16,368,8978,22804
8.9,1788350521504,4.084506988525391,6.197183132171631,-0.0210461914539337,-0.0042864545248448,-0.9534323811531068,0.3008410930633545,0.1709365064873059,0.0002551205899656,-6.9560112347891e-05,0.0218689106404781,0.016395628452301,0.2893783450126648,-0.0201867874711751,-0.0072864033281803,-0.8991848826408386,0.4370424449443817,0.0200622281958941,0.0142684594411677,0.2836090858412841,0.0128897428512573,0.065717875957489,0.0829010009765625,24,344,8693,22688
9.0,1788350521604,4.2253522872924805,5.97183084487915,-0.0206556320190429,-0.0042148004285991,-0.9511926770210266,0.3078769147396087,0.1668592973264508,0.0011468444129914,-2.6006126114085783e-05,0.0080977603793144,0.01475640386343,0.2889744937419891,-0.0191440507769584,-0.0069812573492527,-0.8932235836982727,0.4491506814956665,0.0087950141581745,0.0399322795095828,0.235535785760518,0.2086837887763977,-0.0833302736282348,0.0745019912719726,61,349,10860,21348
9.1,1788350521704,4.056337833404541,6.2816901206970215,-0.018948333337903,-0.0039844941347837,-0.948052704334259,0.3175236284732818,0.1758889913050638,0.0018714086268871,-0.0001124288420952,0.0137271946296095,0.0441541709005832,0.2168537676334381,-0.0171828214079141,-0.006345990113914,-0.889087975025177,0.457369714975357,0.0097134659432811,0.0425109662065249,0.1812321416128981,-0.1353983283042907,0.168711245059967,0.1291446685791015,67,315,9509,22393
9.2,1788350521804,4.14084529876709,6.2816901206970215,-0.0182673912495374,-0.0041145915165543,-0.9421911239624025,0.334552139043808,0.1654216999998822,0.0045741857462754,3.550691021921042e-05,0.0049223424866795,-0.0226183403283357,0.2528311610221863,-0.0175837967544794,-0.0068077463656663,-0.8824232816696167,0.4700783193111419,0.0037546504944308,-0.0387057500563145,0.2520161764317512,0.0068109035491943,0.0407533049583435,-0.0844783782958984,17,401,8179,22949
9.3,1788350521904,5.211267471313477,5.352112770080566,-0.0173787754029035,-0.0037414573598653,-0.9382880330085754,0.3453975617885589,0.1773708705434689,-0.0057952400202907,-0.0001162624357336,-0.0025561542715877,0.0180593337863683,0.1712228953838348,-0.0166073124855756,-0.0063462583348155,-0.8772776126861572,0.4796541035175323,-0.0045745876697108,-0.0008002334311069,0.1524693608293277,0.1703191995620727,-0.0607371926307678,-0.0621242523193359,52,265,12124,18585
9.4,1788350522004,5.239436626434326,5.211267471313477,-0.0164210479706525,-0.0032786075025796,-0.938128650188446,0.3458818197250366,0.1810559688442506,-0.0040822764645595,-6.485388044404646e-05,-0.0041855433955788,0.0468506813049316,0.022765913978219,-0.0140972454100847,-0.00484908092767,-0.8778354525566101,0.4787302911281585,0.0025469675099408,0.0171765615126621,-0.0623984169558794,-0.2771183848381042,0.4501591324806213,-0.3645715713500976,65,309,11892,18682
9.5,1788350522104,4.563380241394043,5.126760482788086,-0.0147306052967906,-0.0026351234409958,-0.9387329816818236,0.3443202376365661,0.1841421715836381,-0.0006429224604112,-4.263211511177432e-05,-0.0057490481995046,0.0081952763721346,-0.0390526354312896,-0.0173313654959201,-0.0060136076062917,-0.8784040212631226,0.4775666892528534,-0.0271718319834137,-0.1027017618237945,-0.0173209742246833,0.0603231191635131,0.0195550322532653,-0.2016754150390625,49,353,13640,19684
9.6,1788350522204,4.563380241394043,5.352112770080566,-0.0194594748318195,-0.0037628961727023,-0.939109981060028,0.3430444598197937,0.168179354471828,0.001317547699781,3.4842828378775795e-05,-0.0016722946893423,-0.0147722428664565,-0.0078443335369229,-0.018731927499175,-0.0066841794177889,-0.8785135746002197,0.4773032963275909,0.0110316453174102,-0.0128134017555925,-0.0114675736784422,-0.0436962842941284,0.0750189423561096,-0.2506952285766601,18,412,11688,21898
9.7,1788350522304,4.8450703620910645,5.521126747131348,-0.019877890124917,-0.0034997588954865,-0.9382771849632264,0.3452946543693542,0.165978101716848,0.0033461368531922,-3.762682423457844e-05,-0.0033266346435993,-0.0185761302709579,0.0727822184562683,-0.019715866073966,-0.0066646458581089,-0.8770139813423157,0.4800137877464294,0.0018986791462061,-0.0777304691782441,0.0794862641655346,-0.178915798664093,0.0289657115936279,0.2060699462890625,18,389,10082,21637
9.8,1788350522404,4.3380279541015625,5.633802890777588,-0.0214398149400949,-0.0040118340402841,-0.9374806880950928,0.3473531305789947,0.1799462023385374,0.0024951241170734,0.000200689002036,-0.0006716248462907,-0.0731896758079528,0.0976062715053558,-0.0203121546655893,-0.0072089526802301,-0.8747034668922424,0.4841790199279785,0.0160676624606185,-0.005068260162994,0.0993750198427391,-0.105791687965393,0.0949143171310424,-0.2870426177978515,31,385,12120,21088
9.9,1788350522504,4.3380279541015625,5.830986022949219,-0.0218246076256036,-0.0042049763724207,-0.9355323314666748,0.3525409698486328,0.1727414968343002,0.0025362201452054,0.0001044830871367,-0.0003661194932647,-0.0228889789432287,0.0892571434378624,-0.021578362211585,-0.0076623139902949,-0.8728451132774353,0.4874598383903503,-0.0014431480168755,-0.0398380781315389,0.0787981394350707,-0.0579923391342163,0.0477432012557983,0.1055669784545898,41,309,11008,21541
10.0,1788350522604,4.3380279541015625,5.605633735656738,-0.0236052777618169,-0.0047407345846295,-0.9322758316993712,0.3609461784362793,0.1635315354606405,0.0065377633630979,0.0001288685880541,0.0006329138996079,-0.0339875929057598,0.1624456346035003,-0.022641098126769,-0.0082309879362583,-0.8684388995170593,0.4952106773853302,0.0077938518084638,-0.0043573181370479,0.1588449384436178,0.287345290184021,-0.3334473371505737,-0.0486640930175781,33,379,12123,20840
10.1,1788350522704,4.253520965576172,5.549295902252197,-0.0246711298823356,-0.005095855332911,-0.9304017424583436,0.3656745254993438,0.1685783233837573,0.0022707033836216,9.511468239686224e-05,0.0008618597639724,-0.043129839003086,0.092967577278614,-0.0237927362322807,-0.0086722578853368,-0.8663753271102905,0.4987509548664093,-0.0065600156746832,-0.0425740123821,0.0835243693329302,-0.0882392525672912,0.1623424887657165,0.036285400390625,40,333,12717,20513
10.2,1788350522804,4.816901206970215,5.521126747131348,-0.0249753221869468,-0.0052803913131356,-0.9295302629470824,0.3678612112998962,0.16914116162707,0.0035424981296098,5.820106524323151e-05,0.0048198909498751,-0.0146349277347326,0.0953133553266525,-0.0234111417084932,-0.00862124748528,-0.8644441366195679,0.5021094679832458,0.0046511787823572,0.0156905346215045,0.0865895787250845,-0.0486537814140319,0.0891692638397216,0.1668577194213867,26,349,10590,21027
10.3,1788350522904,4.056337833404541,5.802816867828369,-0.0247083250433206,-0.0050348034128546,-0.9279337525367736,0.3718912005424499,0.1726164705411683,0.0029627302470834,4.427409262864264e-06,-0.0023383807856589,-0.0066120750270783,0.0810828432440757,-0.0234341919422149,-0.0085659138858318,-0.8625524640083313,0.5053521394729614,0.0085513388442717,0.0163658684029719,0.0879906020436155,0.0937339067459106,-0.0855257511138916,0.1089773178100586,21,458,10021,23568
10.4,1788350523004,3.521126747131348,6.14084529876709,-0.0247985087335109,-0.0055412333458662,-0.9231396913528442,0.3836239576339721,0.1588450418804637,0.0088122824805126,9.044200659050664e-05,0.0189229156821966,-0.0111586535349488,0.2633512020111084,-0.0235627740621566,-0.0090740704908967,-0.8562084436416626,0.5160132050514221,0.0158788213008273,0.0306321057834182,0.2660282500738061,-0.0076141357421875,-0.036354660987854,0.0518951416015625,16,431,9836,24158
10.5,1788350523104,3.9718310832977295,6.366197109222412,-0.0240623597055673,-0.0056892409920692,-0.9175767302513124,0.3967892229557037,0.1618097312948468,0.0054242433834358,6.968125068399011e-06,0.015807420015335,0.0118651613593101,0.2992235124111175,-0.0229654926806688,-0.009162456728518,-0.8493298292160034,0.5272831320762634,0.0161985985193621,0.0262244623272787,0.3069851509884319,0.1139503121376037,-0.0536943674087524,0.0352115631103515,14,392,8554,23325
10.6,1788350523204,3.6619718074798575,6.197183132171631,-0.0233606863766908,-0.0059542809613049,-0.9144963026046752,0.4038754105567932,0.1715563009314973,0.0045535230630985,-5.9657993825080846e-05,0.0289061460644006,0.0205648504197597,0.3142178356647491,-0.0216548591852188,-0.0094193313270807,-0.8419769406318665,0.5389965772628784,0.0246855831687524,0.0206880056986229,0.2905717567625526,-0.0257948040962219,-0.0257912278175354,0.0809059143066406,28,379,10088,23319
10.7,1788350523304,4.2816901206970215,6.0,-0.0233375765383243,-0.0063972389325499,-0.9077607989311218,0.4187895953655243,0.172575014803948,0.0040805586107929,0.0001140206540711,0.0080065103247761,-0.0176698919385671,0.2914332151412964,-0.0216754637658596,-0.0098932264372706,-0.8323817253112793,0.5536903738975525,0.0224537810104258,0.0119041945777058,0.2822229379064069,0.0312343835830688,-0.0066730380058288,-0.1774673461914062,15,351,10987,21874
10.8,1788350523404,4.2816901206970215,5.88732385635376,-0.0221064537763595,-0.0063972254283726,-0.9003792405128479,0.434497058391571,0.1655437459803818,0.0063826481054743,-6.359790825461965e-05,0.0068807313218712,0.0078679649159312,0.2002905756235122,-0.0209536850452423,-0.0095590958371758,-0.8268601894378662,0.5619357228279114,0.0072003618859455,-0.0059258408875649,0.2023181748080743,0.0436881780624389,0.05220627784729,0.0716028213500976,60,348,10188,21621
10.9,1788350523504,4.2253522872924805,5.77464771270752,-0.0219511575996875,-0.0069773187860846,-0.8981488347053528,0.4390877783298492,0.1709338334058474,0.0015754388392825,5.873244978281867e-06,0.0280701145529747,-0.005258166231215,0.2024559378623962,-0.0207505151629447,-0.010340055450797,-0.8219988942146301,0.5690169930458069,0.0070106553294062,-0.0099724914658045,0.1745202570331838,0.1718331575393676,0.2064259648323059,0.0686101913452148,61,406,10587,22250
11.0,1788350523604,4.535211086273193,5.943662166595459,-0.0216949135065078,-0.0073838881216943,-0.8944307565689087,0.4466190040111542,0.1745206978593236,0.0036900758906311,-1.4350615543318836e-05,0.0169819667935371,0.0045840428210794,0.1722954660654068,-0.0202859193086624,-0.0108004938811063,-0.8161936402320862,0.5773211717605591,0.0173707483539841,-0.0140354854477052,0.1717630479029203,-0.1251140832901001,0.1165406107902526,-0.2479867935180664,19,325,9257,21974
11.1,1788350523704,4.676056385040283,6.253520965576172,-0.0214641261845827,-0.0077173737809062,-0.8907390236854553,0.4539423584938049,0.1624333255865686,0.004495416554645,4.294789376866716e-05,0.0110776405781507,0.0004857099556829,0.1817387044429779,-0.0200288742780685,-0.0108343502506613,-0.811196506023407,0.5843302607536316,-0.0066272716940289,-0.0239694004900051,0.1704354920503893,-0.1011903882026672,0.2710787653923034,-0.1346244812011718,16,336,8777,20884
11.2,1788350523804,4.056337833404541,6.056337833404541,-0.0213125683367252,-0.0080196987837553,-0.8844105005264282,0.4661539196968078,0.1663223222353452,0.0009322229186168,3.541809878086799e-05,0.0151092167943716,0.0012366130249574,0.185412973165512,-0.0199489593505859,-0.011094850488007,-0.8064131140708923,0.590911865234375,0.0207558332450477,0.0119895943584371,0.1929504887794546,0.0484169721603393,0.0056884288787841,-0.1657314300537109,17,373,10895,21777
11.3,1788350523904,4.084506988525391,5.88732385635376,-0.0208589006215333,-0.0079232137650251,-0.882377564907074,0.4700127840042114,0.1739433775701916,0.0042859250728285,-8.36622466646082e-05,0.0092016095295548,0.0177659839391708,0.1785062402486801,-0.0199268739670515,-0.0116131817921996,-0.799781858921051,0.5998475551605225,0.0076380960880988,-0.0474508206837729,0.1858935811658333,0.1635652780532837,-0.0218491554260253,0.1254253387451172,54,333,12829,19971
11.4,1788350524004,4.366197109222412,5.77464771270752,-0.0212069638073444,-0.0085620498284697,-0.878150999546051,0.4778366684913635,0.1698088100629597,0.0015356675663706,8.38532081341441e-05,0.0066291033290326,-0.009718638844788,0.1588335782289505,-0.0197144411504268,-0.0117291091009974,-0.7964767217636108,0.604233980178833,0.0101576927184838,-0.008742042462867,0.1272812921321763,-0.0514704585075378,0.0593581199645996,-0.0505619049072265,25,316,12549,19662
11.5,1788350524104,4.2253522872924805,5.492957592010498,-0.021008264273405,-0.0087381470948457,-0.875839352607727,0.4820660948753357,0.1704671098677066,0.0008506406030947,9.59011091037747e-06,0.0111087374389171,0.0037914430722594,0.1093332022428512,-0.020021915435791,-0.0120595786720514,-0.7943238019943237,0.6070448756217957,0.0001859453723194,-0.0346368096133775,0.0561568737760499,-0.0707718133926391,-0.0356714129447937,-0.0773544311523437,30,348,10856,20571
11.6,1788350524204,4.760563373565674,5.464788913726807,-0.0225972961634397,-0.0099924094974994,-0.87306147813797,0.4869837462902069,0.1628284347606807,-0.000789899606848,5.1264478152067246e-05,0.0074401344172656,-0.0134018966928124,0.066462218761444,-0.0209198798984289,-0.013195551931858,-0.7923279404640198,0.6095938086509705,0.0085509255135666,-0.0180028589585167,0.0684454750302764,0.054538607597351,0.0952262282371521,-0.0110158920288085,43,376,11009,21469
11.7,1788350524304,4.394366264343262,5.577464580535889,-0.0224769748747348,-0.0101291118189692,-0.8722267746925354,0.4884797632694244,0.1748811308352543,0.0008729208996075,-7.232561347827612e-06,0.0090572331100702,0.0014223596081137,0.0703017860651016,-0.0211357586085796,-0.013289650902152,-0.7897560596466064,0.6129127144813538,-0.0118310214382376,-0.0242248331825046,0.0645373385303538,-0.1419448852539062,0.1592460870742797,0.0719251632690429,16,411,11883,21149
11.8,1788350524404,4.2816901206970215,5.633802890777588,-0.0232003778219223,-0.0100898426026105,-0.870343804359436,0.4917943179607391,0.167519513031474,0.0017718536171482,6.306822008385614e-05,-0.0047647813335061,-0.0185919236391782,0.0803463533520698,-0.0214510709047317,-0.0134168742224574,-0.787302553653717,0.6160475015640259,3.7796851437737225e-05,-0.0004637583574839,0.0932687246881442,0.193127691745758,-0.0631374716758728,0.0161085128784179,58,375,12361,21131
11.9,1788350524504,4.929577350616455,5.577464580535889,-0.0228575989603996,-0.0097210491076111,-0.8678669929504395,0.4961753487586975,0.1723509524330475,0.002212533965309,-1.797615853872148e-06,-0.0033685818780213,0.0129697090014815,0.0923929288983345,-0.0210840553045272,-0.0129032954573631,-0.7847369313240051,0.619335949420929,0.0032430405919082,0.0066274963961662,0.0932912419187367,-0.1899786591529846,0.2687675952911377,0.2066278457641601,20,394,10106,21223
12.0,1788350524604,4.253520965576172,5.577464580535889,-0.0229760408401489,-0.0097877895459532,-0.8654375672340393,0.5003939270973206,0.1715604573952054,0.0018610730831921,4.1542069816534095e-05,0.00498080952093,0.0005227954243309,0.1200096905231475,-0.020944720134139,-0.0133514814078807,-0.7804243564605713,0.6247566938400269,0.0170664865368666,-0.0224692426880203,0.1133869858537,-0.2342026829719543,0.2458313703536987,0.1061048507690429,38,338,12673,20904
12.1,1788350524704,4.760563373565674,5.549295902252197,-0.0224143639206886,-0.010270657017827,-0.8625306487083435,0.5054038763046265,0.1723283904500872,0.0023546275453831,1.1943714048327772e-05,0.0149529185146093,0.002768061356619,0.1140941604971885,-0.0204677488654851,-0.0134468330070376,-0.7772024869918823,0.6287738680839539,0.0063745942170286,0.003178372809022,0.1135976920792955,-0.1828564405441284,0.2183055877685547,-0.1547098159790039,38,361,10894,20918
12.2,1788350524804,4.2816901206970215,5.492957592010498,-0.0214490666985511,-0.0101095773279666,-0.8596721291542053,0.5102955102920532,0.1698368927757791,0.0011150509497713,-0.0001044169063428,0.0120151620358228,0.0301342569291591,0.1131466701626777,-0.0192582067102193,-0.0129201142117381,-0.7743362784385681,0.6323491930961609,0.0087171009889792,0.0254730143297844,0.0904755454245226,-0.0160029530525207,-0.0515804886817932,0.2583456039428711,18,372,12552,20667
12.3,1788350524904,4.422535419464111,5.549295902252197,-0.0211240760982036,-0.0105985170230269,-0.8570748567581177,0.5146495699882507,0.1668480512957501,0.0008227002202427,2.0024217955852065e-07,0.0153239397332072,-0.0128928739577531,0.0942689925432205,-0.0194673016667366,-0.0140861561521887,-0.7708846926689148,0.6365214586257935,0.0165074306441689,0.0004094740262423,0.0920804186749523,0.1317945122718811,-0.0262819528579711,0.2035894393920898,49,298,12182,20301
12.4,1788350525004,4.309859275817871,5.464788913726807,-0.0207903310656547,-0.011430631391704,-0.8543826341629028,0.5191024541854858,0.1674982054690718,0.0022082633422296,9.663111557896144e-06,0.0111454725265502,0.0066175116226077,0.067633032798767,-0.0188350602984428,-0.0143542774021625,-0.7688367366790771,0.639006495475769,0.0132351617359844,0.0174119542368269,0.0636944401409095,0.0463929772377014,-0.0372566580772399,0.4115819931030273,60,393,12677,21156
12.5,1788350525104,4.8450703620910645,5.577464580535889,-0.0207963231950998,-0.0115710888057947,-0.8533957004547119,0.5207201838493347,0.1775750184775241,0.0003812342226118,1.56805773846582e-06,0.006580788642168,-0.0032560774125158,0.0769325792789459,-0.018822131678462,-0.0147991180419921,-0.7663538455963135,0.6419723033905029,0.0157933436161293,-0.0130233261884047,0.1109308492908178,-0.0125869512557983,0.0672648549079895,-0.2991647720336914,43,377,10641,20728
12.6,1788350525204,4.507042407989502,5.521126747131348,-0.0204988438636064,-0.0116023942828178,-0.851242184638977,0.5242441296577454,0.1670159702018185,0.0028145071703351,-4.0036914333253344e-05,0.002528014825657,0.0180269945412874,0.0725074112415313,-0.0189142432063817,-0.0150944050401449,-0.7634052038192749,0.6454663872718811,0.0081836274155772,-0.0308644872543461,0.0848525818450366,-0.0734782814979553,0.0216535925865173,0.2505512237548828,20,390,11619,21359
12.7,1788350525304,4.2253522872924805,5.605633735656738,-0.0212363675236701,-0.0122102014720439,-0.8488285541534424,0.5281004905700684,0.1678361117077968,0.0024773951882836,0.0001344758592268,0.000891842355486,-0.018678642809391,0.0831685587763786,-0.0191903039813041,-0.015317989513278,-0.7608960270881653,0.6484090685844421,0.0028383445610367,-0.0111572518947131,0.085899711460367,-0.0281939506530761,0.0783237218856811,-0.0560874938964843,52,371,12783,21209
12.8,1788350525404,4.478873252868652,5.605633735656738,-0.0210137963294982,-0.0124845122918486,-0.845759391784668,0.5330043435096741,0.1706990080720198,0.0029182437259739,-3.444364136028892e-06,0.0071706846356391,0.0060459822416305,0.0691205486655235,-0.018944026902318,-0.015431348234415,-0.7583603858947754,0.6513774991035461,0.0103303237872732,0.0101907099159025,0.0863951457388524,0.0656966567039489,0.2712594866752624,-0.1005802154541015,18,382,11809,20934
12.9,1788350525504,4.197183132171631,5.464788913726807,-0.0218392498791217,-0.0124328574165701,-0.8433191776275635,0.5368251204490662,0.1604275786435433,0.0038309815954875,4.46698191059124e-05,-0.0043061976321041,-0.0001114035330829,0.0949442610144615,-0.0196458976715803,-0.0153480870649218,-0.7550036907196045,0.6552464962005615,0.0013167347917573,0.0281085787738835,0.1006579474683045,0.1227868199348449,0.0799958109855651,0.2945451736450195,74,372,12703,21521
13.0,1788350525604,4.732394218444824,5.690140724182129,-0.0215956568717956,-0.0123740900307893,-0.8421077132225037,0.5387347340583801,0.1700960808663859,0.0021176055577963,-6.487696506278832e-05,0.0056160278618335,0.0095351319760084,0.0919489786028862,-0.0199360270053148,-0.0155622251331806,-0.7523458003997803,0.6582827568054199,-0.0087331043540384,-0.0207074710735876,0.0965083825636003,-0.0690505504608154,0.0922656059265136,0.0056953430175781,45,382,10942,20643
13.1,1788350525704,4.535211086273193,5.605633735656738,-0.0222149845212698,-0.0124075962230563,-0.8393955826759338,0.5429250001907349,0.1763286249671263,0.0020578499375846,8.466548739601564e-05,-0.0042683244682848,-0.0083595057949423,0.0914763808250427,-0.0199538134038448,-0.0151474829763174,-0.7496155500411987,0.6613991856575012,-0.0079142032730636,0.025788304810505,0.0949002062497652,0.2505197525024414,-0.0805773138999939,-0.0685415267944336,19,382,11691,21053
13.2,1788350525804,4.478873252868652,5.380281925201416,-0.0213603358715772,-0.0115474741905927,-0.8369084596633911,0.5468040108680725,0.1731195749628205,0.003774298149332,-8.509899653824897e-05,-0.0012120315805077,0.0267194751650095,0.1046473830938339,-0.0191934201866388,-0.0143120707944035,-0.7453861832618713,0.666202962398529,-0.001926292772984,0.0344822668192498,0.1007846192815504,0.1020671725273132,-0.0362142324447631,0.1513557434082031,18,358,11871,21364
13.3,1788350525904,4.056337833404541,5.830986022949219,-0.0204041544348001,-0.0109378993511199,-0.8316448330879211,0.5548250675201416,0.1556010580334115,0.011560722596576,-4.168003671801018e-05,0.0099189085885882,0.0125342896208167,0.1660772114992141,-0.0185679253190755,-0.0138063505291938,-0.7410610914230347,0.671038806438446,0.0088727416441132,0.0054645478341941,0.1873917423503798,-0.0292227268218994,0.0232702493667602,0.2063941955566406,23,423,10649,22303
13.4,1788350526004,4.0,6.084506988525391,-0.0203261338174343,-0.0107044046744704,-0.8290907740592957,0.5586418509483337,0.1643770437104054,0.0049006625270763,-4.081935026589591e-06,-0.0017983546713367,0.0073424675501883,0.183303415775299,-0.0188933834433555,-0.0138799306005239,-0.7354497909545898,0.6771736145019531,0.009841947623986,-0.037303256585441,0.1958483476523603,-0.2534761428833008,0.0926025509834289,-0.2871646881103515,20,341,11117,21792
13.5,1788350526104,4.3380279541015625,5.88732385635376,-0.0200457107275724,-0.0106061520054936,-0.8241726756095886,0.5658842325210571,0.1752736586173027,0.0058263534888115,-2.9747837464758618e-05,0.009245716035366,0.0269536506384611,0.2070195972919464,-0.0172643158584833,-0.01283226814121,-0.7274261713027954,0.6858487129211426,0.0137204782244731,0.0175520599875547,0.1925978059079216,0.0341154336929321,0.1845462322235107,-0.3334531784057617,58,273,12412,19814
13.6,1788350526204,4.901408672332764,5.577464580535889,-0.0173497907817363,-0.0087592797353863,-0.817311704158783,0.5758680105209351,0.1743204174581763,-0.0002673463286404,-0.0001635000108983,-0.0031762300059199,0.0518830828368663,0.1063388809561729,-0.0158005878329277,-0.011124724522233,-0.723852813243866,0.6896838545799255,-0.0034244018725856,0.0679166781295925,0.1096413813115913,-0.0046214461326599,-0.0691516995429992,0.3322553634643554,33,357,10652,20313
13.7,1788350526304,4.3380279541015625,5.521126747131348,-0.0164838451892137,-0.0082495138049125,-0.8149825930595398,0.5791922807693481,0.1703191897232915,0.0014963080456667,-7.945816058482776e-06,0.0080042397603392,0.028929391875863,0.0803474634885788,-0.0151792056858539,-0.0107190152630209,-0.7213010191917419,0.6923723816871643,0.010014162203612,0.0403756445312334,0.0790475988228913,0.1087473630905151,0.0092893242835998,0.04815673828125,21,337,12505,20439
13.8,1788350526404,4.563380241394043,5.492957592010498,-0.0164474938064813,-0.0081916488707065,-0.8141376376152039,0.5803810358047485,0.1719567698820664,0.001004301453789,-2.823866991415213e-05,1.8785440261126496e-05,0.0024001051206141,0.0593268424272537,-0.014907251112163,-0.0101309400051832,-0.7182652354240417,0.6955360174179077,-0.0001021220230193,0.0311764303245963,0.0814904115560131,0.0848705768585205,-0.2506954669952392,0.1709966659545898,62,384,11374,21250
13.9,1788350526504,4.732394218444824,5.549295902252197,-0.0162332393229007,-0.0078513408079743,-0.8117825388908386,0.5836813449859619,0.1643886630156818,-0.000411247565775,-8.338449185391396e-05,0.0007695347303524,0.0171305518597364,0.1002556234598159,-0.0141902239993214,-0.0099163586273789,-0.7154159545898438,0.6984844207763672,0.0090732316529669,0.0007585524196359,0.0933209010380268,-0.0364671945571899,0.4777763485908508,-0.2407751083374023,29,362,11087,20477
14.0,1788350526604,4.647887229919434,5.830986022949219,-0.015915585681796,-0.0074928170070052,-0.8075384497642517,0.5895525813102722,0.1750781261581625,0.0015273292187129,9.797157268887428e-05,0.0002896569203585,-0.02958320453763,0.0956360846757888,-0.0145330699160695,-0.0096455290913581,-0.712673008441925,0.7012794613838196,-0.0006055766075118,-0.0331689742657836,0.114204220945439,0.0632009506225586,-0.0553690195083618,-0.0318889617919921,26,349,10766,19979
14.1,1788350526704,4.478873252868652,5.605633735656738,-0.0151209151372313,-0.0067798420786857,-0.8050141334533691,0.5930241942405701,0.1656717377913773,0.0028125540889506,-0.0001338038866093,-6.24122258159332e-05,0.0330085568130016,0.0898349061608314,-0.0141956694424152,-0.0089422427117824,-0.7087810039520264,0.7052289843559265,-0.0127936152432287,-0.0164393263731349,0.078301932779898,-0.2722638845443725,0.161758542060852,-0.0390958786010742,17,348,11577,20687
14.2,1788350526804,4.704225540161133,5.267605781555176,-0.0154107864946126,-0.0067714415490627,-0.8037375807762146,0.5947457551956177,0.1670401012176346,0.0036863271763519,3.2629517730452045e-05,-0.0057423287071287,-0.0094125168398022,0.085549920797348,-0.0145913753658533,-0.0093385940417647,-0.7059162259101868,0.7080835103988647,0.0028390731835259,0.0038434528654665,0.0846908362775663,0.2324947714805603,-0.0958977341651916,0.0882949829101562,123,306,12986,19569
14.3,1788350526904,4.676056385040283,5.295774459838867,-0.0157516691833734,-0.0071807326748967,-0.8016194701194763,0.5975839495658875,0.1765188592462843,0.000785042284891,-4.978292380221696e-05,0.0047328365035355,0.006138889119029,0.0538680218160152,-0.0140854232013225,-0.0090579176321625,-0.7053912878036499,0.7086202502250671,0.0096443892605857,0.0176623441495254,0.0045648343629567,-0.1121410131454467,0.1224843859672546,-0.0535306930541992,34,357,13344,19386
14.4,1788350527004,4.535211086273193,5.464788913726807,-0.015657715499401,-0.0075729759410023,-0.8014686703681946,0.5977837443351746,0.1666031615727294,0.0006337751824176,-4.831149047226674e-07,0.0,4.08986160493896e-08,0.0,-0.0145124262198805,-0.0100580062717199,-0.7052357792854309,0.7087529897689819,0.0061103941252516,-0.0261841868103328,0.0050249080039118,-0.275639533996582,0.2472792863845825,0.0605278015136718,21,423,11415,20749
14.5,1788350527104,4.563380241394043,5.380281925201416,-0.017137736082077,-0.0086740236729383,-0.7999892830848694,0.5997067093849182,0.1635919331420664,0.0039831248653413,0.0001327838894424,-0.0039310292340815,-0.0400919839739799,0.0644242167472839,-0.0157628394663333,-0.0111268125474452,-0.7032349705696106,0.710695743560791,-0.0111881282066755,-0.0218758942832317,0.0620848334324416,0.2743791937828064,-0.2446246743202209,-0.0112066268920898,55,370,11106,21593
14.6,1788350527204,4.760563373565674,5.7183098793029785,-0.017831789329648,-0.0091765373945236,-0.7989031076431274,0.6011252999305725,0.1657123183154812,0.00053840413167,0.000108868700144,0.0007631718181073,-0.0337529256939888,0.069767877459526,-0.0165526159107685,-0.0119326217100024,-0.7002106308937073,0.7136447429656982,-0.0042133020975297,0.0093338911592679,0.0755998457754958,0.0531225204467773,-0.116123616695404,0.2180213928222656,24,370,10679,20748
14.7,1788350527304,4.760563373565674,5.605633735656738,-0.0180360246449708,-0.0093740355223417,-0.7966440916061401,0.6041067838668823,0.1746100454378812,-5.129306486123038e-06,-1.549584667628833e-05,0.0010064238449558,0.0044109430164098,0.099883958697319,-0.0168567672371864,-0.0122632468119263,-0.6971871852874756,0.7165860533714294,-0.0044841782064507,-0.0361819894513728,0.1012676302073923,-0.1924037337303161,0.0312948822975158,0.0139198303222656,26,372,12032,20543
14.8,1788350527404,4.309859275817871,5.577464580535889,-0.0185773633420467,-0.0096031026914715,-0.7937347888946533,0.6079044342041016,0.1755834877020679,0.0040872258035138,1.194429273607638e-05,-0.0043983990326523,-0.0033255852758884,0.0999720394611358,-0.0172889865934848,-0.0125902760773897,-0.6942317485809326,0.7194337248802185,0.0015889012802721,-0.0278937722637212,0.0810029550302502,-0.0804414749145507,0.1587533950805664,-0.0768775939941406,23,326,12140,20596
14.9,1788350527504,4.901408672332764,5.239436626434326,-0.0189975649118423,-0.0101206498220562,-0.7894204258918762,0.6134754419326782,0.1654245809217124,0.0020454372491371,-3.84300805532565e-05,0.0017454008338972,0.0111184623092412,0.0822858065366745,-0.0172957647591829,-0.0127858938649296,-0.690762996673584,0.7227612733840942,0.0021363254662167,0.008435245167389,0.0898265782158929,0.1379474997520446,-0.2748452425003052,-0.0095548629760742,108,357,12831,19666
15.0,1788350527604,4.507042407989502,5.577464580535889,-0.0191356185823678,-0.0101827178150415,-0.7889161705970764,0.6141183972358704,0.1792537846717616,-1.8215202341565995e-05,7.965202642424668e-06,-0.00083099224139,-0.0067892377264797,0.0369516313076019,-0.0165659300982952,-0.012089991942048,-0.6894899606704712,0.724004864692688,0.013592207367673,0.0481953916334162,0.0772496606222806,-0.1798084378242492,0.4078658819198608,-0.1703987121582031,15,371,11512,20703
15.1,1788350527704,4.2253522872924805,5.633802890777588,-0.018136654049158,-0.0099642407149076,-0.7868953347206116,0.6167393326759338,0.1738765588174577,0.0027436474002506,-5.614376678725099e-05,0.0175795815885067,-0.0050179758109152,0.0950998961925506,-0.0166227221488952,-0.0124937575310468,-0.6862898468971252,0.727030873298645,-0.0131271067604439,0.0178505970846026,0.0903673094029776,0.252122163772583,-0.1868946552276611,0.209238052368164,72,396,12682,20672
15.2,1788350527804,4.535211086273193,5.605633735656738,-0.0186821985989809,-0.010458281263709,-0.7820496559143066,0.622848391532898,0.1655243650804889,0.0017502309645382,2.764960083819615e-06,0.0081574786454439,-0.0014626221964135,0.102538526058197,-0.0169543027877807,-0.0130961360409855,-0.6819911599159241,0.7310466170310974,0.0039289048998147,-0.002095694067316,0.1040772540487097,0.0992238521575927,0.0210384726524353,0.7095603942871094,19,361,11575,20553
15.3,1788350527904,4.366197109222412,5.605633735656738,-0.0196103155612945,-0.0111657222732901,-0.7791166305541992,0.6264727115631104,0.1644991974708154,0.0014389683294197,0.0001578770503205,-0.0080303763970732,-0.0347528122365474,0.0857713595032692,-0.0178877022117376,-0.0139991408213973,-0.6789903044700623,0.7337958216667175,-0.0148715026840111,-0.0361618825307558,0.0826362897202858,-0.0765784382820129,0.1028718948364257,0.1163215637207031,36,394,11988,20621
15.4,1788350528004,4.929577350616455,5.549295902252197,-0.019490698352456,-0.0113316737115383,-0.777737557888031,0.6281846165657043,0.1762618999688678,0.0015844434002355,-1.0515242724623133e-05,0.0111079467460513,-0.0008202444878406,0.0962132588028907,-0.0178795661777257,-0.0145984115079045,-0.6749211549758911,0.7375288009643555,-0.0019279332400652,0.000998623570322,0.0773532981929979,0.0085998773574829,-0.000265896320343,0.3247804641723633,30,341,10236,20754
15.5,1788350528104,3.9718310832977295,5.070422649383545,-0.0197990890592336,-0.0120263444259762,-0.7746763825416565,0.6319334506988525,0.1655215793639083,0.0023490715888355,-3.2197428156832325e-05,0.0053666308522224,-0.0022593699395656,0.0783864110708236,-0.0178709998726844,-0.0149701563641428,-0.6722287535667419,0.7399764060974121,0.0081984156773925,0.0043368584148068,0.0883944112195364,-0.050149381160736,0.0695480704307556,-0.2118730545043945,16,387,10558,20975
15.6,1788350528204,1.436619758605957,3.4084506034851074,-0.016439439728856,-0.0101648019626736,-0.7690016627311707,0.6389545798301697,0.1117534467813057,0.0078299795373574,-0.0001965584040677,0.0166079644113779,0.1186918169260025,0.1880290359258651,-0.0148144625127315,-0.0124922785907983,-0.6672772765159607,0.7445573806762695,0.0135468590888592,0.1289124732107882,0.1892317602392893,-0.9435766339302064,0.0598835945129394,-0.0089216232299804,91,254,0,12799
15.7,1788350528304,0.0,1.8591549396514893,-0.0167628657072782,-0.0106972660869359,-0.7606679201126099,0.648836612701416,0.0509298807263361,-0.0003373485096129,3.227599558117338e-05,0.0029380649793893,-0.0535560511052608,0.247215136885643,-0.0152449011802673,-0.0134054562076926,-0.6555346846580505,0.7548921704292297,0.0088410345764574,-0.0507784802158441,0.2370102401910308,-0.8610547780990601,0.2929252982139587,-0.3362655639648437,239,218,-7724,8297
15.8,1788350528404,-1.3521126508712769,1.154929518699646,-0.016498040407896,-0.0107017662376165,-0.7564460039138794,0.6537603139877319,0.0224768256857859,0.0016660513631776,6.921103986911897e-06,0.0123296864330768,0.0073430030606687,0.2637986540794372,-0.014981816522777,-0.0134795624762773,-0.6447319388389587,0.7641430497169495,0.0112435371271492,-0.0706046237151497,0.3469105983185059,-0.1145727038383483,0.1203319430351257,0.0154457092285156,270,333,-10087,10992
15.9,1788350528504,-1.4929577112197876,1.3521126508712769,-0.0193127654492855,-0.0136383334174752,-0.7439568638801575,0.667809247970581,-0.0006533182283054,0.0035047325700723,-6.33072183423932e-07,0.0148766161873936,-0.1269811540842056,0.3510416448116302,-0.0178325232118368,-0.0174323488026857,-0.6333909034729004,0.7734300494194031,0.0162189734170897,-0.0476960644274738,0.318867314809083,0.3855588436126709,-0.112804889678955,-0.17291259765625,289,433,-9804,12059
16.0,1788350528604,-1.5774648189544678,1.5492957830429075,-0.019308902323246,-0.0140644954517483,-0.7359527349472046,0.6766113042831421,0.0072764655811288,0.0043620706119049,-2.712265814525181e-06,0.0159877352416515,0.0357161723077297,0.2994233071804046,-0.0169606413692235,-0.0171352531760931,-0.6186303496360779,0.7853121161460876,0.0129937540003111,-0.0083782285939043,0.3249908303668403,-0.0921529531478881,0.2257828116416931,-0.0742168426513671,278,383,-9940,12002
16.1,1788350528704,-1.436619758605957,1.6338027715682983,-0.0180966071784496,-0.0140585200861096,-0.7161562442779541,0.6975637078285217,0.0058001505260623,0.0053571691434441,-1.429632912358159e-06,0.0240178387612104,0.022115334868431,0.4006124138832092,-0.0158184356987476,-0.0166309010237455,-0.6045704483985901,0.7962208986282349,0.0219617912749408,0.0052869448218523,0.391495075031806,-0.1290556788444519,-0.0277565717697143,0.0749340057373046,317,339,-10298,10776
16.2,1788350528804,-1.1267606019973757,1.3521126508712769,-0.0182197205722332,-0.01458406355232,-0.7089216113090515,0.7049010992050171,0.0059614788747242,0.0011905151209159,2.0682997531940663e-06,0.0212201382964849,-0.0195045191794633,0.4160735011100769,-0.0153396036475896,-0.0166328959167003,-0.5905327796936035,0.8066964149475098,0.0139802054211467,0.0406861315234987,0.3526551772231451,-0.1136212944984436,-0.0885481238365173,0.0565290451049804,352,330,-8840,9048
16.3,1788350528904,-1.0985915660858154,1.0704225301742554,-0.0169498622417449,-0.0139038357883691,-0.6949747204780579,0.7186998724937439,0.0019338181848773,-0.001185875279482,-1.6735976887899828e-06,0.0157111007720232,0.0247385203838348,0.3404695391654968,-0.0148826586082577,-0.0165838617831468,-0.5784057378768921,0.815444827079773,0.011717612046676,-0.0255117493135758,0.306776880852064,0.04585862159729,-0.0487598776817321,-0.1160488128662109,248,406,-8847,9773
16.4,1788350529004,-1.1267606019973757,1.0985915660858154,-0.0167014803737401,-0.0142137948423624,-0.6851627230644226,0.7280598282814026,0.0014351963209805,0.0033508560309227,-8.116404943538332e-07,0.0170529726892709,0.0094321342185139,0.2941840589046478,-0.0141329858452081,-0.0165080055594444,-0.563973069190979,0.8255072236061096,0.0121750108931239,-0.009539403674344,0.2974567185191847,-0.0335421562194824,0.1537234783172607,0.0420265197753906,267,433,-9221,10484
16.5,1788350529104,-1.211267590522766,1.2676056623458862,-0.0161920208483934,-0.0143891815096139,-0.6682195663452148,0.7436487078666687,0.0033524185561994,0.0015435157618443,-7.480566024827782e-07,0.0121856415644288,0.0202540401369333,0.3244629204273224,-0.0139095252379775,-0.0166058801114559,-0.5520763993263245,0.8335120677947998,0.0127078921761931,0.0267763766189518,0.3239495860602915,-0.0391941666603088,0.0276224017143249,0.0164966583251953,202,421,-8811,10022
16.6,1788350529204,-1.154929518699646,1.3239436149597168,-0.0161106586456298,-0.0145636582747101,-0.6621236205101013,0.7490798830986023,0.0009745089767602,0.0043538950329164,1.2217082442290086e-06,0.0137292752042412,-0.0037339809350669,0.3175330460071563,-0.0137214409187436,-0.016860356554389,-0.5398225784301758,0.8414981365203857,0.0133759924278946,-0.0016999597949335,0.3024762324490071,0.144317090511322,-0.135614812374115,0.0808620452880859,197,341,-8899,9819
16.7,1788350529304,-1.1267606019973757,1.154929518699646,-0.0155907804146409,-0.0144860260188579,-0.6508183479309082,0.7589350938796997,0.0021440160827132,0.0007825928397662,-2.985309456027464e-07,0.0149930119514465,0.0160037521272897,0.318126231431961,-0.0132768368348479,-0.0167911276221275,-0.5230435132980347,0.8520371913909912,0.0094616156349095,-0.0162480050298129,0.3475877945554986,-0.0392929911613464,0.0764468312263488,-0.0195255279541015,312,358,-9041,10266
16.8,1788350529404,-0.6760563254356384,0.8732394576072693,-0.015199601650238,-0.0145012643188238,-0.6316590309143066,0.7749617099761963,0.0035967053566445,-0.0035334844808606,-1.0466682683991005e-06,0.011266834102571,0.0072686597704887,0.2665810883045196,-0.0129162603989243,-0.0165804680436849,-0.5114184021949768,0.8590747714042664,0.0094114869528531,0.0083676869824103,0.2348147062176838,-0.0278506875038146,-0.0208045244216918,0.0445623397827148,151,298,-4539,5084
16.9,1788350529504,0.8732394576072693,0.1408450752496719,-0.0146118775010108,-0.0138049069792032,-0.6297742128372192,0.7765181064605713,0.0027944360015378,-0.0047933856335196,-3.195613892439662e-06,0.0027363605331629,0.0371803604066371,0.1005029901862144,-0.0121760247275233,-0.0152505272999405,-0.5113989114761353,0.8591219186782837,-0.0069952489036865,-0.0803228711860487,-0.0728133969077926,0.725579023361206,0.4508470296859741,0.6752195358276367,66,621,5361,13696
17.0,1788350529604,2.309859037399292,3.633802890777588,-0.0167676340788602,-0.0164149049669504,-0.6316933035850525,0.7748631238937378,0.0493750871776699,-0.002787793305513,0.0001404679806044,-0.0015486835036426,-0.2116524279117584,-0.0328321196138858,-0.0144866537302732,-0.0212892163544893,-0.5103704929351807,0.8595690131187439,0.03307303049169,-0.054118682467333,0.0289011619483174,1.4164435863494873,-0.1363332867622375,0.1102094650268554,166,579,11723,20730
17.1,1788350529704,3.88732385635376,6.169013977050781,-0.017786955460906,-0.0205988138914108,-0.6315488219261169,0.774858295917511,0.1146419662406621,-6.422555400185299e-06,0.0002523651688865,0.0363747626543045,-0.066989816725254,-0.0189624056220054,-0.0145462416112422,-0.022846644744277,-0.5118026733398438,0.8586760759353638,-0.0066173977317951,0.0100410140479478,-0.0283556942820846,0.5670731067657471,0.2691413760185241,-0.1480331420898437,44,533,10805,25668
17.2,1788350529804,4.450704097747803,6.197183132171631,-0.0161627065390348,-0.016358008608222,-0.6285844445228577,0.777401328086853,0.1718460868425476,0.0116178520631766,-0.0002700070400003,-0.0280418936163187,0.1241140738129615,0.1456545293331146,-0.0140444114804267,-0.0191687680780887,-0.508776068687439,0.8605709671974182,-0.0411392478413315,0.1304277316313332,0.1475352843857666,-0.1563008427619934,0.2711073160171509,0.320709228515625,18,438,10377,23053
17.3,1788350529904,3.9718310832977295,6.253520965576172,-0.0164904408156871,-0.0170492306351661,-0.62024986743927,0.7840454578399658,0.1603771093966067,0.0125134137372606,0.0001099550192564,0.0032061245292425,-0.0418157987296581,0.2512771189212799,-0.0138784321025013,-0.0193836186081171,-0.4972173571586609,0.8672984838485718,0.0066475650086822,-0.0336434905612501,0.2983604480423698,-0.1018709540367126,0.0399590730667114,-0.0982818603515625,21,450,8381,24071
17.4,1788350530004,3.91549301147461,6.3380279541015625,-0.0161449667066335,-0.0167826935648918,-0.6138930916786194,0.7890455722808838,0.1661506681905651,0.001017137092324,1.5554878107102924e-05,0.0116246584802865,0.0158331841230392,0.3170665204524994,-0.0128058223053812,-0.0186282191425561,-0.4849580824375152,0.8742451667785645,0.0295187545200019,0.0139244903119784,0.3111952875739221,-0.1391652822494506,0.2018408179283142,0.0985698699951171,53,407,9492,23266
17.5,1788350530104,3.633802890777588,6.563380241394043,-0.015437482856214,-0.0168669447302818,-0.6028962731361389,0.7974917888641357,0.1720117494874266,0.0027743016662939,-6.510449137294996e-06,0.0174248907715082,-0.0084799714386463,0.3074629008769989,-0.0124605698511004,-0.0189252756536006,-0.472595065832138,0.8809884190559387,0.0214731222362467,0.0275487604456438,0.3259948466273379,0.1828693151473999,0.1025780439376831,0.006871223449707,42,364,10601,22037
17.6,1788350530204,3.802816867828369,6.02816915512085,-0.0139209534972906,-0.0161102004349231,-0.5834640860557556,0.8118598461151123,0.1734540384312378,0.0082929021134408,-9.931684488333476e-06,0.0115144606679677,0.0088457260280847,0.2852553129196167,-0.0113429501652717,-0.0178311858326196,-0.4570560455322265,0.8891868591308594,0.01039512099686,0.0276942861956238,0.323619768734292,0.3815394639968872,-0.2657017111778259,-0.0078887939453125,47,299,11885,21231
17.7,1788350530304,4.056337833404541,6.084506988525391,-0.0132113890722393,-0.0150905484333634,-0.5788944363594055,0.8151558041572571,0.1803330884711364,-0.0003769184812063,-0.0001186859231806,0.004177845083177,0.0511154867708683,0.2339593172073364,-0.0101048676297068,-0.0161161739379167,-0.4489440023899078,0.8933573961257935,0.0164287432117559,0.0336920470055941,0.1957695254463629,0.01152104139328,0.0082024931907653,-0.0610628128051757,21,295,11376,20801
17.8,1788350530404,4.14084529876709,6.02816915512085,-0.0116466227918863,-0.0136439995840191,-0.5711995363235474,0.8206152319908142,0.171105690331346,0.001747082824079,-0.000100346138995,0.0079906769096851,0.0434114933013916,0.1831380873918533,-0.0092006316408514,-0.0147304292768239,-0.4416548609733581,0.8970169425010681,0.0103999129082176,0.0183997604601181,0.1789787102767592,-0.2505363821983337,0.1799343228340149,-0.1337404251098632,34,341,11130,21053
17.9,1788350530504,4.0,5.830986022949219,-0.0104066869243979,-0.0125819575041532,-0.5630674958229065,0.8262495994567871,0.175494778657172,0.0033043362348718,-9.831600603771677e-05,0.0131975095719099,0.0286183953285217,0.1855533570051193,-0.007944137789309,-0.0133758783340454,-0.4334156215190887,0.901059865951538,0.0136901341157966,0.0527398345792096,0.1916156937338876,-0.0199099779129028,0.0102086663246154,0.0623111724853515,36,374,12245,21289
18.0,1788350530604,4.394366264343262,5.521126747131348,-0.0096064331009984,-0.0123541299253702,-0.5551819801330566,0.8315816521644592,0.1725717154480727,-0.0004322130932718,1.4480079327880282e-05,0.005315076559782,-0.0060325036756694,0.1017746478319168,-0.0076745254918932,-0.0135659258812665,-0.4270463287830353,0.904095470905304,0.0024414603945868,-0.0013308611980315,0.0943844322299332,-0.0817677974700927,0.2458661198616027,-0.3322229385375976,27,344,12506,20404
18.1,1788350530704,4.901408672332764,5.323943614959717,-0.0096283508464694,-0.0122803589329123,-0.5517240762710571,0.8338806629180908,0.1666018489759784,0.0021083491252495,2.6827505465104244e-05,0.0018838832620531,-0.0117662642151117,0.0783606842160224,-0.0077431071549654,-0.0135681806132197,-0.4236319065093994,0.9056996703147888,-0.0061936848252126,-0.0117884620903772,0.0822476586093316,0.0110092163085937,-0.066885769367218,-0.0240421295166015,105,333,12948,18878
18.2,1788350530804,4.619718074798584,5.492957592010498,-0.0100223869085311,-0.0126010570675134,-0.5510060787200928,0.8343458771705627,0.1735808199941807,-0.0004726185979659,2.8879607531180544e-05,-0.0055197793990373,-0.0193916503340005,0.034198872745037,-0.0081957634538412,-0.0145013369619846,-0.4230498075485229,0.9059533476829528,0.0076512946814927,-0.0312484603478852,-0.0058931850858587,-0.118812620639801,0.185397207736969,-0.1556930541992187,17,366,11734,20502
18.3,1788350530904,5.183098793029785,5.211267471313477,-0.0107088955119252,-0.0136688780039548,-0.5499842166900635,0.8349945545196533,0.1695732737121253,0.0034591957111046,8.944609550109564e-05,0.0002654271083883,-0.0258991848677396,0.0367067828774452,-0.0091131068766117,-0.0158376954495906,-0.421424388885498,0.9066795110702516,-0.0001207271120677,-0.0240293993152032,-0.0039093382881161,0.0672321319580078,0.1660030484199524,-0.1186628341674804,42,315,11820,19254
18.4,1788350531004,5.070422649383545,5.211267471313477,-0.0126328961923718,-0.0154845444485545,-0.5493209362030029,0.8353725075721741,0.1660081816832838,0.0021794575832504,0.0001457949673797,-0.0089552067220211,-0.0577711425721645,0.0084180803969502,-0.0103067466989159,-0.0172897316515445,-0.4210911095142364,0.9067950248718262,-0.0049372771807575,-0.0496910757101278,0.0230977718471656,0.1502314805984497,-0.0663651227951049,-0.4124011993408203,85,345,12339,19521
18.5,1788350531104,4.901408672332764,5.126760482788086,-0.0132268741726875,-0.015832532197237,-0.5497662425041199,0.8350636959075928,0.173140250600386,-0.0013242002808451,-2.1932491327743367e-07,-0.0124409012496471,-0.0242701992392539,-0.0211461167782545,-0.010780656710267,-0.0175774563103914,-0.4215941429138183,0.9065501689910888,0.0014367510552528,-0.055274940093908,-0.0291441277960666,-0.2379288673400879,0.2095487117767334,0.0286016464233398,27,380,11569,20987
18.6,1788350531204,4.704225540161133,5.464788913726807,-0.014128535054624,-0.0166310351341962,-0.5492726564407349,0.835358202457428,0.1672306788905953,0.002390821242608,9.32827050217428e-05,-0.0118802785873413,-0.0457677654922008,0.0227118283510208,-0.0121105685830116,-0.0196477212011814,-0.4190861880779266,0.907653033733368,0.0003253488519608,-0.0501227955565767,0.0677633933936378,-0.0232558846473693,0.3272484540939331,-0.1215963363647461,32,418,11150,21499
18.7,1788350531304,5.070422649383545,5.408450603485107,-0.0149165242910385,-0.0180232860147953,-0.5458584427833557,0.8375507593154907,0.1766382628459077,0.0013652865963,7.410107906664645e-05,0.0054095927625894,-0.0230747070163488,0.0772040411829948,-0.0121646178886294,-0.0197032131254673,-0.4155108332633972,0.9092934131622314,-0.0077571219504373,0.0322209111504766,0.0934170398723616,0.2897188067436218,-0.2318930029869079,0.2866544723510742,56,363,12407,19552
18.8,1788350531404,4.619718074798584,5.633802890777588,-0.0150324357673525,-0.0176343135535717,-0.5435052514076233,0.8390858769416809,0.1730497955730421,-0.0003380847341733,4.671429114612841e-07,7.688112191317488e-08,3.844056095658743e-08,0.0,-0.0124510545283555,-0.0195569936186075,-0.4144132733345032,0.909793496131897,-0.0026076303562226,0.0036676125364312,0.0064880204701612,-0.0619213581085205,-0.0235368609428405,0.1469850540161132,64,360,11621,20321
18.9,1788350531504,4.704225540161133,5.323943614959717,-0.0151160825043916,-0.0175766702741384,-0.5403121709823608,0.8411451578140259,0.1648118497922696,0.0012529928343617,-6.989328954855626e-06,-0.0029497004579752,-0.0079295700415968,0.0706889703869819,-0.0125447865575551,-0.0197061337530612,-0.4110003411769867,0.9113358855247498,-0.0131147675461977,-0.0198872570028427,0.0498768223929515,0.044410228729248,-0.0577256083488464,0.3141241073608398,31,385,11218,21433
19.0,1788350531604,4.3380279541015625,5.605633735656738,-0.0155642041936516,-0.0180551707744598,-0.5385698080062866,0.8422436714172363,0.1754221409493489,0.0011038578365363,9.380339680065204e-05,-0.0028274359647184,-0.0258898697793483,0.081834390759468,-0.0124443732202053,-0.0195269379764795,-0.4069193601608276,0.913170576095581,0.0116841265921242,0.0224458291994792,0.1287764002610213,0.0685814619064331,0.0094919204711914,-0.0397205352783203,26,353,12559,20965
19.1,1788350531704,4.704225540161133,5.521126747131348,-0.0149392243474721,-0.0170819703489542,-0.5352450013160706,0.844391942024231,0.1753755284935707,0.0031172987833035,-7.506772420435979e-05,0.0023349276743829,0.0248407460749149,0.0774299874901771,-0.0119813187047839,-0.0186839625239372,-0.4030244946479797,0.9149200320243835,0.0034343912768961,0.0284328756471298,0.0965199398641014,0.1630557179450988,0.0257968306541442,0.0115776062011718,85,378,11357,20826
19.2,1788350531804,4.309859275817871,5.521126747131348,-0.0141830034554004,-0.0160511191934347,-0.5277778506278992,0.849112331867218,0.1619141776112604,0.0022428095861269,-1.3865310210767228e-05,-0.0004764828481711,0.0117300068959593,0.1044637188315391,-0.0116194179281592,-0.0178010333329439,-0.3973672091960907,0.9174134135246276,-0.002443356853971,0.0256326234209476,0.0951506271215096,0.1372433304786682,-0.086290419101715,0.0751333236694336,30,390,12478,20816
19.3,1788350531904,4.788732528686523,5.6619720458984375,-0.0133555233478546,-0.0153872705996036,-0.524084746837616,0.8514223694801331,0.1718107186851415,0.0014636471209637,-5.771986870538049e-05,0.006525944918394,0.0052073448896408,0.0861122906208038,-0.0110040195286273,-0.0172704607248306,-0.3935476541519165,0.919076144695282,0.0039001505620018,-0.0227630641996417,0.0813349260219935,-0.0152156352996826,0.1094523668289184,0.1288356781005859,55,361,11061,20295
19.4,1788350532004,4.788732528686523,5.549295902252197,-0.0133759258314967,-0.0155651243403553,-0.522159218788147,0.8526011109352112,0.1743730003736723,0.0015203876990011,6.858101418222432e-05,0.004835695028305,-0.0067702252417802,0.0899694561958313,-0.0104403756558895,-0.0161857493221759,-0.3899053335189819,0.9206535816192628,0.0030663371364567,0.0587910520458245,0.0880255703218047,-0.0521485209465026,0.0624597668647766,0.1223602294921875,30,350,11122,20767
19.5,1788350532104,4.760563373565674,5.577464580535889,-0.0123652545735239,-0.0142705980688333,-0.5180784463882446,0.8551246523857117,0.1799046833147192,0.0019435574394383,-3.864814776224977e-05,0.0073228883557021,0.0112985409796237,0.0898066535592079,-0.0098132984712719,-0.0152754979208111,-0.3850975334644317,0.9226973056793212,0.0004576986699178,0.0017039833106201,0.0862880972465282,-0.1330201029777526,0.260893702507019,0.2010574340820312,49,364,12231,21251
19.6,1788350532204,4.2816901206970215,5.633802890777588,-0.0122456392273306,-0.0143937366083264,-0.5124652981758118,0.8584999442100525,0.168813368951232,0.0015036332297664,-1.1623395160258704e-05,0.0014120888663455,0.0157834365963935,0.0901101976633071,-0.0100077791139483,-0.0160305798053741,-0.3813357353210449,0.9242434501647948,0.0052367593846382,0.0386487220595702,0.088560880311805,0.1807709336280822,-0.1746336817741394,0.2706432342529297,32,368,12797,20613
19.7,1788350532304,4.647887229919434,5.605633735656738,-0.0127035193145275,-0.0148018337786197,-0.5089832544326782,0.8605553507804871,0.1751455831654362,0.0010189958770264,8.078631656542458e-06,-0.0090527739375829,-0.021300783380866,0.0816679000854492,-0.0103004314005374,-0.0164409074932336,-0.3777972757816314,0.9256851077079772,-0.0039711274595148,-0.0349351322214083,0.0785252769104549,-0.2810381054878235,0.2309831976890564,-0.288482666015625,50,382,11211,20860
19.8,1788350532404,4.704225540161133,5.492957592010498,-0.012805295176804,-0.015108048915863,-0.5066311955451965,0.8619354367256165,0.1689067224853871,0.001952178106494,6.729243685810108e-05,0.0047728009521961,-0.0128506748005747,0.1077894493937492,-0.0106695378199219,-0.0165877602994442,-0.3722545206546783,0.9279211163520812,-0.0079348330699886,0.0210399285403341,0.0878366213719776,-0.0563058257102966,0.0504400134086608,0.3525648117065429,19,373,10947,21277
19.9,1788350532504,4.366197109222412,5.492957592010498,-0.0130311315879225,-0.0150328865274786,-0.5029186010360718,0.8641048073768616,0.1811742817792775,0.0031664290234556,-5.301580906255748e-05,-0.0001259542041225,0.0043865381740033,0.096384011209011,-0.0108661539852619,-0.0174617227166891,-0.3680514693260193,0.929577887058258,0.001676031127084,-0.0085849322384534,0.1038919962262808,0.0813379287719726,-0.1035675406455993,-0.2236557006835937,45,398,12272,21287
20.0,1788350532604,4.816901206970215,5.183098793029785,-0.0128275668248534,-0.0150657407939434,-0.4972740113735199,0.8673678636550903,0.1684048523096881,-0.00037009930557,2.2392600220717e-05,0.0041261790320277,0.0201263651251792,0.039855919778347,-0.0105309151113033,-0.0167782790958881,-0.3649308979511261,0.9308239221572876,-0.0049041880089449,0.0423786899798701,0.0251966595492957,0.0675973892211914,-0.0971492528915405,0.118804931640625,32,322,13162,19485
20.1,1788350532704,5.070422649383545,5.352112770080566,-0.0124090984463691,-0.0144048854708671,-0.4971082806587219,0.8674800992012024,0.1663381559333137,0.0003152809810264,-1.0972227507190739e-07,0.0,0.0,0.0,-0.0106917675584554,-0.0163330230861902,-0.3652736842632293,0.9306955337524414,-0.0119424016518114,-0.0123701625687409,-0.0198114809542315,0.3135002255439758,-0.0653688907623291,-0.1381177902221679,85,287,12224,18555
20.2,1788350532804,4.816901206970215,5.042253494262695,-0.0127921942621469,-0.0145342238247394,-0.4973835945129394,0.8673145771026611,0.170647991376627,0.0017718325519786,8.293601454534757e-05,-0.0109387841075658,-0.0120385866612195,-0.0126616545021533,-0.0105084823444485,-0.0160517450422048,-0.3666305541992187,0.9301688075065612,0.0039727282198409,-0.0060212488751755,-0.0488929706919164,-0.177667498588562,0.1251071691513061,-0.2009038925170898,81,316,14455,18838
20.3,1788350532904,4.929577350616455,5.098591327667236,-0.0127340760082006,-0.0142122730612754,-0.5002232193946838,0.8656862378120422,0.1685493739300389,-0.0042802244327599,-4.244916928106235e-06,-0.0021765329875051,0.0014294649008661,-0.070144698023796,-0.0106101837009191,-0.0159519929438829,-0.369209885597229,0.929148495197296,-0.0054211936390796,-0.0030297742812982,-0.0594512862784003,0.1823751926422119,0.1352699398994445,-0.0553035736083984,37,353,14036,18718
20.4,1788350533004,4.957746505737305,5.154929637908936,-0.0131645072251558,-0.0141296032816171,-0.5031249523162842,0.8639978766441345,0.1689022173569089,-0.0030844113076295,2.9363309882891825e-05,-0.0055350759066641,-0.0064350361935794,-0.0423416085541248,-0.0108242984861135,-0.0157256536185741,-0.3718874752521515,0.9280815720558168,0.0029083053810479,0.0144156894892597,-0.0420118313538979,0.1379722356796264,0.1789636015892028,0.0650663375854492,26,359,12410,19955
20.5,1788350533104,4.676056385040283,5.492957592010498,-0.0131738875061273,-0.0139022609218955,-0.5040736794471741,0.8634483218193054,0.1668526023616746,0.0038334691422409,2.7778980651022447e-05,-0.0071166306734085,-0.0048024826683104,-0.0195076931267976,-0.0113552901893854,-0.0159868337213993,-0.3723610043525696,0.927880883216858,-0.009712402193844,-0.0210130267522649,0.0010203078817497,0.0322934985160827,0.0085036158561706,0.1475973129272461,42,424,11052,21306
20.6,1788350533204,4.535211086273193,5.549295902252197,-0.0138211110606789,-0.0143931694328784,-0.5031110048294067,0.863991379737854,0.1700999402733551,0.0033813539097917,0.0001181806683333,-0.0128330755978822,-0.0333236083388328,0.0488648004829883,-0.0116403233259916,-0.0170065257698297,-0.369189590215683,0.9291256666183472,0.0154159106830212,-0.0276176003230379,0.0922584339340018,0.0837401151657104,-0.161898136138916,0.4048185348510742,20,419,11382,21271
20.7,1788350533304,4.816901206970215,5.492957592010498,-0.0137250376865267,-0.0151236224919557,-0.4994784593582153,0.8660855293273926,0.171990678816215,0.0009692747930833,2.0018551575830542e-05,0.0126978121697902,0.0022901485208421,0.0889055952429771,-0.0113940183073282,-0.0167936477810144,-0.3663307726383209,0.9302632808685304,-0.0083875473275284,-0.0027954794545511,0.0246338468933061,-4.881620407104492e-05,-0.0712992548942565,0.1102151870727539,37,323,13053,18946
20.8,1788350533404,4.563380241394043,5.183098793029785,-0.0136571638286113,-0.0146814631298184,-0.4978047311306,0.8670572638511658,0.1822507157315178,0.0001140317091389,-2.9010533232739287e-05,-0.002092255745083,0.0112409032881259,0.0140774669125676,-0.0112560223788023,-0.0163969658315181,-0.365647405385971,0.930540919303894,0.0025404076109936,0.0143061890798933,-0.0036274947057704,0.0010520219802856,-0.1748591065406799,0.109628677368164,47,283,13987,19166
20.9,1788350533504,4.788732528686523,5.183098793029785,-0.0134883262217044,-0.0148111917078495,-0.4981562793254852,0.8668558597564697,0.1564302764512936,-8.918101665309154e-05,5.04257072227866e-06,0.0077522154897451,-0.001015132991597,-0.0156260281801223,-0.0115552945062518,-0.0172042082995176,-0.3659428358078003,0.9304065108299256,-0.0093448098582284,-0.0451028261390816,0.0015472610437744,0.0470461249351501,0.024213433265686,0.0461606979370117,17,331,12830,19209
21.0,1788350533604,5.211267471313477,5.154929637908936,-0.0138449855148792,-0.0155327208340168,-0.498215913772583,0.8668032288551331,0.1783158454125804,-0.0022215955826447,1.645830258665001e-07,0.0022051073610782,-0.036387413740158,-0.0037322004791349,-0.0112380227074027,-0.0169660337269306,-0.3661452233791351,0.9303351640701294,0.0014863790772081,-0.0005551776782255,-0.0098945774525134,0.0105572938919067,0.0902554392814636,-0.0150432586669921,59,368,11667,19673
21.1,1788350533704,4.8450703620910645,5.183098793029785,-0.0136314118281006,-0.0151682728901505,-0.4983415603637695,0.866740882396698,0.1651892263880802,0.0017652270518946,-3.691389200008769e-05,2.9512131732190028e-05,0.0169277414679527,-0.0055315871722996,-0.0114391511306166,-0.0175847895443439,-0.3643127083778381,0.931040346622467,-0.0078421814766414,-0.0063313162473532,0.0889297416585392,0.0160316228866577,0.0333771705627441,-0.242776870727539,27,390,12562,20353
21.2,1788350533804,5.070422649383545,5.211267471313477,-0.0134955728426575,-0.0155931245535612,-0.4957923293113708,0.8681963086128235,0.1749900294434099,-0.0013174641893389,3.889287053765033e-06,0.0117652276530861,-0.0015879498096182,0.0263699907809495,-0.0110481521114707,-0.0173433199524879,-0.363414853811264,0.9314004182815552,0.0025178259243913,0.0047043183181353,0.0045182959509243,0.2567603588104248,-0.0383751392364501,-0.1372413635253906,90,339,12340,19514
21.3,1788350533904,4.535211086273193,5.014084339141846,-0.0134023772552609,-0.0152189349755644,-0.4958298206329345,0.868182897567749,0.170008980705707,0.0005379493231932,-0.0001042583521801,-0.0049865082837641,0.0113439187407493,-0.0147119360044598,-0.0109764719381928,-0.0168301444500684,-0.3636171817779541,0.9313318133354188,-0.0030135591463281,0.0289363462282692,-0.0253782304909222,0.336542010307312,0.1101694107055664,0.2561206817626953,70,334,14081,20015
21.4,1788350534004,4.704225540161133,5.521126747131348,-0.0129721760749816,-0.014915601350367,-0.495920866727829,0.8681427240371704,0.1770921949256524,-0.0017552523673398,4.27520849048166e-07,0.0090120304375886,0.019447362050414,-0.0041337246075272,-0.0103245703503489,-0.0159464757889509,-0.3640311062335968,0.9311929941177368,0.0013513352692226,0.0157597324397091,-0.0105599409108822,-0.4023953080177307,-0.3565988540649414,0.0239715576171875,28,361,11171,20343
21.5,1788350534104,4.11267614364624,5.521126747131348,-0.0124896131455898,-0.0143640832975506,-0.4951516985893249,0.8685980439186096,0.1682941761684477,0.0019378056827486,-3.65344524042724e-05,0.0050612189806997,-0.000539637345355,0.0417692624032497,-0.010298166424036,-0.0164538640528917,-0.361944705247879,0.931997537612915,0.0086216076211304,-0.0280445646170004,0.0585576135994376,0.070048451423645,0.1340751647949218,0.0185041427612304,60,397,13121,21008
21.6,1788350534204,4.676056385040283,5.549295902252197,-0.0123161757364869,-0.0144213875755667,-0.4904913306236267,0.8712397217750549,0.1701687826624917,0.0004692940113367,-5.542639689065972e-05,0.0017854626057669,0.0225647110491991,0.0891267657279968,-0.0100448187440633,-0.0159439239650964,-0.3574462831020355,0.9337435960769652,0.0016621159075456,0.0274117163112497,0.0842763389449005,-0.0677062273025512,-0.0243043899536132,0.4361190795898437,38,339,11442,20959
21.7,1788350534304,4.309859275817871,5.464788913726807,-0.0129435267299413,-0.015035611577332,-0.4861635863780975,0.87364262342453,0.1683259898871725,0.0015886038151139,6.693293372225906e-05,-0.0021535577252507,-0.0180325377732515,0.1093211844563484,-0.0106046078726649,-0.0167674291878938,-0.3531221747398376,0.9353668689727784,0.0010705987085976,-0.0102810412374397,0.1157341838679943,0.2299596667289734,0.0660188198089599,-0.1411552429199218,94,350,14705,19144
21.8,1788350534404,5.239436626434326,5.267605781555176,-0.0131636708974838,-0.015371574088931,-0.4848707318305969,0.8743516206741333,0.1722389503189501,-0.0027992807210808,3.2747972977943226e-05,-1.5312209143303335e-05,-0.0164458584040403,0.0595823861658573,-0.0105849392712116,-0.016663696616888,-0.3516482412815094,0.935923993587494,-0.0014514302082487,0.0326433936427895,0.0048502666751738,0.0434980988502502,-0.163199245929718,-0.0341091156005859,91,285,12870,17948
21.9,1788350534504,5.323943614959717,4.985915660858154,-0.0127137741073966,-0.0147439446300268,-0.4853217005729675,0.8741188645362854,0.1719886335919444,-0.0020006596553584,-3.1135453747280505e-05,0.0017466741846874,0.0176538527011871,-0.0237741246819496,-0.0112835960462689,-0.0176294352859258,-0.3541480004787445,0.9349551796913148,-0.005541982241651,-0.0578656135299129,-0.0407998630889932,0.0493955016136169,-0.3546251654624939,0.2555189132690429,37,335,12311,18931
22.0,1788350534604,4.788732528686523,5.014084339141846,-0.0143289156258106,-0.0170109830796718,-0.4876972436904907,0.872729480266571,0.1634033498105637,0.0018480227774092,5.4049049229160775e-06,0.0047743641771376,-0.0188800953328609,0.0008449198212474,-0.0116776898503303,-0.018869200721383,-0.3549241721630096,0.9346317648887634,0.0077026580328086,-0.0417698916675292,0.0230215835197285,-0.4518540501594543,0.2866624593734741,-0.4621667861938476,24,330,13928,19559
22.1,1788350534704,5.267605781555176,5.042253494262695,-0.0144676389172673,-0.0173027068376541,-0.4871826171875,0.8730087876319885,0.1667977441143805,-0.0011769533029169,7.069213574357673e-05,0.0013164419215172,-0.0125926388427615,0.0226173717528581,-0.0121001219376921,-0.0191166456788778,-0.3562266826629638,0.9341256618499756,-0.0063377357638597,0.0396340172520792,-0.0585072549854881,0.0415782332420349,-0.1091492772102356,-0.189640998840332,41,340,12784,19115
22.2,1788350534804,5.380281925201416,5.014084339141846,-0.0146687608212232,-0.0170389581471681,-0.4895784258842468,0.8716694116592407,0.1800795835624112,0.000366642442174,-6.801053248007255e-05,-0.0006569758988916,0.022250697016716,-0.0473787374794483,-0.011981095187366,-0.0192380659282207,-0.3587537705898285,0.9331571459770204,-0.0075189421729592,0.0045929580970573,-0.0878380528586457,0.2535739541053772,0.1730581521987915,0.1883687973022461,25,318,12367,18685
22.3,1788350534904,5.323943614959717,5.070422649383545,-0.0140019487589597,-0.0167943052947521,-0.4928826689720154,0.8698210120201111,0.1741696463997916,-0.0002285817348298,-0.0001212779546189,0.0068221534602344,0.025956891477108,-0.0734409689903259,-0.0115241203457117,-0.0190955232828855,-0.3613573014736175,0.9321606159210204,0.0002660888492172,-0.03039424764703,-0.0480567330604029,-0.213160753250122,-0.3112033605575561,0.0861139297485351,55,380,12295,18881
22.4,1788350535004,5.323943614959717,5.126760482788086,-0.0138041032478213,-0.0166637953370809,-0.4953012466430664,0.8684517741203308,0.1560672650161952,-0.0123018527864204,-0.0001009999124643,0.0045499810948967,0.0395308211445808,-0.0426176525652408,-0.0112608158960938,-0.0187472216784954,-0.3625339269638061,0.9317140579223632,-0.0045433464072651,0.0339152431601731,-0.0447635963126515,0.3625126481056213,0.4059594273567199,0.1631793975830078,37,362,11659,19583
22.5,1788350535104,4.788732528686523,5.267605781555176,-0.0141666140407323,-0.0176723655313253,-0.4957090020179748,0.8681932687759399,0.1677433708910683,0.0015809929838544,0.0002046466931514,0.0017826594412326,-0.0623818933963775,0.0065238159149885,-0.0113924676552414,-0.019367141649127,-0.3633822202682495,0.9313691854476928,0.000909533320923,-0.0114101593159693,0.0123775311261063,0.2353211641311645,-0.0017664432525634,-0.0690603256225586,103,285,14134,18250
22.6,1788350535204,4.985915660858154,5.070422649383545,-0.0131926266476511,-0.0165102332830429,-0.4959527254104614,0.8680922389030457,0.170883236648062,-0.0019034298251683,-0.0001337062729909,0.0107428347691893,0.060820035636425,-0.0106878010556101,-0.0104207741096615,-0.0175412185490131,-0.3647214770317077,0.930893063545227,-0.0010174279462206,0.037025980973105,-0.0422931119682302,0.0976934432983398,-0.2689432501792907,-0.2062234878540039,69,300,14579,17592
22.7,1788350535304,5.042253494262695,4.8450703620910645,-0.012288792990148,-0.0152705470100045,-0.4991737306118011,0.8662800788879395,0.1806137744513365,0.0028435699562068,-0.0001579152799949,0.0074103269726037,0.0329946763813495,-0.0795920267701149,-0.0099031748250126,-0.0166725758463144,-0.3687712550163269,0.9293179512023926,-0.0068871193313907,0.0151946287478473,-0.1226560963026078,-0.2152637243270874,0.1899209022521972,-0.3388509750366211,28,285,14497,17855
22.8,1788350535404,4.957746505737305,4.957746505737305,-0.0121037065982818,-0.0149008622393012,-0.5051530599594116,0.8628162741661072,0.1663423636432443,0.0008184659646994,1.9879311039775493e-05,0.0013574479380622,-0.0112936273217201,-0.0665821656584739,-0.0098368776962161,-0.0167520195245742,-0.3738531470298767,0.9272844195365906,0.0055095320863485,-0.0303477575546707,-0.0489605092784335,0.1766923666000366,0.305575966835022,-0.0861349105834961,30,319,14641,17912
22.9,1788350535504,5.267605781555176,4.929577350616455,-0.0120849534869194,-0.0144303143024444,-0.5092520713806152,0.8604115843772888,0.17780509740969,5.897249221060888e-05,-5.986966623436949e-05,-0.0104897348210215,0.0091066537424921,-0.1191510036587715,-0.0098434882238507,-0.0160432402044534,-0.3778785765171051,0.9256637692451476,-0.0110823646957848,-0.0025755784280084,-0.1272498723237581,-0.2234064936637878,-0.0389391183853149,-0.2958135604858398,27,283,13549,17878
23.0,1788350535604,4.985915660858154,4.957746505737305,-0.0124969407916069,-0.0144673902541399,-0.5117159485816956,0.8589419722557068,0.1754442459012401,-0.0008602955630271,6.339226163647043e-06,-0.015830636024475,-0.009489825926721,-0.1165326982736587,-0.0105401771143078,-0.0164284612983465,-0.3817950189113617,0.924040913581848,-0.0086008694195105,-0.0179700748063717,-0.0596191615425454,0.243265151977539,-0.1172874569892883,0.0449552536010742,24,340,10074,18300
23.1,1788350535704,2.5915493965148926,4.309859275817871,-0.0123072518035769,-0.0135947465896606,-0.5132417678833008,0.858048141002655,0.1594218535517399,0.0017607750902927,1.3337529335962784e-05,-0.0049389684572815,0.0317713133990764,-0.0192667320370674,-0.0095776477828621,-0.0137900868430733,-0.3782960474491119,0.9255324006080629,-0.0063704347018336,0.0584330377280954,0.189955104854079,-0.7523009777069092,-0.1127161383628845,0.3426332473754883,120,301,1391,16392
23.2,1788350535804,0.8732394576072693,3.577464818954468,-0.0131926927715539,-0.0147874429821968,-0.49765145778656,0.8671506643295288,0.0788326455018269,0.0006021145106498,9.858845282264503e-05,0.0064244801178574,-0.0757994353771209,0.3397568762302398,-0.0109063107520341,-0.0165853537619113,-0.3654139339923858,0.9306334257125854,0.0074919570598551,-0.0776857240853338,0.3677327121928442,-0.1452732682228088,-0.0364611744880676,-0.1056070327758789,57,382,0,15497
23.3,1788350535904,-2.253521203994751,3.070422649383545,-0.0132800806313753,-0.0151800792664289,-0.4898502230644226,0.871573269367218,0.0682557167286339,0.0006184088598795,4.290962491869467e-05,0.0120649393647909,-0.0173363648355007,0.3686186671257019,-0.0107465656474232,-0.0168072432279586,-0.3492896854877472,0.9368023872375488,0.0161018666444679,0.0050537756124893,0.4516516159925187,-0.69646155834198,0.2077488899230957,0.0403957366943359,234,339,-13424,13935
23.4,1788350536004,-2.7042253017425537,2.7323944568634038,-0.0127900792285799,-0.015372441150248,-0.4689681529998779,0.8829886317253113,0.0305448585487095,0.0040536112313292,4.285848402943139e-06,0.0254881009459495,-0.0085973581299185,0.5417472720146179,-0.0106267025694251,-0.0184485930949449,-0.3175218999385834,0.9480119347572328,0.0198981977820143,-0.0638007919854151,0.6079582772766219,0.1102147102355957,-0.0196142792701721,-0.0989332199096679,277,451,-13639,14598
23.5,1788350536104,-2.7042253017425537,2.619718313217163,-0.0131704490631818,-0.0169573761522769,-0.445046067237854,0.8952502608299255,0.018258326677677,0.0003008936576898,1.6579368195287466e-05,0.0221728924661874,-0.0366988368332386,0.6091803312301636,-0.0102428309619426,-0.0188626013696193,-0.2911818027496338,0.9564269185066224,0.0219303086749498,-0.0259107145581965,0.6076247621082885,-0.191152811050415,-0.0491549372673034,0.186619758605957,197,355,-12079,13791
23.6,1788350536204,-2.422535181045532,2.563380241394043,-0.0123321004211902,-0.0175104327499866,-0.3981399834156036,0.9170746207237244,0.0102041458373076,-0.0024234849088943,-2.250425343770247e-06,0.0278978738933801,0.0212515480816364,0.6646710634231567,-0.0097232339903712,-0.0192733630537986,-0.2629952728748321,0.964555561542511,0.029095257130679,0.0264664804657268,0.6572069108151205,-0.048052430152893,0.1309762597084045,0.0255775451660156,256,408,-12739,13968
23.7,1788350536304,-2.169013977050781,2.3380281925201416,-0.0114882364869117,-0.0178245697170496,-0.3671959936618805,0.9299018383026124,0.0074784528887543,-0.00418246538324,-3.437821606558726e-06,0.0343606248497962,0.0010971529409289,0.6674408912658691,-0.0085829608142375,-0.0190556962043046,-0.2233690321445465,0.9745098352432252,0.0351520907932711,0.0343240719898263,0.671041334460339,-0.1123521327972412,-0.0095596313476562,0.0533714294433593,260,340,-11503,12114
23.8,1788350536404,-2.422535181045532,2.0,-0.0108302878215909,-0.0172425769269466,-0.3517720997333526,0.9358642101287842,0.0047229894665043,-0.0032444987510352,-6.126757942730655e-06,0.0301843546330928,0.0289767365902662,0.6727302074432373,-0.0080449599772691,-0.0201661102473735,-0.1952801644802093,0.9805071353912354,0.0324760171419117,-0.0665349663453849,0.6816559789119114,0.1313726305961609,0.1586815118789672,-0.2220315933227539,213,349,-10613,12899
23.9,1788350536504,-2.1408450603485107,2.0,-0.0103585598990321,-0.018539847806096,-0.3201834857463836,0.9471174478530884,0.0013638055834319,-0.0049381641646513,-2.026083430736372e-06,0.027844188734889,0.0002826336130965,0.5986075401306152,-0.0072843125090003,-0.0198089014738798,-0.1690037846565246,0.9853894114494324,0.0272626467060787,0.0014200543292602,0.589757970176502,0.0207434892654418,-0.0512468814849853,0.1810140609741211,128,333,-9341,10879
24.0,1788350536604,-2.05633807182312,1.8309859037399288,-0.0094103720039129,-0.0189646016806364,-0.2835676074028015,0.9587184190750122,0.0027561016112946,-0.0017659767691233,-8.171149560235602e-07,0.0241641718894243,0.0048078042455017,0.5160626769065857,-0.0064850402995944,-0.0201228391379117,-0.1374410837888717,0.990284264087677,0.0206609729675819,0.0031600466689008,0.4920173267596236,-0.0164715051651,0.0139315128326416,0.0500946044921875,214,310,-9667,11316
24.1,1788350536704,-1.8591549396514893,1.8309859037399288,-0.0089329443871974,-0.0193623099476099,-0.2609956264495849,0.9651044011116028,0.0097211315597306,-0.0046229155669076,9.1770049836834e-07,0.0223507080227136,-0.0038951677270233,0.4438410997390747,-0.0059957923367619,-0.0204545743763446,-0.1167572364211082,0.9929317831993104,0.0213982349048228,0.0029474957649668,0.4407522807146231,0.1181385517120361,7.921457290649414e-05,-0.149118423461914,211,396,-10374,11682
24.2,1788350536804,-1.436619758605957,1.7183098793029783,-0.0085559515282511,-0.0190419238060712,-0.2508346438407898,0.9678048491477966,0.0121683415526711,-0.0014600926842358,-3.4867301629841925e-06,0.0204142890870571,0.0150380386039614,0.4280507266521454,-0.005477306433022,-0.0196723602712154,-0.0982710868120193,0.9949501752853394,0.0147573257103305,0.0231212132279938,0.398908588652544,-0.06007981300354,-0.1073338985443115,0.0420007705688476,207,300,-9428,9656
24.3,1788350536904,-1.4647886753082275,1.5492957830429075,-0.0078647518530488,-0.0183751601725816,-0.2330504357814788,0.9722592234611512,0.0014254693868147,-0.0013566323146466,-1.6083241205591558e-06,0.022470636293292,0.0144969513639807,0.4082057774066925,-0.004678089171648,-0.019739219918847,-0.0744408592581749,0.9970190525054932,0.0164122103476446,-0.0036054465197923,0.3819699876744206,0.0349612832069397,0.0266518592834472,-0.0349512100219726,291,313,-9813,10314
24.4,1788350537004,-1.4929577112197876,1.4929577112197876,-0.0070454124361276,-0.0184743609279394,-0.203006237745285,0.9789777994155884,0.0021885341967772,0.0012115377877364,1.4327034999850412e-07,0.0154584925621747,0.0036169199738651,0.3819072246551513,-0.0042645595967769,-0.019310126081109,-0.0572806224226951,0.9981622695922852,0.0120036967073966,-0.0037339699819067,0.3741659189334886,-0.0538442134857177,0.0562340021133422,-0.0011806488037109,271,335,-9748,10865
24.5,1788350537104,-1.4647886753082275,1.4929577112197876,-0.0065859509631991,-0.0185342635959386,-0.1844098269939422,0.9826526045799256,0.0075513570621223,-0.0021269150421815,-2.571253944117043e-06,0.0178445726633071,0.0070081073790788,0.3727548718452453,-0.0038409819826483,-0.0192799717187881,-0.0402779467403888,0.9989951848983764,0.018833309607236,0.009753041926171,0.3510270849857362,0.0199742317199707,0.0414443016052246,0.1765308380126953,304,422,-9928,11528
24.6,1788350537204,-1.1267606019973757,1.3239436149597168,-0.0064865499734878,-0.0185379870235919,-0.1759146153926849,0.9842094779014589,0.0075389887920639,-0.001204617444902,7.788064834934325e-07,0.0120528964325785,-0.0005627300124615,0.3910773396492004,-0.0035472996532917,-0.0189639385789632,-0.0185111258178949,0.999642550945282,0.0127803363368412,0.0006908151805242,0.3190032632956165,-0.0082560777664184,0.0279051661491394,0.1797904968261718,166,341,-8439,9234
24.7,1788350537304,-1.0704225301742554,1.154929518699646,-0.0061826254241168,-0.0184748470783233,-0.1576975435018539,0.9872952699661256,0.0016723517692133,-0.0006714437022078,9.360839638893496e-07,0.0132105508819222,-0.00794786401093,0.3217525780200958,-0.0032661324366927,-0.0193444322794675,-0.0050257565453648,0.999794900417328,0.0134201914685226,-0.0057822794278013,0.2793213087409095,0.1181839108467102,0.0100407004356384,-0.0642309188842773,297,338,-8968,10037
24.8,1788350537404,-1.183098554611206,1.2957746982574463,-0.0055882958695292,-0.0186001900583505,-0.1367244571447372,0.9904187321662904,0.0065508545490956,-0.0001301127122282,-3.8678149320580586e-07,0.0136889424175024,-0.0007192558259703,0.2808627486228943,-0.0028508407995104,-0.0191473606973886,0.0078852241858839,0.9997815489768982,0.0162162428639606,-0.0057736775592901,0.3252658868244423,-0.1376622915267944,0.1123934984207153,0.0704641342163086,297,342,-8804,9628
24.9,1788350537504,-1.2957746982574463,1.0704225301742554,-0.0053594941273331,-0.0182978063821792,-0.1235219314694404,0.9921586513519288,0.0011806794496314,-0.0008281003017452,-1.6364337264623559e-07,0.0107997301965951,0.0171708092093467,0.2855534851551056,-0.0025766482576727,-0.0188569761812686,0.0252685211598873,0.999499499797821,0.0120944759644563,0.0060823586475945,0.2909665420892368,0.0719044208526611,-0.0322701930999755,0.1381645202636718,242,367,-8259,10473
25.0,1788350537604,-1.183098554611206,1.1267606019973757,-0.0052337665110826,-0.0186474211513996,-0.1162436082959175,0.9930318593978882,0.0047534186464015,-0.0006336534417403,4.2331360611785537e-07,0.0124471336603164,-0.014425003901124,0.2981659770011902,-0.0021977564319968,-0.0189949516206979,0.0392380654811859,0.9990469813346864,0.0156150533384425,0.0131423124067632,0.3136965136830695,0.0590340495109558,-0.1222366094589233,0.0535869598388671,196,329,-8825,10509
25.1,1788350537704,-0.7887324094772339,1.0140844583511353,-0.0047338050790131,-0.018543342128396,-0.1004287898540496,0.9947601556777954,0.0046658748911521,0.0041125279128739,2.0451146983076706e-06,0.0169547814875841,-0.0002154074027203,0.3308083415031433,-0.0018226066604256,-0.0193253979086875,0.0532603338360786,0.9983919858932496,0.0080971860421079,-0.0123304452848906,0.2752194449774656,0.142834722995758,-0.1545237898826599,0.0340003967285156,170,344,-7648,7893
25.2,1788350537804,0.0,0.0,-0.0043783816508948,-0.0183385852724313,-0.0849894061684608,0.9962034821510316,0.0017579109034427,-0.003395277022038,-9.826025259507841e-08,0.0014351002173498,0.0134937027469277,0.0550833418965339,-0.0016712425276637,-0.0186688154935836,0.0611154213547706,0.997954785823822,-0.0025749003713524,0.0202073928331628,-0.0255900348040632,0.1433702111244201,-0.0008434653282165,0.0320930480957031,36,195,1585,5654
25.3,1788350537904,0.98591548204422,2.760563373565674,-0.0044834893196821,-0.0206778664141893,-0.0846250131726265,0.9961881637573242,0.023732823774492,-0.0043631087069743,4.157027995374957e-05,0.0048970398493111,-0.1011955887079238,0.0302210990339517,-0.001147941686213,-0.0224181227385997,0.062185313552618,0.9978121519088744,0.0176799062424566,-0.1457350467592233,0.0457857706419242,0.0516619086265563,0.56966632604599,-0.3729677200317383,80,542,3452,18094
25.4,1788350538004,1.774647831916809,5.521126747131348,-0.0043424051254987,-0.0221560709178447,-0.0829515680670738,0.9962977766990662,0.0366579235564787,0.0014147273643135,6.541808960905461e-05,0.0122451810166239,-0.0596866607666015,0.0678678527474403,-0.0012928685173392,-0.0219195391982793,0.066653661429882,0.9975345730781556,-0.0043698416869587,0.0268030216793018,0.1180298084767441,0.7460427284240723,-0.0645257234573364,-0.0910186767578125,32,580,4697,25290
25.5,1788350538104,2.309859037399292,7.915493011474609,-0.0045667625963687,-0.0211641266942024,-0.0749480128288269,0.9969523549079896,0.0875349122624284,0.0097899433246275,-4.3972982016239016e-05,-0.0009271292365156,0.0151374898850917,0.1811861842870712,-0.001026420854032,-0.0224072001874446,0.0776543915271759,0.9967279434204102,0.0262827711524284,-0.0534790830322026,0.328235887467409,0.2912477850914001,0.1292287707328796,0.0929470062255859,28,651,5591,32203
25.6,1788350538204,2.281690120697021,8.28169059753418,-0.0037328395992517,-0.0207894369959831,-0.0434694178402423,0.9988315105438232,0.1429608546342781,0.0072871143671189,-0.0001419024184306,0.0137751838192343,0.0660224631428718,0.5104615688323975,-0.0005790954455733,-0.020768716931343,0.1057142168283462,0.9941794872283936,0.0285988190271666,0.0742723689216031,0.5713554975867529,0.1135725975036621,-0.0717284083366394,0.7806692123413086,37,511,4179,29926
25.7,1788350538304,2.4788732528686523,7.690140724182129,-0.0029781337361782,-0.0213625226169824,-0.0147428959608078,0.9996585845947266,0.1711249374849009,0.00493142773484,0.000118839952152,0.022192295640707,-0.0278235133737325,0.6418928503990173,0.0001469254493713,-0.0214592907577753,0.1346320658922195,0.9906633496284484,0.0152210304498966,0.0053604637240887,0.6673859572894315,0.0806272625923156,0.0834397673606872,-0.4163722991943359,10,500,5587,28924
25.8,1788350538404,2.169013977050781,8.08450698852539,-0.0026221231091767,-0.0204562935978174,0.0031189254950731,0.999782383441925,0.170319127382574,0.0041596834698917,-0.0001335621668085,0.0293976180255413,0.0349222086369991,0.7244254946708679,0.0010021803900599,-0.0212975498288869,0.1674996018409729,0.985641598701477,0.0278395689974185,-0.0416885444927746,0.7614389049056246,-0.1468960642814636,0.3751206994056701,-0.5487222671508789,11,414,5569,27033
25.9,1788350538504,2.7323944568634038,7.830986022949219,-0.0019303837325423,-0.0204210113734006,0.0440674051642417,0.9988179802894592,0.1687447250510127,0.0036874132153789,-7.869485796994946e-05,0.0225985795259475,0.0245544482022523,0.7463260293006897,0.0015482800081372,-0.0195256881415843,0.2101632952690124,0.9774701595306396,0.0414205856888846,0.0359291742542005,0.7826624261555559,0.1153367757797241,0.0185726881027221,-0.1055164337158203,50,343,5547,25424
26.0,1788350538604,2.901408433914185,7.352112770080566,-0.0005482099950313,-0.0193876288831233,0.0916936621069908,0.995598316192627,0.1728223895985577,0.0029657912140153,-6.376547596572867e-06,0.0318913497030735,-0.0062946737743914,0.6208189129829407,0.0023846076801419,-0.0193128250539302,0.2376680821180343,0.9711514711380004,0.0366393869110046,-0.0218037147839431,0.6113658612052574,-0.145215630531311,0.0693481564521789,0.093815803527832,43,310,6986,24103
26.1,1788350538704,3.0422534942626958,7.239436626434326,0.0001627071760594,-0.0193738266825675,0.1188209280371666,0.9927266240119934,0.1661832803685623,0.008797553388457,-3.3773156882850444e-05,0.0164268873631954,0.0012249730061739,0.5005059838294983,0.0029850136488676,-0.0191010888665914,0.261422336101532,0.9650309681892396,0.0180050262637443,-0.006582623098651,0.4927598972396969,-0.2203129529953003,0.107490062713623,0.0955953598022461,13,378,6239,24882
26.2,1788350538804,2.929577350616455,6.929577350616455,0.0006147397216409,-0.0196396131068468,0.1307567358016967,0.9912197589874268,0.1712761640638313,0.0050858260104088,5.005375644203637e-05,0.0287215802818536,-0.015268038958311,0.532202959060669,0.0038434108719229,-0.0195623040199279,0.2921167910099029,0.9561748504638672,0.011805590240233,-0.02765131635466,0.5409325763028245,0.1646474599838256,-0.0928013920783996,-0.1054821014404296,45,418,8232,24813
26.3,1788350538904,3.549295663833618,6.478873252868652,0.0010275954846292,-0.0202453900128602,0.1605446189641952,0.9868203997612,0.1674034019675526,0.004427857290171,0.0001264781578281,0.011270236223936,-0.0212507490068674,0.5171151757240295,0.0038855848833918,-0.0198378637433052,0.3118613660335541,0.9499126076698304,0.0065107595001738,-0.0021609268478766,0.4154336458776537,0.0703362822532653,-0.1182456612586975,-0.0030021667480468,104,290,11427,21705
26.4,1788350539004,3.6619718074798575,6.169013977050781,0.0008098478429019,-0.0206206012517213,0.1840649396181106,0.982697367668152,0.1710556657193116,0.0052102476306858,2.4075654497480832e-05,-0.0030562025494873,-0.018331155180931,0.2764410376548767,0.0037811519578099,-0.0202329233288764,0.3249245882034302,0.9455158710479736,-0.0103317940597222,-0.0321423496060096,0.2733884072999686,0.0374595522880554,-0.090369164943695,-0.0224246978759765,27,350,10680,22192
26.5,1788350539104,3.6619718074798575,6.169013977050781,0.0008336862083524,-0.0205467492341995,0.1975998729467392,0.9800671339035034,0.1608793224545602,0.0039602660353184,2.588801176410599e-05,0.0096133928745985,-0.0021146438084542,0.2644450664520263,0.0038024075329303,-0.020021341741085,0.3403732180595398,0.9400694966316224,0.0078596762874368,0.0223051704921132,0.2717020978154787,0.1015010476112365,0.0759960412979126,-0.0185670852661132,14,392,10337,22825
26.6,1788350539204,4.366197109222412,5.915493011474609,0.0007810255046933,-0.0199400093406438,0.2038223594427108,0.9788045287132264,0.1608134466324507,0.0141256951492326,-5.468078538463211e-05,0.008735348470509,0.0258844569325447,0.281240850687027,0.0035872720181941,-0.0197273418307304,0.3507884442806244,0.936240017414093,-0.0006932119525677,0.0121446698631076,0.2139557278782149,0.1611889004707336,-0.0793480277061462,-0.0210189819335937,22,353,10462,21907
26.7,1788350539304,4.3380279541015625,6.169013977050781,0.0007447623647749,-0.0196546372026205,0.2163569778203964,0.9761162400245668,0.1608618438250727,0.005537842360571,-8.886379132717168e-05,0.0066828853450715,0.0140116205438971,0.2161119729280471,0.0032609133049845,-0.0185237918049097,0.3599908649921417,0.9327661991119384,0.0019277156912921,0.056933892172552,0.227926152123201,0.2273708581924438,-0.1330079436302185,0.3928060531616211,16,361,11145,21481
26.8,1788350539404,4.2816901206970215,5.943662166595459,0.0005377165507525,-0.018984381109476,0.2240718007087707,0.974387526512146,0.1635150764042022,0.0063249612001015,2.4124112009580157e-05,0.0049827336333692,-0.026192607358098,0.1924369931221008,0.0029354495927691,-0.0181585606187582,0.3714872002601623,0.9282557964324952,0.0042881337382564,0.0082783990314056,0.2039813736080081,0.0506520867347717,0.0286524891853332,-0.1064767837524414,69,353,10614,21460
26.9,1788350539504,4.197183132171631,5.746479034423828,0.0006666202098131,-0.018137689679861,0.2405304610729217,0.9704718589782716,0.1683005717310212,0.0057342918392435,4.255129197205625e-06,0.0143956700339913,-0.0009581128833815,0.2120641022920608,0.0031848661601543,-0.0176185388118028,0.3803306818008423,0.9246772527694702,0.0051585372735345,0.0185704483836992,0.2154776436080844,0.2047964334487915,0.1902399659156799,-0.0057754516601562,65,311,10777,21781
27.0,1788350539604,4.197183132171631,6.02816915512085,0.0007979262154549,-0.0173566546291112,0.2455923855304718,0.9692175388336182,0.1742660796899098,0.0026261138058059,-0.0001327607755881,0.016377530992031,0.0283845141530036,0.20921590924263,0.0034135151654481,-0.0172094646841287,0.388804942369461,0.9211530089378356,0.0073698065514531,0.0097305789562928,0.1932635316796606,-0.0834033489227294,-0.0686792135238647,-0.0947742462158203,86,304,10657,20562
