time_s,timestamp_ms,wheel_vels__velocity_left,wheel_vels__velocity_right,odom__orient_x,odom__orient_y,odom__orient_z,odom__orient_w,odom__lin_x,odom__lin_y,odom__lin_z,odom__ang_x,odom__ang_y,odom__ang_z,imu__orient_x,imu__orient_y,imu__orient_z,imu__orient_w,imu__angvel_x,imu__angvel_y,imu__angvel_z,imu__acc_x,imu__acc_y,imu__acc_z,wheel_status__current_ma_left,wheel_status__current_ma_right,wheel_status__pwm_left,wheel_status__pwm_right
0.0,1788353276793,0.0,0.0,-0.003401830792427,0.0048057800158858,-0.9682323336601256,0.2499829083681106,-2.2763838697339296e-05,2.666160953619266e-05,3.886958288790762e-07,-0.0009523257613182,0.0010668096365407,-0.0002596885897219,-0.0044750347733497,0.0038207387551665,-0.8792345523834229,0.4763529002666473,-0.0018867219570091,-0.0007514297083906,-0.0016465668981659,0.0225979685783386,0.0004072785377502,0.0040016174316406,0,0,0,0
0.1,1788353276893,0.0,0.0,-0.003401830792427,0.0048057800158858,-0.9682323336601256,0.2499829083681106,-2.2763838697339296e-05,2.666160953619266e-05,3.886958288790762e-07,-0.0009523257613182,0.0010668096365407,-0.0002596885897219,-0.0044750347733497,0.0038207387551665,-0.8792345523834229,0.4763529002666473,-0.0018867219570091,-0.0007514297083906,-0.0016465668981659,0.0225979685783386,0.0004072785377502,0.0040016174316406,0,0,0,0
0.2,1788353276993,0.0,0.0,-0.003401830792427,0.0048057800158858,-0.9682323336601256,0.2499829083681106,-2.2763838697339296e-05,2.666160953619266e-05,3.886958288790762e-07,-0.0009523257613182,0.0010668096365407,-0.0002596885897219,-0.0044750347733497,0.0038207387551665,-0.8792345523834229,0.4763529002666473,-0.0018867219570091,-0.0007514297083906,-0.0016465668981659,0.0225979685783386,0.0004072785377502,0.0040016174316406,0,0,0,0
0.3,1788353277093,0.0,0.0,-0.003401830792427,0.0048057800158858,-0.9682323336601256,0.2499829083681106,-2.2763838697339296e-05,2.666160953619266e-05,3.886958288790762e-07,-0.0009523257613182,0.0010668096365407,-0.0002596885897219,-0.0044750347733497,0.0038207387551665,-0.8792345523834229,0.4763529002666473,-0.0018867219570091,-0.0007514297083906,-0.0016465668981659,0.0225979685783386,0.0004072785377502,0.0040016174316406,0,0,0,0
0.4,1788353277193,0.0,0.0,-0.003401830792427,0.0048057800158858,-0.9682323336601256,0.2499829083681106,-2.2763838697339296e-05,2.666160953619266e-05,3.886958288790762e-07,-0.0009523257613182,0.0010668096365407,-0.0002596885897219,-0.0044750347733497,0.0038207387551665,-0.8792345523834229,0.4763529002666473,-0.0018867219570091,-0.0007514297083906,-0.0016465668981659,0.0225979685783386,0.0004072785377502,0.0040016174316406,0,0,0,0
0.5,1788353277293,0.0,0.0,-0.003401830792427,0.0048057800158858,-0.9682323336601256,0.2499829083681106,-2.2763838697339296e-05,2.666160953619266e-05,3.886958288790762e-07,-0.0009523257613182,0.0010668096365407,-0.0002596885897219,-0.0044750347733497,0.0038207387551665,-0.8792345523834229,0.4763529002666473,-0.0018867219570091,-0.0007514297083906,-0.0016465668981659,0.0225979685783386,0.0004072785377502,0.0040016174316406,0,0,0,0
0.6,1788353277393,0.0,0.0,-0.003401830792427,0.0048057800158858,-0.9682323336601256,0.2499829083681106,-2.2763838697339296e-05,2.666160953619266e-05,3.886958288790762e-07,-0.0009523257613182,0.0010668096365407,-0.0002596885897219,-0.0044750347733497,0.0038207387551665,-0.8792345523834229,0.4763529002666473,-0.0018867219570091,-0.0007514297083906,-0.0016465668981659,0.0225979685783386,0.0004072785377502,0.0040016174316406,0,0,0,0
0.7,1788353277493,0.0,0.0,-0.003401830792427,0.0048057800158858,-0.9682323336601256,0.2499829083681106,-2.2763838697339296e-05,2.666160953619266e-05,3.886958288790762e-07,-0.0009523257613182,0.0010668096365407,-0.0002596885897219,-0.0044750347733497,0.0038207387551665,-0.8792345523834229,0.4763529002666473,-0.0018867219570091,-0.0007514297083906,-0.0016465668981659,0.0225979685783386,0.0004072785377502,0.0040016174316406,0,0,0,0
0.8,1788353277593,0.0,0.0,-0.003401830792427,0.0048057800158858,-0.9682323336601256,0.2499829083681106,-2.2763838697339296e-05,2.666160953619266e-05,3.886958288790762e-07,-0.0009523257613182,0.0010668096365407,-0.0002596885897219,-0.0044750347733497,0.0038207387551665,-0.8792345523834229,0.4763529002666473,-0.0018867219570091,-0.0007514297083906,-0.0016465668981659,0.0225979685783386,0.0004072785377502,0.0040016174316406,0,0,0,0
0.9,1788353277693,0.0,0.0,-0.003401830792427,0.0048057800158858,-0.9682323336601256,0.2499829083681106,-2.2763838697339296e-05,2.666160953619266e-05,3.886958288790762e-07,-0.0009523257613182,0.0010668096365407,-0.0002596885897219,-0.0044750347733497,0.0038207387551665,-0.8792345523834229,0.4763529002666473,-0.0018867219570091,-0.0007514297083906,-0.0016465668981659,0.0225979685783386,0.0004072785377502,0.0040016174316406,0,0,0,0
1.0,1788353277793,0.0,0.0,-0.003401830792427,0.0048057800158858,-0.9682323336601256,0.2499829083681106,-2.2763838697339296e-05,2.666160953619266e-05,3.886958288790762e-07,-0.0009523257613182,0.0010668096365407,-0.0002596885897219,-0.0044750347733497,0.0038207387551665,-0.8792345523834229,0.4763529002666473,-0.0018867219570091,-0.0007514297083906,-0.0016465668981659,0.0225979685783386,0.0004072785377502,0.0040016174316406,0,0,0,0
1.1,1788353277893,0.0,0.0,-0.003401830792427,0.0048057800158858,-0.9682323336601256,0.2499829083681106,-2.2763838697339296e-05,2.666160953619266e-05,3.886958288790762e-07,-0.0009523257613182,0.0010668096365407,-0.0002596885897219,-0.0044750347733497,0.0038207387551665,-0.8792345523834229,0.4763529002666473,-0.0018867219570091,-0.0007514297083906,-0.0016465668981659,0.0225979685783386,0.0004072785377502,0.0040016174316406,0,0,0,0
1.2,1788353277993,0.0,0.0,-0.003401830792427,0.0048057800158858,-0.9682323336601256,0.2499829083681106,-2.2763838697339296e-05,2.666160953619266e-05,3.886958288790762e-07,-0.0009523257613182,0.0010668096365407,-0.0002596885897219,-0.0044750347733497,0.0038207387551665,-0.8792345523834229,0.4763529002666473,-0.0018867219570091,-0.0007514297083906,-0.0016465668981659,0.0225979685783386,0.0004072785377502,0.0040016174316406,0,0,0,0
1.3,1788353278093,0.0,0.0,-0.003401830792427,0.0048057800158858,-0.9682323336601256,0.2499829083681106,-2.2763838697339296e-05,2.666160953619266e-05,3.886958288790762e-07,-0.0009523257613182,0.0010668096365407,-0.0002596885897219,-0.0044750347733497,0.0038207387551665,-0.8792345523834229,0.4763529002666473,-0.0018867219570091,-0.0007514297083906,-0.0016465668981659,0.0225979685783386,0.0004072785377502,0.0040016174316406,0,0,0,0
1.4,1788353278193,0.0,0.0,-0.003401830792427,0.0048057800158858,-0.9682323336601256,0.2499829083681106,-2.2763838697339296e-05,2.666160953619266e-05,3.886958288790762e-07,-0.0009523257613182,0.0010668096365407,-0.0002596885897219,-0.0044750347733497,0.0038207387551665,-0.8792345523834229,0.4763529002666473,-0.0018867219570091,-0.0007514297083906,-0.0016465668981659,0.0225979685783386,0.0004072785377502,0.0040016174316406,0,0,0,0
1.5,1788353278293,0.0,0.0,-0.003401830792427,0.0048057800158858,-0.9682323336601256,0.2499829083681106,-2.2763838697339296e-05,2.666160953619266e-05,3.886958288790762e-07,-0.0009523257613182,0.0010668096365407,-0.0002596885897219,-0.0044750347733497,0.0038207387551665,-0.8792345523834229,0.4763529002666473,-0.0018867219570091,-0.0007514297083906,-0.0016465668981659,0.0225979685783386,0.0004072785377502,0.0040016174316406,0,0,0,0
1.6,1788353278393,0.0,0.0,-0.003401830792427,0.0048057800158858,-0.9682323336601256,0.2499829083681106,-2.2763838697339296e-05,2.666160953619266e-05,3.886958288790762e-07,-0.0009523257613182,0.0010668096365407,-0.0002596885897219,-0.0044750347733497,0.0038207387551665,-0.8792345523834229,0.4763529002666473,-0.0018867219570091,-0.0007514297083906,-0.0016465668981659,0.0225979685783386,0.0004072785377502,0.0040016174316406,0,0,0,0
1.7,1788353278493,0.0,0.0,-0.003401830792427,0.0048057800158858,-0.9682323336601256,0.2499829083681106,-2.2763838697339296e-05,2.666160953619266e-05,3.886958288790762e-07,-0.0009523257613182,0.0010668096365407,-0.0002596885897219,-0.0044750347733497,0.0038207387551665,-0.8792345523834229,0.4763529002666473,-0.0018867219570091,-0.0007514297083906,-0.0016465668981659,0.0225979685783386,0.0004072785377502,0.0040016174316406,0,0,0,0
1.8,1788353278593,0.0,0.0,-0.003401830792427,0.0048057800158858,-0.9682323336601256,0.2499829083681106,-2.2763838697339296e-05,2.666160953619266e-05,3.886958288790762e-07,-0.0009523257613182,0.0010668096365407,-0.0002596885897219,-0.0044750347733497,0.0038207387551665,-0.8792345523834229,0.4763529002666473,-0.0018867219570091,-0.0007514297083906,-0.0016465668981659,0.0225979685783386,0.0004072785377502,0.0040016174316406,0,0,0,0
1.9,1788353278693,0.0,0.0,-0.003401830792427,0.0048057800158858,-0.9682323336601256,0.2499829083681106,-2.2763838697339296e-05,2.666160953619266e-05,3.886958288790762e-07,-0.0009523257613182,0.0010668096365407,-0.0002596885897219,-0.0044750347733497,0.0038207387551665,-0.8792345523834229,0.4763529002666473,-0.0018867219570091,-0.0007514297083906,-0.0016465668981659,0.0225979685783386,0.0004072785377502,0.0040016174316406,0,0,0,0
2.0,1788353278793,0.0,0.0,-0.003401830792427,0.0048057800158858,-0.9682323336601256,0.2499829083681106,-2.2763838697339296e-05,2.666160953619266e-05,3.886958288790762e-07,-0.0009523257613182,0.0010668096365407,-0.0002596885897219,-0.0044750347733497,0.0038207387551665,-0.8792345523834229,0.4763529002666473,-0.0018867219570091,-0.0007514297083906,-0.0016465668981659,0.0225979685783386,0.0004072785377502,0.0040016174316406,0,0,0,0
2.1,1788353278893,0.0,0.0,-0.003401830792427,0.0048057800158858,-0.9682323336601256,0.2499829083681106,-2.2763838697339296e-05,2.666160953619266e-05,3.886958288790762e-07,-0.0009523257613182,0.0010668096365407,-0.0002596885897219,-0.0044750347733497,0.0038207387551665,-0.8792345523834229,0.4763529002666473,-0.0018867219570091,-0.0007514297083906,-0.0016465668981659,0.0225979685783386,0.0004072785377502,0.0040016174316406,0,0,0,0
2.2,1788353278993,0.0,0.0,-0.003401830792427,0.0048057800158858,-0.9682323336601256,0.2499829083681106,-2.2763838697339296e-05,2.666160953619266e-05,3.886958288790762e-07,-0.0009523257613182,0.0010668096365407,-0.0002596885897219,-0.0044750347733497,0.0038207387551665,-0.8792345523834229,0.4763529002666473,-0.0018867219570091,-0.0007514297083906,-0.0016465668981659,0.0225979685783386,0.0004072785377502,0.0040016174316406,0,0,0,0
2.3,1788353279093,0.0,0.0,-0.003401830792427,0.0048057800158858,-0.9682323336601256,0.2499829083681106,-2.2763838697339296e-05,2.666160953619266e-05,3.886958288790762e-07,-0.0009523257613182,0.0010668096365407,-0.0002596885897219,-0.0044750347733497,0.0038207387551665,-0.8792345523834229,0.4763529002666473,-0.0018867219570091,-0.0007514297083906,-0.0016465668981659,0.0225979685783386,0.0004072785377502,0.0040016174316406,0,0,0,0
2.4,1788353279193,0.0,0.0,-0.003401830792427,0.0048057800158858,-0.9682323336601256,0.2499829083681106,-2.2763838697339296e-05,2.666160953619266e-05,3.886958288790762e-07,-0.0009523257613182,0.0010668096365407,-0.0002596885897219,-0.0044750347733497,0.0038207387551665,-0.8792345523834229,0.4763529002666473,-0.0018867219570091,-0.0007514297083906,-0.0016465668981659,0.0225979685783386,0.0004072785377502,0.0040016174316406,0,0,0,0
2.5,1788353279293,0.0,0.0,-0.003401830792427,0.0048057800158858,-0.9682323336601256,0.2499829083681106,-2.2763838697339296e-05,2.666160953619266e-05,3.886958288790762e-07,-0.0009523257613182,0.0010668096365407,-0.0002596885897219,-0.0044750347733497,0.0038207387551665,-0.8792345523834229,0.4763529002666473,-0.0018867219570091,-0.0007514297083906,-0.0016465668981659,0.0225979685783386,0.0004072785377502,0.0040016174316406,0,0,0,0
2.6,1788353279393,0.0,0.0,-0.003401830792427,0.0048057800158858,-0.9682323336601256,0.2499829083681106,-2.2763838697339296e-05,2.666160953619266e-05,3.886958288790762e-07,-0.0009523257613182,0.0010668096365407,-0.0002596885897219,-0.0044750347733497,0.0038207387551665,-0.8792345523834229,0.4763529002666473,-0.0018867219570091,-0.0007514297083906,-0.0016465668981659,0.0225979685783386,0.0004072785377502,0.0040016174316406,0,0,0,0
2.7,1788353279493,0.0,0.0,-0.003401830792427,0.0048057800158858,-0.9682323336601256,0.2499829083681106,-2.2763838697339296e-05,2.666160953619266e-05,3.886958288790762e-07,-0.0009523257613182,0.0010668096365407,-0.0002596885897219,-0.0044750347733497,0.0038207387551665,-0.8792345523834229,0.4763529002666473,-0.0018867219570091,-0.0007514297083906,-0.0016465668981659,0.0225979685783386,0.0004072785377502,0.0040016174316406,0,0,0,0
2.8,1788353279593,0.0,0.0,-0.003401830792427,0.0048057800158858,-0.9682323336601256,0.2499829083681106,-2.2763838697339296e-05,2.666160953619266e-05,3.886958288790762e-07,-0.0009523257613182,0.0010668096365407,-0.0002596885897219,-0.0044750347733497,0.0038207387551665,-0.8792345523834229,0.4763529002666473,-0.0018867219570091,-0.0007514297083906,-0.0016465668981659,0.0225979685783386,0.0004072785377502,0.0040016174316406,0,0,0,0
2.9,1788353279693,0.0,0.0,-0.003401830792427,0.0048057800158858,-0.9682323336601256,0.2499829083681106,-2.2763838697339296e-05,2.666160953619266e-05,3.886958288790762e-07,-0.0009523257613182,0.0010668096365407,-0.0002596885897219,-0.0044750347733497,0.0038207387551665,-0.8792345523834229,0.4763529002666473,-0.0018867219570091,-0.0007514297083906,-0.0016465668981659,0.0225979685783386,0.0004072785377502,0.0040016174316406,0,0,0,0
3.0,1788353279793,0.0,0.0,-0.003401830792427,0.0048057800158858,-0.9682323336601256,0.2499829083681106,-2.2763838697339296e-05,2.666160953619266e-05,3.886958288790762e-07,-0.0009523257613182,0.0010668096365407,-0.0002596885897219,-0.0044750347733497,0.0038207387551665,-0.8792345523834229,0.4763529002666473,-0.0018867219570091,-0.0007514297083906,-0.0016465668981659,0.0225979685783386,0.0004072785377502,0.0040016174316406,0,0,0,0
3.1,1788353279893,0.0,0.0,-0.003401830792427,0.0048057800158858,-0.9682323336601256,0.2499829083681106,-2.2763838697339296e-05,2.666160953619266e-05,3.886958288790762e-07,-0.0009523257613182,0.0010668096365407,-0.0002596885897219,-0.0044750347733497,0.0038207387551665,-0.8792345523834229,0.4763529002666473,-0.0018867219570091,-0.0007514297083906,-0.0016465668981659,0.0225979685783386,0.0004072785377502,0.0040016174316406,0,0,0,0
3.2,1788353279993,0.0,0.0,-0.003401830792427,0.0048057800158858,-0.9682323336601256,0.2499829083681106,-2.2763838697339296e-05,2.666160953619266e-05,3.886958288790762e-07,-0.0009523257613182,0.0010668096365407,-0.0002596885897219,-0.0044515477493405,0.0038216970860958,-0.8792247772216797,0.4763709902763366,0.0015090815053912,-7.986704670453497e-05,0.0014659867718259,-0.0091975331306457,0.0382577776908874,0.0063400268554687,0,0,0,0
3.3,1788353280093,0.0,0.0,-0.0034171938896179,0.0047784391790628,-0.968235194683075,0.2499723583459854,-0.0001164480973644,0.0001335672330794,1.951760454826866e-06,-1.1221254681004211e-05,-0.0008278079912997,-0.001350624137558,-0.0044332714751362,0.0038366205990314,-0.8792258501052856,0.476369172334671,-0.0004144514595073,0.0004327852990679,0.0018122841241938,-0.0361331105232238,0.0092766880989074,-0.0204639434814453,0,0,0,0
3.4,1788353280193,0.0,0.0,-0.0034177852794528,0.0047867097891867,-0.9682290554046632,0.2499959021806717,8.430274464784338e-05,-9.67544754778493e-05,-1.410452216380652e-06,-0.000760952301789,-0.0010755934054031,0.0009636635077185,-0.0044412976130843,0.0038114720955491,-0.8792501091957092,0.4763244986534118,0.0012413280939746,0.0018123444302396,-0.0020668287396677,0.0279263854026794,-0.0074442625045776,-0.0243215560913085,0,0,0,0
3.5,1788353280293,0.0,0.0,-0.0033812345936894,0.0047705639153718,-0.968238115310669,0.2499618679285049,3.080298277027831e-05,-3.5214428843624815e-05,-5.137776280474475e-07,0.000101846679172,0.0003206748806405,0.0003543914936017,-0.0044562378898262,0.0037932656705379,-0.8792476058006287,0.4763291180133819,-0.0005976458972507,0.0003309627473753,-0.0008325388060683,0.0126876235008239,-0.0106627345085144,0.0053138732910156,0,0,0,0
3.6,1788353280393,0.0,0.0,-0.0034156865440309,0.0047594830393791,-0.9682450890541076,0.2499343007802963,-0.0004330172358075,1.394159095731744e-05,1.985443120916885e-06,0.0001482839288655,-4.7052904847078025e-05,-0.000271667522611,-0.0044653555378317,0.0038017304614186,-0.8792535662651062,0.4763179123401642,-0.0008297665653147,0.0006612393324581,5.94177943062216e-05,0.0250213146209716,0.0258103013038635,-0.0081386566162109,0,0,0,0
3.7,1788353280493,0.0,0.0,-0.0034215210471302,0.0047572236508131,-0.9682421684265136,0.24994558095932,0.0,0.0,0.0,0.0,9.583325244477692e-09,0.0,-0.0044782012701034,0.0037780264392495,-0.8792498111724854,0.4763250052928924,0.0006156704305612,-0.0009042845660786,0.0018325745777057,-0.0038697719573974,0.011023461818695,0.0093774795532226,0,0,0,0
3.8,1788353280593,0.0,0.0,-0.0034776697866618,0.0047545116394758,-0.9682401418685912,0.2499526143074035,9.4015736432017e-05,-0.0001072777245371,-1.5719401108519658e-06,-0.0003461143642198,-0.0021913305390626,0.0010502316290512,-0.0045142071321606,0.0037817144766449,-0.8792611360549927,0.4763036668300628,-0.0002805318752768,0.0012239780734523,-0.0012813432694249,0.0122681260108947,-0.0317144989967346,-0.0213661193847656,0,0,0,0
3.9,1788353280693,0.0,0.0,-0.0034636459313333,0.0047474619932472,-0.968237042427063,0.2499651908874511,0.0001055146938913,-0.0001207719677037,-1.776638973471073e-06,0.0005716412561014,-0.0006980954785831,0.0012027991469949,-0.0045443261042237,0.0037818411365151,-0.8792505264282227,0.4763230979442596,-0.000625957645942,0.0001065384692296,-0.0011881004983587,0.0084164142608642,0.0008043050765991,-0.0050315856933593,0,0,0,0
4.0,1788353280793,0.0,0.0,-0.0035026082769036,0.004764124751091,-0.968235969543457,0.2499681115150451,6.701916210668764e-05,-7.657103139789059e-05,4.255012139169147e-06,6.734815542586148e-05,-0.0002909507602453,0.0007619457319378,-0.0045952955260872,0.0037613119930028,-0.8792235851287842,0.4763723015785217,-7.076374864137978e-05,-0.0020910015641045,0.0007508128861236,-0.0098403692245483,0.0223034620285034,-0.0018320083618164,0,0,0,0
4.1,1788353280893,0.0,0.0,-0.0035392781719565,0.004767632111907,-0.9682285785675048,0.2499962598085403,0.0001041838510604,-0.0001189891039889,3.0722508466694597e-06,-0.0005071301711723,-0.00141147011891,0.0011740964837372,-0.0045904349535703,0.0037446683272719,-0.8792235851287842,0.4763725996017456,0.0010645008308613,-0.0013776649872255,0.0013014858900571,-0.0096911191940307,-0.0018776059150695,-0.0003566741943359,0,0,0,0
4.2,1788353280993,0.0,0.0,-0.0035505504347383,0.0047421744093298,-0.9682260155677797,0.2500063776969909,-0.0004463228421339,-1.437764178548648e-05,1.852957852494112e-06,0.0,0.0,0.0,-0.004567040130496,0.0037373881787061,-0.8792288899421692,0.4763631522655487,0.0007206315380116,0.0017812001070662,5.8774592528831525e-05,-0.0270715951919555,-0.0438644886016845,0.0226421356201171,0,0,0,0
4.3,1788353281093,0.0,0.0,-0.0035085645504295,0.0047380225732922,-0.9682223796844482,0.25002121925354,0.0005510948552983,-0.0001024814774672,1.7170576971511912e-06,-0.0001633174397284,0.0017322410130873,0.0011898783268406,-0.0045632841065526,0.0037550535053014,-0.8792232871055603,0.4763732552528381,-0.0007799349470646,-0.0004202542039415,-0.000627569529919,0.0180516242980957,-0.0115261673927307,-0.0220756530761718,0,0,0,0
4.4,1788353281193,0.0,0.0,-0.0034958289470523,0.004756533075124,-0.968225121498108,0.2500104308128357,-3.8857930554632425e-05,4.507997110507187e-05,6.646846814488302e-07,-0.0006012055091559,0.0006931129610165,-0.0004484530654735,-0.0045403866097331,0.0037957224994897,-0.8792245984077454,0.4763706028461456,-0.0017644755014389,-0.0001491388503123,-0.0009743737812269,-0.003304898738861,-0.0186318159103393,-0.0003128051757812,0,0,0,0
4.5,1788353281293,0.0,0.0,-0.003493892494589,0.0047953682951629,-0.9682304859161376,0.2499891072511673,-7.41542164744242e-05,8.53860946453976e-05,1.261436168443896e-06,-0.0014557824470102,0.0004584694106597,-0.0008556709508411,-0.0045198323205113,0.0037752194330096,-0.8792197704315186,0.4763800501823425,0.0028024465206231,-0.0013218526793211,0.0020112779953068,-0.0110169649124145,0.0112976431846618,0.0213212966918945,0,0,0,0
4.6,1788353281393,0.0,0.0,-0.0034698548261076,0.0047452361322939,-0.968223512172699,0.2500174343585968,-0.0004612157828994,-1.4846506163059367e-05,1.8425761803361536e-06,0.0,-1.0678179229728356e-08,0.0,-0.0044917846098542,0.0037746615707874,-0.8792288303375244,0.4763635396957397,-0.000234769458151,0.0007529320783289,-0.0002958765156778,-0.007472813129425,-0.0283898115158081,0.0332136154174804,0,0,0,0
4.7,1788353281493,0.0,0.0,-0.0034390622749924,0.0047430447302758,-0.9682198166847228,0.2500321567058563,0.0005824519337615,-0.000147676013555,1.1054164023859082e-06,0.0002842500980477,0.0003040115116164,0.0016212315531447,-0.0045217927545309,0.0037535242736339,-0.8792181611061096,0.4763831198215484,7.921138398562987e-05,-0.002386138476415,-0.000537849224191,0.0148600935935974,0.0078712701797485,0.0203781127929687,0,0,0,0
4.8,1788353281593,0.0,0.0,-0.0034860810264945,0.0047357091680169,-0.9682204127311708,0.2500293552875519,-9.327818203476957e-06,1.0708214138911543e-05,1.5677207323823084e-07,-0.0001897587790153,-0.001927523757331,-0.0001267965562874,-0.0045398958027362,0.0037263901904225,-0.8792144060134888,0.4763901531696319,0.000389626356359,-0.0015512217155551,-0.000480924553519,0.0075631141662597,0.0115218162536621,-0.0157737731933593,0,0,0,0
4.9,1788353281693,0.0,0.0,-0.0035198209807276,0.0047051603905856,-0.9682218432426452,0.2500238716602325,-1.870719066856501e-05,2.149429798800376e-05,3.165869269060696e-07,0.0008254238055087,-0.0015733186155557,-0.0002316774916835,-0.0045469384640455,0.0037465933710336,-0.879215657711029,0.4763875603675842,-0.0002839880825491,0.0005126110888169,0.0009352590854089,-0.0125070810317993,0.0187705159187316,0.019902229309082,0,0,0,0
5.0,1788353281793,0.0,0.0,-0.003520926926285,0.0047212736681103,-0.9682230353355408,0.2500188648700714,-0.0004854995825798,5.219360018767087e-06,2.2076295074258054e-06,-0.0001759248407324,-0.0006398331024684,-0.0002185240155085,-0.004536872729659,0.0037835668772459,-0.87921541929245,0.4763877987861633,-0.0012872422782862,0.0009928316176127,0.0014783334143002,-0.0033918619155883,-0.0098841786384582,0.0087165832519531,0,0,0,0
5.1,1788353281893,0.0,0.0,-0.003490989562124,0.0047673066146671,-0.9682234525680542,0.2500167787075043,-5.071968889648101e-05,5.8128602853579085e-05,8.600388128912472e-07,8.454669296042994e-05,-0.000124126279843,-0.0005861606332473,-0.004526812583208,0.0037985816597938,-0.8792232275009155,0.4763733744621277,-0.0005105269122731,0.0011788908400742,-0.0006581069783976,0.0148309469223022,0.0184646248817443,-0.0049819946289062,0,0,0,0
5.2,1788353281993,0.0,0.0,-0.0034701337572187,0.0047544273547828,-0.9682217240333556,0.2500240802764892,6.267784004590268e-05,-7.126843872672693e-05,3.772179014813432e-06,0.0010276190005242,-3.2113683118950576e-05,0.0007090278668329,-0.004519117064774,0.0037496872246265,-0.8792319893836975,0.476357638835907,-0.0009067692490491,0.0003665588133975,-0.0021837319079397,0.0164906978607177,0.0133925676345825,-0.0076713562011718,0,0,0,0
5.3,1788353282093,0.0,0.0,-0.0034337812103331,0.0047450722195208,-0.9682319164276124,0.249985471367836,0.0002747820277208,0.0001868002244432,8.293975443657587e-07,-0.0006231698207557,0.0021057017147541,-0.001715297345072,-0.0044693229719996,0.0037540029734373,-0.8792246580123901,0.4763715863227844,0.0009552522985783,-0.0003999465143999,0.0007673350605156,0.0084329843521118,0.0349692702293396,-0.0392360687255859,0,0,0,0
5.4,1788353282193,0.0,0.0,-0.0034513655118644,0.0047128424048423,-0.9682300686836244,0.2499928027391433,-0.0003544720401796,2.872296500981876e-05,1.830055500510656e-06,0.0001175183715531,-0.0007068253471516,-0.0004029540577903,-0.0044688554480671,0.003745294176042,-0.8792388439178467,0.4763455688953399,0.0001993623113488,0.0017771638500734,-0.0002883168984506,-0.001148521900177,-0.0242089033126831,0.0024175643920898,0,0,0,0
5.5,1788353282293,0.0,0.0,-0.0034738760441541,0.0046819415874779,-0.9682285785675048,0.249998927116394,3.419610309092375e-05,-3.897888577800542e-05,-5.676258184860833e-07,6.560477777384222e-05,-0.0021202913485467,0.0003671487211249,-0.0044958479702472,0.0037274165078997,-0.8792334198951721,0.4763555824756622,-0.0004118169552263,0.0009074550649151,-0.0002993932353433,-0.0452248454093933,-0.0021160244941711,0.0008811950683593,0,0,0,0
5.6,1788353282393,0.0,0.0,-0.0034378943964838,0.0046938913874328,-0.9682287573814392,0.249998465180397,3.3844202933503826e-05,-3.8523880182668894e-05,-5.649926718187428e-07,0.0004751987871713,0.0011060737306252,0.0003978876047767,-0.0044639278203248,0.0037315255030989,-0.8792284727096558,0.47636479139328,-0.0018677920800669,0.0004522930150828,-0.0008303253134446,0.0224146246910095,0.0087247490882873,-0.0079832077026367,0,0,0,0
5.7,1788353282493,0.0,0.0,-0.0033677304163575,0.0047255465760827,-0.9682315587997437,0.2499881386756897,0.0003389652053545,0.000106625294254,-3.131128303876333e-07,-0.0015935021219775,0.0031191753223538,-0.0009065090562216,-0.0044192969799041,0.0037478385493159,-0.8792198896408081,0.4763809740543365,0.0006617585815977,-0.0013832241046501,0.0013655106184007,0.0091447234153747,0.0246060490608215,0.0018320083618164,0,0,0,0
5.8,1788353282593,0.0,0.0,-0.0033936793915927,0.0047028744593262,-0.9682310223579408,0.2499901801347732,-0.0005506631353892,7.966339568386213e-05,3.1749530295516004e-06,-5.2452531235758215e-05,-0.0004025769594591,-0.0009589337278157,-0.004420792683959,0.003718533553183,-0.879233717918396,0.4763557314872741,0.0015288750874135,-0.0008125958266718,0.0009470234819839,0.008563756942749,0.0239346027374267,0.0179262161254882,0,0,0,0
5.9,1788353282693,0.0,0.0,-0.003398228669539,0.0046728909946978,-0.968232274055481,0.2499858289957046,0.00033102499581,-2.9455497734491204e-05,1.802630547814804e-06,0.0007153151091188,-0.0005514242220669,0.0003807402099482,-0.0044029271230101,0.003727464005351,-0.8792352080345154,0.4763530790805816,0.0001349752079489,0.0012435536324573,0.0002186187045524,-0.0144683122634887,-0.0408399701118469,-0.0080480575561523,0,0,0,0
6.0,1788353282793,0.0,0.0,-0.0033610595855861,0.0046766051091253,-0.9682285785675048,0.2500005960464477,5.981776974357954e-05,-6.816428404497402e-05,3.754372504735437e-06,0.0003542955091688,0.0007780839223414,0.0006859697168692,-0.0044161966070532,0.0037255771458148,-0.8792365193367004,0.4763503968715668,-0.0004828210693541,-0.0016956089067081,-0.0013766721243306,-0.0021212697029113,0.0029895305633544,0.0294408798217773,0,0,0,0
6.1,1788353282893,0.0,0.0,-0.003339325543493,0.0047343913465738,-0.9682337641716005,0.2499798685312271,-7.128114692106745e-05,8.125378525198722e-05,1.172296307246222e-06,-0.0016957891639322,0.0017662596656009,-0.0007950998260639,-0.0044050132855772,0.0037923688068985,-0.8792186975479126,0.4763828217983246,-0.0009247382026101,-0.0011342517338134,0.0025459674250018,-0.0080983042716979,0.0047851204872131,-0.0050926208496093,0,0,0,0
6.2,1788353282993,0.0,0.0,-0.0033663855865597,0.0047592464834451,-0.9682327508926392,0.2499827593564987,-0.0001029379809151,0.0001180499030165,1.708209316001858e-06,-0.0005695823347195,-0.0001001573546091,-0.0011868646834045,-0.0044103944674134,0.0037931399419903,-0.8792362809181213,0.4763504862785339,0.0010588468261451,-0.0003931760474244,0.0004405328956327,-0.0042378902435302,0.0051701068878173,0.0034399032592773,0,0,0,0
6.3,1788353283093,0.0,0.0,-0.0034024727065116,0.0047545242123305,-0.968239963054657,0.2499543726444244,0.0002769615557779,0.0001562101918309,5.414785283687735e-07,-0.0007788463844917,-0.0007134246407076,-0.0014450839953497,-0.0044120429083704,0.0038167629390954,-0.8792542219161987,0.4763172268867492,-0.0002252828551037,0.0028878212705631,-0.0006302726269505,0.0010080337524414,-0.0466546416282653,-0.0057401657104492,0,0,0,0
6.4,1788353283193,0.0,0.0,-0.0033910889178514,0.0047376076690852,-0.9682375192642212,0.2499642819166183,3.5459547390505936e-05,-4.0870885271231504e-05,-5.952142770691188e-07,0.0007813708507455,0.0002735733869485,0.0004143819387536,-0.0044541480019688,0.003764915280044,-0.8792542219161987,0.4763172566890716,9.1803298998689e-05,-0.0012560748030579,-0.0011376339404224,0.0085330605506896,-0.0057591795921325,0.0124340057373046,0,0,0,0
6.5,1788353283293,0.0,0.0,-0.0034045544452965,0.0047584529966115,-0.9682448506355286,0.2499353140592575,-0.0001049371174879,0.0001204913421398,1.7503637750418896e-06,-0.0009594447910785,-0.0003114676219411,-0.001213364303112,-0.0044677378609776,0.0037433234974741,-0.8792360424995422,0.4763508439064026,0.0005906035232507,-0.0017986213235275,0.0002305810667136,0.0032323598861694,0.0032885670661926,-0.012892723083496,0,0,0,0
6.6,1788353283393,0.0,0.0,-0.0034045544452965,0.0047584529966115,-0.9682448506355286,0.2499353140592575,0.0,0.0,0.0,0.0,0.0,0.0,-0.0044132582843303,0.0037774480879306,-0.8792426586151123,0.4763387739658355,0.0004347486158606,0.0010770404231654,0.0009454753184414,0.0047522187232971,0.0176452994346618,0.0015726089477539,0,0,0,0
6.7,1788353283493,0.0,0.0,-0.003375431522727,0.0047617377713322,-0.9682373404502868,0.2499649226665496,-1.128133427401607e-06,1.4744583372035691e-06,2.072205373992712e-08,-0.0008421586826443,0.0004451322893146,-1.2332116966717876e-05,-0.0043961098417639,0.0038273902609944,-0.8792452216148376,0.4763337075710296,-0.001065999009514,0.0040425536025327,-0.0001254887809292,-0.010598599910736,-0.0071862936019897,-0.021484375,0,0,0,0
6.8,1788353283593,0.0,0.0,-0.0033182930201292,0.0048076193779706,-0.968230128288269,0.2499926835298538,0.0001164013654732,-0.0001334890408952,-1.933148960719704e-06,-0.0006478826398961,0.0008436743519268,0.0013517488259822,-0.0043903021141886,0.0038800425827503,-0.8792409896850586,0.4763411283493042,-0.0003327247363729,0.0013064738179846,-0.0008305591167538,0.0242834687232971,-0.0088438987731933,0.0126876831054687,0,0,0,0
6.9,1788353283693,0.0,0.0,-0.0033039301633834,0.0048290072008967,-0.9682348370552064,0.2499741464853286,-6.791726118438096e-05,7.779725681314753e-05,1.1265877342361148e-06,-0.000698710384313,0.0007883628131821,-0.0007737320847809,-0.0043575819581747,0.0038598803803324,-0.879241406917572,0.4763410687446594,-0.0001429803813005,-0.0005719669815982,-0.0007913035826419,0.0071440935134887,0.0156823992729187,-0.0014028549194335,0,0,0,0
7.0,1788353283793,0.0,0.0,-0.0033010630868375,0.0047918171621859,-0.9682384133338928,0.2499608248472213,0.0,0.0,0.0,0.0,0.0,0.0,-0.0043148016557097,0.003859631717205,-0.8792568445205688,0.4763126671314239,0.0010186896060133,-0.0002302663725961,0.0004069766231518,-0.0045843720436096,0.0126914978027343,-0.0045890808105468,0,0,0,0
7.1,1788353283893,0.0,0.0,-0.0033010630868375,0.0047918171621859,-0.9682384133338928,0.2499608248472213,0.0,0.0,0.0,0.0,0.0,0.0,-0.004280462861061,0.0038558775559067,-0.8792721033096313,0.4762850701808929,0.0003702769366542,0.001764584934536,-0.0001168821108059,0.0202605724334716,0.0117900967597961,0.0075635910034179,0,0,0,0
7.2,1788353283993,0.0,0.0,-0.0032688369974493,0.0047320276498794,-0.96825110912323,0.2499133646488189,-0.0001700683144612,0.0001947281692899,-1.9114513640134047e-06,0.0026069262530654,0.0006542755872942,-0.001946143223904,-0.0043576397001743,0.0037976177409291,-0.8792743682861328,0.4762806296348572,-0.0007205592265459,-0.0008034223838967,-0.0002287748255943,0.0123224258422851,-0.0161440968513488,-0.0203180313110351,0,0,0,0
7.3,1788353284093,0.0,0.0,-0.0032688369974493,0.0047320276498794,-0.96825110912323,0.2499133646488189,0.0,0.0,0.0,0.0,9.222297592259563e-09,0.0,-0.004380433820188,0.0037709949538111,-0.8792616724967957,0.4763039648532867,-0.000573934196648,-0.0013958296215138,-0.000785500066334,0.0026353597640991,0.0089232921600341,-0.0081415176391601,0,0,0,0
7.4,1788353284193,0.0,0.0,-0.0032789162360131,0.0047335932031273,-0.9682552218437196,0.2498972564935684,-9.49590568465778e-05,0.0001090536420087,1.5541070681360306e-06,-0.0002688425593078,-0.0006131037953309,-0.0011018328368663,-0.0043196519836783,0.0038155699148774,-0.8792633414268494,0.4763012230396271,-0.0008610510910148,0.0003904756248578,0.0016646688430947,-4.827976226806641e-06,0.022265076637268,0.0043315887451171,0,0,0,0
7.5,1788353284293,0.0,0.0,-0.0032789162360131,0.0047335932031273,-0.9682552218437196,0.2498972564935684,0.0,0.0,0.0,0.0,-9.142665291506093e-09,0.0,-0.0042816121131181,0.0038423845544457,-0.8792657256126404,0.4762968719005584,0.0008335897947635,1.7959602385647245e-05,0.0014279310233977,-0.0044926404953002,0.0335439443588256,0.0190620422363281,0,0,0,0
7.6,1788353284393,0.0,0.0,-0.0032789162360131,0.0047335932031273,-0.9682552218437196,0.2498972564935684,0.0,0.0,0.0,0.0,-9.579974147300165e-09,0.0,-0.0043008234351873,0.0038188677281141,-0.8792785406112671,0.4762732982635498,-0.0002454878430333,0.001208109321325,-0.0009340791487596,0.0108731389045715,-0.0347388386726379,-0.0129776000976562,0,0,0,0
7.7,1788353284493,0.0,0.0,-0.0032789162360131,0.0047335932031273,-0.9682552218437196,0.2498972564935684,0.0,0.0,0.0,0.0,-9.443759552141272e-09,0.0,-0.0043727327138185,0.0037600789219141,-0.8792592883110046,0.4763085544109344,0.0001601567374561,-0.0023239000647757,-0.0001250994170054,-0.0053745508193969,-0.0321182608604431,0.0105972290039062,0,0,0,0
7.8,1788353284593,0.0,0.0,-0.0032789162360131,0.0047335932031273,-0.9682552218437196,0.2498972564935684,0.0,0.0,0.0,0.0,-1.1582711678670421e-08,0.0,-0.0043871235102415,0.0037674009799957,-0.8792564868927002,0.4763136804103851,0.0004570946523359,-0.0011632367375269,-0.000285240164625,-0.0073074102401733,0.005623459815979,0.0072107315063476,0,0,0,0
7.9,1788353284693,0.0,0.0,-0.0032789162360131,0.0047335932031273,-0.9682552218437196,0.2498972564935684,0.0,0.0,0.0,0.0,-9.309217396946678e-09,0.0,-0.0044210944324731,0.0037692673504352,-0.8792640566825867,0.4762992560863495,0.0002303345814921,-0.0001468307879614,0.0004087407326609,-0.0109951496124267,0.012043297290802,-0.0194282531738281,0,0,0,0
8.0,1788353284793,0.0,0.0,-0.0032789162360131,0.0047335932031273,-0.9682552218437196,0.2498972564935684,0.0,0.0,0.0,0.0,-9.310912041371466e-09,0.0,-0.0044802138581871,0.0037652384489774,-0.8792626261711121,0.4763012826442718,-0.0007214637106411,-0.0007601843692574,-0.0015364962723345,-0.0061718821525573,-0.0136948227882385,-0.0027570724487304,0,0,0,0
8.1,1788353284893,0.0,0.0,-0.0032789162360131,0.0047335932031273,-0.9682552218437196,0.2498972564935684,0.0,0.0,0.0,0.0,-9.229338182592528e-09,0.0,-0.0045070387423038,0.0037613557651638,-0.8792673945426941,0.4762923419475555,-0.0004036112358093,-0.0016156659868276,-0.0006661115971002,0.0295935273170471,-0.0182467699050903,0.0028772354125976,0,0,0,0
8.2,1788353284993,0.0,0.0,-0.0032789162360131,0.0047335932031273,-0.9682552218437196,0.2498972564935684,0.0,0.0,0.0,0.0,-9.229338182592528e-09,0.0,-0.0045070387423038,0.0037613557651638,-0.8792673945426941,0.4762923419475555,-0.0004036112358093,-0.0016156659868276,-0.0006661115971002,0.0295935273170471,-0.0182467699050903,0.0028772354125976,0,0,0,0
8.3,1788353285093,0.0,0.0,-0.0032789162360131,0.0047335932031273,-0.9682552218437196,0.2498972564935684,0.0,0.0,0.0,0.0,-6.7782286450324145e-09,0.0,-0.0044652083888649,0.0037332642823457,-0.879253625869751,0.476318359375,0.0004328826504049,-0.0010353689613553,0.0016580077051997,0.0056854486465454,-0.0002321004867553,0.0164661407470703,0,0,0,0
8.4,1788353285193,0.0,0.0,-0.0032789162360131,0.0047335932031273,-0.9682552218437196,0.2498972564935684,0.0,0.0,0.0,0.0,-9.597687089524244e-09,0.0,-0.0044642137363553,0.003732462413609,-0.8792741298675537,0.4762804806232452,7.560483670355699e-05,0.0015893834768294,-0.0013500528212386,-0.0069983601570129,-0.0288701057434082,0.0018892288208007,0,0,0,0
8.5,1788353285293,0.0,0.0,-0.0032789162360131,0.0047335932031273,-0.9682552218437196,0.2498972564935684,0.0,0.0,0.0,0.0,-9.413430923643773e-09,0.0,-0.0045157093554735,0.0037164706736803,-0.8792498111724854,0.47632497549057,-0.0007227666830111,-0.0025765799885198,0.0002243861760169,0.0141436457633972,0.0222105383872985,-1.52587890625e-05,0,0,0,0
8.6,1788353285393,0.0,0.0,-0.0032789162360131,0.0047335932031273,-0.9682552218437196,0.2498972564935684,0.0,0.0,0.0,0.0,-1.17085923179161e-08,0.0,-0.0045351507142186,0.0037445882335305,-0.8792456984519958,0.4763321876525879,-0.0011432309333728,6.864092886962292e-05,-0.0007947901549492,-0.0147833228111267,0.0166791677474975,0.0121107101440429,0,0,0,0
8.7,1788353285493,0.0,0.0,-0.0032789162360131,0.0047335932031273,-0.9682552218437196,0.2498972564935684,0.0,0.0,0.0,0.0,-1.0269297412435208e-08,0.0,-0.0045407842844724,0.0037184925749897,-0.8792458176612854,0.4763320982456207,0.0014475979865305,0.0002762207232934,0.0009439671851535,0.0013052225112915,0.012807548046112,0.0114383697509765,0,0,0,0
8.8,1788353285593,0.0,0.0,-0.0035381293855607,0.0047092717140913,-0.9682421684265136,0.2499446868896484,-0.0004515098228347,5.364758416976598e-05,2.5897815048367826e-06,-0.0005004180711694,-0.0010234349174425,-0.0006776729715056,-0.0045431908220052,0.0037438739091157,-0.8792662620544434,0.4762941896915436,-0.0008200632118617,0.002601496975576,-0.0017923901759246,-0.0194417238235473,-0.0197135210037231,0.0146751403808593,0,0,0,0
8.9,1788353285693,0.0,0.0,-0.0035023260861635,0.004717880859971,-0.9682437181472778,0.249938890337944,7.168179756086153e-05,-8.173653091548949e-05,-1.2089999288444272e-06,0.0005074634682387,-2.670509820745792e-05,0.0008183347526937,-0.0045828949660062,0.0037309909239411,-0.8792657852172852,0.4762947261333465,-0.0013534721531727,0.000695795699082,-0.0011161038770972,-0.0123782157897949,-0.0185401439666748,0.0121927261352539,0,0,0,0
9.0,1788353285793,0.0,0.0,-0.0035286084748804,0.0047566853463649,-0.9682427048683168,0.2499416470527649,1.3166469914243882e-05,-1.523831960653325e-05,-2.250465957319844e-07,-0.0015424310695379,0.0006782870623283,0.0001626229204703,-0.0046264491975307,0.0037693446502089,-0.8791027665138245,0.4765948951244354,-0.0022419980090206,-0.0022229456138125,0.0191985906163391,0.3614238500595093,0.1832323670387268,0.0854787826538086,72,357,2432,11213
9.1,1788353285893,0.8450704216957092,4.11267614364624,-0.0037488671950995,0.0047147939912974,-0.9661206603050232,0.2580204010009765,0.0412442097748537,0.0022892040759252,4.77119805605759e-06,0.0038038447964936,-0.0072097838856279,0.3016700744628906,-0.0051101241260766,0.0027339635416865,-0.872178852558136,0.4891528785228729,0.0480979699064607,-0.0585790913841553,0.4232463900147107,0.8369752168655396,-0.3334006667137146,-0.1132583618164062,120,107,5899,12761
9.2,1788353285993,1.5774648189544678,6.056337833404541,-0.0048039192333817,0.0029969294555485,-0.9598483443260192,0.2804623246192932,0.1071632177475431,-0.0052910705191101,1.6906764500893303e-05,0.0106467958539724,-0.0084730414673686,0.512614905834198,-0.005505590699613,0.0018333801999688,-0.8552215695381165,0.5182300209999084,-0.0069987512540697,-0.0003676244252731,0.705824435259328,0.2497976422309875,0.0300486087799072,-0.4016609191894531,58,242,5624,20808
9.3,1788353286093,1.7464789152145386,8.535211563110352,-0.0051220809109508,0.0030084399040788,-0.9491038918495178,0.3149070739746094,0.1522667353231166,-0.0012546864230094,3.895026428550831e-05,0.0019851059187203,-0.0097333583980798,0.8414372801780701,-0.0053252819925546,0.0016770996153354,-0.8328778743743896,0.5534287691116333,0.0162018191579758,0.0095691884430847,1.013005454297012,0.5564484596252441,0.0733064413070678,-0.3494167327880859,149,202,7769,25180
9.4,1788353286193,1.6338027715682983,7.126760482788086,-0.0045241303741931,0.0028865742497146,-0.933828055858612,0.3576820194721222,0.194092144420485,8.923662818549452e-06,9.290268494362808e-06,0.0067312372848391,-0.0020685319323092,1.048256754875183,-0.0049084182828664,0.0019187191501259,-0.806837797164917,0.5907496213912964,-0.0026750985208902,-0.0160662978610266,1.059613728711071,-0.0909709930419921,0.1165249347686767,-1.0069570541381836,44,32,4487,15417
9.5,1788353286293,1.0140844583511353,4.2253522872924805,-0.0040684579871594,0.0032329843379557,-0.9134051203727722,0.4070187509059906,0.1322014380835635,-0.00640525380275,1.345777160261262e-05,0.0037449540104717,-0.0016120742075145,0.7661987543106079,-0.0045598065480589,0.0022787740454077,-0.7796414494514465,0.6262053847312927,0.0076728684859899,-0.0188254049986383,0.5927196877110755,-0.3902159929275512,-0.0736530423164367,0.332305908203125,50,29,2965,9326
9.6,1788353286393,0.591549277305603,1.8591549396514893,-0.0037523848004639,0.0034235371276736,-0.9032180905342102,0.4291516840457916,0.0766631319156762,-0.0054099075461954,-1.3266724345738536e-05,-0.0006508651422336,0.0015969559317454,0.4966084361076355,-0.0044962624087929,0.0022976538166403,-0.7688771486282349,0.6393766403198242,0.0059829602718271,-0.0061662053181156,0.2399686373689009,-0.2724929451942444,-0.2600284814834595,0.2402553558349609,56,41,1627,2846
9.7,1788353286493,0.0,0.0,-0.0037333657965064,0.0032626371830701,-0.8993711471557617,0.4371578693389892,0.0242270462170013,-0.0003603648482828,2.0522197111830682e-07,0.0029916779603809,0.0020271053072065,0.0907484591007232,-0.0045459130778908,0.0022072382271289,-0.7673728466033936,0.6411813497543335,-0.0029486220167552,-0.0017099374178489,-0.0495201500022434,-0.2238360047340393,-0.1005342006683349,0.1275243759155273,1,0,0,0
9.8,1788353286593,0.0,0.0,-0.0039615714922547,0.0031818514689803,-0.8995010256767273,0.4368890225887298,-0.0055466027233296,-0.0001759062498282,-4.872839540084809e-06,0.0,0.0,0.0,-0.0045141950249671,0.0022193724289536,-0.7671564817428589,0.641440212726593,0.0004199052172169,0.0013693533256203,-0.0006494070808574,-0.0776357650756836,0.0559833645820617,-0.0534391403198242,0,0,0,0
9.9,1788353286693,0.0,0.0,-0.0038212251383811,0.0032612034119665,-0.8993277549743652,0.4372462332248688,0.0001780261224095,0.0007004487374602,4.523821397557627e-07,3.544395076460205e-05,0.0021828105673193,-0.0002408584550721,-0.0045066541060805,0.0022151879966259,-0.7671069502830505,0.6414995789527893,0.0010654200156708,-0.0008695363813709,0.0052475301408593,0.0104262828826904,0.0359576344490051,-0.0085620880126953,0,0,0,0
10.0,1788353286793,0.0,0.0,-0.0038784425705671,0.0032178305555135,-0.8993009328842163,0.4373012483119964,6.842658731004308e-06,-5.065409761523441e-05,-4.939337623131885e-07,0.0005639356095343,-0.0028255213983356,0.0024320094380527,-0.0045397281646728,0.002200967632234,-0.7671343684196472,0.641466498374939,-0.0009999455509384,0.0008302177262253,0.0013012527702459,-0.0100135207176208,0.0038055777549743,0.000335693359375,0,0,0,0
10.1,1788353286893,0.0,0.0,-0.0038791834376752,0.0032166987657546,-0.899278998374939,0.4373463690280914,0.0001750863797415,-0.0002003725407276,2.2193339764268877e-06,3.2070453016785905e-05,-5.589421925833449e-05,0.0020142116118222,-0.0045649064704775,0.002169276587665,-0.767113983631134,0.6414909958839417,-0.0006210036074081,0.0006423574744813,-0.0037180943605612,0.0556721687316894,0.0216442942619323,-0.0139665603637695,0,0,0,0
10.2,1788353286993,0.0,0.0,-0.0038884875830262,0.0032022078521549,-0.8993083834648132,0.437285840511322,0.0002320976517425,-0.0002177790631338,2.3638730717202776e-06,0.0,0.0,0.0,-0.0045089656487107,0.0021973010152578,-0.767077624797821,0.6415346264839172,-0.0004837522752257,0.0010522377070689,-0.0021396124508325,0.0209478139877319,-0.0127701163291931,-0.0104780197143554,0,0,0,0
10.3,1788353287093,0.0,0.0,-0.0037893052212893,0.0032488186843693,-0.8992834091186523,0.4373378455638885,-0.0004079025519108,0.0004196516907913,2.469997442448524e-07,-0.0001993707410292,0.0028939666226506,-0.0020222815219312,-0.00446124561131,0.0022404957562685,-0.7670522928237915,0.6415652632713318,-0.0001142841090085,0.000114708049775,0.0037924986490508,-0.002934992313385,0.0124123096466064,-0.0050411224365234,0,0,0,0
10.4,1788353287193,0.0,0.0,-0.0038102576509118,0.0032525607384741,-0.8992823958396912,0.437339723110199,7.916485154264276e-06,-9.108725973361531e-06,-1.1487747237071817e-07,-0.0005065625882707,-0.0006962846382521,8.558066474506631e-05,-0.0044714557006955,0.0022477833554148,-0.7670482993125916,0.6415697932243347,6.361244543478075e-05,0.0017184667517967,0.0036405134338797,-0.0173717737197875,0.0018192529678344,0.016484260559082,0,0,0,0
10.5,1788353287293,0.0,0.0,-0.0038000829517841,0.0032656830735504,-0.8992533683776855,0.4373994171619415,0.0002291603914434,-0.0002621434594116,1.404608281634814e-06,-0.0002864085545297,0.0005786836263723,0.0026370908599346,-0.0045062713325023,0.0022563179954886,-0.7671031951904297,0.6415038704872131,-0.0002895663365097,0.0004816393283724,-0.0013584854862736,-0.0172195434570312,-0.0103892683982849,0.0272932052612304,0,0,0,0
10.6,1788353287393,0.0,0.0,-0.0038165317382663,0.0032763453200459,-0.8992729187011719,0.4373588860034942,0.0002938887553205,-0.0003022311064693,3.629130428217702e-06,0.0002003663248615,0.0003107890952378,0.0014769962290301,-0.004540292546153,0.0022103274241089,-0.767072319984436,0.6415407061576843,6.158595331099251e-05,-0.0024071597250967,-0.0016443977009042,0.0062664151191711,0.0093227624893188,0.0093355178833007,0,0,197,739
10.7,1788353287493,0.0,1.8591549396514893,-0.0039345193654298,0.0032602229621261,-0.8991891741752625,0.4375302195549011,0.0011670991306338,-0.0004536248466004,5.601475440936775e-06,-0.0010995245538651,-0.0015651130815967,0.0088043557479977,-0.0046767564490437,0.0020550116896629,-0.7625892758369446,0.646862804889679,0.0042499930823947,-0.0007660454477535,0.3356708500772121,0.841693639755249,0.4906253218650818,-0.0933389663696289,236,355,6643,12811
10.8,1788353287593,1.408450722694397,4.8450703620910645,-0.0039399047382175,0.0030917706899344,-0.8920923471450806,0.4518253207206726,0.0766593855851128,0.0042197674374743,-1.0017277322761454e-05,0.0041507449932396,0.0013145455159246,0.4245341718196869,-0.0044253254309296,0.0019411062821745,-0.7481498718261719,0.6635121703147888,0.0051267548477352,0.0163423803301562,0.5547050285561501,0.4866998791694641,0.5119715332984924,-0.1706743240356445,110,187,5714,17362
10.9,1788353287693,1.9154930114746092,7.211267471313477,-0.0038543506525456,0.0029072733595967,-0.8785715699195862,0.4775863885879516,0.1294360575519453,0.0007942056476549,2.65772309618488e-05,0.0011269513051956,-0.0008727278327569,0.6525376439094543,-0.0041678398847579,0.0019426448270678,-0.7269992828369141,0.6866229176521301,0.0079212267489655,0.0104679143342233,0.8388394658348085,0.5200744867324829,0.2351691722869873,-0.2666006088256836,154,208,8328,23831
11.0,1788353287793,2.309859037399292,7.802816867828369,-0.00333530921489,0.0031356108374893,-0.8602641224861145,0.5098280906677246,0.1941307273092742,-0.0005697569017179,1.578401375810247e-05,-0.0027399777900427,-0.0086763678118586,0.8663545846939087,-0.0035605430603027,0.0033242497593164,-0.6903390288352966,0.723469614982605,-0.0049350679669003,0.0061944454334051,0.8769360574587186,-0.150371253490448,-0.0417871475219726,0.9430646896362304,70,75,9127,21236
11.1,1788353287893,2.6478872299194336,7.633802890777588,-0.0027198826428502,0.0039381659589707,-0.8331835269927979,0.5529758930206299,0.1910304041708672,-0.0028926266799818,5.202967828365745e-05,0.0035515371710062,-0.0095445970073342,0.8410817980766296,-0.0033173011615872,0.0035783955827355,-0.6634013056755066,0.7482479214668274,-0.004493840184958,0.0230964750947954,0.7464845581162195,-0.6246298551559448,0.1273930668830871,-0.0139741897583007,164,54,10158,18969
11.2,1788353287993,2.422535181045532,7.661972045898437,-0.0018609978724271,0.0064764283597469,-0.8158208727836609,0.5782654285430908,0.1614498601729553,0.0039978572741737,-0.0003349963729394,-0.0516455918550491,0.0569458045065403,0.5779047012329102,-0.0039242645725607,0.0028201974928379,-0.6429527401924133,0.7658906579017639,0.0818752510110592,-0.152219793761672,0.6509586003746143,0.236778974533081,0.1466563940048217,1.306471824645996,42,85,8470,21472
11.3,1788353288093,2.4788732528686523,7.718309879302978,-0.0027112571988254,0.0036950847133994,-0.7954278588294983,0.6060308814048767,0.1788421381877785,-0.0014254944472901,6.950403279712154e-05,0.0073141525499522,-0.0269117914140224,0.7634048461914062,-0.0033406540751457,0.00316256377846,-0.6158689856529236,0.7878351211547852,-5.184287873492735e-05,0.015799750382877,0.8212709109670657,0.1202395558357238,0.0078800320625305,-1.057612419128418,95,98,8497,20829
11.4,1788353288193,3.2957746982574463,6.704225540161133,-0.0024161855690181,0.0036359701771289,-0.7724859118461609,0.6350168585777283,0.1725555034760503,-0.0017526399127841,1.1763761166683893e-05,0.0103433700278401,-0.0087218321859836,0.7866470217704773,-0.0028912937268614,0.002992239780724,-0.5795202255249023,0.8149473071098328,0.0035883842796378,-0.0310113248191944,0.6652306728837911,0.2231396436691284,-0.2035834193229675,0.6355457305908203,189,42,11694,18053
11.5,1788353288293,3.323943614959717,6.8450703620910645,-0.0021759218070656,0.0033216197043657,-0.7504112720489502,0.6609591245651245,0.1705466440400375,0.0033555688376024,7.8876875056427e-05,0.0063132727518677,-0.0138152549043297,0.4347377717494964,-0.0029084794223308,0.002712239511311,-0.5626631379127502,0.8266767859458923,-0.0005459450426995,-0.0009115640617932,0.4803214909628409,0.1035276651382446,0.4488103985786438,-0.052556037902832,55,103,9491,19481
11.6,1788353288393,3.859154939651489,6.3380279541015625,-0.0024401391856372,0.0031984804663807,-0.7354239225387573,0.677595317363739,0.1712393276779883,0.0094837322183688,4.219773275288412e-05,-0.0059356824494898,-0.0135777723044157,0.5103932023048401,-0.0032407520338892,0.0021919170394539,-0.5439543128013611,0.8391057252883911,0.0077034608058641,-0.0340922744297382,0.4584793515107605,0.7252410650253296,0.0611740946769714,0.3831014633178711,107,101,12311,17215
11.7,1788353288493,4.169013977050781,6.3380279541015625,-0.0024351747706532,0.0024427601601928,-0.7212799191474915,0.6926351189613342,0.1820253976757584,0.0107206644902771,0.0001483791391372,0.0116477711126208,-0.0226975809782743,0.3750495016574859,-0.0029768487438559,0.0017142789438366,-0.5255231261253357,0.8507723212242126,0.0049730905611608,0.0360300405341298,0.3254732342605628,-0.1329696774482727,0.0416728258132934,-0.5781707763671875,74,68,11025,17240
11.8,1788353288593,4.14084529876709,6.253520965576172,-0.0028813637327402,0.0019049369730055,-0.7084224224090576,0.7057802081108093,0.1740783793417914,0.0017189445887189,3.055583372086038e-05,0.0019458170281723,-0.0219500567764043,0.3308336436748504,-0.0030220979824662,0.0021245498210191,-0.5125719904899597,0.8586363792419434,-0.0195660280983908,0.0623986979437017,0.3483278563310861,0.2517049908638,0.1060601472854614,-0.6604881286621094,64,95,10851,17966
11.9,1788353288693,3.9718310832977295,6.2253522872924805,-0.0027066427282989,0.0022380154114216,-0.6957968473434448,0.7182300090789795,0.1853658475229531,0.0041540510390744,1.277849648315657e-05,0.0037702803965657,-0.0124747706577181,0.3562381863594055,-0.0031478516757488,0.0017632972449064,-0.494091659784317,0.8694023489952087,-0.005692398898001,0.0152291198406116,0.3545607244273932,0.1325528025627136,-0.0368772149085998,-0.1274547576904297,158,37,13278,15794
12.0,1788353288793,4.309859275817871,5.915493011474609,-0.0025850655511021,0.0025149739813059,-0.6848954558372498,0.7286324501037598,0.1796848913945728,0.0045570876644854,9.742345346251023e-07,-0.0018729860894382,-6.98644871590659e-05,0.3232412338256836,-0.0031691398471593,0.001293952576816,-0.4828090965747833,0.8757190108299255,0.0106231395688372,-0.017878563475079,0.271445623878153,-0.1336360573768615,0.2734687328338623,0.5377922058105469,123,84,12526,16647
12.1,1788353288893,4.3380279541015625,5.549295902252197,-0.0030254926532506,0.0018484246684238,-0.6751142144203186,0.7377045750617981,0.1758606049001936,0.0039018332001031,1.5031211892185169e-06,-0.0029121960978955,-0.0131127135828137,0.2642280459403991,-0.0042086904868483,0.003534878604114,-0.4750769436359405,0.8799271583557129,-0.0886535141019863,0.090349478836415,0.0848020105574563,0.3130591511726379,-0.0630346536636352,-0.8833799362182617,110,170,11947,18915
12.2,1788353288993,3.88732385635376,6.394366264343262,-0.0027617858722805,0.0016720205312594,-0.6648964285850525,0.7469284534454346,0.1891535813463391,-0.0003674011575263,0.0002948745255944,0.0706044882535934,-0.0557294487953186,0.357326865196228,-0.0027708457782864,0.001440511085093,-0.4610279500484466,0.8873801827430725,0.0089688994659233,0.0522792770332325,0.4336199506628104,-0.3268550038337707,0.3051415085792541,0.0725965499877929,134,43,13057,15811
12.3,1788353289093,3.9718310832977295,5.830986022949219,-0.002299714135006,0.0018491320079192,-0.6500412821769714,0.7598931789398193,0.1774903847967502,0.000895802095166,-0.0002327419537657,0.0025676353834569,0.0236940141767263,0.3667379915714264,-0.002645811997354,0.0008629644289612,-0.4417895674705505,0.8971145153045654,0.0083437294402072,-0.0442688218700295,0.3051728149309073,0.2005420327186584,0.2720972299575805,0.3420734405517578,111,77,13344,16758
12.4,1788353289193,3.6056337356567374,6.253520965576172,-0.0022838942240923,0.0014171435032039,-0.6406272649765015,0.7678473591804504,0.172881237964384,0.0072551480156904,1.9849412536682735e-05,0.0046570473350584,-0.0062674041837453,0.2458681911230087,-0.0024729361757636,0.0007536029443144,-0.4318701326847076,0.9019321203231812,0.0039373299674359,0.0080953616151914,0.2655930778445413,0.1090713143348693,0.3580337166786194,0.3296804428100586,74,95,12403,17776
12.5,1788353289293,3.94366192817688,6.056337833404541,-0.0021107646171003,0.0007331331144087,-0.6283220052719116,0.7779501676559448,0.1774423156065305,0.0026879326805857,-5.3186277408546245e-06,0.0150375179946422,-0.0062723672017455,0.3848767876625061,-0.0021885940805077,-4.647113382816315e-05,-0.4164133071899414,0.9091728329658508,0.0091129427391701,-0.0141351568778072,0.3863816176085598,-0.0508747696876525,-0.174407422542572,-0.3380794525146484,45,66,11612,17972
12.6,1788353289393,4.056337833404541,5.830986022949219,-0.0021729413419961,0.0002775695174932,-0.6134811639785767,0.789706289768219,0.1756825387031727,0.0026049375630833,5.689455460991312e-06,-0.0002315885358257,0.0044256076216697,0.3069377541542053,-0.0021852860227227,-0.0001515448093414,-0.4005284905433655,0.9162816405296326,-9.946330018249698e-05,-0.0111061439707758,0.2425480436778517,0.1183856725692749,-0.1800342798233032,0.2403059005737304,91,96,13205,17167
12.7,1788353289493,4.394366264343262,6.0,-0.0017519704997539,0.0005179917789064,-0.6041125655174255,0.7968969345092773,0.1790932525276396,0.003313683830662,0.0001090091075578,0.0122795598581433,-0.0014911342877894,0.2516384124755859,-0.0016486849635839,0.0004262989386916,-0.3901551961898803,0.9207475781440736,0.001663683748768,0.0230789023387031,0.2557281549613788,-0.0302811861038208,0.1995838284492492,0.8303127288818359,107,81,12232,16728
12.8,1788353289593,4.253520965576172,5.943662166595459,-0.001988707575947,0.0003761366242542,-0.5955575704574585,0.8033100366592407,0.1783054294900629,0.0081528615576902,-1.797246192508899e-05,-0.0002044032735284,-0.0184338763356208,0.225105345249176,-0.0019131489098072,0.0003498001024127,-0.3803774416446686,0.9248293042182922,-0.0056147033300706,0.0333807858874205,0.2505909071638405,-0.2504248023033142,0.2179775834083557,0.2214212417602539,108,92,12297,16905
12.9,1788353289693,4.253520965576172,6.0,-0.0020672339014708,0.0006528327940031,-0.5849045515060425,0.8110992312431335,0.1778941308335915,0.0053427194393217,-0.0001717438071263,-0.0100018605589866,0.002856524195522,0.2637724578380584,-0.0021501164883375,0.000150891020894,-0.3693022727966308,0.9293068647384644,0.0039272837663282,-0.0316798013479953,0.2682272901592391,-0.0484136343002319,0.0028801560401916,-0.9016103744506836,109,78,12393,16831
13.0,1788353289793,4.422535419464111,5.943662166595459,-0.0022342142183333,0.0007092387531884,-0.5755742192268372,0.8177462220191956,0.177232897307993,0.0044145883517542,2.32309310550018e-05,-0.0144113563001155,-0.0010088719427585,0.2363036125898361,-0.0026812795549631,-5.579553544521332e-05,-0.35364630818367,0.935375452041626,-0.008977543861953,-0.0111000244137436,0.2459490208002751,0.1549451947212219,0.1785081028938293,-0.9316034317016602,56,81,11607,16965
13.1,1788353289893,4.3380279541015625,5.85915470123291,-0.002538664964959,0.0009407776524312,-0.5627257227897644,0.8266392350196838,0.1780207882496892,0.0043190510638196,-3.935872647900752e-05,-0.0038267674390226,0.0064738462679088,0.2680132985115051,-0.0030107721686363,-2.9491260647773743e-05,-0.3426604866981506,0.9394544959068298,-0.0115788448450595,-0.0287511910313199,0.2518553770529659,-0.0007652044296264,0.3476871848106384,-0.6420297622680664,51,104,11896,17184
13.2,1788353289993,4.394366264343262,6.169013977050781,-0.0030634638387709,0.0045838123187422,-0.5540693402290344,0.8324522972106934,0.1729641786384082,0.0071052648860516,-0.000454707373192,-0.0745630115270614,0.100200206041336,0.2213304489850998,-0.0029679834842681,0.001712366938591,-0.3318893611431122,0.9433121085166932,0.1126632359763074,-0.1012299583516406,0.3231429912108582,-0.0055493116378784,-0.0201956033706665,-0.0610170364379882,45,77,11809,16795
13.3,1788353290093,4.084506988525391,5.7183098793029785,-0.0025595389306545,0.0021703634411096,-0.5415288209915161,0.8406754732131958,0.177601604263526,0.0059345439212162,-8.017327530532183e-05,-0.0051379092037677,0.0088127953931689,0.2576881349086761,-0.0033026337623596,0.0016712192445993,-0.3177437782287597,0.9481693506240844,-0.0141735051814834,-0.0389433662156779,0.1924756455369503,0.2620401978492737,0.2732632160186767,-0.1840925216674804,84,125,12804,17525
13.4,1788353290193,4.676056385040283,5.605633735656738,-0.0029737032018601,0.0025169905275106,-0.5331867337226868,0.8459886312484741,0.1690733905209377,0.0026334331824758,-2.32481185230615e-05,-0.0102772917598485,-0.0031613449100404,0.2430771738290786,-0.003650571219623,0.0016924552619457,-0.3071460723876953,0.9516538977622986,-0.0035459115582752,-0.0039904025219609,0.226063675794593,0.1588771343231201,-0.2815064787864685,-0.5429248809814453,135,97,13327,15645
13.5,1788353290293,4.591549396514893,5.577464580535889,-0.0032288809306919,0.0028892455156892,-0.5237317085266113,0.8518722057342529,0.1836261652830861,0.0004598918132983,3.969240121369381e-05,-0.0100289592519402,0.0045183300971984,0.1314042210578918,-0.0038440804928541,0.0021228054538369,-0.3012741208076477,0.9535274505615234,-0.0064000171827451,0.0152227359602076,0.1079011251876194,-0.0747423768043518,-0.0355715155601501,0.4940166473388672,41,79,13346,15786
13.6,1788353290393,4.0,5.88732385635376,-0.0031803497113287,0.0032069850713014,-0.5180833339691162,0.8553182482719421,0.1847161301558603,0.0052948290455301,-7.881371596331352e-06,-0.0022365695331245,0.0062075890600681,0.1652660220861435,-0.0036504529416561,0.0025510406121611,-0.2908308207988739,0.9567641615867616,0.0141749666413482,-0.0011863748741031,0.2303103332760022,-0.2101969718933105,-0.0515397787094116,0.5801563262939453,64,101,12842,17388
13.7,1788353290493,4.11267614364624,5.6619720458984375,-0.0030847736634314,0.0033439598046243,-0.5079724192619324,0.8613613843917847,0.1809656296591441,0.0036901920902938,3.8281059208465e-05,-0.0046064690686762,-0.004760499112308,0.2638671398162842,-0.0037149898707866,0.0028515327721834,-0.2798271477222442,0.960038959980011,-0.0027131161043769,0.0457938596859462,0.2410703579266497,0.2651654481887817,-0.2295148968696594,-0.4744215011596679,112,70,14948,15590
13.8,1788353290593,4.760563373565674,5.521126747131348,-0.0028797821141779,0.0029232094530016,-0.4991971552371979,0.8664787411689758,0.1810823736435957,0.0028064533915277,0.0001435957032527,0.0085052913054823,-0.0202447827905416,0.1380226910114288,-0.003586882725358,0.0014160545542836,-0.2737899422645569,0.9617817401885986,0.0215390443647845,-0.0660792380266687,0.1243580594392024,0.1404697299003601,-0.1578306555747985,-0.2355012893676757,35,88,12687,15965
13.9,1788353290693,4.2253522872924805,5.6619720458984375,-0.0031281437259167,0.002248469274491,-0.4928362071514129,0.8701136112213135,0.1764490149852318,0.0028907214315386,2.115271770582988e-05,-0.0005318564362823,-0.0062504759989678,0.1514787822961807,-0.0032309750095009,0.0010267030447721,-0.2648448050022125,0.9642850756645204,0.02085881710587,-0.0031921237463976,0.1657474545405909,0.2757331728935241,-0.1362680196762085,-0.1761760711669922,119,72,14624,15660
14.0,1788353290793,4.788732528686523,5.521126747131348,-0.0029431649018079,0.0017836733022704,-0.4868517816066742,0.8734779357910156,0.1828319901731697,0.0039089198627472,-7.326960857003718e-05,-0.0007068659178912,0.0012595865409821,0.1481517851352691,-0.002951068803668,0.000789413228631,-0.2580002844333648,0.96614009141922,0.0116606042682621,-0.0260046775471165,0.1667527844061733,0.1542021036148071,0.1163543462753295,1.0385618209838867,110,62,12663,15909
14.1,1788353290893,5.042253494262695,5.239436626434326,-0.0025043131317943,0.0018513295799493,-0.480006456375122,0.8772594332695007,0.1816514875408922,0.0058826286362246,-0.000110617356976,0.0012986692599952,0.0159026384353637,0.1493572741746902,-0.0025854259729385,0.000658931210637,-0.2494093179702758,0.9683945178985596,0.0254193882001945,-0.0174391607966007,0.1996019674294911,0.1454693675041198,-0.1878995895385742,-0.2500381469726562,192,34,15095,13559
14.2,1788353290993,4.760563373565674,5.211267471313477,-0.0024184135254472,0.0011096587404608,-0.4737038016319275,0.8806802034378052,0.1824943333454232,0.0006409658376551,-1.5115412076959712e-05,0.0032462214585393,-0.0088495425879955,0.1378092169761657,-0.0023196088150143,0.0001598112285137,-0.2458450049161911,0.9693063497543336,0.0262171605094141,-0.0299307985382113,0.0513965498793763,-0.28310227394104,0.050264298915863,0.6323041915893555,96,70,14795,14618
14.3,1788353291093,4.873239517211914,5.323943614959717,-0.0029788764659315,0.0025577130727469,-0.4740453362464905,0.8804917335510254,0.1587914102140284,-0.0015911894217237,-0.000136940575008,-0.0616945028305053,0.052573911845684,-0.0784323066473007,-0.0033749677240848,0.001575487665832,-0.2475273013114929,0.9688737988471984,0.0079000343695725,-0.0204325057936969,-0.0209808179616989,0.299105167388916,-0.1857198476791381,0.181157112121582,44,105,14616,15657
14.4,1788353291193,5.239436626434326,4.957746505737305,-0.0017416306072846,6.705464329570532e-05,-0.4700736403465271,0.8826254606246948,0.198252750519368,-0.0028935974095091,0.0003563061576615,0.058477483689785,-0.050319667905569,0.1507021188735962,-0.0015413267537951,-0.0004313522949814,-0.2436133325099945,0.9698711037635804,-0.0038307320748949,0.0214697830331498,-0.0566848273552258,-0.3391669988632202,-0.2361786365509033,1.1147003173828125,53,67,14191,14278
14.5,1788353291293,4.591549396514893,5.352112770080566,-0.0016569439321756,-8.901790715754032e-05,-0.4720182120800018,0.8815872073173523,0.1719916447145678,-0.0019568232850359,6.661193671246579e-05,-7.827980152796954e-05,-0.0027403542771935,-0.069755770266056,-0.0016175713390111,-0.0004532812163233,-0.245709627866745,0.969342052936554,0.0073601171612139,-0.0152386017423279,0.0073450983854021,0.1722369194030761,-0.0469566583633422,-0.032362937927246,115,159,13651,16744
14.6,1788353291393,4.197183132171631,5.521126747131348,-0.0016524577513337,-0.0004484677920117,-0.4700934588909149,0.8826149106025696,0.1884848519932849,0.0026879306923004,4.5456170229321646e-05,0.0076195173896849,-0.0265606921166181,0.1165595799684524,-0.0014584278687834,-0.0009670155122876,-0.2407052963972091,0.970596730709076,-0.0007398302749027,-0.0195598900172578,0.1108683488433484,0.2440895438194275,-0.0028138160705566,0.2749261856079101,92,110,14969,15607
14.7,1788353291493,4.732394218444824,5.154929637908936,-0.0021333133336156,-0.0016240071272477,-0.4639145135879516,0.885875940322876,0.1764471853793641,0.0031221147517328,9.74217634639026e-05,0.0017477930523455,-0.0342564694583416,0.1210600733757019,-0.0019162083044648,-0.0023102462291717,-0.2350225746631622,0.9719852805137634,-0.0081141164632986,0.0190026084568451,0.0499367122122656,0.16977459192276,-0.2053244709968567,0.4469318389892578,44,101,13862,16004
14.8,1788353291593,4.929577350616455,5.380281925201416,-0.0021821889095008,-0.0013319591525942,-0.4606044292449951,0.8876018524169922,0.1850339023774298,0.0004585367898697,-3.925511966000048e-05,-0.0015842346474528,0.021459799259901,0.1110389605164527,-0.0019693206995725,-0.0027329362928867,-0.2297711819410324,0.9732388854026794,-0.0069313569543403,-0.0265422034390876,0.1183737310233983,-0.1811447143554687,0.1035876274108886,-0.4917020797729492,101,68,14138,14714
14.9,1788353291693,5.239436626434326,5.408450603485107,-0.0027365013957023,-0.0019358817953616,-0.4555607140064239,0.8901984095573425,0.182119351459059,0.001986704287156,6.886441316632389e-05,-0.0042625097557902,-0.0052598132751882,0.104656308889389,-0.002260185778141,-0.0025588450953364,-0.2246254682540893,0.9744391441345216,-0.0036899927233221,-0.0091973841369418,0.1960364262381136,-0.2417466640472412,0.1324506998062133,-0.7538871765136719,84,53,13167,14896
15.0,1788353291793,4.507042407989502,5.323943614959717,-0.0028034541755914,-0.0024590354878455,-0.4485273659229278,0.8937612771987915,0.1863696102927255,0.0085782436146786,-7.618933222713702e-05,0.0023380140773952,0.0001871363201644,0.1287595182657241,-0.0022140815854072,-0.0036560958251357,-0.2178357988595962,0.9759761095046996,0.0029381317544534,-0.0524902337458887,0.0459518509538137,0.0699231028556823,-0.0274766683578491,-0.6337108612060547,40,114,13309,16817
15.1,1788353291893,4.253520965576172,5.690140724182129,-0.002916766796261,-0.0026491284370422,-0.443833440542221,0.8961006999015808,0.1746655421431007,0.0014783049970645,-3.771242653364288e-05,0.0003779480466619,0.0077438866719603,0.1430043578147888,-0.0026051281020045,-0.0032905666157603,-0.2112688422203064,0.9774190187454224,-0.020856777585764,-4.636528345273972e-05,0.1630558878021985,-0.0596001148223876,-0.3461102843284607,0.5777654647827148,103,98,14361,15931
15.2,1788353291993,5.154929637908936,5.126760482788086,-0.0035434463061392,-0.0030762022361159,-0.4373493492603302,0.8992795348167419,0.1818966016045972,4.825990173329095e-05,8.742645061691212e-05,-0.001086191041395,-0.0188323091715574,0.1539428979158401,-0.002765835262835,-0.0042036511003971,-0.2052343189716339,0.9786999821662904,0.0008635928154069,-0.0243980486415894,0.1090649438518948,0.3107122778892517,-0.1481042504310608,-0.3536319732666015,68,103,13840,15149
15.3,1788353292093,4.985915660858154,5.154929637908936,-0.0038781273178756,-0.003707829164341,-0.4352472722530365,0.9002948999404907,0.1805476420896119,-0.0013149789642089,9.096371072764808e-05,-0.0015847604954615,-0.0155011918395757,0.022269781678915,-0.0028773238882422,-0.0045999744907021,-0.204441949725151,0.9788637161254884,-0.0050227607488937,-0.0193625400402313,0.0245558644965241,0.0457103252410888,0.1351702809333801,0.0925178527832031,120,115,14146,15282
15.4,1788353292193,5.323943614959717,5.070422649383545,-0.0035648941993713,-0.0035083084367215,-0.4325104057788849,0.9016150832176208,0.1772929826192712,0.0024283941308157,0.0001165091435511,0.0023388909175992,-0.0041181831620633,0.0619487129151821,-0.002651996910572,-0.0045798057690262,-0.201177105307579,0.9795405864715576,-0.0003212280977055,-0.0315937260623411,0.0444468738993482,0.0687119364738464,0.029281198978424,-0.0658168792724609,116,67,14086,14503
15.5,1788353292293,4.985915660858154,5.183098793029785,-0.0048751793801784,-0.0014416991034522,-0.4338468611240387,0.9009722471237184,0.1750413818176746,0.0015936486394451,-0.0001892559122791,-0.0736196190118789,0.0376215055584907,-0.0827283635735511,-0.0037953704595565,-0.0031320061534643,-0.2033955305814743,0.979084312915802,0.0447178923884108,-0.0276033113146557,0.0043325607881904,-0.1039974093437194,-0.3875594139099121,0.2077188491821289,107,80,14987,14863
15.6,1788353292393,4.985915660858154,5.014084339141846,-0.0033237151801586,-0.0033379804808646,-0.4313885569572449,0.9021539688110352,0.1930528227337679,-0.0071081217332938,4.290967796216429e-05,0.0287566166371107,-0.0018964702030643,0.0757524371147155,-0.0025106379762291,-0.0043985536321997,-0.2035345733165741,0.979054629802704,0.001621186239669,0.0402306368659824,-0.0915622777478787,-0.2361093759536743,-0.3292109370231628,-0.5212774276733398,87,69,14974,14331
15.7,1788353292493,4.901408672332764,4.985915660858154,-0.0036151490639895,-0.0038037369959056,-0.4346800446510315,0.9005696773529053,0.1725444055191534,-0.0070846583240981,2.7394358097449323e-05,-0.0017515828367322,-0.0037957003805786,-0.0463502295315265,-0.0025526229292154,-0.0050286166369915,-0.2043791860342025,0.9788755178451538,0.003257028131995,-0.0214979970562535,0.0003556413413245,0.1160870194435119,-0.0195196270942688,-0.1161298751831054,101,86,16531,14169
15.8,1788353292593,5.183098793029785,5.042253494262695,-0.0035050003789365,-0.0039961072616279,-0.4357292652130127,0.900062084197998,0.1790276445407964,-0.0004988825145159,-5.200266350599581e-05,0.0014356086030602,0.0102633340284228,-0.0366739481687545,-0.0024741794914007,-0.0049419030547142,-0.205838531255722,0.9785703420639038,0.0007412681807535,-0.014629815485743,-0.0190333053560746,0.2259161472320556,-0.1581050157546997,-0.5205907821655273,62,89,14152,14802
15.9,1788353292693,5.436619758605957,5.042253494262695,-0.0030847538728266,-0.003527260152623,-0.4359132945537567,0.8999764323234558,0.1793633303697557,-0.0017297967375642,-9.166860643886185e-05,0.0054309857077896,0.020228873938322,0.0020319570321589,-0.0022463975474238,-0.0042658494785428,-0.2058373689651489,0.978574275970459,-0.0036653179928633,-0.005378432672584,-0.0017417768388272,-0.0352588891983032,-0.1277107000350952,0.3018741607666015,75,110,13414,14935
16.0,1788353292793,5.239436626434326,5.098591327667236,-0.0032437085174024,-0.0038012305740267,-0.4358390271663666,0.9000107645988464,0.1766004712284119,-0.0005295804064874,2.647551290430921e-05,-0.0009237592457793,-0.0125489411875605,0.0032419813796877,-0.0022556185722351,-0.0042200591415166,-0.2058794945478439,0.9785656332969666,0.0038927290163802,-0.0307869053906863,-0.0101328888703829,-0.0784776806831359,0.0135431885719299,-0.0450382232666015,91,116,12989,15722
16.1,1788353292893,4.535211086273193,5.267605781555176,-0.0033083828166127,-0.0033752978779375,-0.4357821047306061,0.9000398516654968,0.180990871733569,0.0019324179338537,-1.9857059804828177e-05,-0.0072492905892431,-0.004870377946645,0.0092292558401823,-0.0024821814149618,-0.0036832988262176,-0.2044344395399093,0.9788702130317688,-0.0079491635447639,0.0204037368279529,0.0597927183269027,-0.1497209668159485,0.1378777027130127,0.7390336990356445,80,80,15322,15511
16.2,1788353292993,4.197183132171631,5.464788913726807,-0.0031201210804283,-0.0029924598056823,-0.4332371950149536,0.9012694954872132,0.1831351180096917,0.000178563245543,5.217163665637366e-05,0.0071569615975022,0.0052496343851089,0.0689336508512497,-0.0021191127598285,-0.0028828484937548,-0.1993453800678253,0.9799228310585022,-0.0009290891155538,0.0499649632669526,0.1330624904477454,-0.0636210441589355,0.1621032357215881,0.0365543365478515,54,126,14048,16959
16.3,1788353293093,4.366197109222412,5.690140724182129,-0.0024532959796488,-0.0016930853016674,-0.4264129996299743,0.9045236110687256,0.1797995989237527,0.0043891787487399,1.828934304757341e-06,0.0011376603506505,0.0264761839061975,0.1623206734657287,-0.0016634352505207,-0.001778800971806,-0.1916375756263733,0.9814627766609192,0.0076675158421834,0.0145523644107658,0.1937975876537055,-0.0529446601867675,0.0687137842178344,-0.1739540100097656,88,83,13787,15976
16.4,1788353293193,4.873239517211914,5.605633735656738,-0.0018173288553953,-0.0010013591963797,-0.4187788963317871,0.9080858826637268,0.1786929735561856,0.0027977630905536,-2.5952265444747e-05,0.0045879771932959,0.0099528776481747,0.1799605339765548,-0.0014405595138669,-0.0012525105848908,-0.1842625439167022,0.9828752279281616,0.0019995981157742,0.0006336054908833,0.1506394798454279,0.0405294299125671,-0.1296213865280151,0.7181873321533203,77,85,12271,15938
16.5,1788353293293,4.366197109222412,5.521126747131348,-0.0015749027952551,0.0001664827577769,-0.4119851291179657,0.9111891984939576,0.1826533080142801,0.0041968146762015,-7.989602701899567e-05,-0.0113621456548571,0.0183256175369024,0.1555800288915634,-0.00162492133677,-5.186628550291061e-05,-0.1774792224168777,0.9841232299804688,-0.0055772879240243,0.0100052409525661,0.1555218699972035,0.0060913562774658,0.1254741549491882,-0.4199457168579101,50,94,13903,16204
16.6,1788353293393,4.478873252868652,5.323943614959717,-0.0012894013198092,0.0011309122201055,-0.4044306874275207,0.9145671129226683,0.1773207153848368,0.0038232868287268,-0.0001152474858229,-0.0012933968100696,0.0180867779999971,0.1390665918588638,-0.0014662174507975,0.0010233782231807,-0.169053852558136,0.9856051802635192,0.0030438012975098,0.0134008331156142,0.1421301128567665,-0.0118952393531799,0.0682555437088012,-0.3033475875854492,49,133,13688,16926
16.7,1788353293493,4.591549396514893,5.746479034423828,-0.0019470012048259,0.0052019348368048,-0.3992709219455719,0.9168161749839784,0.177752314516194,0.0132686319552777,-0.0004312770131133,-0.0784746780991554,0.1113700345158577,0.0946269705891609,-0.0020866822451353,0.0031737433746457,-0.1628137975931167,0.9866495132446288,0.084645730727695,-0.0823526250744589,0.2229035219030941,0.3169341087341308,-0.0380862355232238,0.1600379943847656,95,53,13236,15839
16.8,1788353293593,4.816901206970215,5.549295902252197,-9.480607695877552e-05,0.0045976242981851,-0.3893046975135803,0.921097457408905,0.1869001673695961,-0.0006992019879934,-0.000301258210075,0.0139278685674071,0.0540344454348087,0.2407706528902053,-0.0015713460743427,0.0045191831886768,-0.1524098068475723,0.9883058667182922,0.0036286512037543,0.0066304439932059,0.1011673949447943,0.0305548906326293,-0.0408060550689697,0.7761745452880859,62,69,12333,15538
16.9,1788353293693,4.422535419464111,5.577464580535889,-0.0001326982164755,0.0052772820927202,-0.3840949237346649,0.923278510570526,0.1767854594178981,0.0005453512273674,-2.6602555524580703e-05,0.0032140924595296,0.026366576552391,0.1286814361810684,-0.0014569675549864,0.0048955809324979,-0.1459842920303344,0.9892737865447998,-0.0069245484317458,-0.0214715010278518,0.1520063447794847,-0.0726352930068969,-0.0062746405601501,-0.0445213317871093,72,84,13794,16031
17.0,1788353293793,4.901408672332764,5.633802890777588,-6.397406104952097e-05,0.0049477694556117,-0.3759779334068298,0.9266154170036316,0.1791460471272297,0.0036457666440399,9.554744888299892e-06,0.0060863038524985,-0.002857452025637,0.1565395593643188,-0.0012118509039282,0.0046465378254652,-0.1391228884458542,0.9902634620666504,0.0034462437726905,-0.0151749465159886,0.1440591811863278,-0.16988605260849,0.109956681728363,-0.1089563369750976,65,68,12066,15544
17.1,1788353293893,4.3380279541015625,5.464788913726807,-0.0001300738658756,0.0043935561552643,-0.3694154024124145,0.9292539954185486,0.180813675953032,0.0046894147220745,9.38166043330814e-05,0.0006294717313721,-0.0116866007447242,0.1422518789768219,-0.0011328794062137,0.0040808385238051,-0.1304603368043899,0.99144446849823,-0.0038879353281973,0.0079188050984591,0.1520073798000649,0.1481297612190246,0.2501545548439026,0.4984912872314453,52,72,14781,15348
17.2,1788353293993,5.492957592010498,4.8450703620910645,-0.0001799390884116,0.0036283410154283,-0.3638641536235809,0.9314449429512024,0.1833101716236932,0.0026837018045415,0.0001321633263324,0.0045670322142541,-0.02039385586977,0.1203185841441154,-0.0011291597038507,0.003545481711626,-0.1281920075416565,0.9917423725128174,0.0041644262879805,-0.0392128691581019,-0.031417479306638,-0.0830063819885253,-0.4115428328514099,0.1607942581176757,110,69,14834,13782
17.3,1788353294093,5.380281925201416,5.014084339141846,-0.0005203769542276,0.0031246752478182,-0.3657231032848358,0.9307183027267456,0.1836367209013497,-0.0040291546245726,-7.766917908444298e-06,-0.0016460553742945,-0.0262577403336763,-0.0811661854386329,-0.0013165157288312,0.002832400612533,-0.1310423612594604,0.9913718104362488,-0.0039048822584554,-0.0022008646715935,-0.0406142338139444,0.0590530037879943,0.229886770248413,-0.5542526245117188,46,67,13460,14393
17.4,1788353294193,4.901408672332764,5.042253494262695,-0.0008579488494433,0.0027965223416686,-0.368123710155487,0.9297721982002258,0.1778510515248497,-0.001469316867873,5.758388956552447e-05,-0.0043845362961292,-0.0160059537738561,-0.0480187982320785,-0.0014160815626382,0.0020965477451682,-0.1328392326831817,0.9911344051361084,0.0053542254660857,-0.0244750511162494,-0.020649742716218,0.0565786361694335,-0.1219422817230224,0.8223943710327148,110,95,14966,14671
17.5,1788353294293,4.8450703620910645,4.957746505737305,-0.0015146567020565,0.0013466650852933,-0.3680137097835541,0.9298181533813475,0.1815698439144225,0.002222859973513,9.108199401829124e-05,-0.0064277411438524,-0.034549307078123,0.0064563853666186,-0.001931969076395,0.0006371857598423,-0.1326223015785217,0.9911646246910096,-0.0014736031661336,-0.0234748100963817,-0.001718361878938,0.1621099114418029,0.0213006138801574,-0.7955417633056641,87,76,15105,14966
17.6,1788353294393,5.014084339141846,4.929577350616455,-0.0018324425909668,0.0008744676015339,-0.3678679466247558,0.9298758506774902,0.1831098929547291,-0.0016059382247464,7.467570622092648e-05,-0.0003343539719935,-0.0157529357820749,0.0066385515965521,-0.0018517998978495,-3.239698708057404e-05,-0.1322045475244522,0.991220772266388,0.0054244447694349,-0.0296557153008183,0.0141605614705922,0.1255560517311096,0.167276382446289,0.541111946105957,42,78,14535,14979
17.7,1788353294493,5.126760482788086,5.042253494262695,-0.001480491599068,0.0008904054411686,-0.3673582375049591,0.9300779700279236,0.1792061052511984,0.0003755097584632,-8.563383384171341e-05,0.0054142884910106,0.0151692302897572,0.0090503450483083,-0.0017437133938074,9.04584303498268e-05,-0.1319849193096161,0.991250216960907,-0.0024183148539755,-0.028292784733081,-0.0046487463598573,0.0439696907997131,0.0823347568511962,0.0469398498535156,53,59,15348,13501
17.8,1788353294593,4.873239517211914,5.098591327667236,-0.001757995923981,0.000460046052467,-0.3698945641517639,0.9290720224380492,0.1771625155069766,-0.0025964573149812,3.3587115941573754e-05,-6.57246564514935e-05,3.6239904147805646e-05,-0.0763073861598968,-0.0017366921529173,-0.0003999536857008,-0.1356470882892608,0.9907556176185608,0.0058481264335654,-0.0361270474581665,-0.0466299629725609,-0.4362069964408874,0.3325735330581665,-0.0459613800048828,79,78,15121,14543
17.9,1788353294693,5.070422649383545,5.408450603485107,-0.0029989809263497,0.0026286067441105,-0.3719192147254944,0.9282565116882324,0.1730032576449007,0.0012263608520259,-0.0001787162036667,-0.0599174425005912,0.0527720265090465,-0.0385053381323814,-0.0027555162087082,0.0011654552072286,-0.1355280131101608,0.9907690286636353,0.0599752509462359,-0.0385043753408234,0.0851814177312435,-0.0564945340156555,-0.3135631680488586,0.0082368850708007,43,112,14288,14785
18.0,1788353294793,5.492957592010498,5.070422649383545,-0.0019785105250775,-0.0002484861761331,-0.3670062720775604,0.9302162528038024,0.1870593274739371,-0.001696447431539,0.0002876692126891,0.027031309902668,-0.0432903692126274,0.1262774914503097,-0.0020009484142065,-0.0008794823661446,-0.1313395053148269,0.9913350343704224,-0.008185952651257,-0.0318669152596051,-0.0074464778030701,0.2298570275306701,-0.3065081238746643,0.4356365203857422,84,82,13240,14109
18.1,1788353294893,4.873239517211914,5.014084339141846,-0.0022361516021192,-0.0001379706081934,-0.3681843876838684,0.9297500252723694,0.1715262505671917,-0.0036070309173452,-9.191783330350818e-05,-0.0110959140583872,0.00041249737842,-0.0499403439462184,-0.0020338287577033,-7.579848170280457e-05,-0.1324827671051025,0.9911832809448242,0.0082244085227987,-0.0001479491776511,0.0324665273315538,0.0699846744537353,0.230582058429718,0.6316280364990234,92,113,15253,14826
18.2,1788353294993,4.873239517211914,5.154929637908936,-0.0019748196937143,0.0002272303099744,-0.3672942221164703,0.9301027059555054,0.1783057009555098,0.004661148056194,-2.185801629975505e-06,0.0043363315053284,-0.0086530540138483,0.0322065278887748,-0.0019493177533149,-0.0007254546508193,-0.1303249299526214,0.991469144821167,0.0018152139099127,-0.0158552811235422,0.0311891645749027,-0.0517565011978149,-0.0768031477928161,0.2109956741333007,44,101,14166,15407
18.3,1788353295093,5.295774459838867,5.126760482788086,-0.0019657546654343,-0.0002648908412083,-0.3647411167621612,0.9311068654060364,0.1843314852303938,0.0013035788716156,-2.141589600943592e-05,0.0041526723653078,-0.0042605176568031,0.0479849725961685,-0.0018422966822981,-0.0009018694981932,-0.128523364663124,0.9917043447494508,0.0047129365346308,-0.0046784373067613,0.053228479486746,-0.0516583919525146,0.0376284122467041,-0.5461969375610352,111,54,13763,14378
18.4,1788353295193,4.901408672332764,4.957746505737305,-0.0020260172896087,-0.0007201134576462,-0.3634936213493347,0.93159419298172,0.1788086383976943,0.0008380077901128,2.661600560626301e-05,0.006762527860701,-0.0042228274978697,0.0208125747740268,-0.0018200250342488,-0.0018571885302662,-0.1278951168060302,0.9917842745780944,0.0046486998899627,-0.0128566947050105,-0.0063997285339737,-0.0124999284744262,-0.2241960763931274,0.3480644226074219,102,91,15043,14886
18.5,1788353295293,4.8450703620910645,5.295774459838867,-0.0021376968361437,-0.0010860819602385,-0.3635286092758178,0.9315799474716188,0.1814021340787056,0.0008376317168634,-2.021074204016489e-06,1.182741460326042e-09,-2.365482920652084e-09,1.2111272553738672e-06,-0.0018979366868734,-0.0013069678097963,-0.1278633177280426,0.991789162158966,-0.0070767849183342,-0.0176758198424559,-0.0031434472753093,0.0414526462554931,0.0664674639701843,-0.1020784378051757,83,66,15451,13920
18.6,1788353295393,4.901408672332764,5.014084339141846,-0.0020652199164032,-0.0007689782069064,-0.3635104596614837,0.9315874576568604,0.1791195590947167,-0.0013442189358379,-1.9039078020040605e-06,0.0,0.0,0.0,-0.0018420573323965,-0.0016248431056737,-0.127725675702095,0.9918065667152404,0.0006966531245658,-0.0319119619773336,-0.0009183640835108,-0.3213138580322265,-0.0905837416648864,-0.086740493774414,83,73,15036,14598
18.7,1788353295493,4.873239517211914,5.211267471313477,-0.0022699947003275,-0.0012762080878019,-0.363460898399353,0.9316058158874512,0.1778609419085015,0.0014524910247507,-1.592374321243821e-06,0.0,0.0,0.0,-0.0019639870151877,-0.002252853475511,-0.1275584399700164,0.991826593875885,0.0026783885619851,-0.0363141112721201,0.0129566797450403,-0.1497378945350647,-0.1777430176734924,-0.4855556488037109,54,72,15427,14322
18.8,1788353295593,4.985915660858154,5.098591327667236,-0.0022699947003275,-0.0012762080878019,-0.363460898399353,0.9316058158874512,0.1834942682704241,0.0045776557751408,9.9410853989622e-08,0.0,0.0,0.0,-0.0022187503054738,-0.0027151769027113,-0.1270765960216522,0.9918866753578186,-0.0035157243896213,-0.0251292093155779,0.0090874887221022,-0.0744456052780151,0.1237686276435852,0.6703643798828125,50,93,14810,14425
18.9,1788353295693,3.323943614959717,4.2253522872924805,-0.0026182550936937,-0.0017785036470741,-0.3629111349582672,0.931818425655365,0.1743282075811642,-0.0019986730072508,1.977461512063959e-06,-6.862711288135871e-09,-6.862711288135871e-09,0.0,-0.0020875642076134,-0.0021813167259097,-0.1272539049386978,0.9918656349182128,-0.0020475468804891,0.0290157688101695,-0.0138112647899221,-0.235834538936615,-0.149150550365448,-1.0438365936279297,18,51,9510,12459
19.0,1788353295793,1.0140844583511353,3.126760482788086,-0.0022876621223986,-0.00138401822187,-0.3584060668945312,0.93356192111969,0.1375094728751462,0.0023481769693904,-0.0001113414070518,0.006008397322148,0.0162128340452909,0.1635630279779434,-0.0016983393579721,-0.00169522408396,-0.1158692464232444,0.9932615756988524,0.0069400844574722,0.0016515545355191,0.2878025573640977,-1.069372057914734,0.1456219553947448,-0.6338930130004883,58,27,0,7972
19.1,1788353295893,-1.408450722694397,2.0,-0.0018540319288149,-0.0011215388076379,-0.3408997356891632,0.9400970935821532,0.0439770867903112,-0.0011602658798819,-1.338105306155079e-05,0.0063475733622908,0.0047910688444972,0.4299399554729461,-0.0014509381726384,-0.0015455819666385,-0.0965243652462959,0.9953283667564392,0.0054171270010517,-0.0002081496049256,0.4557571929790625,-0.6435731053352356,0.1218527555465698,0.1438741683959961,176,45,-8875,5531
19.2,1788353295993,-2.2253520488739014,1.1267606019973757,-0.0018825224833562,-0.0010060759959742,-0.3201394379138946,0.947368025779724,-0.0141097939085903,0.0023091549843769,-1.948574909199798e-06,-0.0044042011722922,0.0022925317753106,0.5262983441352844,-0.0017383499071002,-0.0014900108799338,-0.074740432202816,0.9972003698349,-0.0084098247614356,-0.0065817890450233,0.4287598826094367,0.6634474396705627,-0.1911515593528747,0.03033447265625,74,330,-6841,9714
19.3,1788353296093,-1.94366192817688,2.0,-0.0027104932814836,9.991100523620844e-05,-0.2967648506164551,0.9549468159675598,-0.0042405680431413,0.0001348404864461,-2.0110939387112078e-06,-0.0349558778107166,0.0266319029033184,0.5429028868675232,-0.0034241555258631,-2.335384488105774e-05,-0.0410631634294986,0.9991507530212402,-0.0224009770903488,0.0166968038798585,0.6121924617024476,-0.0138577222824096,-0.3077479004859924,-0.2952413558959961,45,122,-6476,7152
19.4,1788353296193,-1.4647886753082275,2.0,-0.0032682702876627,0.0004688265908043,-0.2700461745262146,0.9628416895866394,0.0092692760828792,-0.0028870671147927,8.366923166908073e-08,0.0063029914163053,-0.0157475788146257,0.589448869228363,-0.0026047984138131,-0.0009911293163895,-0.0156221967190504,0.9998741149902344,0.0301507844677605,-0.0311334621927925,0.4883759132345074,-0.2213727235794067,-0.1597828865051269,0.0911998748779296,105,43,-6127,3477
19.5,1788353296293,-1.5211267471313477,1.4647886753082275,-0.0022818727884441,-0.0010128068970516,-0.241716980934143,0.9703435897827148,-0.000991245218143,-0.0001344763978419,-2.982729585188731e-06,0.017895532771945,-0.0142283141613006,0.4721654951572418,-0.0019225357100367,-0.0016448907554149,0.0051735695451498,0.9999834299087524,0.0050294295851378,-0.0110720517527205,0.4299670951714829,-0.1343493461608886,-0.0374754071235656,-0.104227066040039,73,31,-6317,4764
19.6,1788353296393,-1.5492957830429075,1.408450722694397,-0.0023092804476618,-0.0013031165581196,-0.2223012298345565,0.9749743938446044,-0.0042022419158161,-0.0020893627709833,1.2370216838141706e-06,0.000853203877341,-0.0054687499068677,0.4456713199615478,-0.0018727257847785,-0.0019440054893493,0.030078861862421,0.9995439052581788,0.0027533963539152,-0.0056459431279246,0.3812555304825098,0.0941784977912902,-0.0143586993217468,-0.0178651809692382,82,110,-6300,5639
19.7,1788353296493,-1.0140844583511353,1.0985915660858154,-0.0022341161966323,-0.0014863067772239,-0.2041100114583969,0.9789442420005798,0.000518729599416,0.0008927867772789,-3.342953004585591e-06,0.0033585715573281,-0.0027710627764463,0.3653483390808105,-0.001752071082592,-0.0020428309217095,0.0457789376378059,0.9989479184150696,0.0029449831602572,-0.002342379697127,0.3382297583404141,-0.1245965361595153,0.0431829690933227,-0.0052089691162109,75,78,-5793,4852
19.8,1788353296593,-1.183098554611206,1.154929518699646,-0.002127043204382,-0.0016472565475851,-0.1845252364873886,0.9828240871429444,-0.001986421924881,0.001969235662156,2.8520846473134798e-06,0.003190254792571,-0.0030708515550941,0.3817484974861145,-0.0016891965642571,-0.0021457467228174,0.0624914765357971,0.998041808605194,-0.0014014840513581,-0.0031268403255925,0.3830362242714537,-0.0973407626152038,-0.0650616288185119,-8.296966552734375e-05,91,79,-5263,4797
19.9,1788353296693,-1.211267590522766,1.2957746982574463,-0.0022460026666522,-0.0016956062754616,-0.1672526001930236,0.9859101176261902,0.0021119315036564,-0.000441738978223,-1.010809685066081e-06,-0.0021030139178037,-0.0004712373192887,0.3427585959434509,-0.0017823576927185,-0.0022015133872628,0.0837065204977989,0.9964864253997804,0.0006627758991717,-0.0043489646050119,0.3908236903952261,-0.041853129863739,0.1045433282852172,0.072214126586914,55,82,-5398,4710
20.0,1788353296793,-1.183098554611206,1.154929518699646,-0.0023188958875834,-0.0018176382873207,-0.1512150019407272,0.988496482372284,-3.5806233195377026e-05,0.0025475121017755,4.156480106974757e-07,-0.0009054820984601,-0.0060178567655384,0.3672832548618316,-0.0017785290256142,-0.0024237381294369,0.1004121527075767,0.9949414134025574,0.0031029717204299,-0.010464619246326,0.3654018870784212,0.0173304677009582,0.028432548046112,0.0361347198486328,30,42,-3169,2958
20.1,1788353296893,-0.8732394576072693,0.9295774698257446,-0.0024122612085193,-0.0019234732026234,-0.1339081078767776,0.9909889101982116,-0.0012156204108012,2.4403718223872757e-05,6.285417868484858e-07,-0.0027064480818808,-0.0023187533952295,0.3261674344539642,-0.001901420764625,-0.0024612192064523,0.1133973896503448,0.9935448169708252,-0.0007222255502199,-0.0011511520275334,0.2238467738553764,0.1054174900054931,-0.0815438032150268,-0.0161972045898437,51,55,-3809,3395
20.2,1788353296993,-0.8732394576072693,0.7887324094772339,-0.0024527148343622,-0.0019890938419848,-0.1247047707438469,0.9921888709068298,0.0001147977956267,0.0003751793952548,1.1403151679947157e-06,0.0010051333811134,-0.0054127625189721,0.1887428015470504,-0.00192457344383,-0.0025206971913576,0.1274455189704895,0.9918404817581176,-0.0014230961684293,0.0009295124178407,0.302884400905836,0.124659776687622,-0.089489459991455,0.0538406372070312,70,80,-3715,3673
20.3,1788353297093,0.1690140813589096,1.4647886753082275,-0.0024543122854083,-0.0019338418496772,-0.1096170246601104,0.9939689636230468,0.0040823490475619,-0.0022399978005396,7.833134078829977e-07,0.0013169333105906,0.0006041734013706,0.2228500097990036,-0.001930208876729,-0.0025200899690389,0.1329717189073562,0.9911147952079772,-0.0020427058759002,-0.0030785020379031,-0.0688547817742268,0.3440365195274353,-0.0030609965324401,0.1080102920532226,146,252,5907,5481
20.4,1788353297193,2.309859037399292,3.6056337356567374,-0.0025172571185976,-0.0020955046638846,-0.1092022806406021,0.9940141439437866,0.0559161072383364,0.0010517344291371,2.9884054865475355e-06,6.664211105089635e-05,-0.0037758278194814,0.0535824000835418,-0.0020695813000202,-0.0024322448298335,0.1372180134057998,0.9905357956886292,-0.0052803760324779,0.0106450251626772,0.1931198667746168,0.7575234770774841,-0.3315861821174621,0.3838977813720703,168,213,11011,14741
20.5,1788353297293,4.535211086273193,6.0,-0.0025801069568842,-0.0015745107084512,-0.0985791683197021,0.995124578475952,0.1475945522089311,0.0007717667848356,-2.100922241544708e-05,-9.889491047943012e-05,0.005695245694369,0.2349012047052383,-0.0021512527018785,-0.0022974070161581,0.1476352512836456,0.9890368580818176,-0.0038764098348479,-0.0149234161388053,0.2233569413884388,0.9205225110054016,0.0510154962539672,1.0117502212524414,185,182,13697,19421
20.6,1788353297393,3.8309860229492183,5.943662166595459,-0.0027119126170873,-0.0006866380572319,-0.0858255624771118,0.9963062405586244,0.2024208952813979,0.0087730185448921,-7.851460205083087e-06,-0.0050369552336633,0.0085507342591881,0.3141816556453705,-0.0022159107029438,-0.0014750715345144,0.1663319617509842,0.9860662817955016,0.010550916897301,0.0031347637274665,0.3323156450209358,-0.0408387780189514,-0.0410021543502807,-0.5191202163696289,144,60,14065,16902
20.7,1788353297493,3.91549301147461,6.02816915512085,-0.0023538200184702,-0.0002994767564814,-0.0685785859823226,0.9976429343223572,0.1779212197368605,0.0063041801480195,-7.367320148121468e-05,-0.0008446346619166,0.0268943142145872,0.2610786855220794,-0.0020193755626678,-0.0012408588081598,0.1779004037380218,0.9840456247329712,0.0082230366376226,-0.0279550402716378,0.2416627079607081,-0.0256410837173461,-0.0882405042648315,-0.6090583801269531,100,62,13725,16241
20.8,1788353297593,4.02816915512085,5.97183084487915,-0.0018766708672046,-0.0010155657073482,-0.0581062398850917,0.9983080625534058,0.1731589003262636,0.0057668139750063,5.029413164346798e-05,0.0175213795155286,-0.0146935479715466,0.2202927470207214,-0.0011806646361947,-0.0020076753571629,0.1915958225727081,0.9814711809158324,0.0087622968393332,-0.0237228852188318,0.260661386320236,-0.0396099686622619,-0.0243768095970153,0.2335033416748047,92,103,13282,16854
20.9,1788353297693,4.197183132171631,5.915493011474609,-0.0013386020436882,-0.0016469613183289,-0.0452116876840591,0.9989752173423768,0.1776393743139966,0.0026531535889647,4.073234073316803e-05,0.0130126671865582,-0.0013892767019569,0.2624755203723907,-0.0004672687500715,-0.0019687265157699,0.2027799040079116,0.979222297668457,0.0221395159362641,-0.0133827306089982,0.247582741606646,-0.1758950352668762,-0.2538517117500305,-0.2825946807861328,122,81,12758,16950
21.0,1788353297793,4.788732528686523,5.549295902252197,-0.0005156275001354,-0.0013704795856028,-0.0313349738717079,0.9995079040527344,0.1809660111382184,0.0059190521189343,-3.505195974274506e-05,0.0129232909530401,0.0137049667537212,0.2618242800235748,-3.0957162380218506e-06,-0.0015124706551432,0.2140213698148727,0.9768278002738952,0.0139687077135979,-0.0064513649637099,0.2270826617655402,0.244180142879486,0.0266515016555786,-0.2530221939086914,87,74,13038,15701
21.1,1788353297893,4.309859275817871,5.492957592010498,-0.0003133406571578,-0.0019520032219588,-0.0218332707881927,0.9997596740722656,0.1852739359041445,0.0067760348864724,8.194715243711307e-05,0.0032178214751183,-0.0118647897616028,0.1802105605602264,0.0005163494497537,-0.0018129292875528,0.2239266782999038,0.9746041893959044,0.0168110585504841,0.0005945970321901,0.1501568141921207,-0.0187370777130126,-0.0851834416389465,-0.5083866119384766,97,81,14477,15902
21.2,1788353297993,4.788732528686523,5.633802890777588,-0.0002152645174646,-0.0025526233948767,-0.0154921887442469,0.9998767375946044,0.1838921586536736,0.0031251138667486,8.06712743215009e-05,-0.008773592300713,-0.0270758662372827,0.1244661137461662,0.0005487529560923,-0.0028351703658699,0.228792056441307,0.9734711050987244,0.0066882355267688,-0.0382499842720559,0.1111258872426459,-0.1322450041770935,0.2062764763832092,0.9310798645019532,102,75,12596,15415
21.3,1788353298093,4.563380241394043,5.85915470123291,-0.0022385567426681,-0.001071014557965,-0.0113797774538397,0.9999321699142456,0.169603276462767,0.0031856481511586,-0.0002177654338101,-0.0779493898153305,0.0654247477650642,0.0632287561893463,-0.0009457999840378,-0.002212974242866,0.2330860346555709,0.9724531173706056,0.0652691129821732,-0.0649739950249674,0.1682402489133082,0.0252298116683959,-0.2363344430923462,-0.5914087295532227,33,91,13402,16106
21.4,1788353298193,4.478873252868652,5.436619758605957,-0.0009990441612899,-0.0024266529362648,-0.0028778642881661,0.9999924302101136,0.1948063371791259,-0.0032727171762238,-3.080290649125923e-07,-0.0016534774331375,-0.0051697739399969,0.2117937952280044,-0.0009936420246958,-0.0020384369418025,0.241250455379486,0.9704602956771852,-0.0209775607549536,0.0496388220304656,0.0813160342983011,0.0324375033378601,-0.1385080814361572,-0.0559368133544921,37,107,13301,16154
21.5,1788353298293,4.2253522872924805,5.605633735656738,-0.0017900356324389,-0.0023596107494086,0.0039837746880948,0.9999877214431764,0.1718971757510501,0.0006750128457324,3.931150206065276e-05,-0.0124149331822991,-0.0177959594875574,0.1341511458158493,-0.0015780683606863,-0.0026336051523685,0.2476990967988968,0.9688321948051452,-0.0246415089593899,0.012174881129412,0.1634860245908582,0.016853392124176,0.0219661593437194,0.3450460433959961,92,94,14379,16208
21.6,1788353298393,4.873239517211914,5.549295902252197,-0.0022032409906387,-0.0022548693232238,0.0115872425958514,0.9999278783798218,0.1834542232330137,0.0029802121049299,-6.901401453246335e-05,-0.0006256696069613,0.0075953034684062,0.1714014708995819,-0.0016831951215863,-0.0031307442113757,0.257202535867691,0.96635103225708,-0.0076205588489945,-0.0120909379495078,0.1726552982941542,0.0965355634689331,-0.0205034017562866,-0.0932321548461914,127,53,14313,14146
21.7,1788353298493,4.535211086273193,5.352112770080566,-0.0026105858851224,-0.002626963192597,0.0182353518903255,0.9998268485069276,0.1886576788427356,0.0040040643591587,3.834536980779346e-06,-0.0103779155761003,-0.0015896116383373,0.1097475290298461,-0.0018455972895026,-0.0037727141752839,0.2601716220378876,0.9655532836914062,-0.0054611655968405,-0.0217782664898215,0.0447541820169661,0.0710192918777465,-0.0281546115875244,-0.177591323852539,101,72,15649,14503
21.8,1788353298593,4.563380241394043,5.295774459838867,-0.0028613549657166,-0.0031179238576442,0.0196847952902317,0.999797224998474,0.1816055510493381,-0.0011773185889873,-1.2914212948875412e-05,-0.0074557051993906,0.0047493479214608,0.0167406443506479,-0.0024096900597214,-0.0032725380733609,0.2613206207752228,0.9652435779571532,-0.0134453724132433,0.0225286893788976,0.0285492363296779,-0.1358420252799987,-0.0302015542984008,0.3144216537475586,81,111,15492,15122
21.9,1788353298693,4.8450703620910645,5.154929637908936,-0.0033805964048951,-0.0024609786923974,0.0222081374377012,0.9997445940971376,0.1828278582100611,-0.0009473178892299,-0.0002139446186965,-0.0055484203621745,0.0277585964649915,0.0443949475884437,-0.002865950576961,-0.003338236361742,0.2642173171043396,0.9644532203674316,-0.0126916443823983,-0.0198086321128024,0.0493385008918292,-0.1182711124420166,-0.0149102210998535,0.0037736892700195,33,77,14265,15327
22.0,1788353298793,5.098591327667236,5.183098793029785,-0.0036508857738226,-0.0026024393737316,0.0241598654538393,0.999698042869568,0.1779571053615969,0.0021017915048792,0.0001116284549314,-0.0051239128224551,-0.0217671226710081,0.0448985248804092,-0.0029629068449139,-0.002867211587727,0.2663964629173279,0.963854730129242,0.0029935596259262,0.0147531524845641,0.0670822033666548,-0.2058558464050293,0.2652463316917419,0.5198907852172852,115,109,13633,15412
22.1,1788353298893,4.676056385040283,5.183098793029785,-0.0035706446506083,-0.0024686600081622,0.027018466964364,0.9996255040168762,0.1829713106332581,0.0028743101810603,-2.190459682760149e-05,0.0024626164231449,-0.0136279454454779,0.0575432851910591,-0.003286718390882,-0.0029848953709006,0.2683545053005218,0.9633100628852844,-0.0187710933881673,0.0225176934981879,0.0371022228177325,-0.0443224310874938,-0.0976324081420898,-0.3071489334106445,121,84,15021,15355
22.2,1788353298993,5.211267471313477,5.211267471313477,-0.0038802984636276,-0.002563162241131,0.0290437936782836,0.9995673298835754,0.1736332445387478,0.0016674910373096,3.658263166606391e-05,-0.001647685538046,-0.0093523813411593,0.0332758575677871,-0.003418706357479,-0.0030236057937145,0.2710535824298858,0.9625534415245056,-0.0057654040827555,0.0210262429191966,0.0495044226227381,-0.0819840431213378,0.0729318261146545,0.1153707504272461,67,82,13121,15218
22.3,1788353299093,5.098591327667236,5.239436626434326,-0.0040203006938099,-0.0019696555100381,0.0324012264609336,0.9994649291038512,0.1817715546611354,0.0005839677766621,-0.0001319881307146,0.000475987792015,0.0102334683761,0.0657636597752571,-0.0035329349339008,-0.0019822819158434,0.2735286056995392,0.9618553519248962,0.0095277854225306,0.0552559784739518,0.0297841702593094,-0.2033280134201049,-0.1343749761581421,-0.1906156539916992,143,68,14755,13833
22.4,1788353299193,4.732394218444824,5.014084339141846,-0.0040577859617769,-0.0012639820342883,0.033371802419424,0.999433934688568,0.1827691167295765,-0.0005708326752008,3.5210497294257413e-06,-0.0009635663009248,-0.0014293612912297,0.0116507709026336,-0.0036208294332027,-0.0025002816691994,0.2735463380813598,0.9618487358093262,-0.0135923115618687,-0.0110368448759609,-0.0081557302526328,-0.2510384321212768,0.1810680031776428,-0.2484169006347656,127,82,15851,14508
22.5,1788353299293,4.901408672332764,5.267605781555176,-0.0062512154690921,0.0008270508842542,0.0300648733973503,0.9995280504226683,0.1761381832996324,0.0052888247844749,-0.0003298103636324,-0.0687425956130027,0.0762302055954933,-0.0988571494817733,-0.005110046826303,-0.0012693088501691,0.2711042165756225,0.9625356793403624,0.063832387897273,-0.0571164516770249,0.0400693362140318,-0.1796703338623047,-0.4135779738426208,0.5899944305419922,79,74,15023,14448
22.6,1788353299393,4.704225540161133,5.070422649383545,-0.0040866234339773,-0.0005583844613283,0.0335505567491054,0.9994285702705384,0.1790849046007128,-0.0025876494218355,-6.194994667320088e-05,0.0061172018758952,0.0259404648095369,0.0730074271559715,-0.0037994496524333,-0.0022198995575308,0.27276811003685,0.9620697498321532,-0.0030660416752055,0.0281825598405944,-0.0706383794698231,-0.0965996980667114,-0.3348817825317383,-0.8422355651855469,105,88,15792,14097
22.7,1788353299493,4.8450703620910645,5.042253494262695,-0.0042888149619102,-0.0012625969247892,0.0304165072739124,0.9995272755622864,0.1753974971356898,-0.0029851193491086,-4.64351585688674e-06,-0.0044697565026581,0.0064556994475424,-0.0638773739337921,-0.0038799857720732,-0.0021462393924593,0.2708672881126404,0.9626064896583556,0.0005967153370315,0.0077485593408934,0.000606869285948,-0.1060548424720764,0.1897449493408203,1.0798892974853516,47,79,15303,14810
22.8,1788353299593,5.211267471313477,5.014084339141846,-0.0042343675158917,-0.0009337733499705,0.030647836625576,0.9995208978652954,0.1788264533246729,0.0005829660620114,1.728613681749856e-05,0.0022195177152752,0.0083507997915148,0.0089119859039783,-0.0038879634812474,-0.0023943148553371,0.2712787389755249,0.9624900221824646,-0.0066629339254405,-0.0194055647382342,0.0065687604764019,-0.0241314768791198,0.1236436963081359,0.5216894149780273,50,75,13900,14830
22.9,1788353299693,5.380281925201416,4.929577350616455,-0.0042757815681397,-0.0020127757452428,0.0311942435801029,0.9995021224021912,0.1807981410160185,0.0009622248036458,7.325663737358946e-05,0.0010312112281098,-0.0137019418179988,0.0071303760632872,-0.003715599887073,-0.0024258149787783,0.2713060081005096,0.9624829888343812,-0.0016112855677139,0.0175016759738889,-0.0170214628258068,-0.1509836912155151,-0.1269916892051696,0.2536296844482422,63,85,13733,15240
23.0,1788353299793,4.901408672332764,4.985915660858154,-0.0040417932905256,-0.0019163523102179,0.0306689478456974,0.9995195865631104,0.1813799807100839,-0.0074540354925416,4.629893464914023e-05,0.0066922632977366,-0.0229411963373422,-0.010604933835566,-0.0033627497032284,-0.00337372161448,0.2704505324363708,0.96272212266922,-0.0002001607735993,-0.02363857643884,-0.0167275561761347,-0.0545369982719421,0.0070108771324157,-0.2285280227661132,104,101,14949,15091
23.1,1788353299893,4.901408672332764,5.070422649383545,-0.0040857610292732,-0.0021178245078772,0.0302342046052217,0.9995322823524476,0.1771754783417507,0.0003810398698383,-2.9295351600605427e-06,5.814854708852123e-10,5.814854708852123e-10,2.977205610932288e-07,-0.0035076737403869,-0.0033331895247101,0.2711315155029297,0.9625301361083984,-0.0086029361298855,0.0065368094302797,0.0304981932891614,0.0682825446128845,0.1850031018257141,0.3747997283935547,100,85,15092,14861
23.2,1788353299993,4.985915660858154,4.985915660858154,-0.0043831639923155,-0.0019068263936787,0.0311019998043775,0.999504804611206,0.1840407466242345,-0.001443583565517,-4.094800550434239e-05,-0.0086481794714927,0.0218175612390041,0.0141656594350934,-0.0039565004408359,-0.002547918818891,0.2716187536716461,0.9623934626579284,-0.0085273822553719,0.0614203929283873,0.0003869484585441,-0.124592900276184,0.2661725878715515,0.2059135437011718,51,92,14845,14916
23.3,1788353300093,5.267605781555176,5.014084339141846,-0.0043101152405142,-0.0016619270900264,0.031250849366188,0.9995008707046508,0.1816840463305623,-0.000553605976094,-3.35784091465123e-05,0.00328264455311,0.0098137455061078,0.0060794567689299,-0.0035589803010225,-0.002598256804049,0.2716303169727325,0.9623915553092957,0.0132689029197795,0.0022389873198496,-0.002200264711026,0.037926435470581,-0.223745584487915,-0.0237073898315429,65,75,13977,14761
23.4,1788353300193,5.042253494262695,5.014084339141846,-0.0040210974402725,-0.0015323439147323,0.0312737450003623,0.9995015263557434,0.1811404419247615,0.0010175199888446,1.8311469826948875e-06,0.0,9.74350378157851e-10,0.0,-0.0034897355362772,-0.0021322993561625,0.2716042697429657,0.9624003767967224,0.0095927878595306,-0.0082272829885221,0.0099867893621094,-0.056201696395874,0.1863687634468078,0.3760499954223633,43,87,14719,14684
23.5,1788353300293,5.295774459838867,4.901408672332764,-0.0035622238647192,-0.0015534048434346,0.0313563011586666,0.9995007514953612,0.1793465312105215,-0.0002801845301661,-2.291392155215761e-06,0.0094202980399131,-0.0096764806658029,0.0047134552150964,-0.0029713986441493,-0.0021654609590768,0.2713158726692199,0.9624833464622498,0.0085454379973807,0.0042288854857104,-0.0238227226933654,-0.0104957818984985,0.102504551410675,-0.7630119323730469,83,79,14067,14956
23.6,1788353300393,5.549295902252197,5.098591327667236,-0.0032781842164695,-0.0012788885505869,0.0306428465992212,0.999524176120758,0.1718429744068733,0.0035031387376624,-2.2092628035194496e-05,0.0085642682388424,0.0119279753416776,-0.0164068918675184,-0.0027904966846108,-0.0018629347905516,0.2713930308818817,0.9624627828598022,-0.0001797391245834,-0.008376841891774,0.0140797906337519,-0.1696484684944152,0.0506848692893981,0.7078075408935547,75,68,13016,14426
23.7,1788353300493,5.183098793029785,4.732394218444824,-0.003273936221376,-0.0006072386167943,0.0314034931361675,0.9995012283325196,0.1793588863613953,-0.0014522578916346,1.7739716350086006e-06,0.001028967439197,0.0267465095967054,0.0305269695818424,-0.0046854242682456,4.395097494125366e-05,0.2705656290054321,0.9626901149749756,-0.076689213697518,0.1149744458491634,-0.0831276131237826,0.2646304368972778,-0.1571127772331237,-0.097294807434082,157,147,15795,15257
23.8,1788353300593,5.098591327667236,4.760563373565674,-0.0034613769967108,-0.0009258934296667,0.0292182322591543,0.999566614627838,0.189829235627323,0.0027042980343497,0.0002417162588219,0.0751563981175422,-0.0876916274428367,-0.0015188143588602,-0.002395543269813,-0.0018384186550974,0.270717591047287,0.9626541137695312,0.0302968365320607,-0.0221783828330157,0.0725116170930871,0.0657321810722351,0.3603392243385315,-0.3925113677978515,104,65,15793,14085
23.9,1788353300693,5.492957592010498,4.704225540161133,-0.0028276490047574,-0.0017590809147804,0.0269362833350896,0.9996315836906432,0.1783165865915567,-0.0018561690106181,0.0001285966522057,-0.0023318668827414,-0.0239953249692916,-0.0790928825736045,-0.002354547381401,-0.0023553818464279,0.2642990350723266,0.9644350409507751,0.0001004572627074,0.0082057860765502,-0.1815830642980463,-0.1166337728500366,-0.2176826000213623,-0.2213802337646484,86,139,14668,14575
24.0,1788353300793,5.380281925201416,4.901408672332764,-0.0028192764148116,-0.0018910975195467,0.019813297316432,0.9997979998588562,0.1742438650467786,-0.0039306763020814,1.3642904040980967e-05,0.0012762366095557,-0.0061888638883829,-0.1564814001321792,-0.0023372350260615,-0.0025620479136705,0.2593821287155151,0.965768575668335,-0.005856406287961,-0.0072428499646198,-0.0648295939271819,0.0710254311561584,0.1958805322647094,0.5233306884765625,124,77,14471,14298
24.1,1788353300893,5.521126747131348,4.8450703620910645,-0.0029461565427482,-0.0015847380273044,0.016728451475501,0.9998544454574584,0.1777987535765432,0.0023175836682322,-4.06603684297389e-05,-0.0035953221376985,0.0122574185952544,-0.0838776305317878,-0.0023976536467671,-0.002212337218225,0.2568805813789367,0.9664376378059388,0.0054098826447203,0.0004280660495176,-0.047934370495746,0.1281425356864929,0.1237001419067382,0.3758583068847656,102,95,14064,14567
24.2,1788353300993,5.436619758605957,4.901408672332764,-0.002897800412029,-0.0017206993652507,0.0141356596723198,0.999894380569458,0.1840237174844572,-0.0035694422636356,3.8106696116231977e-05,-0.0010206621373072,-0.0186052899807691,-0.0487726293504238,-0.002278477884829,-0.0026925560086965,0.2541013658046722,0.9671711325645448,-0.0007562578617326,-0.0065967592456981,-0.0484506745334011,-0.0645867586135864,-0.0944969058036804,-0.6772298812866211,60,75,14241,14307
24.3,1788353301093,5.352112770080566,4.816901206970215,-0.0028700181283056,-0.0018475495744496,0.0118503086268901,0.9999239444732666,0.1755594562282906,-0.0039918182999684,-6.347638840579448e-05,0.0015266225673258,0.0127212721854448,-0.0371878445148468,-0.002599760890007,-0.0025849072262644,0.2512849271297455,0.9679062366485596,-0.0185428042669101,0.0171105889377465,-0.066886586603962,0.0680730938911438,0.1632413268089294,-0.2993497848510742,50,114,14487,14649
24.4,1788353301193,5.408450603485107,4.8450703620910645,-0.0032493767794221,-0.0021505975164473,0.0092137893661856,0.9999499320983888,0.1861745991451304,-0.0037941705738047,2.3989607390287142e-06,-0.0056219599209725,-0.0002162375458283,-0.0302427969872951,-0.002252522855997,-0.0034733088687062,0.2496838569641113,0.9683186411857604,0.0174258695108349,-0.0446990221175592,-0.0321535681230992,0.0369432568550109,-0.016020119190216,-0.6356019973754883,48,70,14157,14576
24.5,1788353301293,5.352112770080566,4.929577350616455,-0.0028991773724555,-0.0029864823445677,0.0072529478929936,0.9999650120735168,0.1770868949676138,0.0037988989872258,8.405266856560392e-05,0.00706402445212,-0.0149613944813609,-0.0590450949966907,-0.0018373457714915,-0.0034263348206877,0.2474627941846847,0.968889594078064,0.0134314770401092,-0.0043956643735272,-0.0406601652652207,-0.3148059248924255,-0.0604283213615417,0.1688089370727539,52,70,14629,14153
24.6,1788353301393,5.464788913726807,4.8450703620910645,-0.0026561040431261,-0.0026313017588108,0.0054319710470736,0.9999783039093018,0.1749913645469724,-0.0016972771082625,-2.8891689683753926e-06,0.0069793304428458,0.0085922786965966,-0.0615699216723442,-0.0020557176321744,-0.0027364054694771,0.2455152124166488,0.9693867564201356,-0.0045368902364505,0.0292399037680466,-0.0419045539559034,-0.04929119348526,0.0570833086967468,0.1493606567382812,114,101,14357,14315
24.7,1788353301493,5.492957592010498,4.873239517211914,-0.0027421696577221,-0.0028476221486926,0.0021565200295299,0.9999898672103882,0.1791794192086865,-0.0024512699466935,5.137837371104883e-05,0.0023730748798698,-0.0106951398774981,-0.0600256510078907,-0.0018755784258246,-0.0031399577856063,0.2427918761968612,0.9700714945793152,0.0095832588436378,0.0089406647570079,-0.0608799065304357,0.0765479207038879,-0.1867578625679016,0.7559003829956055,120,101,14403,14150
24.8,1788353301593,5.436619758605957,4.901408672332764,-0.002650941023603,-0.0022501812782138,-0.0004720838915091,0.9999938011169434,0.1898443199924317,-0.0060721124484593,4.129819599462158e-06,-0.0051258942112326,0.0027134702540934,-0.0715741887688636,-0.0020190747454762,-0.0030005322769284,0.2396156191825866,0.9708611369132996,-0.003124517435565,-0.0063571858477063,-0.0449861983108654,-0.08388352394104,0.0565494298934936,-0.0102624893188476,95,100,14375,14189
24.9,1788353301693,5.380281925201416,5.014084339141846,-0.002751181134954,-0.0028019908349961,-0.0031115354504436,0.9999874830245972,0.178220277274341,-0.000813275814425,1.7364677855802026e-05,-0.0029556914232671,-0.0156051907688379,-0.0543556660413742,-0.0019225534051656,-0.003191003575921,0.237882375717163,0.9712868332862854,0.0026639795124908,0.0156225628820273,-0.0101790099450214,0.0258729457855224,0.0257134437561035,0.571599006652832,102,85,14111,14337
25.0,1788353301793,5.492957592010498,4.8450703620910645,-0.0041511319577693,-0.001621434581466,-0.0054864133708179,0.9999749660491944,0.1773408155615684,0.0006225566747941,-6.920403692181479e-05,-0.0510920323431491,0.0403766632080078,-0.0717431604862213,-0.004564537666738,-0.0016921553760766,0.2350824028253555,0.9719632863998412,-0.074020862887151,0.088964980874722,-0.0936266448474638,0.168755292892456,-0.2654705047607422,0.7930517196655273,80,166,14468,15395
25.1,1788353301893,5.408450603485107,4.929577350616455,-0.0029795242007821,-0.0016509837005287,-0.0052838278934359,0.9999802708625792,0.1910634930430899,-0.0031582175389604,0.0001531287688042,0.0504432283341884,-0.0274886395782232,0.032200813293457,-0.0023687640205025,-0.0026584845036268,0.2350445538759231,0.9719781279563904,0.0031661213334875,-0.0290705731145136,-0.0890400515785543,-0.0587599873542785,-0.2835251688957214,-0.9237594604492188,44,38,14412,13458
25.2,1788353301993,5.436619758605957,4.816901206970215,-0.0030020205304026,-0.0014551642816513,-0.0089744701981544,0.9999541640281676,0.1754600849736808,-0.0045276316720099,-0.0001091471212582,-0.0027201597113162,0.0227692946791648,-0.1022832691669464,-0.0027036415413022,-0.0023021111264824,0.2303975820541381,0.9730901718139648,-0.0094745056576045,-0.0196029351359995,-0.0992545271669118,0.1858968138694763,0.1513304710388183,0.5156011581420898,62,108,14463,14282
25.3,1788353302093,5.295774459838867,4.957746505737305,-0.0033605915959924,-0.0014300303300842,-0.0128658637404441,0.999910533428192,0.18513945175706,-0.0026774979905106,-2.189394416907359e-05,-0.0059572518803179,0.0064374110661447,-0.0570200234651565,-0.0028966479003429,-0.00222141854465,0.2281890958547592,0.9736100435256958,0.0011785745522477,-0.0024203304160669,-0.0441117187889236,-0.1075947284698486,-0.0798404812812805,-0.571955680847168,44,72,14885,14065
25.4,1788353302193,5.323943614959717,4.591549396514893,-0.0033950405195355,-0.0017005680128932,-0.0155987665057182,0.9998710751533508,0.1805531422388303,0.0011543551020099,4.583324800655903e-05,-0.002261018147692,-0.0121352300047874,-0.104520060122013,-0.0029569156467914,-0.0023753205314278,0.2222694158554077,0.9749779105186462,0.0011213937971253,-0.0063165510688301,-0.1297137647273306,-0.3469395637512207,-0.040509283542633,0.4884939193725586,65,73,16695,12816
25.5,1788353302293,4.056337833404541,4.309859275817871,-0.0034635146148502,-0.0010774683905765,-0.0236680507659912,0.9997133016586304,0.1744405588603834,-0.0036831455098954,2.31589456650338e-05,-0.0010240250267088,0.0118024218827486,-0.1394024491310119,-0.0031656408682465,-0.0017831875011324,0.2158317863941192,0.9764237999916076,-0.0026967814558406,0.0054588983759981,-0.1542310009730596,-0.3152609467506408,-0.0793588161468505,0.0213899612426757,22,44,9248,11589
25.6,1788353302393,1.7464789152145386,3.802816867828369,-0.0035525511484593,-0.0014276267029345,-0.0265535060316324,0.9996401071548462,0.1405210093823684,0.0015057869358359,3.541788754204468e-05,-4.1481791413389146e-05,-0.0178441200405359,0.0068008108064532,-0.0031867129728198,-0.0021336749196052,0.2193174958229065,0.9756459593772888,-0.0072773937264273,0.0143095347307427,0.2192638588159638,-0.8638893961906433,0.4070537686347961,-0.4822225570678711,50,62,493,10524
25.7,1788353302493,-0.1408450752496719,3.323943614959717,-0.0037126669194549,-0.0011378218187019,-0.0123389950022101,0.9999163150787354,0.0653986352590191,0.0067079894280026,-1.2333559262174428e-05,-0.0003654231550171,0.0027041926514357,0.373051106929779,-0.0034785103052854,-0.0019454909488558,0.2464306503534317,0.9691522717475892,-0.011775239381031,-0.0023293620955514,0.6355354282881733,-0.8641653656959534,0.1696160435676574,-0.3535003662109375,296,62,-8890,9970
25.8,1788353302593,-3.239436626434326,2.873239517211914,-0.0036721935030072,-0.0014959147665649,0.0195267666131258,0.9998014569282532,0.0275248426767646,0.0038593420020855,4.6627639808163293e-07,0.0057075908407568,-0.0203857496380805,0.7013647556304932,-0.0031083086505532,-0.0024429894983768,0.2810795605182647,0.9596763253211976,-0.0004503095962943,-0.0065357039998292,0.8770139515433398,-0.7581542134284973,0.2591204047203064,0.4891357421875,161,62,-11285,9046
25.9,1788353302693,-3.070422649383545,3.014084577560425,-0.0034118983894586,-0.0017937492812052,0.0695838555693626,0.997568666934967,-0.0076100253311742,0.0001571066245283,-5.10271232602309e-06,0.0079202409833669,-0.0112216025590896,0.962182879447937,-0.0027705440297722,-0.0027146851643919,0.3216666579246521,0.9468450546264648,0.0063150751537902,-0.0149130003046183,0.9244997884813564,0.0677166581153869,0.3163067698478699,-0.02593994140625,72,56,-9510,8453
26.0,1788353302793,-2.309859037399292,2.619718313217163,-0.0034020389430224,-0.0023711705580353,0.1134039238095283,0.9935402870178224,0.0034224323686991,-0.0006521611697954,-1.238202536301996e-06,0.0015005463501438,-0.0204394645988941,0.8660381436347961,-0.0027932804077863,-0.0030744029209017,0.3674919307231903,0.9300174117088318,-0.002906201423965,0.0117813762188387,0.7208543871867962,-0.1580085158348083,0.1232630610466003,-0.024672508239746,99,80,-9500,7924
26.1,1788353302893,-2.169013977050781,2.253521203994751,-0.0034042305778712,-0.0021616714075207,0.1490155011415481,0.9888266921043396,-0.0022872266444338,0.0038193425110826,2.526987939405602e-06,0.002439429750666,0.0057664569467306,0.7474384307861328,-0.002699751406908,-0.0026808129623532,0.3990861773490906,0.9169055819511414,0.0056856633248581,0.0119969301126991,0.7600787979937192,0.0035172700881958,0.2328152656555175,-0.0136165618896484,88,73,-8136,7170
26.2,1788353302993,-2.197183132171631,2.197183132171631,-0.0033337872009724,-0.0019496420864015,0.1858461052179336,0.982571303844452,0.0016118315949492,0.0023522282237814,-2.7690073802284454e-06,-0.0012084473855793,-0.0019238373497501,0.6378292441368103,-0.0027910517528653,-0.0025035850703716,0.4246505200862884,0.905349612236023,0.0059156727928535,0.0152818560921484,0.5933908980488408,-0.0103184580802917,0.1892463564872741,-0.1933526992797851,108,102,-8381,7707
26.3,1788353303093,-1.8591549396514893,1.8591549396514893,-0.0031876468565315,-0.0014551349449902,0.2171985357999801,0.9761211276054382,0.0003524627191471,0.0037517337545698,-6.076215188620735e-06,0.005142084788531,0.0051461858674883,0.6918375492095947,-0.0026753200218081,-0.0020588338375091,0.4608533680438995,0.8874699473381042,0.0036239723439604,-8.498278895881658e-05,0.6265536392242604,-0.0242065787315368,-0.0447956919670105,0.0844011306762695,62,60,-6941,6353
26.4,1788353303193,-1.7464789152145386,1.8591549396514893,-0.0030072585213929,-0.0016120112268254,0.2454799264669418,0.969395637512207,0.0019564329214542,-5.4290391363604254e-05,2.1512659760965125e-06,0.0016678741667419,-0.0132371773943305,0.5883176922798157,-0.0025111958384513,-0.002414689399302,0.4829004406929016,0.8756684064865112,-0.0016541273497578,-0.0030187118058404,0.5066850484977378,0.1476120352745056,-0.0670444369316101,-0.0251493453979492,115,75,-7447,6267
26.5,1788353303293,-1.8028168678283687,1.9154930114746092,-0.0030016298405826,-0.0017881705425679,0.2708750367164612,0.9626082181930542,-0.0022032736717689,0.000368991826227,1.5470527875647898e-06,0.0009630577405914,-0.0047193765640258,0.5348405838012695,-0.0025278786197304,-0.0023816572502255,0.5042159557342529,0.8635706305503845,-7.819764522191352e-05,0.0043387923745144,0.5775143006039923,-0.1642957925796508,0.0146509408950805,-0.2226133346557617,71,95,-6693,5740
26.6,1788353303393,-1.5492957830429075,1.5774648189544678,-0.0031171531882137,-0.0012460489524528,0.3004289865493774,0.953798234462738,0.0015842834535003,-0.0014820160794396,-1.3416520247389215e-06,0.0016924381488934,0.0117284916341304,0.54341721534729,-0.0027099773287773,-0.0018854262307286,0.5305437445640564,0.8476511836051941,0.0015234647687747,-0.0007900058394008,0.4260712153176744,-0.2725076079368591,0.01606947183609,-0.0340757369995117,70,59,-5933,5255
26.7,1788353303493,-1.4647886753082275,1.436619758605957,-0.0029988342430442,-0.0011815797770395,0.3200622797012329,0.9473910927772522,-0.0021450874672809,0.0021397232924755,4.217380821344172e-06,0.0030479808337986,-0.0027446404565125,0.4233581125736236,-0.0024575190618634,-0.0020053973421454,0.5470999479293823,0.8370612859725952,0.0039077424528373,-0.0155487958224937,0.518625010999576,0.1264355182647705,-0.017078697681427,-0.1094789505004882,100,78,-6627,5899
