time_s,timestamp_ms,wheel_vels__velocity_left,wheel_vels__velocity_right,odom__orient_x,odom__orient_y,odom__orient_z,odom__orient_w,odom__lin_x,odom__lin_y,odom__lin_z,odom__ang_x,odom__ang_y,odom__ang_z,imu__orient_x,imu__orient_y,imu__orient_z,imu__orient_w,imu__angvel_x,imu__angvel_y,imu__angvel_z,imu__acc_x,imu__acc_y,imu__acc_z,wheel_status__current_ma_left,wheel_status__current_ma_right,wheel_status__pwm_left,wheel_status__pwm_right
0.0,1788516027987,0.0,0.0,-0.0017201723530888,-0.0016190960304811,0.8515273928642273,0.5243046879768372,0.0,0.0,0.0,0.0,0.0,0.0,-0.0022150119766592,2.466142177581787e-05,0.2700088024139404,0.962855339050293,0.0001694282124026,-0.0009192919746253,-0.0001665682980458,-0.0025635957717895,-0.0226078033447265,0.0113496780395507,0,0,0,0
0.1,1788516028087,0.0,0.0,-0.0017201723530888,-0.0016190960304811,0.8515273928642273,0.5243046879768372,0.0,0.0,0.0,0.0,0.0,0.0,-0.0022150119766592,2.466142177581787e-05,0.2700088024139404,0.962855339050293,0.0001694282124026,-0.0009192919746253,-0.0001665682980458,-0.0025635957717895,-0.0226078033447265,0.0113496780395507,0,0,0,0
0.2,1788516028187,0.0,0.0,-0.0017201723530888,-0.0016190960304811,0.8515273928642273,0.5243046879768372,0.0,0.0,0.0,0.0,0.0,0.0,-0.0022150119766592,2.466142177581787e-05,0.2700088024139404,0.962855339050293,0.0001694282124026,-0.0009192919746253,-0.0001665682980458,-0.0025635957717895,-0.0226078033447265,0.0113496780395507,0,0,0,0
0.3,1788516028287,0.0,0.0,-0.0017201723530888,-0.0016190960304811,0.8515273928642273,0.5243046879768372,0.0,0.0,0.0,0.0,0.0,0.0,-0.0022150119766592,2.466142177581787e-05,0.2700088024139404,0.962855339050293,0.0001694282124026,-0.0009192919746253,-0.0001665682980458,-0.0025635957717895,-0.0226078033447265,0.0113496780395507,0,0,0,0
0.4,1788516028387,0.0,0.0,-0.0017201723530888,-0.0016190960304811,0.8515273928642273,0.5243046879768372,0.0,0.0,0.0,0.0,0.0,0.0,-0.0022150119766592,2.466142177581787e-05,0.2700088024139404,0.962855339050293,0.0001694282124026,-0.0009192919746253,-0.0001665682980458,-0.0025635957717895,-0.0226078033447265,0.0113496780395507,0,0,0,0
0.5,1788516028487,0.0,0.0,-0.0017201723530888,-0.0016190960304811,0.8515273928642273,0.5243046879768372,0.0,0.0,0.0,0.0,0.0,0.0,-0.0022150119766592,2.466142177581787e-05,0.2700088024139404,0.962855339050293,0.0001694282124026,-0.0009192919746253,-0.0001665682980458,-0.0025635957717895,-0.0226078033447265,0.0113496780395507,0,0,0,0
0.6,1788516028587,0.0,0.0,-0.0017201723530888,-0.0016190960304811,0.8515273928642273,0.5243046879768372,0.0,0.0,0.0,0.0,0.0,0.0,-0.0022150119766592,2.466142177581787e-05,0.2700088024139404,0.962855339050293,0.0001694282124026,-0.0009192919746253,-0.0001665682980458,-0.0025635957717895,-0.0226078033447265,0.0113496780395507,0,0,0,0
0.7,1788516028687,0.0,0.0,-0.0017201723530888,-0.0016190960304811,0.8515273928642273,0.5243046879768372,0.0,0.0,0.0,0.0,0.0,0.0,-0.0022150119766592,2.466142177581787e-05,0.2700088024139404,0.962855339050293,0.0001694282124026,-0.0009192919746253,-0.0001665682980458,-0.0025635957717895,-0.0226078033447265,0.0113496780395507,0,0,0,0
0.8,1788516028787,0.0,0.0,-0.0017201723530888,-0.0016190960304811,0.8515273928642273,0.5243046879768372,0.0,0.0,0.0,0.0,0.0,0.0,-0.0022150119766592,2.466142177581787e-05,0.2700088024139404,0.962855339050293,0.0001694282124026,-0.0009192919746253,-0.0001665682980458,-0.0025635957717895,-0.0226078033447265,0.0113496780395507,0,0,0,0
0.9,1788516028887,0.0,0.0,-0.0017201723530888,-0.0016190960304811,0.8515273928642273,0.5243046879768372,0.0,0.0,0.0,0.0,0.0,0.0,-0.0021925419569015,3.1896866858005524e-05,0.270061194896698,0.9628406167030334,-0.0007820348923969,0.0007249361712434,0.0013707546125472,-0.0078107714653015,0.029142141342163,-0.015380859375,0,0,0,0
1.0,1788516028987,0.0,0.0,-0.0017201723530888,-0.0016190960304811,0.8515273928642273,0.5243046879768372,0.0,0.0,0.0,0.0,0.0,0.0,-0.0022426536306738,2.107769250869751e-05,0.2701031863689422,0.962828814983368,-0.0017392455918745,-3.985368262135263e-05,0.0012264377445989,0.0137920379638671,0.0139815211296081,-0.0117340087890625,0,0,0,0
1.1,1788516029087,0.0,0.0,-0.0017201723530888,-0.0016190960304811,0.8515273928642273,0.5243046879768372,0.0,0.0,0.0,0.0,0.0,0.0,-0.002251268364489,3.0222348868846893e-05,0.2701118588447571,0.962826371192932,-0.0005918802042438,0.0005226764363075,0.0021179873123864,-0.0182783007621765,0.017745018005371,-0.0208158493041992,0,0,0,0
1.2,1788516029187,0.0,0.0,-0.0017201723530888,-0.0016190960304811,0.8515273928642273,0.5243046879768372,0.0,0.0,0.0,0.0,0.0,0.0,-0.0022424403578042,1.7276965081691742e-05,0.2700892388820648,0.9628326296806335,0.001079030041748,-0.0010814296084411,0.0006846340740863,-0.0149877071380615,-0.0021055340766906,-0.0190715789794921,0,0,0,0
1.3,1788516029287,0.0,0.0,-0.0017201723530888,-0.0016190960304811,0.8515273928642273,0.5243046879768372,0.0,0.0,0.0,0.0,0.0,0.0,-0.0022251773625612,-7.222406566143036e-06,0.2701106369495392,0.9628267884254456,-0.0003628217299079,-0.0005624645138854,-0.000521661018428,0.002255380153656,-0.0401675105094909,0.0185794830322265,0,0,0,0
1.4,1788516029387,0.0,0.0,-0.0017201723530888,-0.0016190960304811,0.8515273928642273,0.5243046879768372,0.0,0.0,0.0,0.0,0.0,0.0,-0.0022153863683342,4.809349775314331e-06,0.2701397836208343,0.9628185629844666,0.0005019089845315,-0.0015927109174506,0.0012278562911113,0.0006777644157409,0.0045391917228698,0.0097866058349609,0,0,0,0
1.5,1788516029487,0.0,0.0,-0.0017201723530888,-0.0016190960304811,0.8515273928642273,0.5243046879768372,0.0,0.0,0.0,0.0,0.0,0.0,-0.0022032940760254,1.7138198018074036e-05,0.2701175212860107,0.962824821472168,0.000161425955416,0.0013821595950126,-0.0013962393192402,-0.004504382610321,0.0114790201187133,0.0008258819580078,0,0,0,0
1.6,1788516029587,0.0,0.0,-0.0017201723530888,-0.0016190960304811,0.8515273928642273,0.5243046879768372,0.0,0.0,0.0,0.0,0.0,0.0,-0.0021956479176878,3.311038017272949e-05,0.2700995206832886,0.9628298282623292,0.0007935792066959,0.0004871396197047,-0.0011712527667856,-0.0006184577941894,-0.0102677941322326,-0.0064220428466796,0,0,0,0
1.7,1788516029687,0.0,0.0,-0.0017201723530888,-0.0016190960304811,0.8515273928642273,0.5243046879768372,0.0,0.0,0.0,0.0,0.0,0.0,-0.0022495100274682,1.6374513506889343e-05,0.2700715959072113,0.96283757686615,-0.0019250301981642,-0.001248169311967,-0.0019286131840652,-0.0060352087020874,0.0195844173431396,-0.0063142776489257,0,0,0,0
1.8,1788516029787,0.0,0.0,-0.0017201723530888,-0.0016190960304811,0.8515273928642273,0.5243046879768372,0.0,0.0,0.0,0.0,0.0,0.0,-0.0022259261459112,3.647059202194214e-06,0.2700973451137543,0.9628304243087769,-1.7996513246973325e-05,-0.0007488436567392,0.0007251809619041,0.0187274813652038,0.0120085477828979,-0.002634048461914,0,0,0,0
1.9,1788516029887,0.0,0.0,-0.0017201723530888,-0.0016190960304811,0.8515273928642273,0.5243046879768372,0.0,0.0,0.0,0.0,0.0,0.0,-0.0021788068115711,-1.0139308869838716e-05,0.2700648307800293,0.9628397226333618,0.0009773395160588,-4.521212332812154e-05,0.0006211477757268,0.0199930071830749,-0.0211477875709533,0.000838279724121,0,0,0,0
2.0,1788516029987,0.0,0.0,-0.0017201723530888,-0.0016190960304811,0.8515273928642273,0.5243046879768372,0.0,0.0,0.0,0.0,0.0,0.0,-0.0022079721093177,-2.8109177947044373e-05,0.2700291872024536,0.9628496766090392,-0.0009330918343045,0.0007814232195225,-0.0007591985864216,-0.0089609026908874,-0.0205234289169311,0.0061111450195312,0,0,0,0
2.1,1788516030087,0.0,0.0,-0.0017201723530888,-0.0016190960304811,0.8515273928642273,0.5243046879768372,0.0,0.0,0.0,0.0,0.0,0.0,-0.0022081593051552,-4.105828702449799e-05,0.2700762748718261,0.9628363847732544,0.0004969117085053,0.0006612458326216,-0.0003286189349816,0.0051535964012146,0.0046933889389038,0.0080842971801757,0,0,0,0
2.2,1788516030187,0.0,0.0,-0.0017201723530888,-0.0016190960304811,0.8515273928642273,0.5243046879768372,0.0,0.0,0.0,0.0,0.0,0.0,-0.0022048754617571,-1.3881362974643707e-05,0.2701193392276764,0.962824285030365,-0.001594447988076,0.0007427058019742,0.0019870977452359,0.0109748840332031,-0.0063368082046508,0.0224418640136718,0,0,0,0
2.3,1788516030287,0.0,0.0,-0.0017201723530888,-0.0016190960304811,0.8515273928642273,0.5243046879768372,0.0,0.0,0.0,0.0,0.0,0.0,-0.0022319816052913,-5.563721060752869e-06,0.2701182067394256,0.9628245830535888,-0.0010611412279043,-0.0002069246249224,0.0017146736039131,-0.0136929750442504,-0.0254466533660888,-0.019047737121582,0,0,0,0
2.4,1788516030387,0.0,0.0,-0.0017201723530888,-0.0016190960304811,0.8515273928642273,0.5243046879768372,0.0,0.0,0.0,0.0,0.0,0.0,-0.0022397981956601,3.1953677535057068e-06,0.2701426744461059,0.9628176689147948,-0.0002189059547025,0.0004437280656134,0.0010752922442554,0.00082528591156,0.0141168236732482,-0.0062427520751953,0,0,0,0
2.5,1788516030487,0.0,0.0,-0.0017201723530888,-0.0016190960304811,0.8515273928642273,0.5243046879768372,0.0,0.0,0.0,0.0,0.0,0.0,-0.0022411746904253,-3.036670386791229e-05,0.2701309025287628,0.9628210067749025,-0.0004175071995787,-0.0012832505497723,-0.0004948690658586,-0.012346863746643,0.0017799139022827,-0.0135297775268554,0,0,0,0
2.6,1788516030587,0.0,0.0,-0.0017201723530888,-0.0016190960304811,0.8515273928642273,0.5243046879768372,0.0,0.0,0.0,0.0,0.0,0.0,-0.0022442871704697,-1.0754913091659546e-05,0.2702099084854126,0.9627988934516908,0.00049894373856,-4.3537063763910615e-05,0.0010871608797228,-0.0012334585189819,0.0196568965911865,-0.0044059753417968,0,0,0,0
2.7,1788516030687,0.0,0.0,-0.0017201723530888,-0.0016190960304811,0.8515273928642273,0.5243046879768372,0.0,0.0,0.0,0.0,0.0,0.0,-0.0022661481052637,-4.852190613746643e-06,0.2701562941074371,0.9628138542175292,-0.0001776747969096,0.0014485729418974,-0.000811304054327,-0.0189821720123291,-0.0087065696716308,-0.0027952194213867,0,0,0,0
2.8,1788516030787,0.0,0.0,-0.0017201723530888,-0.0016190960304811,0.8515273928642273,0.5243046879768372,0.0,0.0,0.0,0.0,0.0,0.0,-0.002259787172079,1.636054366827011e-05,0.2701934576034546,0.9628034234046936,-0.0005617524889406,0.0010471084603938,0.0002020785179931,-0.0114648342132568,-0.0269321799278259,0.0043563842773437,0,0,0,0
2.9,1788516030887,0.0,0.0,-0.0017201723530888,-0.0016190960304811,0.8515273928642273,0.5243046879768372,0.0,0.0,0.0,0.0,0.0,0.0,-0.0022359229624271,4.591420292854309e-05,0.2702020108699798,0.9628010392189026,0.0006886173523024,-0.0002168310058415,-0.0005114982996359,-0.0129005908966064,0.0065196752548217,0.0206584930419921,0,0,0,0
3.0,1788516030987,0.0,0.0,-0.0017201723530888,-0.0016190960304811,0.8515273928642273,0.5243046879768372,0.0,0.0,0.0,0.0,0.0,0.0,-0.0022140499204397,2.5731511414051056e-05,0.2701960206031799,0.9628028273582458,0.0005372194504413,0.0005102901922389,0.0003386203188377,-0.0007458925247192,-0.0098767876625061,0.0026893615722656,0,0,0,0
3.1,1788516031087,0.0,0.0,-0.0017201723530888,-0.0016190960304811,0.8515273928642273,0.5243046879768372,0.0,0.0,0.0,0.0,0.0,0.0,-0.0022145397961139,3.90131026506424e-05,0.270234614610672,0.9627919793128968,-0.0001979969652529,0.0010255991275944,-0.0006992303643218,0.0120361447334289,-0.0207634568214416,0.0134820938110351,0,0,0,0
3.2,1788516031187,0.0,0.0,-0.0017201723530888,-0.0016190960304811,0.8515273928642273,0.5243046879768372,0.0,0.0,0.0,0.0,0.0,0.0,-0.0022084536030888,5.250610411167145e-05,0.2702740132808685,0.9627809524536132,-0.0008298408893091,0.0001561908687352,-0.0001855176427889,0.0106546878814697,-0.001014769077301,-0.0295419692993164,0,0,0,0
3.3,1788516031287,0.0,0.0,-0.0017201723530888,-0.0016190960304811,0.8515273928642273,0.5243046879768372,0.0,0.0,0.0,0.0,0.0,0.0,-0.002219334244728,7.093511521816254e-05,0.2702535986900329,0.9627866744995116,-0.00035438056652,0.0013401220872503,-0.001368002996622,0.0127626657485961,-0.0153649449348449,-0.008040428161621,0,0,0,0
3.4,1788516031387,0.0,0.0,-0.0017201723530888,-0.0016190960304811,0.8515273928642273,0.5243046879768372,0.0,0.0,0.0,0.0,0.0,0.0,-0.0021913461387157,3.099814057350159e-05,0.2702408134937286,0.9627902507781982,-0.0002041579963588,-0.0008659887888365,-0.000933884753452,-0.0026338100433349,-0.019402801990509,0.0206270217895507,0,0,0,0
3.5,1788516031487,0.0,0.0,-0.0017201723530888,-0.0016190960304811,0.8515273928642273,0.5243046879768372,0.0,0.0,0.0,0.0,0.0,0.0,-0.0021913461387157,3.099814057350159e-05,0.2702408134937286,0.9627902507781982,-0.0002041579963588,-0.0008659887888365,-0.000933884753452,-0.0026338100433349,-0.019402801990509,0.0206270217895507,0,0,0,0
3.6,1788516031587,0.0,0.0,-0.0017201723530888,-0.0016190960304811,0.8515273928642273,0.5243046879768372,0.0,0.0,0.0,0.0,0.0,0.0,-0.0021913461387157,3.099814057350159e-05,0.2702408134937286,0.9627902507781982,-0.0002041579963588,-0.0008659887888365,-0.000933884753452,-0.0026338100433349,-0.019402801990509,0.0206270217895507,0,0,0,0
3.7,1788516031687,0.0,0.0,-0.0017201723530888,-0.0016190960304811,0.8515273928642273,0.5243046879768372,0.0,0.0,0.0,0.0,0.0,0.0,-0.0021913461387157,3.099814057350159e-05,0.2702408134937286,0.9627902507781982,-0.0002041579963588,-0.0008659887888365,-0.000933884753452,-0.0026338100433349,-0.019402801990509,0.0206270217895507,0,0,0,0
3.8,1788516031787,0.0,0.0,-0.0017201723530888,-0.0016190960304811,0.8515273928642273,0.5243046879768372,0.0,0.0,0.0,0.0,0.0,0.0,-0.0021650614216923,5.258992314338684e-05,0.2703173458576202,0.962768852710724,-0.0003366830659933,5.449018486947315e-05,-0.0013149785819665,0.0102486014366149,-0.0002411007881164,0.0135993957519531,0,0,0,0
3.9,1788516031887,0.0,0.0,-0.0017201723530888,-0.0016190960304811,0.8515273928642273,0.5243046879768372,0.0,0.0,0.0,0.0,0.0,0.0,-0.0021963929757475,6.83031976222992e-05,0.2703636586666107,0.9627558588981628,-0.0004686183933214,-0.0002186464487581,0.0006357010616561,-0.0088923573493957,0.0093893408775329,-0.0205650329589843,0,0,0,0
4.0,1788516031987,0.0,0.0,-0.0017201723530888,-0.0016190960304811,0.8515273928642273,0.5243046879768372,0.0,0.0,0.0,0.0,0.0,0.0,-0.0021963929757475,6.83031976222992e-05,0.2703636586666107,0.9627558588981628,-0.0004686183933214,-0.0002186464487581,0.0006357010616561,-0.0088923573493957,0.0093893408775329,-0.0205650329589843,0,0,0,0
4.1,1788516032087,0.0,0.0,-0.0017201723530888,-0.0016190960304811,0.8515273928642273,0.5243046879768372,0.0,0.0,0.0,0.0,0.0,0.0,-0.0022007310763001,4.235655069351196e-05,0.2703501880168915,0.9627595543861388,0.0006925557383985,0.0005498393929833,-0.0006121015334824,-0.0075347423553466,0.004245638847351,-0.0277538299560546,0,0,0,0
4.2,1788516032187,0.0,0.0,-0.0016687901224941,-0.0015136735746636,0.8517056703567505,0.5240157246589661,0.0008528332847498,-0.000994008830805,-4.867137038678163e-08,0.0033567091450095,0.0003096116124652,0.0097863897681236,-0.0022007310763001,4.235655069351196e-05,0.2703501880168915,0.9627595543861388,0.0006925557383985,0.0005498393929833,-0.0006121015334824,-0.0075347423553466,0.004245638847351,-0.0277538299560546,0,0,0,0
4.3,1788516032287,0.0,0.0,-0.0016687901224941,-0.0015136735746636,0.8517056703567505,0.5240157246589661,0.0,0.0,0.0,0.0,4.4742916038842395e-09,0.0,-0.0022548260167241,-5.484558641910553e-06,0.2704481184482574,0.9627318978309632,-0.0006170953995657,-0.0003310478029537,0.0009067479862905,-0.0118144154548645,0.0108426213264465,-0.0115613937377929,0,0,0,0
4.4,1788516032387,0.0,0.0,-0.0016687901224941,-0.0015136735746636,0.8517056703567505,0.5240157246589661,0.0,0.0,0.0,0.0,4.6953800847404645e-09,0.0,-0.0022563310340046,-4.952773451805115e-06,0.2704630196094513,0.9627277851104736,-6.411346004093245e-05,4.318899756153609e-05,0.0007530670140534,-0.0118280053138732,-0.0161059498786926,-0.0044879913330078,0,0,0,0
4.5,1788516032487,0.0,0.0,-0.0016687901224941,-0.0015136735746636,0.8517056703567505,0.5240157246589661,0.0,0.0,0.0,0.0,4.6579398116364246e-09,0.0,-0.0022541293874382,1.6296282410621643e-05,0.27046999335289,0.962725818157196,0.0004516653043029,-7.934221754582105e-05,-0.0010301553191201,0.0261111855506896,0.0175813436508178,0.0207462310791015,0,0,0,0
4.6,1788516032587,0.0,0.0,-0.0016687901224941,-0.0015136735746636,0.8517056703567505,0.5240157246589661,0.0,0.0,0.0,0.0,4.6579398116364246e-09,0.0,-0.0022541293874382,1.6296282410621643e-05,0.27046999335289,0.962725818157196,0.0004516653043029,-7.934221754582105e-05,-0.0010301553191201,0.0261111855506896,0.0175813436508178,0.0207462310791015,0,0,0,0
4.7,1788516032687,3.8309860229492183,6.056337833404541,-0.0017879495862871,-0.001716561615467,0.855816662311554,0.5172733664512634,0.1113693347325604,0.0013911537111083,-2.978810496209133e-05,-0.0081158252432942,0.0040943869389593,0.2022814899682998,-0.0026958072558045,-0.0004076734185218,0.2871289253234863,0.9578880667686462,-0.0117230919238223,-0.0108873544794482,0.3025854590577909,0.6894396543502808,-0.063639223575592,0.0394983291625976,141,215,13178,20335
4.8,1788516032787,3.8309860229492183,6.056337833404541,-0.0016058651963248,-0.0024487264454364,0.8631929755210876,0.5048656463623047,0.1788643646132754,0.0017378957544013,7.372798123758962e-05,-0.0149674797430634,-0.023443354293704,0.3463966846466064,-0.0026958072558045,-0.0004076734185218,0.2871289253234863,0.9578880667686462,-0.0117230919238223,-0.0108873544794482,0.3025854590577909,0.6894396543502808,-0.063639223575592,0.0394983291625976,141,215,13178,20335
4.9,1788516032887,3.633802890777588,6.366197109222412,-0.0016197812510654,-0.0024102856405079,0.8726866245269775,0.4882722795009613,0.1648670881523966,0.002470837190513,5.592090602622424e-06,0.0206047277897596,0.0112813906744122,0.3912836015224457,-0.0028030108660459,-0.0005945656448602,0.3109632134437561,0.9504176378250122,0.0207531368185817,0.0320553564146791,0.4063123959293637,0.4161213636398315,0.0911608934402465,-1.0548782348632812,112,106,12542,17252
5.0,1788516032987,3.633802890777588,6.366197109222412,-0.0016197812510654,-0.0024102856405079,0.8726866245269775,0.4882722795009613,0.1648670881523966,0.002470837190513,5.592090602622424e-06,0.0206047277897596,0.0112813906744122,0.3912836015224457,-0.0028030108660459,-0.0005945656448602,0.3109632134437561,0.9504176378250122,0.0207531368185817,0.0320553564146791,0.4063123959293637,0.4161213636398315,0.0911608934402465,-1.0548782348632812,112,106,12542,17252
5.1,1788516033087,0.4507042169570923,0.6197183132171631,-0.0017777748871594,-0.0019662610720843,0.8889647722244263,0.4579679369926452,0.0575586864310321,0.0035645174035091,-3.6406172356937385e-06,-0.0045349709689617,-0.0009172880090773,0.0672808289527893,-0.0026111667975783,-0.0002577798441052,0.3441084921360016,0.9389262795448304,0.0036025758926437,-0.0041073207678078,0.0735865513130253,-0.6862566471099854,-0.0270874500274658,0.0030755996704101,1,3,3359,695
5.2,1788516033187,0.0,0.0,-0.0017676462884992,-0.0019116924377158,0.8902888298034668,0.4553887844085693,-5.175249701139144e-06,-0.0018901421856141,1.477018648629641e-07,0.0009744939743541,0.0015290362061932,0.0382144376635551,-0.0026010461151599,-0.0004409616813063,0.3448401987552643,0.9386576414108276,-0.0041387560157507,0.0017552895875824,-0.0274232711390904,-0.0541138648986816,-0.3118889927864074,0.0657310485839843,0,0,0,0
5.3,1788516033287,0.0,0.0,-0.0017676462884992,-0.0019116924377158,0.8902888298034668,0.4553887844085693,0.0008123765816944,1.346227805147568e-05,-1.1828955436148387e-06,0.0,4.6734891512301155e-09,0.0,-0.0025828788056969,-0.0003832774236798,0.3449593782424927,0.9386140704154968,-0.0036718920830508,-0.0023617908041199,-0.023198314791134,0.0224624276161193,-0.1435966491699218,0.021860122680664,0,0,0,0
5.4,1788516033387,0.0,0.0,-0.0017676462884992,-0.0019116924377158,0.8902888298034668,0.4553887844085693,0.0008123765816944,1.346227805147568e-05,-1.1828955436148387e-06,0.0,4.6734891512301155e-09,0.0,-0.0025748200714588,-0.0003359653055667,0.345217227935791,0.9385192394256592,0.0009701478079288,0.0016714681231385,0.0112278431672412,0.0144766569137573,0.1147250533103942,-0.0148115158081054,0,0,0,0
5.5,1788516033487,0.0,0.0,-0.0017676462884992,-0.0019116924377158,0.8902888298034668,0.4553887844085693,0.0,0.0,0.0,0.0,4.624831184685263e-09,0.0,-0.0025990167632699,-0.0003420747816562,0.3450781404972076,0.9385703206062316,-0.0004851032340684,-0.0003748990120228,-0.0021677337992815,0.0306066274642944,-0.0069954991340637,0.0027093887329101,0,0,0,0
5.6,1788516033587,0.0,0.0,-0.0017676462884992,-0.0019116924377158,0.8902888298034668,0.4553887844085693,0.0,0.0,0.0,0.0,4.736848246977843e-09,0.0,-0.0025990167632699,-0.0003420747816562,0.3450781404972076,0.9385703206062316,-0.0004851032340684,-0.0003748990120228,-0.0021677337992815,0.0306066274642944,-0.0069954991340637,0.0027093887329101,0,0,0,0
5.7,1788516033687,0.0,0.0,-0.0017676462884992,-0.0019116924377158,0.8902888298034668,0.4553887844085693,0.0,0.0,0.0,0.0,4.580807289045197e-09,0.0,-0.0026404596865177,-0.000285618007183,0.345126062631607,0.9385526180267334,-1.0578629843984769e-05,0.0004452131199118,0.003285359368229,0.0066573619842529,-0.0031434297561645,0.0313549041748046,0,0,0,0
5.8,1788516033787,0.0,0.0,-0.0017676462884992,-0.0019116924377158,0.8902888298034668,0.4553887844085693,0.0,0.0,0.0,0.0,5.82432191365001e-09,0.0,-0.0026922225952148,-0.0003235153853893,0.3450957536697387,0.9385635256767272,-0.0015671135434531,-0.0005563043908756,0.0003669614281151,0.0117754936218261,0.0161014199256896,0.0135011672973632,0,0,0,0
5.9,1788516033887,0.0,0.0,-0.0017676462884992,-0.0019116924377158,0.8902888298034668,0.4553887844085693,0.0,0.0,0.0,0.0,4.4555608091911836e-09,0.0,-0.0026939613744616,-0.0003666579723358,0.3451035618782043,0.9385606050491332,0.000685505607437,-0.0006633717100106,-0.0001612378002184,0.0055900812149047,-0.001550555229187,0.0169963836669921,17,10,1680,1680
6.0,1788516033987,0.0,0.0,-0.0017676462884992,-0.0019116924377158,0.8902888298034668,0.4553887844085693,0.0,0.0,0.0,0.0,4.743173853682947e-09,0.0,-0.0026939613744616,-0.0003666579723358,0.3451035618782043,0.9385606050491332,0.000685505607437,-0.0006633717100106,-0.0001612378002184,0.0055900812149047,-0.001550555229187,0.0169963836669921,17,10,1680,1680
6.1,1788516034087,5.267605781555176,5.239436626434326,-0.0020303698256611,-0.0019200139213353,0.8902501463890076,0.4554634392261505,0.1261368903047656,0.0005129499438333,-6.409083114582395e-05,-0.0009750790195539,0.0224129855632781,0.0123284617438912,-0.0026280209422111,-0.0004470851272344,0.345419317483902,0.9384446740150452,-0.0012342429842885,-0.0176295899509534,0.0124848210888695,0.7834016680717468,-0.079177975654602,0.3793020248413086,130,124,16056,15893
6.2,1788516034187,5.267605781555176,5.380281925201416,-0.0020303698256611,-0.0019200139213353,0.8902501463890076,0.4554634392261505,0.1856520846489769,0.0012191905974284,-2.7654857922029453e-07,0.0,-4.724171720482673e-09,0.0,-0.0027490686625242,-0.0003292132169008,0.3452624976634979,0.938502073287964,-0.0014033089755833,-0.0113844371555063,-0.0021812464821531,-0.2035812735557556,-0.0528210997581481,0.8600387573242188,57,66,14256,13838
6.3,1788516034287,4.957746505737305,5.014084339141846,-0.0013150807935744,-0.0023461114615201,0.8902104496955872,0.4555415511131286,0.1726900560591682,9.410435685239944e-05,7.315945619916775e-05,-0.0026493906043469,-0.0411622039973735,-0.0044527649879455,-0.0023900885134935,-0.0010566590353846,0.3451167941093445,0.93855619430542,0.0099329797142415,-0.0326470901987947,-0.0004130391981885,-0.0103592872619628,-0.1741009354591369,1.111891746520996,87,100,14080,14036
6.4,1788516034387,4.929577350616455,5.126760482788086,-0.0008039997774176,-0.0024838799145072,0.8902939558029175,0.4553788006305694,0.1632067259745754,0.002424497414955,-2.869540448041539e-07,0.0,0.0,0.0,-0.0023846393451094,-0.0015932051464915,0.345902144908905,0.9382662773132324,-0.0117443820237222,0.0007583620133824,0.0214061964903739,0.0008085370063781,0.0711811184883117,0.001225471496582,95,103,14128,14630
6.5,1788516034487,5.014084339141846,5.126760482788086,-0.0010208949679508,-0.0024841050617396,0.8916124701499939,0.4527915418148041,0.1705507004463127,6.806144836263401e-06,3.8564980334906175e-05,0.0046810321509838,-0.0017853045137599,0.0560819618403911,-0.0025537125766277,-0.0008743098005652,0.3482937812805176,0.937381625175476,0.0011417869155203,0.0179390807767736,0.0588342308516808,-0.1155673265457153,0.0732336044311523,-0.0532341003417968,109,82,14741,14068
6.6,1788516034587,5.042253494262695,5.042253494262695,-0.0010208949679508,-0.0024841050617396,0.8916124701499939,0.4527915418148041,0.1652180989693821,0.005035303073878,8.497111473328908e-07,0.0,-5.830859794997423e-09,0.0,-0.0025537125766277,-0.0008743098005652,0.3482937812805176,0.937381625175476,0.0011417869155203,0.0179390807767736,0.0588342308516808,-0.1155673265457153,0.0732336044311523,-0.0532341003417968,90,92,14557,14372
6.7,1788516034687,5.380281925201416,5.014084339141846,-0.0047945315018296,-8.064729627221823e-05,0.8912991285324097,0.4533903896808624,0.1723795984842676,0.0022070713256198,-0.0001754119154025,0.02408167719841,0.1647348701953888,-0.0287213940173387,-0.0037037320435047,0.0034624012187123,0.3469169735908508,0.937882125377655,0.0021486707995386,0.1381600286593185,-0.0402784158877014,0.4559378027915954,-0.136172354221344,-4.362290382385254,90,79,14599,13590
6.8,1788516034787,5.323943614959717,4.732394218444824,-0.0030293457675725,-0.0012971006799489,0.8896761536598206,0.4565802812576294,0.1606183208348558,-0.0139088302944609,0.0003339033998351,-0.0240617617964744,-0.0095663322135806,-0.1096363067626953,-0.0038810735568404,0.0015674699097871,0.3429198563098907,0.9393553733825684,-0.0553400355551615,0.1517382784621621,-0.1561173365767747,0.4566146731376648,0.743118166923523,-2.406297206878662,59,238,13257,16916
6.9,1788516034887,4.732394218444824,5.436619758605957,-0.0053159589879214,-0.002482830081135,0.8890600800514221,0.4577528536319732,0.1761049961985965,0.0015418902744016,-8.212140959666015e-07,-0.0020543371792882,-0.0084379017353057,0.0665491670370101,-0.0057878708466887,0.0020846100524067,0.3448115885257721,0.9386518001556396,0.0020123012532738,-0.0034068559079604,0.0777616834990863,-0.016543686389923,-0.187459111213684,0.8640260696411133,125,96,14278,14621
7.0,1788516034987,5.154929637908936,4.985915660858154,-0.0050426879897713,-0.0025308167096227,0.891034722328186,0.4539000988006592,0.1723750638227142,0.0001644658030901,6.429336466535648e-05,0.0064724376425147,-0.0252865869551897,0.0758753940463066,-0.0054927365854382,0.0016984129324555,0.3466841280460357,0.9379643201828004,-0.0009125385885214,-0.0113930400773659,-0.0141845751782837,-0.2275442481040954,0.027828574180603,1.0741100311279297,96,77,14683,13789
7.1,1788516035087,5.183098793029785,4.929577350616455,-0.0019918326288461,-0.0013465380761772,0.8912928700447083,0.4534217715263366,0.1786565172464158,-0.0006810473493461,0.0002598960682419,0.1252089738845825,-0.1121208518743515,0.0278135482221841,-0.0027235895395278,0.0005323402583599,0.3470433056354522,0.93784499168396,0.115898388827237,-0.1156133460722685,0.038450462260627,0.1769930720329284,0.0397275686264038,0.4040393829345703,78,60,14143,14070
7.2,1788516035187,5.323943614959717,4.732394218444824,-0.0029568602330982,-0.0013951875735074,0.8903568983078003,0.4552516043186188,0.1665213887544378,0.000406293095515,0.0001201670888699,-0.0093843331560492,0.0051166964694857,-0.0689655691385269,-0.0031587732955813,0.0009188316762447,0.3451178967952728,0.9385536313056946,-0.0054139864251724,0.0387204519849276,-0.0252276079504204,0.2303811311721801,0.3217054009437561,-1.721160888671875,78,114,14651,14500
7.3,1788516035287,5.014084339141846,4.957746505737305,-0.0029577747918665,-0.00204997533001,0.8891960978507996,0.4575120508670807,0.1659766772562434,-0.0020328277388644,-1.1194615718446909e-07,0.0030513645615428,-0.0181623063981533,-0.0334322415292263,-0.0035222377628087,0.0004192423075437,0.3429749608039856,0.9393379092216492,0.016410392240494,-0.058830275643085,-0.0144530927777825,0.6470867395401001,0.0927504301071167,-1.242506980895996,98,106,14590,15119
7.4,1788516035387,4.929577350616455,4.957746505737305,-0.0031260387040674,-0.0016801856691017,0.8887956142425537,0.4582899808883667,0.1793599973590352,0.0008366936460322,5.1761468207479726e-05,0.0113719496876001,-0.0104715470224618,-0.0279178600758314,-0.0032670861110091,0.0009375624358654,0.3421731889247894,0.9396307468414308,0.0123085753528782,0.0050588239437411,0.0093855891314594,-0.0436058640480041,0.0402038097381591,0.3509864807128906,55,118,13779,14253
7.5,1788516035487,5.126760482788086,4.985915660858154,-0.0025804820470511,-0.0017012325115501,0.8890348076820374,0.4578292071819305,0.1743535080174449,0.0021087028584738,4.074150184275532e-05,0.0114867193624377,-0.0247442200779914,0.0258474610745906,-0.0032236566767096,0.0003549149259924,0.3430343866348266,0.9393173456192015,-0.0242098653166837,-0.029251234993623,0.0088435314769724,-0.2453076243400573,-0.08972829580307,1.660740852355957,84,92,14217,14590
7.6,1788516035587,4.873239517211914,5.295774459838867,-0.0022970284335315,-0.0023605527821928,0.8890830874443054,0.4577339589595794,0.1654059686699859,-0.0007327616941589,-9.219136093328083e-05,-0.0116648497059941,0.0006305313436314,-0.0080105466768145,-0.0039393017068505,-0.0001807967200875,0.3420255482196808,0.9396824240684508,-0.0300638151740901,-0.0007782637904495,-0.0433763371814234,-0.5397329330444336,0.1026710867881774,0.0473928451538085,89,93,14459,14541
7.7,1788516035687,3.690140962600708,6.394366264343262,-0.0025041673798114,-0.0053349579684436,0.8893086314201355,0.4572694897651672,0.17688800134182,-0.0015544216822875,0.0002280134237661,-0.0835996568202972,-0.055117841809988,0.0509202815592289,-0.0054913507774472,-0.0030606025829911,0.3466795980930328,0.937962532043457,-0.0237044397813414,-0.0598733159594576,0.2643514572530185,-0.9113610982894896,0.4963513016700744,-0.153294563293457,13,124,10087,18238
7.8,1788516035787,3.94366192817688,6.309859275817871,-0.0023343155626207,-0.0056491484865546,0.8999413251876831,0.4359682500362396,0.1631184383422848,0.0032236227264437,5.486934794179149e-05,0.0044109136797487,-0.010400528088212,0.505189836025238,-0.005821768194437,-0.0021981755271553,0.3705869913101196,0.9287769794464112,-0.0048583665927865,0.0010946421129159,0.3040195480371089,-0.0851475000381469,-0.1479983925819397,-0.6428327560424805,94,108,11517,17715
7.9,1788516035887,3.94366192817688,6.169013977050781,-0.0025277507957071,-0.0055118408054113,0.9075788259506226,0.4198378920555115,0.1671904136117103,0.0076755417898756,1.2960184999733792e-06,0.0035485210828483,-0.0015742777613922,0.3470384776592254,-0.0058412626385688,-0.0019770674407482,0.3870935142040252,0.922019898891449,-0.0059090424817823,0.0264656673914015,0.367880280701205,-0.4347415566444397,-0.2895979881286621,0.2422924041748047,84,79,12626,16587
8.0,1788516035987,4.2816901206970215,5.830986022949219,-0.0035114120692014,-0.0053127193823456,0.913969874382019,0.4057320654392242,0.1723553986105985,0.0015025825088116,-0.000123315929306,-0.0074997870251536,0.0244797896593809,0.2854840159416199,-0.0064437864348292,-0.0018038917332887,0.4022851288318634,0.9154899716377258,-0.0053400327012367,-0.0021165411472789,0.2445126760585049,-0.1123901605606079,-0.0073285102844238,0.2485303878784179,114,91,13632,15438
8.1,1788516036087,4.3380279541015625,5.802816867828369,-0.0034906086511909,-0.005560465157032,0.9182830452919006,0.3958701491355896,0.1675251880928331,-0.003970672392999,-1.5839315772542905e-05,0.0048823910765349,-0.000189837970538,0.1895734369754791,-0.0063233412802219,-0.0017424914985895,0.4064977169036865,0.913628339767456,0.003591715129152,-0.0068593909602563,0.1884930067518973,0.1952394247055053,0.2697440385818481,-0.5159339904785156,50,145,11874,17236
8.2,1788516036187,4.647887229919434,5.605633735656738,-0.0031330166384577,-0.0052919164299964,0.9236254692077636,0.3832469284534454,0.1724105055280462,0.0013204925977392,5.804835632990215e-05,6.435770774260163e-05,-0.0187331680208444,0.2545782625675201,-0.0058739185333251,-0.0017774682492017,0.4191157519817352,0.907912015914917,0.0001446880703714,-0.0246920308991038,0.2506755899169706,0.1190695762634277,-0.0020913481712341,0.2979745864868164,121,62,13782,15080
8.3,1788516036287,4.563380241394043,5.464788913726807,-0.0029670749790966,-0.0044829179532825,0.9262465834617616,0.376879870891571,0.1719006700392159,0.0024889732821974,-1.7047600223871336e-05,0.0224570129066705,0.006778999697417,0.1332804411649704,-0.0050852904096245,-0.0012552486732602,0.4265553951263428,0.904446303844452,0.024211460652324,-0.0067733708195848,0.1460117021057879,0.042214035987854,-0.2252753376960754,0.2714195251464844,99,115,13314,15935
8.4,1788516036387,4.816901206970215,5.042253494262695,-0.0051875952631235,-0.0032603803556412,0.9276723265647888,0.3733450472354889,0.1710406432009319,-0.0015989513823867,-0.0003411132492152,0.0016896444140002,0.0445336923003196,0.0109553523361682,-0.0055785169824957,0.0001168204471468,0.4281800091266632,0.9036763310432434,-6.759532592643561e-05,-0.0530299818446071,-0.0232125634863292,0.3355814814567566,0.0332115888595581,-0.3513097763061523,91,110,14744,14506
8.5,1788516036487,4.929577350616455,5.211267471313477,-0.0048311799764633,-0.0035350546240806,0.9278071522712708,0.3730120658874511,0.1795625605951493,0.0011364555993094,-0.000263186849455,-0.0039077484980225,0.021946907043457,0.0321152620017528,-0.0059956917539238,0.0008398126810789,0.4292577803134918,0.9031617045402528,0.0107430915549813,-0.0187107883602809,0.0631828795245614,-0.0454163551330566,0.0717846751213073,0.1698904037475586,103,78,13960,15085
8.6,1788516036587,4.901408672332764,4.957746505737305,-0.0051524024456739,-0.00392372533679,0.9284200072288512,0.3714758157730102,0.1707996177706872,-0.0002360067748805,-0.0001047687069129,-0.0110150417312979,0.0053991535678505,0.0233798567205667,-0.0069732340052723,0.0011295787990093,0.4299753308296203,0.9028130769729614,-0.0185417439441925,0.0525548578987862,-0.0167945569637496,-0.2781004309654236,-0.1307211518287658,0.5938425064086914,72,142,14041,15973
8.7,1788516036687,5.014084339141846,4.873239517211914,-0.0058123250491917,-0.0034724031575024,0.9290910959243774,0.3697889447212219,0.175467695615083,-0.001875949974692,9.514169353939762e-06,0.0171973537653684,0.0106641091406345,0.0804090425372123,-0.0056555736809968,-0.000283564440906,0.4311120510101318,0.9022806286811828,0.0044611349031895,-0.0377051462756368,-0.0633051388529572,0.6238570809364319,-0.1282094120979309,-3.5962910652160645,128,59,16027,13765
8.8,1788516036787,5.070422649383545,5.042253494262695,-0.00441141333431,-0.003990523982793,0.9282286763191224,0.3719623982906341,0.1739260320000387,-0.000669853938328,-0.0001133529678508,-0.0056010396219789,0.0221412610262632,-0.0769143626093864,-0.0057609509676694,0.0002523362636566,0.4293167293071747,0.9031355977058412,0.0066342904553763,-0.0034428188185978,-0.0018530764076415,0.44167160987854,0.1011372208595275,-1.5036544799804688,116,79,15307,13653
8.9,1788516036887,5.098591327667236,4.901408672332764,-0.00388043676503,-0.0031085547525435,0.92796128988266,0.3726435601711273,0.1737821510992712,0.0012095298333205,-2.348880188468188e-05,0.0359310321509838,-0.0186142921447753,-0.0159125141799449,-0.0048371646553277,0.0007621543481945,0.4284472465515136,0.9035536050796508,0.0167012042547845,0.0304580333825079,-0.0413410867518353,-0.0748800039291381,0.0697184205055236,0.650996208190918,103,103,14163,14523
9.0,1788516036987,5.295774459838867,4.957746505737305,-0.0046400260180234,-0.0029668149072676,0.9274758696556092,0.3738422393798828,0.1704539327778306,-0.0020790022417262,-3.440532255960222e-05,-0.0102097485214471,0.0041457270272076,-0.0135402409359812,-0.0056177908554673,0.0009275032207369,0.4273118078708648,0.904086410999298,-0.0149091148355266,-0.0070051894734106,-0.0345119759732983,-0.0959184765815734,0.1435726881027221,1.443375587463379,110,84,14812,13787
9.1,1788516037087,5.154929637908936,4.929577350616455,-0.0050184465944767,-0.0027010226622223,0.9268929362297058,0.3752826750278473,0.1692133830366921,0.0003984963471726,1.0978445375642002e-06,0.0,-2.27293330823386e-08,0.0,-0.0050972579047083,0.0010365489870309,0.4268345534801483,0.9043148159980774,-0.0012612405812486,-0.0317558555479854,0.0173059445480188,0.0907166600227356,0.1320140957832336,0.5047206878662109,103,65,15157,13717
9.2,1788516037187,5.098591327667236,5.042253494262695,-0.0041977851651608,-0.00272793835029,0.9265596866607666,0.3761143684387207,0.1734833049424516,-0.0003319442227036,-1.533747999855143e-05,0.004177791532129,-0.0130504993721842,-0.0487339124083519,-0.0049334885552525,0.0011250544339418,0.42518150806427,0.905094027519226,0.0059167337732818,0.0167884315311879,-0.0199938832914465,-0.1352673172950744,-0.1316821575164795,0.468484878540039,97,87,14160,14486
9.3,1788516037287,5.267605781555176,5.014084339141846,-0.0045286966487765,-0.0023074527271091,0.9261385202407836,0.3771493434906006,0.1643069256003604,0.0022727345018518,-2.178889202097207e-05,0.0107766175642609,0.0188492909073829,-0.044765330851078,-0.0049148360267281,0.0014320956543087,0.4245683848857879,0.905381441116333,-0.0020079236245228,0.0367085731916302,-0.0514274449124853,-0.0151520371437072,-0.2839072942733764,-0.7727470397949219,103,83,14823,13426
9.4,1788516037387,5.183098793029785,4.901408672332764,-0.0048727467656135,-0.0024496521800756,0.925484538078308,0.3787461221218109,0.169143347844474,0.0017394631944749,7.893249320832779e-08,-0.0073595894500613,0.0139662399888038,-0.0114803547039628,-0.0052174413576722,0.0013938043266534,0.4229106307029724,0.9061553478240968,-0.0025614656040557,0.0120131550273644,-0.0192611589565915,-0.0466268658638,-0.4654603004455566,0.6489095687866211,55,117,13791,14920
9.5,1788516037487,5.070422649383545,5.070422649383545,-0.0046106963418424,-0.00252795079723,0.9253004193305968,0.3791984617710113,0.1666234255917699,0.0040346682842647,-1.2549734081589442e-06,0.0,0.0,0.0,-0.0045828586444258,0.0014686007052659,0.4231534600257873,0.9060451984405518,0.0168878647168512,-0.0109097582981096,0.017117840444254,-0.1631501913070678,-0.3196051120758056,0.0762748718261718,105,77,14287,14336
9.6,1788516037587,5.098591327667236,4.929577350616455,-0.0040884036570787,-0.0018197783501818,0.9256974458694458,0.3782381415367126,0.1756567430006136,8.303650426351682e-06,4.5278152841119e-05,0.0155511740595102,-0.00735286436975,0.023300863802433,-0.0043605212122201,0.0015076873824,0.4233880341053009,0.9059367775917052,-0.0065550102027116,0.0015058594438044,-0.0128689180486616,-0.0610936284065246,0.2186045050621032,-0.145294189453125,79,95,14230,14645
9.7,1788516037687,5.070422649383545,5.042253494262695,-0.0040507758967578,-0.0015799654647707,0.9256184697151184,0.3784330785274505,0.1617716076460413,0.0038064567940879,-6.800524208986323e-06,0.0092167947441339,0.0022003923077136,-0.0081483973190188,-0.003905463963747,0.0020168516784906,0.4234700798988342,0.905899465084076,0.0111430168671155,0.006633881195653,-0.0016334715376226,-0.0408744215965271,-0.0844013690948486,0.7940454483032227,115,82,15413,13387
9.8,1788516037787,5.352112770080566,4.901408672332764,-0.0037925187498331,-0.0009939800947904,0.9248729348182678,0.3802561163902282,0.1686415064947165,-0.0022811421611762,-1.914937013232596e-05,0.0183759368956089,-0.0003238556382711,-0.0559407323598861,-0.0035589495673775,0.001560516655445,0.4211494922637939,0.9069828987121582,-0.0193661343971205,-0.0237428387219224,-0.0642482951804236,-0.0003817677497863,0.2715556025505066,0.0959224700927734,77,95,14430,13633
9.9,1788516037887,4.788732528686523,5.154929637908936,-0.0034183352254331,-0.001279575866647,0.924183189868927,0.3819320797920227,0.1702704527355009,-0.0065792925872958,1.630234367765566e-07,-1.1785935782882008e-08,0.0,0.0,-0.0027306303381919,0.0019268635660409,0.4201467931270599,0.9074500203132628,0.0217933533317747,-0.0318239926683758,0.0564768459142352,-0.0208300352096557,0.2057048082351684,0.8062019348144531,73,103,14110,15275
10.0,1788516037987,4.873239517211914,4.901408672332764,-0.0025398544967174,0.0003173585864715,0.924987256526947,0.3799895346164703,0.1657124787957177,0.0057597529976185,-8.027385480527085e-05,0.0377935282886028,-0.0095206815749406,0.0683999136090278,-0.0017111413180828,0.002058221027255,0.422488808631897,0.9063642621040344,-0.0003210485284351,-0.0181147914539086,0.0469934223705461,0.0528872609138488,0.477855920791626,-0.1765813827514648,112,137,14105,15859
10.1,1788516038087,5.098591327667236,5.070422649383545,-0.003792327363044,0.0002612507669255,0.9257298707962036,0.3781663179397583,0.170322604840748,0.0039950014450613,1.27660855745325e-05,-0.0145981954410672,0.0175198018550872,0.0499914288520813,-0.0027172127738595,0.0029011107981204,0.4245950877666473,0.9053746461868286,-0.0020042095325401,0.0231510473703509,0.0832133793322473,0.123802363872528,-0.1122886538505554,-0.3744993209838867,116,76,14445,14540
10.2,1788516038187,4.901408672332764,5.126760482788086,-0.004174537025392,-9.8430085927248e-05,0.926330029964447,0.3766899108886719,0.172548018539562,0.0001069292636253,-1.029705302038596e-05,-0.0101713296025991,0.0061576478183269,0.0116141540929675,-0.0032159993425011,0.0027355896309018,0.4252257943153381,0.9050775170326232,-0.009124044000459,-0.0083040026335079,0.0078661114811768,0.1955460906028747,0.2215442061424255,-0.8882818222045898,60,131,13827,15442
10.3,1788516038287,4.901408672332764,5.239436626434326,-0.0048635974526405,1.6319099813699722e-06,0.9268679022789,0.3753561973571777,0.1701478405012244,0.0029512981948036,5.4212803473068055e-06,0.0040112417191267,0.0161942970007658,0.0249001048505306,-0.0035313013941049,0.0032734116539359,0.4267275929450989,0.904367446899414,0.0132270027407764,0.0226007804461947,0.0429036756493688,-0.4231769442558288,0.1469560861587524,1.282052993774414,89,96,13763,15024
10.4,1788516038387,5.042253494262695,4.901408672332764,-0.0044553442858159,0.0001302850432693,0.9279464483261108,0.3726867735385895,0.1738640998566959,0.0015557342097906,1.8010271621904692e-05,0.0047939610667526,-0.0103755872696638,0.0513571687042713,-0.0031996080651879,0.0029997276142239,0.429198294878006,0.9031996726989746,-0.0018363964148982,-0.0213341810084749,0.034329607763013,-0.1442105174064636,-0.3321523666381836,-0.1628456115722656,99,67,14339,14359
10.5,1788516038487,5.070422649383545,5.042253494262695,-0.0041964049451053,-1.2431875802576542e-05,0.9277220368385316,0.3732481598854065,0.171902461359312,0.0018328240945905,6.19575994079788e-05,-1.68366441357648e-05,-0.0121259186416864,-0.0193838998675346,-0.0028894180431962,0.0037041502073407,0.4290371239185333,0.903274655342102,0.0132793360557915,0.0303703771321006,0.0335236289945777,-0.1090154647827148,-0.2409175634384155,0.2041606903076172,114,93,14267,14468
10.6,1788516038587,4.957746505737305,5.014084339141846,-0.0053469487465918,0.001211084309034,0.9280327558517456,0.3724581599235534,0.168493102505358,0.0030347230838672,-6.167074220207119e-05,0.0066358488984405,0.0363772213459014,0.0097744073718786,-0.0027153212577104,0.003785933367908,0.4295457601547241,0.9030330777168274,0.0064103848268424,-0.0304801914974921,0.0254460074870415,-0.1846955418586731,-0.2238636612892151,-2.2046899795532227,115,73,14782,14329
10.7,1788516038687,4.816901206970215,5.352112770080566,-0.002367528155446,6.062909960746765e-05,0.9279870390892028,0.3726048767566681,0.1649280152554697,0.0010731445397832,3.024104411858013e-05,0.0003702936228364,-0.0062060873024165,-0.0189539119601249,-0.001024785451591,0.0010650744661688,0.4297559559345245,0.9029438495635986,0.0210247725758279,-0.0307927916698756,0.0561957211210499,0.139087975025177,-0.0990111231803894,-0.6053276062011719,105,102,14003,14573
10.8,1788516038787,5.126760482788086,4.873239517211914,-0.0007124755065888,8.714932482689619e-05,0.9291765689849854,0.3696354627609253,0.1671357392673822,0.0063153422989667,-5.43088778831798e-05,0.0084140142425894,-0.0174826513975858,0.0671873316168785,-0.0015793247148394,0.0012264838442206,0.4314656555652618,0.9021271467208862,-0.0396692332112956,0.0606213267258597,-0.0295654730172603,0.046553611755371,-0.186333954334259,-0.1501264572143554,80,158,14422,15184
10.9,1788516038887,5.014084339141846,5.126760482788086,-0.0032730782404541,-0.0009195719612762,0.9285510778427124,0.3711891770362854,0.1665681891215079,0.0007326700675868,-0.0001276949735367,-0.0308929309248924,0.0323457792401313,-0.0238997116684913,-0.0030786795541644,0.0010618241503834,0.4306651949882507,0.9025059342384338,-0.0076763705921166,-0.04277561573011,0.0214469849575525,0.184741735458374,-0.0815893411636352,0.1480798721313476,103,111,14371,14568
11.0,1788516038987,5.126760482788086,4.929577350616455,-0.0040849894285202,-0.0017045735148712,0.9288219213485718,0.3705001473426819,0.1723852305927718,0.0020578276448013,2.0488413170439453e-07,-0.0156366601586341,0.0044856434687972,0.0091248219832777,-0.0042335977777838,0.0013717766851186,0.4310984313488006,0.9022939205169678,-0.0263520964520532,0.0047935137279396,-0.0165059343497295,0.1998893022537231,-0.0441790223121643,-0.6435794830322266,77,94,14030,14918
11.1,1788516039087,5.014084339141846,4.985915660858154,-0.0038562165573239,-0.0035999254323542,0.9284356832504272,0.3714559078216553,0.1709302271929972,0.0018349902164893,6.227010204295632e-05,-0.0359610989689827,-0.0187207423150539,-0.0243303179740905,-0.005495361983776,0.0004414850845932,0.4305819272994995,0.9025346040725708,-0.0062167295267663,0.0021721298439612,0.018782329244598,0.0533418655395507,0.2139582633972168,0.9929351806640624,134,116,14396,14815
11.2,1788516039187,5.014084339141846,4.957746505737305,-0.004681616090238,-0.0029002293013036,0.9286776781082152,0.3708467483520508,0.1655693590283376,0.0019547388825097,-6.558034340787728e-05,0.0139858089387416,0.0365707464516162,0.0135811595246195,-0.0052605858072638,0.0005618622526526,0.4309365451335907,0.902366816997528,-0.0002533329883075,-0.0112145189835542,-0.0099934830795685,-0.0072249174118041,-0.0934163928031921,0.7749528884887695,102,61,15604,13600
11.3,1788516039287,5.352112770080566,4.788732528686523,-0.004741899203509,-0.0028972653672099,0.928694486618042,0.370803952217102,0.1721431419662452,-0.0002399836722949,0.0001097501284974,-0.0008055089274421,0.0023192916996777,0.0018823500722646,-0.0062502659857273,0.0019306540489196,0.4293387532234192,0.9031198024749756,-0.0157522632878723,-0.0022858073970813,-0.0887583022905873,-0.3174300789833069,-0.2492852210998535,-1.1665973663330078,103,130,14423,14344
11.4,1788516039387,5.239436626434326,4.901408672332764,-0.0045506153255701,-0.0036110403016209,0.9270318746566772,0.3749375939369201,0.1702704382743691,0.002946537921721,1.3157566856657452e-05,-0.0050118002109229,-0.0217326618731021,-0.0297491997480392,-0.0055700950324535,1.867767423391342e-05,0.4264804124832153,0.9044796228408812,-0.0073598026563386,-0.0147540874700021,-0.0262110914599592,0.2364628911018371,-0.3527718186378479,0.2967891693115234,85,121,14741,14194
11.5,1788516039487,5.323943614959717,4.901408672332764,-0.0044582411646842,-0.0039426861330866,0.9261499047279358,0.3771085441112518,0.1768264459841631,-0.0001684360576153,6.8672058989781e-05,-0.0124092316254973,0.0023673200048506,-0.0764386877417564,-0.0057884417474269,-0.0006070518866181,0.4237330555915832,0.9057683944702148,-0.011118506841728,-0.050011093041537,-0.0734604929692578,0.3085814118385315,-0.0744779109954834,0.0434598922729492,104,96,14459,14221
11.6,1788516039587,5.577464580535889,4.535211086273193,-0.0039248843677341,-0.0043469448573887,0.925473928451538,0.3787659406661987,0.174142705461808,-0.0025065704860549,2.4509031196806252e-05,-0.0008420823141932,-0.0074956826865673,-0.0252698212862014,-0.0059204632416367,-0.000749098137021,0.4213837385177612,0.9068628549575806,-0.0083361482828838,-0.0055198541977956,-0.0807028272087171,0.2223322987556457,-0.0834733247756958,0.7344503402709961,96,93,15913,12946
11.7,1788516039687,5.633802890777588,4.619718074798584,-0.0036831905599683,-0.0052145761437714,0.9225908517837524,0.3857269883155823,0.162501491386753,-0.0079096764173719,-3.146816253306097e-05,-0.0177938062697649,-0.0109327947720885,-0.1677453964948654,-0.0065271947532892,-0.0014213472604751,0.4142180979251861,0.9101531505584716,-0.0228155729915312,-0.0026421222332111,-0.1794054409202476,-0.0500145554542541,0.0493214726448059,-0.000655174255371,78,103,15323,12873
11.8,1788516039787,6.535211086273193,3.4647886753082275,-0.0038098713848739,-0.0049211857840418,0.9198423624038696,0.3922387361526489,0.1724818063095107,0.0018041690451809,3.0792821310925925e-06,0.0168546009808778,-0.0084692034870386,-0.1364684104919433,-0.0062721008434891,-0.0007723979651927,0.4049261212348938,0.9143275618553162,-0.0066819977610712,0.0020082191341416,-0.2624833883523308,0.3371389508247375,-0.4164478778839111,0.0259389877319335,156,52,19613,9601
11.9,1788516039887,7.042253494262695,3.070422649383545,-0.0038744951598346,-0.0047919377684593,0.9112846255302428,0.4117309153079986,0.164128829405191,-0.0012406048674365,-3.9536775745138206e-05,0.0106101362034678,0.0102963810786604,-0.5002175569534302,-0.0061059547588229,-0.000613329000771,0.3810504376888275,0.9245339035987854,0.0056669743226859,0.0220101538082965,-0.6016354346479178,-0.1475433111190796,0.0021706223487854,-0.3642101287841797,122,43,19434,8907
12.0,1788516039987,6.591549396514893,3.380281686782837,-0.0040432959794998,-0.0043419636785984,0.8983079791069031,0.4393262863159179,0.1554977993371677,-0.0012060304684527,-7.757256141272539e-05,0.0113890850916504,0.0134707298129796,-0.6578881740570068,-0.0060605257749557,0.000172508880496,0.3524969518184662,0.9357933402061462,0.0082975390850079,0.0344923264446808,-0.5647053594791105,-0.3733112215995788,0.6012071967124939,-0.1274375915527343,71,133,18091,11321
12.1,1788516040087,6.619718074798584,3.521126747131348,-0.0044244811870157,-0.0040136221796274,0.8879852294921875,0.4598331749439239,0.1621135797555012,0.0011627384785565,-5.762965630173132e-06,0.0040506552904844,0.0015685895923525,-0.419658750295639,-0.0059105958789587,0.000320915132761,0.3345284163951874,0.942367136478424,0.0136961541987077,0.0044485748175208,-0.4201421874584324,0.1795406937599182,0.2929788827896118,-0.1299238204956054,118,83,18206,10354
12.2,1788516040187,6.704225540161133,3.492957830429077,-0.0050728935748338,-0.0035746591165661,0.8762335777282715,0.4818466901779175,0.1714355552583017,0.0055014294840431,-4.472824418528142e-05,0.0033782699611037,0.008526723831892,-0.465239405632019,-0.0062013007700443,0.0008034147322177,0.3081151247024536,0.9513285160064696,-0.0023050495736382,0.0145800956457691,-0.4674810553540589,0.0040000677108764,0.0793573260307312,0.2995138168334961,90,60,17912,10308
12.3,1788516040287,6.2816901206970215,3.633802890777588,-0.0050914334133267,-0.0036584816407412,0.8648847937583923,0.5019313097000122,0.1632013856935981,-0.0054100130818189,9.193020779832602e-06,-0.0026745947543531,0.0036822811234742,-0.4608793258666992,-0.0062226252630352,0.0007655909284949,0.2950030863285064,0.955475687980652,0.0017357805030992,0.0065060440696513,-0.4641505615595306,-0.0451963543891906,0.1108511090278625,0.3874492645263672,95,132,17007,12354
12.4,1788516040387,6.394366264343262,3.690140962600708,-0.0051169274374842,-0.0035892473533749,0.8571240305900574,0.5150721073150635,0.1643117529219979,-0.0074624102242286,-6.419651712780688e-05,0.011628458276391,0.0137157374992966,-0.3025194108486175,-0.0062300190329551,0.0010362332686781,0.2771612703800201,0.9608027338981628,0.0081175906024751,0.0099672993241768,-0.3281696258098243,0.1579542160034179,0.1217742562294006,-0.6030788421630859,150,41,19343,9478
12.5,1788516040487,6.816901206970215,3.4084506034851074,-0.004207516554743,-0.0035770502872765,0.8467621803283691,0.5319429636001587,0.1663142128054572,-0.0066915145346073,8.741345864628676e-06,0.0174557399004697,-0.0555726625025272,-0.4027223587036133,-0.00558946095407,-0.0007750773802399,0.2496825456619262,0.9683113098144532,0.0089482506186459,0.0122672503295394,-0.5689959677275158,-0.5233584046363831,-0.2274441123008728,1.718484878540039,96,90,17957,10332
12.6,1788516040587,6.591549396514893,3.549295663833618,-0.0030212821438908,-0.0050795776769518,0.8342260718345642,0.5513909459114075,0.1625450476366249,-0.0016488433881019,1.5885228001939534e-05,-0.0105557395145297,-0.0288492999970912,-0.4906374216079712,-0.0059718489646911,-0.0019808458164334,0.2291042059659958,0.9733816385269164,-0.012773749947989,-0.0325086467544806,-0.414240027075446,0.1570027470588684,-0.4072135686874389,-0.7236156463623047,115,66,18354,10332
12.7,1788516040687,6.394366264343262,3.633802890777588,-0.0033903655130416,-0.0059900083579123,0.8197905421257019,0.5726220011711121,0.1705295754420713,0.0006082165417573,-8.408582436027376e-05,-0.0183888878673315,0.0076238764449954,-0.4707662165164947,-0.0066349999979138,-0.0016039852052927,0.2089984863996505,0.9778921008110046,0.003306875424187,0.0476224528556167,-0.4186216713583391,0.2068045735359192,-0.143739104270935,-0.5587835311889648,93,124,17433,11678
12.8,1788516040787,6.169013977050781,3.91549301147461,-0.0039316173642873,-0.005641771480441,0.8086556792259216,0.5882420539855957,0.1681309048197458,0.0049458230016554,-2.0170675289101715e-05,-0.0057546272873878,0.0080687124282121,-0.3722486197948456,-0.0070682587102055,-0.0013902923092246,0.186610534787178,0.982407569885254,-0.015012666806795,0.005404397639115,-0.3617955951462767,-0.1439070105552673,0.0008882284164428,0.5647201538085938,99,95,16030,12831
12.9,1788516040887,5.070422649383545,5.464788913726807,-0.0043995082378387,-0.0056421789340674,0.8004713654518127,0.5993283987045288,0.1643692656875918,0.0008714975246694,-2.6476720863476816e-05,0.001422862522304,0.0098293125629425,-0.2015563249588012,-0.0068630864843726,-0.001410299912095,0.1820898503065109,0.983256995677948,0.007016039703181,-0.0230351710641906,0.0573742914301677,-0.4399594664573669,0.1678165793418884,0.0917129516601562,64,86,12875,14520
13.0,1788516040987,5.183098793029785,5.098591327667236,-0.0035356755834072,-0.0055182636715471,0.8034967184066772,0.5952730178833008,0.1727630409024833,0.0019447870039144,3.754198962501622e-05,0.0156295616179704,-0.0099839251488447,0.1368251144886016,-0.0060943067073822,-0.0017499951645731,0.1870162636041641,0.9823363423347472,0.0202476861967244,-0.0095393736294048,0.0520618586589361,0.095194399356842,-0.3635273575782776,-0.6410694122314453,65,77,14112,14027
13.1,1788516041087,5.154929637908936,4.901408672332764,-0.0032822892535477,-0.0056941588409245,0.8033656477928162,0.5954496264457703,0.1528375277607837,-0.003688989250052,4.131365858244272e-05,-0.0246137809008359,0.0232220068573951,-0.0281297415494918,-0.0064425291493535,-0.0021888278424739,0.1863802224397659,0.9824541211128236,-0.0057344108071973,-0.0128484353076327,0.010800319505978,-0.1526458859443664,-0.0459839701652526,0.5698795318603516,83,96,15119,14176
13.2,1788516041187,5.042253494262695,4.760563373565674,-0.0029501426033675,-0.0069117089733481,0.8029555678367615,0.5959913730621338,0.1779724750400549,0.000154042915893,8.555054463862044e-05,-0.0303304083645343,-0.0488871596753597,-0.0379102081060409,-0.0063931122422218,-0.0029293335974216,0.1850052326917648,0.98271244764328,0.0259574326091911,0.0085178695898466,-0.0406667583412337,0.5457085967063904,-0.2419902682304382,0.1752882003784179,170,122,15555,14549
13.3,1788516041287,5.295774459838867,4.873239517211914,-0.0027102674357593,-0.0064890161156654,0.8025431036949158,0.5965526700019836,0.1661005789158516,0.0019556486141661,4.036340931030221e-06,0.0196771509945392,0.0026339311152696,-0.0284990761429071,-0.0059100119397044,-0.0018545491620898,0.1838991343975067,0.9829255938529968,0.0177680880293585,-0.0005135877167577,-0.0603297258908977,0.0215585827827453,0.315426230430603,0.3008174896240234,99,109,14866,14088
13.4,1788516041387,5.098591327667236,5.070422649383545,-0.0034444259945303,-0.004387498833239,0.8007140755653381,0.5990207195281982,0.1742787257743374,0.0034052649067439,-8.234883731985666e-07,0.0052687223069369,0.0134456157684326,-0.0390140376985073,-0.0055039161816239,-0.0007936870679259,0.1818758249282837,0.9833058714866638,0.0057009386664139,0.0418893537344329,-0.0392217255170123,-0.0062565207481384,0.1960014700889587,-0.5513477325439453,82,114,14388,14550
13.5,1788516041487,5.098591327667236,5.098591327667236,-0.0034444259945303,-0.004387498833239,0.8007140755653381,0.5990207195281982,0.1781644996905377,0.0001453523229516,1.841203034619756e-07,0.0,0.0,0.0,-0.0056300451979041,-0.0007554208859801,0.1819446384906768,0.9832923412322998,0.0026162738937272,0.0256386949020749,0.014450782849486,-0.0057731866836547,0.1221033334732055,-0.7995061874389648,87,114,14372,14320
13.6,1788516041587,5.267605781555176,4.873239517211914,-0.0034444259945303,-0.004387498833239,0.8007140755653381,0.5990207195281982,0.1674666034641931,0.0008934402242755,-1.4598456051737723e-06,0.0,0.0,0.0,-0.0057271067053079,-0.0011609951034188,0.1817528456449508,0.9833268523216248,-0.0007533426403877,-0.0130401765125782,-0.0056800381992693,0.1719383001327514,0.0915661454200744,-0.435983657836914,115,87,14930,13825
13.7,1788516041687,5.323943614959717,4.760563373565674,-0.0032271861564368,-0.0049845157191157,0.7994377613067627,0.6007196307182312,0.1653990992928529,0.0055639036267231,0.0001282974847378,-0.0135899391025304,-0.0203160010278224,-0.0831793025135994,-0.0059298137202858,-0.0015412280336022,0.1786299347877502,0.9838972687721252,-0.0121315990164885,-0.0026941323627752,-0.0762503739031514,0.1865246891975402,0.2829484939575195,-0.2306594848632812,120,101,14634,14423
13.8,1788516041787,5.211267471313477,5.070422649383545,-0.003081205766648,-0.0055102580226957,0.7978536486625671,0.6028181314468384,0.1612520522250517,-0.0019920962107387,-4.2462798923846563e-07,-0.0063529997132718,-0.0143037242814898,-0.036866720765829,-0.0060930782929062,-0.0023951111361384,0.1762566268444061,0.9843225479125975,-0.006274614703508,-0.0249075627251389,-0.031568777134211,0.5189809799194336,0.1750902533531189,0.3330516815185547,141,52,16925,11579
13.9,1788516041887,5.88732385635376,4.169013977050781,-0.0029746838845312,-0.0058542084880173,0.7943480014801025,0.6074273586273193,0.1734099840344381,0.000262533360426,-7.408203913197506e-06,0.0005390866426751,0.0085289785638451,-0.2158551663160324,-0.0061329565942287,-0.0022116284817457,0.163447767496109,0.9865304231643676,-0.001313100522634,0.0028204905991081,-0.3494543780422754,0.1041921973228454,0.1387352347373962,-0.4574270248413086,111,86,17141,11633
14.0,1788516041987,5.915493011474609,4.14084529876709,-0.0040488988161087,-0.0051290607079863,0.7854539752006531,0.6188855171203613,0.1609539071530162,-0.00305984114698,-1.117612070271483e-05,-0.0053931619040668,0.0508160218596458,-0.2734163999557495,-0.0073001375421881,0.0041311169043183,0.1515047997236251,0.9884209036827089,0.0029823238481651,0.2019204168934263,-0.2424299558064676,0.7459530234336853,-0.4678806662559509,-5.306707859039307,99,131,16734,12749
14.1,1788516042087,5.915493011474609,4.14084529876709,-0.005682457704097,-0.003681291360408,0.7775285243988037,0.6288112998008728,0.1648208298218867,-0.0044926209327705,0.0003917313625247,0.0020214372780174,-0.11839110404253,-0.2435142546892166,-0.0066199200227856,0.0019767982885241,0.1390710771083831,0.9902582764625548,0.0075841545588845,-0.0063540867373242,-0.2613608631950914,-0.129643440246582,-0.2793877720832824,0.5543708801269531,109,84,16817,12570
14.2,1788516042187,5.492957592010498,4.3380279541015625,-0.0057917619124054,-0.0034231878817081,0.7682392001152039,0.6401275992393494,0.1661030639890023,-0.0043313529458495,-3.38490427130563e-05,-0.0005644700140692,-0.0016041634371504,-0.2717204689979553,-0.0066633112728595,0.0015214439481496,0.127018466591835,0.9918768405914308,-0.0032602451252896,0.0042776912289955,-0.2599263913241,-0.1794182658195495,0.2387252449989318,0.5599308013916016,117,71,16428,12297
14.3,1788516042287,5.521126747131348,4.535211086273193,-0.0062700323760509,-0.0030984613113105,0.7623630166053772,0.647111713886261,0.1694633836148521,-0.0046516924562324,-3.551300673233978e-05,0.0029598658438771,0.0220249742269516,-0.1347129642963409,-0.0067072613164782,0.0020086076110601,0.1209525540471077,0.9926336407661438,0.0029587095033926,0.028489448530419,-0.1164791643262938,-0.3511916399002075,0.2071622014045715,0.3722553253173828,108,115,15736,13777
14.4,1788516042387,5.492957592010498,4.563380241394043,-0.0063507873564958,-0.0032305149361491,0.7601559162139893,0.6497017741203308,0.1752184591937187,0.0026354100232666,3.117376520686351e-05,-0.0057411347515881,-8.098723628791049e-05,-0.1361348628997802,-0.0069493083283305,0.0025080414488911,0.1124029159545898,0.9936352968215942,-0.0055219423897747,0.0152153699500916,-0.1473547652133434,-0.1841898560523986,-0.3044503331184387,0.4229812622070312,100,136,16021,13375
14.5,1788516042487,5.633802890777588,4.591549396514893,-0.0069332299754023,-0.0024746025446802,0.7533783912658691,0.6575461030006409,0.1631390206134038,-0.0049399096503623,-9.714090868918517e-06,0.0061385501176118,0.0094735547900199,-0.126786470413208,-0.0064508225768804,0.0030249757692217,0.1043692454695701,0.9945131540298462,0.0215182573983186,0.0347429552292701,-0.1425444466839189,-0.0897327661514282,-0.237175166606903,0.7792415618896484,117,104,15790,13292
14.6,1788516042587,5.605633735656738,4.478873252868652,-0.0062540899962186,-0.0027234754525125,0.7492151260375977,0.6622915267944336,0.1759472124315863,-7.216280996459532e-05,1.146513293556802e-05,-0.000464277487481,-0.0247641783207654,-0.137338250875473,-0.0065235467627644,0.0026652431115508,0.1002438887953758,0.9949380159378052,0.0036733827089268,0.0045708481174416,-0.1446897625732218,0.2644742727279663,-0.0296153426170349,-0.1684865951538086,101,101,15606,13575
14.7,1788516042687,5.521126747131348,4.563380241394043,-0.0069037731736898,-0.0030680468771606,0.7439358234405518,0.6682084202766418,0.1669557275288901,-0.0010345061686938,-1.0142344268161886e-05,0.0370386205613613,0.0483390614390373,-0.1171059161424636,-0.0067019732668995,0.0022174455225467,0.0915589854121208,0.9957746267318726,0.0292181715295438,-0.0160587876697034,-0.119379839356508,0.3784025907516479,0.4364025592803955,0.3620519638061523,140,101,16307,13259
14.8,1788516042787,5.633802890777588,4.2816901206970215,-0.0041503570973873,-0.0022924016229808,0.7404109835624695,0.6721377372741699,0.1789100458797077,-0.0028879028768656,0.0001347436987003,0.0515541061758995,-0.0371440313756465,-0.0992673933506012,-0.0046113021671772,0.0023496821522712,0.084521010518074,0.9964082837104796,0.0075974779605513,0.0811399871736498,-0.2071165158943818,-0.2099302411079406,0.1321582198143005,-1.4579524993896484,109,115,15713,13503
14.9,1788516042887,4.957746505737305,5.267605781555176,-0.0054902550764381,-0.0018745535053312,0.7338666915893555,0.6792686581611633,0.1659785291296533,0.0005994438297559,2.692034025921075e-05,-0.0146017493680119,0.0164339356124401,-0.1848860681056976,-0.005594115704298,0.0017487881705164,0.0769019424915313,0.9970214366912842,-0.0294861760245902,-0.0523372989752617,-0.1038367183081286,0.4939937591552734,0.3737388849258423,-0.6347169876098633,28,185,11359,17510
15.0,1788516042987,4.2816901206970215,5.943662166595459,-0.0056006126105785,-0.002605396322906,0.738460123538971,0.6742688417434692,0.1686407685887093,0.0071831379002979,6.040710929467912e-05,-0.0058979946188628,-0.0113802226260304,0.2592280507087707,-0.0057059312239289,0.0015926426276564,0.0886155888438224,0.9960483312606812,0.0150559218088014,-0.0223008904052728,0.3728731609845713,-0.2382993698120117,-0.0422626733779907,0.5206422805786133,88,84,11107,16968
15.1,1788516043087,4.2253522872924805,6.084506988525391,-0.0055058896541595,-0.0021548820659518,0.7497946619987488,0.6616441607475281,0.1639019948120888,0.0089019823352983,-2.1722670073703765e-05,0.0006377499666996,0.0155286891385912,0.2993032038211822,-0.0052345637232065,0.0018188646063208,0.1073039770126342,0.9942107796669006,0.0065889022166829,-0.0265525816674774,0.2973067909444037,0.1251651644706726,0.4039044380187988,-0.4332942962646484,89,98,12370,16214
15.2,1788516043187,4.2816901206970215,5.943662166595459,-0.0050401487387716,-0.0021660053171217,0.7574831247329712,0.6528317332267761,0.1701901015613808,0.0054743598312778,4.7096668937675405e-05,0.0033510662615299,-0.0166361145675182,0.2465661764144897,-0.0050922622904181,0.0017711874097585,0.1184747815132141,0.9929424524307252,0.0063745341787679,-0.0086004885232063,0.2574269471344648,-0.0449311137199401,-0.1283868551254272,-0.1830358505249023,67,93,13424,15104
15.3,1788516043287,4.647887229919434,5.464788913726807,-0.0046304301358759,-0.0023217261768877,0.7646295428276062,0.6444491744041443,0.1690997727901773,0.0027637135716367,2.272881188203007e-05,0.0012574890861287,-0.008294453844428,0.1850287318229675,-0.0049776583909988,0.0015296768397092,0.1267605125904083,0.9919196963310242,9.739813796019774e-05,0.012769613185875,0.1443937075306357,-0.0499448776245117,-0.1204187273979187,0.0055570602416992,105,102,12998,16012
15.4,1788516043387,4.591549396514893,5.521126747131348,-0.0039564417675137,-0.0027950692456215,0.7675619721412659,0.640956461429596,0.1627999535604017,0.0042095736364148,5.3747195352764346e-05,0.00211888179183,-0.0282972864806652,0.1531221866607666,-0.0049117477610707,0.0001987805590033,0.1339026689529419,0.9909823536872864,-0.0092373956322666,-0.0192635361105063,0.1358928695810445,-0.2651480436325073,0.3114168643951416,0.7051620483398438,97,107,13072,15904
15.5,1788516043487,4.8450703620910645,5.295774459838867,-0.0033592411782592,-0.0038399044424295,0.7741649150848389,0.6329634189605713,0.1792547010631009,0.0003225142882438,-4.718981560588387e-06,-0.0053121685050427,-0.0075261215679347,0.1481847167015075,-0.0050292210653424,-0.0002147331833839,0.1420920193195343,0.9898407459259032,0.0059661602438075,0.0203449571768654,0.1779853254765161,-0.0111495852470397,-0.0117251873016357,0.5953941345214844,87,124,12508,15283
15.6,1788516043587,4.957746505737305,5.267605781555176,-0.0038219166453927,-0.0030078245326876,0.7776244878768921,0.6287100911140442,0.1710936263017072,0.0015503590326564,5.432606178826908e-05,0.0126545550301671,0.0146357594057917,0.062479306012392,-0.0048577087000012,0.0009409887716174,0.1450285017490387,0.9894150495529176,0.0021052040351763,0.0318021328221026,0.0077175590812808,0.1472851037979126,0.0478151440620422,0.6609134674072266,112,110,14168,14657
15.7,1788516043687,5.070422649383545,5.154929637908936,-0.0036957180127501,-0.0029573200736194,0.7781577706336975,0.6280511021614075,0.1704409874860499,0.0019775266445969,-0.0001550488401577,0.0004397169977892,-0.0498362593352794,0.0255564581602811,-0.0043403999879956,-0.0019232491031289,0.1461045295000076,0.9892578125,0.0029602075855574,-0.1993753612453872,0.0229737126397271,0.6485331058502197,0.0337269306182861,4.862598419189453,117,120,14687,14453
15.8,1788516043787,5.126760482788086,5.098591327667236,-0.0018540301825851,-0.00416204566136,0.7792378664016724,0.6267117261886597,0.1765372713867127,-7.844393839100113e-05,6.98694337326939e-06,0.0076051205396652,-0.0113678257912397,0.0267810616642236,-0.0041900807991623,-0.00208006426692,0.1473605632781982,0.9890718460083008,0.0023988980611955,-0.0311383276277677,-0.0038707848561426,0.4165476560592651,0.1141608953475952,-0.76531982421875,100,105,14336,14343
15.9,1788516043887,5.521126747131348,4.619718074798584,-0.001381694455631,-0.0043634073808789,0.7792648673057556,0.6266780495643616,0.1718741872470494,-0.0004152703755215,6.052456002322351e-05,0.0100676473230123,-0.026128564029932,0.0044570672325789,-0.0040450291708111,-0.0021828673779964,0.1462197005748748,0.9892414808273317,-0.0039136724399143,0.0066990270619395,-0.0838233464121978,-0.1130198836326599,-0.2176855206489563,0.2368087768554687,145,41,16619,12454
16.0,1788516043987,5.577464580535889,4.535211086273193,-0.0015381672419607,-0.0040776822715997,0.7750170826911926,0.6319252252578735,0.1690988460600925,-0.0006447613293759,-4.422537071541572e-05,0.000683277437929,0.0030530344229191,-0.172304630279541,-0.0036032535135746,-0.0015686275437474,0.1362967789173126,0.9906602501869202,0.0073108653919795,-0.0081186235904066,-0.1598702327392715,0.3288710117340088,-0.0191351175308227,-0.7951011657714844,117,108,16053,13181
16.1,1788516044087,5.605633735656738,4.507042407989502,-0.0017628329806029,-0.0034726548474282,0.7699825167655945,0.6380530595779419,0.1704495223869873,-0.0031994098334827,-4.27282587205587e-05,0.0014109135372564,0.0063958750106394,-0.162929967045784,-0.0035773999989032,-0.0008179377764463,0.129174917936325,0.9916150569915771,0.0100158059342601,0.0391025927941905,-0.1497910906994279,-0.1481795907020568,-0.031346321105957,-0.6338825225830078,115,98,15824,13388
16.2,1788516044187,5.605633735656738,4.563380241394043,-0.001621532253921,-0.0034449263475835,0.764560878276825,0.6445401906967163,0.1664713073571443,-0.0033792910578855,8.480797714847656e-05,-0.0010315718827769,-0.0191700030118227,-0.149858608841896,-0.0034944983199238,-0.0021096197888255,0.1222834661602974,0.9924867749214172,-0.0031956179022769,-0.0540107658252993,-0.1558581924630767,0.213383674621582,-0.2513787746429443,-0.5037307739257812,82,79,15544,12882
16.3,1788516044287,5.605633735656738,4.619718074798584,-0.000993609894067,-0.0046599050983786,0.7591203451156616,0.6509328484535217,0.1627032293215532,-0.0015855215682566,0.0001044331588808,-0.0146746402606368,-0.0201597996056079,-0.1737934947013855,-0.0041434979066252,-0.0034286733716726,0.1136814206838607,0.9935027360916138,-0.0223332457820972,-0.0424869293138111,-0.1704034309864073,0.1024988293647766,0.1342442631721496,0.2736082077026367,94,99,15421,12752
16.4,1788516044387,5.183098793029785,5.014084339141846,0.0002806152915582,-0.0034917998127639,0.7569206953048706,0.6534973978996277,0.1690596039373474,-0.0012242475015185,-0.0002079421071718,0.0890403464436531,0.0479585491120815,0.0242613032460212,-0.0027629118412733,-0.0017660576850175,0.111362524330616,0.9937744140625,-0.0515469942028113,0.0892090615630293,-0.097538656503732,-0.510933518409729,0.1866775751113891,0.5904989242553711,149,81,15399,13759
16.5,1788516044487,5.436619758605957,4.873239517211914,-0.0008583751041442,-0.0033073062077164,0.7550469040870667,0.655661940574646,0.1662274746536904,0.0001718587480536,2.6253382312748256e-05,-0.00446538021788,0.0076581332832574,-0.05092503875494,-0.0028656320646405,-0.0017427606508135,0.1098576560616493,0.9939416646957396,-0.0002593998387151,0.0446333735561303,-0.0338032510291725,-0.403956651687622,0.4872102737426758,0.9065485000610352,110,95,14199,14178
16.6,1788516044587,5.239436626434326,4.985915660858154,-0.0012445932952687,-0.0030828977469354,0.7535450458526611,0.6573878526687622,0.1705196887600561,0.0010361517402901,-3.333906141548979e-05,-0.0052897990681231,0.0190430488437414,-0.0385022908449173,-0.0029561119154095,-0.0012874044477939,0.1072775423526763,0.9942238926887512,0.0041754024570273,0.0085214326063187,-0.0304123783736931,0.0144283175468444,0.0207036733627319,-0.3185911178588867,91,104,14930,13920
16.7,1788516044687,5.239436626434326,4.8450703620910645,-0.0016804460901767,-0.0029744962230324,0.7520973086357117,0.6590431332588196,0.174710529477493,0.0009878556501679,-1.4724870318545164e-05,-0.0112385554239153,0.0120036881417036,-0.0537145249545574,-0.0032916106283664,-0.0009971288964152,0.1052330285310745,0.9944416284561156,-0.0120660621498028,0.0164307084212458,-0.0595798119420828,-0.127145230770111,-0.0886145830154419,1.0309906005859375,95,96,14769,14374
16.8,1788516044787,5.154929637908936,5.098591327667236,-0.002132223220542,-0.0026383132208138,0.7508273124694824,0.6604899168014526,0.1699174028760448,-0.0046865089745113,-2.3004841418749663e-05,0.0052130683325231,0.0106094367802143,-0.0323422774672508,-0.0035274354740977,-0.0006625950336456,0.1028016805648803,0.994695484638214,-0.0126054110247447,-0.0100071375215617,-0.0561787880655654,0.0428098440170288,0.0189871788024902,0.2849712371826172,104,111,15140,13558
16.9,1788516044887,5.211267471313477,4.816901206970215,-0.0021779658272862,-0.0028767781332135,0.748854398727417,0.6627246737480164,0.173009787494795,0.000669409311383,1.8427347334258616e-05,-0.0006556089501827,-0.001946814591065,-0.0529413186013698,-0.0036844843998551,-0.0004928605630993,0.0996375828981399,0.995016872882843,-0.0098202216938877,0.0066773770290654,-0.0542943172597108,-0.0438905954360961,-0.0576044917106628,0.3507213592529297,110,111,15022,14380
17.0,1788516044987,5.154929637908936,4.8450703620910645,-0.0025499032344669,-0.0025469895917922,0.7468360662460327,0.664998471736908,0.1716935713033242,-0.0001790744350907,-0.0001121819209329,0.0016184246633201,0.0118056703358888,-0.0537399537861347,-0.0034428881481289,0.0005012722685933,0.0971631631255149,0.9952623844146729,0.0187469452092921,0.0521835225506469,-0.057889629201291,-0.1969883441925048,-0.0008013844490051,0.2190847396850586,101,105,14395,14268
17.1,1788516045087,5.098591327667236,4.957746505737305,-0.0030176874715834,-0.0020575644448399,0.7455074787139893,0.6664873361587524,0.1692744009361265,-0.0012988352565197,-2.685218333195649e-05,-0.0001707285700831,0.017304053530097,-0.036056999117136,-0.0034678541123867,0.0012637013569474,0.0951427519321441,0.9954568147659302,0.015321871375411,0.0661913549478808,-0.0265501332939121,-0.2751830816268921,-0.0991297960281372,0.5303916931152344,111,99,15393,13934
17.2,1788516045187,5.323943614959717,4.901408672332764,-0.0031630024313926,-0.0019139279611408,0.7442438006401062,0.6678977608680725,0.1752057416871663,0.0019714950567747,0.0001405431584802,-0.0098911514505743,-0.0218884479254484,-0.0601165667176246,-0.0036465525627136,0.0007533738389611,0.092821218073368,0.9956758618354796,-0.0028059454228498,-0.0145553556249283,-0.0455149441184372,0.0818376541137695,0.3585856556892395,0.4868698120117187,114,111,14575,14098
17.3,1788516045287,5.126760482788086,4.816901206970215,-0.0035864778328686,-0.0020566526800394,0.7424653768539429,0.6698716282844543,0.1726800686916411,0.0019092105443179,-3.719578544645788e-05,-0.0121296867728233,0.0038968003354966,-0.0559159182012081,-0.0039894059300422,0.0013291575014591,0.0907797068357467,0.9958621859550476,0.0083165142270955,0.0290715020155009,-0.0209546278696849,-0.0690271854400634,-0.3378036022186279,-0.1302919387817382,100,89,15106,14336
17.4,1788516045387,5.014084339141846,4.732394218444824,-0.0042871749028563,-0.0015215830644592,0.7420699000358582,0.6703070998191833,0.168762890549292,-0.0018419609175479,-7.462494431243876e-05,-0.0030092019587755,0.037151675671339,-0.0246643405407667,-0.0039450302720069,0.0007292013615369,0.0889471545815467,0.9960283041000366,0.0046483945937044,-0.084783284536681,-0.0288466256606711,0.2151266932487487,0.0299404263496398,4.446052551269531,166,128,15836,14858
17.5,1788516045487,5.183098793029785,5.154929637908936,-0.0030117097776383,-0.0027592424303293,0.7393442392349243,0.6733152270317078,0.179774233270035,0.0010158445715511,-0.0001975098919975,0.0036743434611707,0.0209643058478832,-0.0528215877711772,-0.003680701367557,-0.0004600873216986,0.086079902946949,0.9962813258171082,0.024081588951809,-0.0337673168873772,-0.0280418922531043,-0.0641168355941772,0.2763726711273193,0.8786783218383789,76,80,14845,12971
17.6,1788516045587,5.267605781555176,4.901408672332764,-0.0027429414913058,-0.0026894903276115,0.7377862930297852,0.6750234365463257,0.1754049527468606,0.0017418151837464,9.951831736775146e-05,-0.0046046092174947,-0.0115451719611883,-0.0645979717373848,-0.0036952011287212,-3.452599048614502e-05,0.0852154344320297,0.9963557124137878,0.0013795601729841,0.0272500457729328,-0.0550821700245047,-0.0361967682838439,-0.1532379984855651,0.3741626739501953,124,118,14657,14387
17.7,1788516045687,5.154929637908936,4.957746505737305,-0.0028049976099282,-0.003262098878622,0.7355331182479858,0.6774751543998718,0.1647538868395619,-0.0004773334371278,-4.344787650724048e-05,-0.0137938801199197,-0.0028450852259993,-0.0757985115051269,-0.0042115813121199,-0.0001675970852375,0.0800747722387313,0.9967799782752992,0.0062995898416925,0.0270449396332682,-0.0380407764632176,-0.0776963233947753,0.1485520601272583,0.3557024002075195,115,102,15052,13787
17.8,1788516045787,4.901408672332764,5.352112770080566,-0.0033679935149848,-0.0026874761097133,0.7342143058776855,0.6789039969444275,0.1699528938817862,-0.0003181280092005,-2.497463697498364e-05,-0.0015852906508371,0.0189941637217998,-0.0353042930364608,-0.0043112589046359,0.0005137454718351,0.0789931342005729,0.996865689754486,0.0001673472012693,0.0137038105512357,0.0038377575917412,-0.0916489362716674,0.0009471774101257,-0.371312141418457,79,107,13578,14846
17.9,1788516045887,4.8450703620910645,5.267605781555176,-0.003912232350558,-0.0024754048790782,0.736178994178772,0.6767709851264954,0.1654922770841268,0.0023631820066798,-1.3794603217092987e-05,-0.0045196628198027,0.0042460435070097,0.0677261129021644,-0.004522593691945,0.0008386615663766,0.0834245160222053,0.996503472328186,-0.0001876142775515,-3.471578700725263e-05,0.0868203266967472,0.1152184605598449,-0.1440365314483642,0.3492288589477539,83,119,13948,14922
18.0,1788516045987,4.619718074798584,5.436619758605957,-0.0039651850238442,-0.0031567909754812,0.7382327914237976,0.6745270490646362,0.1690669755768771,0.0033504236750993,3.776200893640412e-05,-0.0284331534057855,-0.022614199668169,0.0506115555763244,-0.0053579760715365,-0.0001158416271209,0.0866012424230575,0.9962286353111268,-0.0074182063715865,-0.0221669366470698,0.1059727197089394,-0.3567636013031006,-0.1196703314781189,0.0815877914428711,47,136,12347,16842
18.1,1788516046087,4.647887229919434,5.746479034423828,-0.0034326156601309,-0.0029233573004603,0.7439162135124207,0.6682576537132263,0.1736202476129146,0.000813344438961,2.1461270029231977e-06,0.0249983835965394,-0.0127436676993966,0.2085737586021423,-0.0038648815825581,-0.0001111468300223,0.095539852976799,0.995418131351471,0.03929963108548,-0.0099063096355552,0.1554652007703598,-0.5566769242286682,-0.3972861766815185,0.2123222351074218,85,87,12836,15217
18.2,1788516046187,4.507042407989502,5.492957592010498,-0.0026933755725622,-0.0029113749042153,0.7488001585006714,0.6627840399742126,0.1711771424706235,0.00135381656016,-0.0001428023269929,-0.0112302871420979,0.018263254314661,0.1320240944623947,-0.0041875606402754,4.987698048353195e-05,0.1043775752186775,0.9945290088653564,-0.0121228867824802,-0.0218657864550961,0.1509205745516397,-0.0636112093925476,-0.0948190689086914,1.0222110748291016,123,123,13441,16272
18.3,1788516046287,4.732394218444824,5.577464580535889,-0.0030956587288528,-0.0026721330359578,0.754196286201477,0.6566362977027893,0.171505116781008,0.0022025388594485,8.832463896513042e-06,0.001792425988242,-0.0048208930529654,0.1461008191108703,-0.0041218437254428,6.476882845163345e-05,0.1106940135359764,0.9938459992408752,-0.0029527301724371,-0.0051134560209428,0.1340924487529885,-0.2612541913986206,-0.0379300117492675,-0.451242446899414,84,79,12556,15867
18.4,1788516046387,4.563380241394043,5.521126747131348,-0.0028799986466765,-0.0025590278673917,0.7585887312889099,0.6515583992004395,0.1801383515848487,-0.0001870538054885,-7.1399283377508894e-06,0.0075842789374291,0.0055985278449952,0.1516624689102172,-0.0037157889455556,-6.005819886922836e-05,0.1194004714488983,0.992839217185974,-0.0043473122446875,-0.0026346377690938,0.1659171656814258,0.0630131363868713,0.3442422151565552,-0.0512962341308593,93,112,13224,15923
18.5,1788516046487,4.957746505737305,5.126760482788086,-0.0027221348136663,-0.0026400203350931,0.7625300884246826,0.646941602230072,0.1687349169269262,0.002759784539404,2.1974236175397195e-05,-0.003108772682026,8.3541264757514e-05,0.0764966532588005,-0.0036834143102169,-0.0003275107592344,0.1221060305833816,0.992510199546814,0.0058673289649973,-0.0186457701406639,0.0347918831681033,0.0921821594238281,-0.1314567327499389,0.7389469146728516,98,104,14028,14979
18.6,1788516046587,4.873239517211914,5.183098793029785,-0.0027886778116226,-0.0027620864566415,0.7635242342948914,0.6457673907279968,0.1764655442032197,0.0023050353844829,9.556308774855788e-06,-0.0070794881321489,0.0037712310440838,0.0229958295822143,-0.0039371028542518,0.0002039484679698,0.1234970614314079,0.9923371076583862,0.0077151212434688,0.0397151459197984,0.0602700854284311,-0.1358517408370971,0.1898217797279358,0.3764524459838867,110,121,14032,15102
18.7,1788516046687,5.098591327667236,4.957746505737305,-0.0026018675416707,-0.0024667230900377,0.7656023502349854,0.643304169178009,0.1675925056130332,0.0034955527798742,-5.548753283793368e-05,0.0055365129373967,0.0003699474036693,0.0724298059940338,-0.0035147760063409,-0.0002946062013506,0.1262906342744827,0.9919870495796204,0.0064667258573492,-0.0429748979659231,0.0472139507154519,0.0900136828422546,-0.1501341462135315,0.534088134765625,85,98,14407,14556
18.8,1788516046787,5.042253494262695,5.098591327667236,-0.0025541891809552,-0.0028377769049257,0.7654604315757751,0.6434716582298279,0.1673528622424003,-0.0025708234145574,2.4364292997066336e-05,-0.0114493444561958,-0.0111166480928659,-0.0156545471400022,-0.0040697269141674,0.000167928636074,0.1255360394716262,0.9920806884765624,-0.0133557319460521,0.0367206658315064,-0.0264864273647474,0.0555357933044433,-0.0453248620033264,-0.3133964538574219,106,86,14452,14353
18.9,1788516046887,5.126760482788086,5.042253494262695,-0.0033689932897686,-0.0023285280913114,0.7654483318328857,0.6434842348098755,0.1688461194121002,-7.25066813044464e-05,-0.000125952855222,-0.0059818709269165,0.0227461494505405,0.0085205193608999,-0.0041408706456422,0.0008843224495649,0.1256030946969986,0.992071568965912,-0.0101331792651122,0.010081901543733,-0.0225316529157978,0.1602829098701477,-0.0215607285499572,-0.5032625198364258,116,75,14242,14398
19.0,1788516046987,5.633802890777588,4.563380241394043,-0.0039881523698568,-0.00226064119488,0.7648285031318665,0.6442176103591919,0.1706896168554623,-0.0007736596428261,8.023634261615694e-07,-0.0117747113108634,0.0079394280910491,-0.0253763366490602,-0.0042284969240427,0.0016002533957362,0.1231016814708709,0.99238383769989,0.0158455971744577,0.0450291285317907,-0.1059832580482614,0.0102250576019287,-0.3687607049942016,-0.7891740798950195,137,60,16040,12554
19.1,1788516047087,5.633802890777588,4.676056385040283,-0.0035061240196228,-0.0021952684037387,0.7594311833381653,0.6505745053291321,0.1591556705559261,-0.0011380184340144,0.000104970231411,0.005538361147046,-0.0753979161381721,-0.1759448796510696,-0.0039068264886736,1.5076249837875366e-05,0.1143158227205276,0.9934367537498474,0.0049480742035328,-0.0500537584351247,-0.1585028670859198,0.6582662463188171,0.446762204170227,-4.798999309539795,42,74,15735,12800
19.2,1788516047187,5.633802890777588,4.507042407989502,-0.0033237591851502,-0.0025781679432839,0.7546392679214478,0.6561263203620911,0.1794723876275063,0.0031282154593414,1.61983951864944e-05,-0.010064004920423,-0.0147910211235284,-0.1553784757852554,-0.0043089753016829,0.0009070765227079,0.1064683273434639,0.9943063259124756,0.0032860818169285,0.0436469662771318,-0.1691473436281196,-0.5781927704811096,-0.0259973406791687,1.4476861953735352,97,123,14108,14989
19.3,1788516047287,4.929577350616455,5.042253494262695,-0.0036872995551675,-0.002389503410086,0.7514522075653076,0.6597728133201599,0.1768634032084891,0.004762570776672,-8.11896128666311e-06,-0.000825265829917,0.0013083649100735,-0.0445564500987529,-0.0041951052844524,0.0006261961534619,0.1045581921935081,0.9945098161697388,0.002034785160269,-0.0383576309255735,0.029364728257508,-0.1216552257537841,0.0682969093322753,0.8537693023681641,91,128,14539,15211
19.4,1788516047387,5.126760482788086,5.070422649383545,-0.0036695101298391,-0.0023369784466922,0.7521040439605713,0.6590301394462585,0.1725721435037181,7.65369563884218e-05,5.846800851548634e-05,0.0022254639770835,-0.0078464709222316,0.0209189392626285,-0.0043711708858609,0.0007109064608812,0.1055595278739929,0.9944031834602356,-0.0063401052913785,-0.0034006593965338,-0.0003783277203579,-0.1401644349098205,-0.1304408907890319,1.0468463897705078,90,83,14185,14540
19.5,1788516047487,5.042253494262695,5.183098793029785,-0.003637112211436,-0.0026756338775157,0.7521907687187195,0.6589298844337463,0.175703455806172,-0.0008395854925381,-0.0001307637469711,-0.0057182032614946,-0.0081647811457514,0.0056778253056108,-0.0043995305895805,0.0007943864911794,0.1058722287416458,0.9943696856498718,0.0055681331267537,0.0062695270708922,0.012346905452994,-0.0552756786346435,-0.0865811109542846,0.0990486145019531,78,107,14548,14291
19.6,1788516047587,5.042253494262695,5.211267471313477,-0.0038397922180593,-0.0023525594733655,0.7523244023323059,0.6587774157524109,0.1779640860932644,0.001684765651051,-5.8353907642970414e-05,0.0041792383417487,0.0241566095501184,0.0017957880627363,-0.0043436326086521,0.0003522727638483,0.1060044914484024,0.9943561553955078,-0.0038607070272595,-0.0475420390350903,0.0015581491224763,0.3279781341552734,0.0751470923423767,-0.8181924819946289,109,88,14624,14135
19.7,1788516047687,5.014084339141846,5.014084339141846,-0.0037420862354338,-0.0028200461529195,0.7521675229072571,0.6589552760124207,0.179029413981547,-0.000282091467618,4.713406782422301e-05,-0.0186241101473569,-0.021707434207201,-0.0131591185927391,-0.0051119914278388,0.0001473212614655,0.1053756102919578,0.9944193959236144,-0.0435029501178146,-0.0228561332265187,-0.031352312877032,-0.038731038570404,0.1952250003814697,-0.0792055130004882,58,102,14305,14603
19.8,1788516047787,5.126760482788086,4.760563373565674,-0.002281799679622,-0.0028959950432181,0.7525020241737366,0.6585796475410461,0.1825393668870652,-0.001451699982444,-6.090245920826084e-05,0.0497500002384185,-0.0367310009896755,0.0389856584370136,-0.0042164353653788,5.489960312843323e-05,0.1058270037174224,0.9943755865097046,-0.0377894531637522,0.0711947259769926,-0.0282580358810251,-0.4638402462005615,-0.0495796799659729,-0.2150793075561523,146,100,15177,14124
19.9,1788516047887,5.183098793029785,4.901408672332764,-0.0040713320486247,-0.0027465866878628,0.7510486245155334,0.6602286696434021,0.1692774093308922,6.88782009122167e-05,-3.969155640232772e-05,-0.0246263816952705,0.0411507673561573,-0.0787373036146164,-0.0049361307173967,0.0004016291350126,0.103126548230648,0.994655966758728,-0.0074527206914428,-0.0211690903386961,-0.0553215335506403,0.553818941116333,-0.0252023339271545,-0.2733488082885742,111,98,15071,14171
20.0,1788516047987,5.239436626434326,5.014084339141846,-0.0042227078229188,-0.0031372418161481,0.7495061755180359,0.6619763970375061,0.1748871725668871,-0.0006487801916323,5.617245126286897e-05,-0.0043910024687647,-0.0188691262155771,-0.0388536415994167,-0.0049050953239202,0.0008964426815509,0.1009413078427314,0.9948799014091492,0.0190681382104143,-0.0096162065622281,-0.0082370436900734,0.1366827487945556,-0.0255543589591979,0.0277652740478515,85,102,14687,13692
20.1,1788516048087,5.295774459838867,4.929577350616455,-0.004360435064882,-0.0025704407598823,0.7484394311904907,0.663183867931366,0.1720370844663288,-0.0026352224567186,5.853796570104172e-05,0.0066763367503881,-0.0028623093385249,-0.0381472073495388,-0.0047234715893864,0.0009775720536708,0.0990895181894302,0.9950668215751648,0.0093590271007212,-0.0096952375288962,-0.0278522664272104,0.203265368938446,0.0635797381401062,-0.161661148071289,94,119,14622,13943
20.2,1788516048187,5.211267471313477,4.901408672332764,-0.0038793408311903,-0.0024697380140423,0.7467405200004578,0.6650996208190918,0.1773224099276438,-0.0026424057950114,4.748521216673853e-06,0.0059722336009144,-0.0056139510124921,-0.0518483780324459,-0.004383367486298,0.0008659455925226,0.0963844954967498,0.9953342080116272,0.0061837525127979,0.0056180671972725,-0.0560252003394456,-0.0136219263076782,-0.0660827159881591,0.0242071151733398,107,103,14812,13830
20.3,1788516048287,5.267605781555176,4.901408672332764,-0.0042793415486812,-0.0019906994421035,0.7445826530456543,0.6675135493278503,0.1659056327113431,0.0018530205445947,-6.396183857041053e-05,-0.0015229281270876,0.0186889804899692,-0.0657557547092437,-0.0044946167618036,0.0014401637017726,0.0942844524979591,0.9955341815948486,-0.0002632214945304,0.0149820144386869,-0.063524560575734,-0.119649589061737,-0.1773732304573059,0.6901178359985352,106,117,14670,14063
20.4,1788516048387,5.352112770080566,4.873239517211914,-0.005093683488667,-0.0016243865247815,0.7426389455795288,0.6696706414222717,0.1778523268665922,0.001880299268501,-2.9843730952832955e-05,-0.0026723858900368,0.0154909202829003,-0.0774401053786277,-0.0048815188929438,0.0023186318576335,0.0904658436775207,0.995884895324707,-0.0059467211103501,0.0112797582592215,-0.0864838831105767,-0.0773761272430419,0.0576524138450622,-0.0566835403442382,83,125,14383,14259
20.5,1788516048487,4.732394218444824,5.239436626434326,-0.0054753199219703,-0.0012658822815865,0.7424300909042358,0.6698998808860779,0.1670546560453202,0.0030822588106136,-2.9792309656109e-07,-0.0003062763134948,0.0022914397995918,0.046866949647665,-0.0050102192908525,0.0032272571697831,0.0926579609513282,0.9956801533699036,-0.0060667738532196,0.0292020122443854,0.0941717921803457,-0.1636527776718139,0.0977261662483215,0.4155282974243164,122,107,14474,15359
20.6,1788516048587,4.816901206970215,5.380281925201416,-0.0059069180861115,-0.0009651842992752,0.745004415512085,0.6670326590538025,0.1704600836052436,-0.0002830183742969,2.55064643467935e-06,-2.76068731182022e-05,0.0039244056679308,0.0703032687306404,-0.0049948403611779,0.0032997569069266,0.095265232026577,0.9954339265823364,-0.0018535597152925,-0.0126242860281795,0.048147564875044,0.0949053764343261,-0.1687829494476318,-0.4268369674682617,122,104,14356,14755
20.7,1788516048687,4.901408672332764,5.154929637908936,-0.0066083390265703,-9.14053525775671e-05,0.7468822002410889,0.6649236083030701,0.1778727291776997,0.0013228102993164,-4.464191293765129e-05,0.0015419169794768,0.0364208295941352,0.055327158421278,-0.0051943901926279,0.0056408597156405,0.0992248579859733,0.9950355291366576,-0.0083608001306328,0.0849717476362838,0.0738540897288551,0.7014983892440796,-0.0587249994277954,-1.201192855834961,106,105,14072,15433
20.8,1788516048787,4.929577350616455,5.183098793029785,-0.0079109743237495,0.0009122448973357,0.749321699142456,0.6621582508087158,0.1757759469433928,-0.0020399862885483,-0.0001332018320835,-0.00020097597735,-0.0196557193994522,0.0784226357936859,-0.0052030934020876,0.0057954378426074,0.1025101020932197,0.9947015643119812,0.0012965830367688,0.0576852874125867,0.0470503620946652,-0.1211347579956054,0.0971568822860717,-1.6675148010253906,98,118,14067,15013
20.9,1788516048887,4.8450703620910645,5.295774459838867,-0.0074494872242212,0.0003771972842514,0.7510787844657898,0.6601704359054565,0.1698173974876552,0.0002256236360556,0.0001009036586898,-0.0027290605939924,-0.0136372903361916,0.0649527758359909,-0.0051695443689823,0.0042305309325456,0.1052980050444603,0.9944183230400084,-0.0052635073205483,-0.0761788590620116,0.0567157026599744,0.1598865389823913,-0.0828487873077392,0.2438440322875976,89,98,14435,14778
21.0,1788516048987,4.873239517211914,5.295774459838867,-0.0067105321213603,-0.0001224144361913,0.7527932524681091,0.6582228541374207,0.1721979369471029,0.0011673873808502,-2.5411535644167053e-05,0.007177687715739,0.0029932076577097,0.0570125356316566,-0.0049974713474512,0.0041915802285075,0.1076836287975311,0.9941638708114624,-0.0023752689385804,0.0053830787406226,0.0292473523550726,-0.0590749979019165,-0.1894949078559875,-6.008148193359375e-05,112,104,14505,14518
21.1,1788516049087,4.929577350616455,5.211267471313477,-0.0068192398175597,-0.0003387329634279,0.7540259957313538,0.6568090915679932,0.1745032276619479,7.260694137757653e-05,-1.6185813298960196e-05,-0.0036767509300261,0.0130629558116197,0.0277977753430604,-0.0053621549159288,0.004509150981903,0.1092673763632774,0.9939877390861512,-0.0051090891430812,0.0166197069992184,0.0453060285147656,0.1698928475379943,-0.1196069121360778,-1.0350570678710938,88,103,14135,14586
21.2,1788516049187,4.816901206970215,5.295774459838867,-0.0069228736683726,-0.0006405566819012,0.7553276419639587,0.6553105115890503,0.1779773630509645,0.000926548271196,4.618599412743571e-05,-0.010068928822875,-0.0112349661067128,0.0432816855609416,-0.0055055515840649,0.0038636270910501,0.1117486804723739,0.9937137961387634,0.0088153159619234,-0.0337554819555013,0.0547663971499231,0.4238350987434387,-0.1427743434906005,0.0416812896728515,115,86,14420,14673
21.3,1788516049287,5.126760482788086,5.042253494262695,-0.0068140858784317,-0.0006506184581667,0.7572712898254395,0.6530645489692688,0.1622053907916948,0.0046335739191833,1.5237893495789608e-05,0.0037771388888359,0.0083217844367027,0.0529858544468879,-0.0054925726726651,0.0041986480355262,0.1134930774569511,0.9935147762298584,-0.0028714067929576,0.013161270519799,0.0134240367285212,-0.0009202361106872,0.0860558152198791,0.2857065200805664,98,100,14636,14437
21.4,1788516049387,5.098591327667236,5.183098793029785,-0.0063605424948036,-0.0007781411986798,0.7575421929359436,0.6527547240257263,0.1750106555366689,0.0005242605911918,6.677894849206708e-05,0.0057844892144203,-0.0125466231256723,0.012012374587357,-0.0049273800104856,0.0028115464374423,0.1141846105456352,0.9934434294700624,0.0044127977474924,-0.0406553930228652,0.0172425676430659,-0.3858605623245239,-0.2758145928382873,0.7614040374755859,84,103,14527,13932
21.5,1788516049487,5.323943614959717,5.014084339141846,-0.0051751476712524,0.0003062104806303,0.7582444548606873,0.6519497036933899,0.1675390652817889,-0.0052940383256604,4.453800941623608e-05,-0.0152251897379755,-0.0069022201932966,-0.0254932306706905,-0.0038890205323696,0.0037481440231204,0.1142233088612556,0.9934404492378236,-0.0084017559091673,-0.051130429672628,-0.0120401297143932,-0.0433954000473022,-0.3440216183662414,1.6204071044921875,104,105,13833,14619
21.6,1788516049587,5.070422649383545,4.957746505737305,-0.0063638053834438,0.0005117529071867,0.7575759291648865,0.6527158617973328,0.1739775199143321,0.0060842207550992,-0.000202042845435,-0.0139357466250658,0.0368379764258861,-0.0146055053919553,-0.0045230668038129,0.004818482324481,0.11416807025671,0.9934394955635072,-0.0078372310552283,0.0351203058954985,0.0142067814952592,-0.4692680835723877,0.4820753931999206,0.2106094360351562,93,127,13666,15914
21.7,1788516049687,4.929577350616455,5.154929637908936,-0.0066445777192711,-1.1054333299398422e-05,0.758466899394989,0.6516777276992798,0.166693693798461,-0.0012241952480701,-2.2178810986148974e-05,-0.0228972565382719,-0.0052197650074958,0.0532827712595462,-0.0045517617836594,0.0043483478948473,0.1144799813628196,0.9934056401252748,-0.0055618659865548,-0.0307953189668735,0.0206299582115528,0.0549696683883667,-0.2740073800086975,0.5902328491210938,97,111,13944,15337
21.8,1788516049787,4.929577350616455,5.239436626434326,-0.0067119905725121,0.0003324900753796,0.7605103254318237,0.6492912173271179,0.1799326732875977,0.0002176045821497,2.7845984681516005e-05,0.0058335070498287,0.0020849453285336,0.0642345398664474,-0.0047001997008919,0.0046948567032814,0.1187441349029541,0.99290269613266,-0.0022543851882068,-0.0023927186703434,0.0568560396221325,0.0219078063964843,0.3132160902023315,-0.0589857101440429,107,111,14144,14964
21.9,1788516049887,4.901408672332764,5.239436626434326,-0.0065304739400744,0.0004030265845358,0.7620510458946228,0.6474838256835938,0.1660701994250616,0.0008670141373781,-1.547830691514422e-05,-9.709930600365624e-05,0.0008179432479664,0.0477391332387924,-0.0045308368280529,0.0047912737354636,0.1217059716582298,0.9925442934036256,0.0008349173225469,0.0049769917760052,0.0547549121752397,0.0901926755905151,0.2015437483787536,0.2886066436767578,124,76,14227,15021
22.0,1788516049987,4.8450703620910645,5.352112770080566,-0.006474757567048,0.0005468621384352,0.7638341784477234,0.6453798413276672,0.1733899616206295,0.0003116022840629,-3.809591866676675e-05,0.0025655003264546,0.0037978086620569,0.0698963552713394,-0.0042078234255313,0.0046405019238591,0.1245440244674682,0.9921942949295044,0.0125388325717237,-0.0053591576345226,0.0570064239364962,-0.1506270766258239,-0.2573002576828003,0.2275228500366211,112,87,14449,14657
22.1,1788516050087,5.183098793029785,4.985915660858154,-0.0060325097292661,0.000519118271768,0.7656940817832947,0.6431763172149658,0.1725562151568197,0.0005342009129942,2.813588909559451e-05,0.0004384034255053,-0.0091067757457494,0.0528746247291564,-0.0037901951000094,0.004557023756206,0.1258584111928939,0.9920305013656616,0.0146805287042368,0.0133756047861372,-0.0581406723748075,0.0147153139114379,-0.2158339619636535,-0.3663167953491211,120,95,15714,13327
22.2,1788516050187,5.295774459838867,4.788732528686523,-0.0058146882802248,0.0007617948576807,0.7649049162864685,0.6441165208816528,0.1703649513260846,-0.0014070323913799,-7.360581350854162e-05,0.0051965895108878,0.0066461563110351,-0.0426868200302124,-0.0037576118484139,0.0049377251416444,0.1237989515066146,0.9922879934310912,0.0114864968950371,0.0476172898612476,-0.0583570852159768,-0.1301113367080688,-0.0513293743133544,-0.5135040283203125,114,137,15072,14240
22.3,1788516050287,5.408450603485107,4.873239517211914,-0.0063294037245213,0.0010836066212505,0.762860894203186,0.6465308666229248,0.1635340679513642,0.0010951897705386,-4.372206875096773e-05,-0.0079428339377045,0.0279724467545747,-0.0560794882476329,-0.004069710150361,0.0050516640767455,0.1206106767058372,0.9926787614822388,-0.0064879663660644,-0.0025491207160285,-0.0822596401207817,0.1003867983818054,-0.3866422176361084,0.3895816802978515,102,117,14437,13916
22.4,1788516050387,5.211267471313477,4.760563373565674,-0.0071979882195591,0.0019173379987478,0.7610806226730347,0.6486145257949829,0.1748850662100402,0.0010280300887569,-3.005878075312831e-05,0.0047433022409677,0.0331090427935123,-0.0498132556676864,-0.0040076775476336,0.0070317341014742,0.1188508495688438,0.9928791522979736,0.0107381641099251,0.0693510962736553,-0.0558961467030912,0.2218592166900634,-0.1906277537345886,-0.1529741287231445,108,86,15177,14164
22.5,1788516050487,5.211267471313477,5.014084339141846,-0.0058929384686052,0.0005923386197537,0.759120762348175,0.6509228944778442,0.1712603521964814,0.0010899117650098,0.0004235396235001,-0.0043006148189306,-0.1062165200710296,-0.0570294074714183,-0.0038980888202786,0.0038591241464018,0.1150476783514022,0.9933448433876038,-0.0004978337942323,-0.049634356018418,-0.0442259300302267,-0.6711552739143372,-0.2110381126403808,0.4766187667846679,75,89,14999,13528
22.6,1788516050587,5.239436626434326,4.929577350616455,-0.00482521019876,-0.0006056316196918,0.7574456930160522,0.6528801321983337,0.1733496186073743,0.0016395558041947,0.0001349475091837,-0.0042644971981644,-0.0421846881508827,-0.0482363142073154,-0.004118762910366,0.0030182944610714,0.1130591034889221,0.993575155735016,-0.0144860435205999,0.0061454128952675,-0.0454005835392843,-0.2040867209434509,0.1813848614692688,0.4928455352783203,90,84,14895,13892
22.7,1788516050687,5.183098793029785,4.929577350616455,-0.0048032449558377,-0.0010734847746789,0.755836009979248,0.6547424793243408,0.1642503239016451,-0.0011271471638746,-4.662347351134592e-06,-0.0092935739085078,0.0001108760116039,-0.0585052967071533,-0.0042360378429293,0.0022620987147092,0.1106572896242141,0.9938470721244812,-0.0017111275174409,-0.0179217639564318,-0.052380194190836,0.03384929895401,-0.197799265384674,0.2318458557128906,114,108,14942,13826
22.8,1788516050787,5.239436626434326,4.873239517211914,-0.0051006297580897,-0.0008318398613482,0.7548900842666626,0.655830979347229,0.1665852743476442,0.0003233317719882,-1.5844959569345782e-06,-0.0002408378204563,0.0072684930637478,-0.017950328066945,-0.0043929778039455,0.003021421842277,0.1093020960688591,0.9939942955970764,-0.0055752436287603,0.0319329236401588,-0.0239669148300765,-0.249545931816101,0.1250224709510803,0.7043733596801758,98,134,15012,14140
22.9,1788516050887,5.070422649383545,4.760563373565674,-0.0055860206484794,-0.0007543370593339,0.7530920505523682,0.6578910946846008,0.177530622651284,-0.0006816402024733,3.379860835592675e-05,-0.0061520040035247,0.000944911269471,-0.0662929192185401,-0.0046563018113374,0.0029478082433342,0.1057933792471885,0.9943729043006896,-0.0001165091814921,-0.0128055903247478,-0.0495698644437227,-0.1311314702033996,0.0077084302902221,0.2902545928955078,82,106,15314,14395
23.0,1788516050987,5.211267471313477,4.957746505737305,-0.0050449771806597,-0.0010203521233052,0.7511931657791138,0.660062313079834,0.1747166539536569,0.0023272498003815,2.0861783443766447e-05,0.0063261971808969,-0.0077987005934119,-0.0584080256521701,-0.0042855031788349,0.0024733431637287,0.1036520600318908,0.9946013689041138,0.0119064150641119,-0.0092989643579912,-0.0450432144388194,-0.0427229404449462,0.1197813749313354,0.4051647186279297,112,112,15098,14425
23.1,1788516051087,5.126760482788086,4.901408672332764,-0.0038232030346989,-0.0011752471327781,0.7496986985206604,0.6617671847343445,0.1690683309692643,0.0029412701645171,1.822499379760145e-05,0.0270096063613891,0.0001615815126569,-0.0472234413027763,-0.0028365515172481,0.0022669620811939,0.1017590835690498,0.994802474975586,0.0832113622091841,0.0480565015413365,-0.0138147358764559,0.1247473359107971,-0.258042573928833,-0.7936611175537109,113,117,14151,15495
23.2,1788516051187,4.619718074798584,5.605633735656738,-0.0029768829699605,-0.0001384713687002,0.7496986985206604,0.661772608757019,0.1662238389614657,0.0014775460463184,0.0001262237705373,0.0050875507295131,3.295926580904052e-05,0.0135662239044904,-0.0029843486845493,0.0019370233640074,0.1050161868333816,0.9944642186164856,-0.025415316275444,-0.0026766725068187,0.1607421306936077,-0.0720835924148559,0.1617308855056762,0.1394252777099609,68,147,12434,16449
23.3,1788516051287,4.478873252868652,5.492957592010498,-0.0042866123840212,-0.0005357861518859,0.7552163600921631,0.6554612517356873,0.1661973353926493,0.0036686863996859,-4.926113477856951e-05,-0.0178090967237949,0.0148425931110978,0.1815163344144821,-0.0036814175546169,0.0026492709293961,0.1140695661306381,0.9934624433517456,-0.0051002199219771,0.0013267125421655,0.1850529661253981,0.2500712871551513,-0.1958215832710266,-0.0671796798706054,80,107,13310,16325
23.4,1788516051387,4.619718074798584,5.77464771270752,-0.0045259241014719,-0.0005518717225641,0.757575273513794,0.6527318358421326,0.1665455866054334,0.003378665004644,-1.85732819222221e-05,-0.0087915463373065,0.007771048694849,0.1767453998327255,-0.0037611192092299,0.0030167745426297,0.1209291294217109,0.9926494359970092,0.0043730918778387,0.0165740087668102,0.1797558758223876,0.020149290561676,0.0158538222312927,0.4877204895019531,103,112,13084,15237
23.5,1788516051487,4.873239517211914,5.323943614959717,-0.0044884299859404,-0.0002351331058889,0.7649152278900146,0.6441153883934021,0.1719392287827244,-0.0009314454448661,-3.600156411217115e-06,0.0092931734398007,-0.0027545546181499,0.0603153742849826,-0.0032164584845304,0.0026579713448882,0.1256331354379654,0.9920679926872252,0.0144901231021424,-0.0200894261359119,0.0287553312591208,0.0597732067108154,-0.2302891016006469,0.6843996047973633,98,85,14473,14185
23.6,1788516051587,4.929577350616455,5.211267471313477,-0.0040577538311481,-0.0003444360336288,0.7656534314155579,0.6432404518127441,0.1657028677630712,0.0040952983860043,6.8612330275273e-07,-0.0002965351159218,-0.0058289524167776,0.0255706124007701,-0.0030910838395357,0.0020273346453905,0.1272409260272979,0.9918649792671204,0.004231180260892,-0.0285998463809061,0.0501818564107215,0.3337341547012329,0.105215311050415,-0.7427234649658203,102,99,13925,14804
23.7,1788516051687,4.8450703620910645,5.295774459838867,-0.003558748634532,-0.0007532881572842,0.7671884298324585,0.6414114236831665,0.1699616593228855,0.0025211701954433,-3.0253768159836333e-06,-0.0035123047418892,-0.0167051907628774,0.043336059898138,-0.003018925897777,0.0017145574092864,0.1291842460632324,0.9916145205497742,0.0072479674386533,-0.0150686472184182,0.035518842845802,-0.1901943683624267,-0.2657278776168823,0.6005191802978516,99,99,14268,14458
23.8,1788516051787,5.014084339141846,5.183098793029785,-0.0035119645763188,-0.0010669420007616,0.7680452466011047,0.6403850317001343,0.1663185786585647,7.329640475013092e-05,-8.470390038172437e-07,-0.0112848579883575,0.0025022160261869,0.0194274485111236,-0.0031616007909178,0.0016169603914022,0.1302870362997055,0.9914699196815492,0.0043299157351417,0.0177434218846447,0.0288771047209398,0.1703608632087707,0.1061848402023315,-0.8601789474487305,116,104,13585,15078
23.9,1788516051887,5.042253494262695,5.014084339141846,-0.0036326185800135,-0.0006918087601661,0.7692502737045288,0.6389368772506714,0.1707663230003347,-0.0016288914678497,-9.603409219882647e-07,0.0,0.0,0.0,-0.0033373571932315,0.0021411199122667,0.1318692415952682,0.991259217262268,-0.0083793265817129,0.0355026617970876,-0.0133122389327897,0.010346233844757,-0.0300745964050292,-0.0136756896972656,93,106,14653,14516
24.0,1788516051987,5.070422649383545,4.957746505737305,-0.0036326185800135,-0.0006918087601661,0.7692502737045288,0.6389368772506714,0.1710622883204047,-0.0001232434899582,-6.004636891916579e-08,0.0,0.0,0.0,-0.0039917295798659,0.0031167119741439,0.1315562129020691,0.9912958145141602,-0.0164496636698663,0.0422257021695516,0.0083869638522798,0.1428641676902771,0.0757693648338317,-0.5460395812988281,88,134,14309,14753
24.1,1788516052087,4.985915660858154,4.957746505737305,-0.0056577255018055,0.0001111060846596,0.7693884372711182,0.6387561559677124,0.1698604436207842,0.0014711236724691,-6.893165839657455e-05,-0.0108998399227857,0.0510061755776405,0.0192655976861715,-0.0042656352743506,0.0060881124809384,0.1327043324708938,0.9911277890205384,0.0043537975675246,0.0651282337814606,0.0338367634213686,1.1342589855194092,-0.0095732808113098,-5.6319355964660645,87,107,14729,14974
24.2,1788516052187,4.591549396514893,5.295774459838867,-0.0063154106028378,0.00019371509552,0.7701953649520874,0.6377767324447632,0.1699446887567595,0.0008929998987338,0.0003986678782673,-0.0123635660856962,-0.0533011443912982,0.0231091845780611,-0.0048939008265733,0.0056865224614739,0.1348695158958435,0.9908350110054016,-0.0127278834003825,0.1539207228083589,0.1324259621777326,-0.0629262924194336,0.2714160084724426,-1.4402618408203125,75,181,12452,17456
24.3,1788516052287,4.507042407989502,5.633802890777588,-0.0074479058384895,0.0012069155927747,0.775438129901886,0.6313784122467041,0.1703061346349671,0.0029006536307134,-0.0001096839597879,-0.005565894767642,0.0610636286437511,0.1900720596313476,-0.0046259080991148,0.0060113575309515,0.1425004303455352,0.9897657036781312,-0.0044306334375158,0.0387868672155881,0.1876588017714264,-0.072924256324768,-0.4072232246398926,-0.6222953796386719,107,105,13361,15739
24.4,1788516052387,4.507042407989502,5.549295902252197,-0.008656658232212,0.0015444217715412,0.7799858450889587,0.6257352828979492,0.1647499585782911,0.0037110177077898,-7.52563714804397e-05,-0.0163397435098886,0.0303832869976758,0.1374868899583816,-0.0058042807504534,0.0073309391736984,0.1508818119764328,0.9885075688362122,-0.0275003364789091,0.0209212003122968,0.132058620591707,-0.0954251289367675,-0.1450535058975219,0.2178764343261718,101,106,13452,16085
24.5,1788516052487,4.647887229919434,5.521126747131348,-0.0104125272482633,0.002188105834648,0.7848148941993713,0.6196388006210327,0.1644652569544646,0.0034475195501752,-4.700328153247179e-05,-0.0033827014267444,0.0307721067219972,0.16551573574543,-0.0064328825101256,0.0094911828637123,0.1605245620012283,0.9869652986526488,-0.0177812413456828,0.0177217133911219,0.1662877607495293,0.1897448301315307,-0.0804041028022766,-0.157139778137207,109,95,13039,15961
24.6,1788516052587,5.070422649383545,5.267605781555176,-0.0114813921973109,0.003210068680346,0.7891467809677124,0.6140890121459961,0.1723899763557703,0.0005671546121991,-9.752636647130472e-05,0.0063718054443597,0.0273294448852539,0.141587033867836,-0.0062438789755105,0.0099487518891692,0.1638962030410766,0.9864076375961304,-0.000962587571623,-0.0229480288884158,0.1240501729030816,0.3967371582984924,-0.1035131216049194,-1.174616813659668,113,118,13805,14456
24.7,1788516052687,4.873239517211914,5.239436626434326,-0.0109746735543012,0.0037533221766352,0.7911701202392578,0.6114862561225891,0.1687509347609776,-0.000942786152047,-1.919912334661262e-06,0.0193752534687519,0.0031464195344597,0.0600263774394989,-0.0050247488543391,0.009529922157526,0.1678828001022339,0.9857481122016908,0.020908096029667,-0.0353012924889871,0.0750629778662439,0.6523089408874512,0.2952389121055603,-1.103856086730957,100,93,15166,13863
24.8,1788516052787,4.873239517211914,5.183098793029785,-0.0093450071290135,0.0038754234556108,0.792270839214325,0.6100856065750122,0.1645218129328124,-0.003588817793447,2.700942505829676e-05,0.0187159404158592,-0.005894121248275,0.0100319636985659,-0.0045722294598817,0.0094557683914899,0.1678791046142578,0.9857516884803772,-0.0050920918556084,-0.0097603703410964,-0.0114771249257948,0.226789116859436,-0.1876885294914245,0.2428770065307617,87,112,15061,14246
24.9,1788516052887,4.957746505737305,5.014084339141846,-0.0097589436918497,0.0042137997224926,0.7922701239585876,0.6100780367851257,0.1663675705378216,0.0022637917825937,-2.8480843123256494e-08,0.0247434936463832,0.0161809995770454,0.0062265214510262,-0.0041758147999644,0.0099000008776783,0.1682733595371246,0.9856817722320556,0.0016036448003973,0.0207876105858075,-0.0186965908058382,-0.5152809619903564,-0.4110739231109619,-0.079111099243164,92,118,14737,14800
25.0,1788516052987,5.183098793029785,4.929577350616455,-0.0097589436918497,0.0042137997224926,0.7922701239585876,0.6100780367851257,0.1780106532343268,-0.0010083361596543,1.4142456243618267e-06,0.0,1.9037063481164296e-08,0.0,-0.0044164033606648,0.0092584993690252,0.1670767366886139,0.9858905076980592,0.0050667298774349,-0.0324211140087493,-0.0301167400570556,0.2445343732833862,0.1498764753341674,-1.1153650283813477,61,122,13861,15233
25.1,1788516053087,5.070422649383545,5.211267471313477,-0.009283123537898,0.0035692227538675,0.7906408905982971,0.6121993660926819,0.1623183532292998,-0.0026967951460979,7.988349458144075e-05,0.0065176975913345,-0.0235921125859022,-0.0541754774749279,-0.0043251179158687,0.0087936790660023,0.1650270074605941,0.9862403869628906,-0.0012883915394135,-0.011649970081523,-0.0241282276554998,0.2833039164543152,0.4011508226394653,-1.0388460159301758,87,135,14037,14557
25.2,1788516053187,5.633802890777588,4.422535419464111,-0.0090252524241805,0.0034612230956554,0.7902789115905762,0.6126710176467896,0.1702422711558313,-0.0014719262861806,-5.949182947160409e-07,0.0,0.0,0.0,-0.0044204955920577,0.0077543938532471,0.163953423500061,0.9864277839660645,0.0029741939051416,-0.0360466180191458,-0.0600880424037735,0.7546626329421997,-0.3091918230056762,-0.8298730850219727,95,101,15726,13417
25.3,1788516053287,5.408450603485107,4.732394218444824,-0.0099483355879783,0.0033175714779645,0.785007119178772,0.6193980574607849,0.1698131819915482,-0.0010137058886271,-2.3362734753602047e-05,0.0031298652756959,0.0261161942034959,-0.1856725960969925,-0.0052130576223134,0.0097494479268789,0.15293949842453,0.98817378282547,-0.0029697899828553,0.0057999177308478,-0.175696345338231,-0.153652548789978,0.0217953920364379,1.2929649353027344,23,181,13796,15122
25.4,1788516053387,5.154929637908936,4.901408672332764,-0.0107091423124074,0.0037642940878868,0.7818337678909302,0.623383641242981,0.1675777039241963,-0.000644534805213,-5.939368931093065e-05,-0.0007041467470116,0.0089414156973361,-0.0465987026691436,-0.0054033221676945,0.0100376531481742,0.1509867310523986,0.9884700179100036,-0.0035590139175857,0.0026463603837382,-0.0273122918831823,0.025445818901062,0.0238009691238403,0.729888916015625,50,152,14025,15164
25.5,1788516053487,5.183098793029785,4.929577350616455,-0.0103377951309084,0.0030713053420186,0.7808223366737366,0.6246601939201355,0.1708642867895989,0.0001044060500711,5.0018492259715895e-08,-0.0014069230528548,-0.0116943577304482,-0.0121532445773482,-0.005506994202733,0.0088698072358965,0.1494223624467849,0.9887183904647828,-0.0008002516210999,-0.0057911807840072,-0.0168454085802612,0.0541040897369384,-0.3289477229118347,0.1318836212158203,101,80,14607,14279
25.6,1788516053587,5.380281925201416,4.788732528686523,-0.0102488808333873,0.0028801437001675,0.7795786261558533,0.6262138485908508,0.1666852877230988,-0.0017247776118563,-1.513931778105474e-05,-0.0026807512622326,0.0116318678483366,-0.0571154505014419,-0.0056104492396116,0.0091220056638121,0.1477391570806503,0.9889683723449708,-0.0086935895158342,0.0118877533755229,-0.0718009988006492,-0.007252812385559,-0.1152186393737793,0.942646026611328,99,108,14110,14715
25.7,1788516053687,4.985915660858154,4.929577350616455,-0.0114912129938602,0.0034474246203899,0.7772997617721558,0.6290159821510315,0.1736276261349129,-0.0009226396956381,-6.0691497224249e-05,-0.0027134623378515,0.025196973234415,-0.0635534450411796,-0.0060108285397291,0.0106004700064659,0.1438155472278595,0.989529550075531,0.0116321102645315,0.0283026676734287,-0.0220806426738889,0.3357865214347839,0.002844214439392,-1.7580089569091797,121,121,15385,14347
25.8,1788516053787,5.295774459838867,4.873239517211914,-0.0131058627739548,0.0048881992697715,0.776008665561676,0.6305670142173767,0.18753956898242,-0.0016946647861736,-0.0001840943003168,0.0050303041934967,0.0650739967823028,-0.0548140667378902,-0.0064532849937677,0.0126748159527778,0.1416653394699096,0.989812433719635,-0.0034543352749212,0.0454659799164115,-0.0669474644005015,-1.025363802909851,0.1794166564941406,1.0413856506347656,83,128,14739,14336
25.9,1788516053887,5.239436626434326,5.098591327667236,-0.0122948586940765,0.0041352286934852,0.7741692662239075,0.6328456401824951,0.1756995737848424,-0.0078175947968822,-7.473523904306549e-05,0.0024123340845108,0.0126969646662473,-0.0525075793266296,-0.0059878071770071,0.0108535448089241,0.139007568359375,0.9902137517929076,0.0139932870585505,-0.0828777584996923,-0.054792304064903,-0.0562289357185363,0.058051586151123,3.0542001724243164,89,94,14951,13650
26.0,1788516053987,5.239436626434326,4.788732528686523,-0.0113737089559435,0.003381362883374,0.7732945680618286,0.6339359283447266,0.1792296002773044,-0.0043644900284964,0.0003095989400174,-0.0075128003954887,-0.0638781264424324,-0.0292361322790384,-0.0060370238497853,0.0104249529540538,0.1377308964729309,0.9903964996337892,0.0079372858478953,0.0336905262048662,-0.0241701375086755,-0.7074464559555054,-0.2736050486564636,2.622340202331543,118,90,15222,13366
26.1,1788516054087,5.154929637908936,4.816901206970215,-0.011437339708209,0.0028330753557384,0.7709214091300964,0.6368213891983032,0.1797596855590809,-0.0014424256425315,-3.951884724739795e-05,-0.0151360547170043,-0.0089445961639285,-0.0753078982234001,-0.0063451640307903,0.0096617648378014,0.1339255720376968,0.9909240007400512,0.0053867907697029,-0.0165968128161489,-0.0181957931378586,-0.1240878105163574,-0.1210479736328125,0.3364810943603515,105,98,15041,14372
26.2,1788516054187,5.183098793029785,4.788732528686523,-0.0111780110746622,0.0028271481860429,0.770487904548645,0.63735032081604,0.1783861800945039,-0.0017513569192914,5.660694618954357e-07,0.0,0.0,0.0,-0.0061886273324489,0.0089789563789963,0.1325805187225341,0.9911122918128968,-0.0001697994928616,-0.0141051159680461,-0.0421279287661533,0.2208216786384582,-0.0392019748687744,-0.8664970397949219,147,48,17271,11925
26.3,1788516054287,5.577464580535889,4.366197109222412,-0.0105424709618091,0.0019012121483683,0.7658884525299072,0.6428841948509216,0.1743628118017653,-0.0057380866013682,0.0001225856870552,-0.0098195346072316,-0.0148478290066123,-0.1914758682250976,-0.0065176235511898,0.0086956219747662,0.1262954026460647,0.9919331073760986,-0.0130559773637098,0.0097651587842381,-0.2600755416652062,-0.7355436086654663,-0.1735875606536865,-0.2480144500732422,130,107,17201,12296
26.4,1788516054387,5.802816867828369,4.253520965576172,-0.0096414806321263,0.00131465960294,0.7589812874794006,0.6510396599769592,0.1816115103272309,-0.001918725661751,9.42688241266104e-06,-0.0013063250808045,-0.0130623625591397,-0.2410663366317749,-0.0061423107981681,0.0074135744944214,0.11427703499794,0.9934022426605223,0.0067351713804402,-0.022956910838202,-0.2585935373434751,-0.0497514605522155,-0.5458705425262451,0.2002878189086914,135,69,17368,11674
26.5,1788516054487,5.633802890777588,4.169013977050781,-0.0094845984131097,-0.0005091275088489,0.749964714050293,0.6614096164703369,0.1690726859280117,-0.0001059097544746,0.0002403907789496,-0.0259123053401708,-0.0344121120870113,-0.2635548114776611,-0.0070750387385487,0.0062187314033508,0.1010766848921775,0.994834005832672,0.0300966860202652,0.0173520866945917,-0.2276098609605746,-0.2813042998313904,0.5827978849411011,0.2901487350463867,136,64,17649,11943
26.6,1788516054587,5.6619720458984375,4.535211086273193,-0.0058657499030232,-0.0010823095217347,0.7427746653556824,0.6695148944854736,0.1857114817810063,-0.0058030833274485,0.0003438554682652,0.0281119681894779,-0.0387891009449958,-0.2015196233987808,-0.0052994657307863,0.0028900373727083,0.088238351047039,0.9960811138153076,-0.0290252144081546,-0.009988941594838,-0.326216239308164,-0.077547013759613,-0.4066511988639831,0.1857013702392578,67,79,15314,12429
26.7,1788516054687,5.267605781555176,5.098591327667236,-0.0062057231552898,-0.0016925439704209,0.7382392287254333,0.6745083332061768,0.1831687701304504,-0.005019328028458,-3.356501094828703e-05,-0.0072248592041432,0.0093624871224164,-0.0346872210502624,-0.006489235907793,0.0029150145128369,0.084446407854557,0.9964026808738708,-0.0224111157701481,0.001263818072813,-0.0232805923505374,0.1336131691932678,-0.3700117468833923,-0.3914041519165039,112,112,14828,13729
26.8,1788516054787,5.295774459838867,4.873239517211914,-0.006854185834527,-0.0027969821821898,0.7370392680168152,0.6758093237876892,0.1766067950113372,-0.0043689605005241,5.188722909028795e-05,-0.0279509425163269,-0.0155263133347034,-0.0634396448731422,-0.0071096420288085,0.0025456184521317,0.0824012532830238,0.996570646762848,-0.0108246421231752,-0.0002372010060704,-0.0431963815715025,-0.0636351704597473,-0.116865336894989,-0.2995023727416992,113,112,14744,14392
26.9,1788516054887,5.154929637908936,4.985915660858154,-0.006500020623207,-0.0027052764780819,0.7360436916351318,0.676897406578064,0.1781927132693594,-0.0046128159495346,1.949094695197164e-07,0.0150281060487031,-0.0050607384182512,-0.0206390898674726,-0.0062676556408405,0.0027138767763972,0.0814767107367515,0.996651828289032,0.031837644379484,0.0208579586833209,-0.0127857498620177,0.0903639793395996,0.1729115843772888,-1.418534278869629,128,101,15312,13757
27.0,1788516054987,5.295774459838867,4.957746505737305,-0.0062673119828104,-0.0020785687956959,0.7349287271499634,0.6781121492385864,0.1818150929353226,-0.0062555910802595,-3.935359599584099e-05,0.0189723093062639,0.0174041409045457,-0.0502070449292659,-0.00610944442451,0.0022945841774344,0.0793452188372612,0.996825873851776,-0.0036196503222845,-0.0184064967852261,-0.0521686670745566,0.0818520188331604,0.1208649277687072,0.59283447265625,112,123,14821,13944
27.1,1788516055087,5.239436626434326,4.901408672332764,-0.0058394442312419,-0.0023715745192021,0.7331908345222473,0.6799938082695007,0.1740194857777065,-0.0017923465719531,0.0001353164234774,0.0044566956348717,-0.0173901300877332,-0.0486583597958087,-0.0058912802487611,0.001947202719748,0.076386272907257,0.9970589876174928,-0.0106757114833767,-0.0340660620272192,-0.0529404668006427,0.0407354831695556,0.2112026810646057,0.8965463638305664,116,136,15005,14016
27.2,1788516055187,5.408450603485107,4.873239517211914,-0.0055603943765163,-0.0027000303380191,0.7310610413551331,0.6822841763496399,0.1742983759438838,-0.0032548667177458,-2.307509130584775e-05,0.0009951569372788,-0.0056034550070762,-0.074678711593151,-0.0060828421264886,0.0018614726141095,0.0730153024196624,0.9973105192184448,-0.0180281754067239,-0.0197540706509873,-0.0538603167110773,-0.2916646003723144,0.27796071767807,0.9277315139770508,78,100,14516,14163
