time_s,timestamp_ms,wheel_vels__velocity_left,wheel_vels__velocity_right,odom__orient_x,odom__orient_y,odom__orient_z,odom__orient_w,odom__lin_x,odom__lin_y,odom__lin_z,odom__ang_x,odom__ang_y,odom__ang_z,imu__orient_x,imu__orient_y,imu__orient_z,imu__orient_w,imu__angvel_x,imu__angvel_y,imu__angvel_z,imu__acc_x,imu__acc_y,imu__acc_z,wheel_status__current_ma_left,wheel_status__current_ma_right,wheel_status__pwm_left,wheel_status__pwm_right
0.0,1788263946318,0.0,0.0,-0.0040491106919944,-0.0049060559831559,0.9763696789741516,0.2160133123397827,0.0,0.0,0.0,0.0,0.0,0.0,-0.0038242656737565,-0.0050832740962505,0.9851001501083374,0.1718636453151703,0.0001384336104789,-7.081530235662287e-05,-1.470727442515699e-10,0.0031427145004272,-0.0431915521621704,-0.0002813339233398,7,0,0,0
0.1,1788263946418,0.0,0.0,-0.0040491106919944,-0.0049060559831559,0.9763696789741516,0.2160133123397827,0.0,0.0,0.0,0.0,0.0,0.0,-0.0038242656737565,-0.0050832740962505,0.9851001501083374,0.1718636453151703,0.0001384336104789,-7.081530235662287e-05,-1.470727442515699e-10,0.0031427145004272,-0.0431915521621704,-0.0002813339233398,7,0,0,0
0.2,1788263946518,0.0,0.0,-0.0040491106919944,-0.0049060559831559,0.9763696789741516,0.2160133123397827,0.0,0.0,0.0,0.0,0.0,0.0,-0.0038242656737565,-0.0050832740962505,0.9851001501083374,0.1718636453151703,0.0001384336104789,-7.081530235662287e-05,-1.470727442515699e-10,0.0031427145004272,-0.0431915521621704,-0.0002813339233398,7,0,0,0
0.3,1788263946618,0.0,0.0,-0.0040491106919944,-0.0049060559831559,0.9763696789741516,0.2160133123397827,0.0,0.0,0.0,0.0,0.0,0.0,-0.0038242656737565,-0.0050832740962505,0.9851001501083374,0.1718636453151703,0.0001384336104789,-7.081530235662287e-05,-1.470727442515699e-10,0.0031427145004272,-0.0431915521621704,-0.0002813339233398,7,0,0,0
0.4,1788263946718,0.0,0.0,-0.0040491106919944,-0.0049060559831559,0.9763696789741516,0.2160133123397827,0.0,0.0,0.0,0.0,0.0,0.0,-0.0038242656737565,-0.0050832740962505,0.9851001501083374,0.1718636453151703,0.0001384336104789,-7.081530235662287e-05,-1.470727442515699e-10,0.0031427145004272,-0.0431915521621704,-0.0002813339233398,7,0,0,0
0.5,1788263946818,0.0,0.0,-0.0040491106919944,-0.0049060559831559,0.9763696789741516,0.2160133123397827,0.0,0.0,0.0,0.0,0.0,0.0,-0.0038242656737565,-0.0050832740962505,0.9851001501083374,0.1718636453151703,0.0001384336104789,-7.081530235662287e-05,-1.470727442515699e-10,0.0031427145004272,-0.0431915521621704,-0.0002813339233398,7,0,0,0
0.6,1788263946918,0.0,0.0,-0.0040491106919944,-0.0049060559831559,0.9763696789741516,0.2160133123397827,0.0,0.0,0.0,0.0,0.0,0.0,-0.0038242656737565,-0.0050832740962505,0.9851001501083374,0.1718636453151703,0.0001384336104789,-7.081530235662287e-05,-1.470727442515699e-10,0.0031427145004272,-0.0431915521621704,-0.0002813339233398,7,0,0,0
0.7,1788263947018,0.0,0.0,-0.0040491106919944,-0.0049060559831559,0.9763696789741516,0.2160133123397827,0.0,0.0,0.0,0.0,0.0,0.0,-0.0038242656737565,-0.0050832740962505,0.9851001501083374,0.1718636453151703,0.0001384336104789,-7.081530235662287e-05,-1.470727442515699e-10,0.0031427145004272,-0.0431915521621704,-0.0002813339233398,7,0,0,0
0.8,1788263947118,0.0,0.0,-0.0040491106919944,-0.0049060559831559,0.9763696789741516,0.2160133123397827,0.0,0.0,0.0,0.0,0.0,0.0,-0.0038242656737565,-0.0050832740962505,0.9851001501083374,0.1718636453151703,0.0001384336104789,-7.081530235662287e-05,-1.470727442515699e-10,0.0031427145004272,-0.0431915521621704,-0.0002813339233398,7,0,0,0
0.9,1788263947218,0.0,0.0,-0.0040491106919944,-0.0049060559831559,0.9763696789741516,0.2160133123397827,0.0,0.0,0.0,0.0,0.0,0.0,-0.0038242656737565,-0.0050832740962505,0.9851001501083374,0.1718636453151703,0.0001384336104789,-7.081530235662287e-05,-1.470727442515699e-10,0.0031427145004272,-0.0431915521621704,-0.0002813339233398,7,0,0,0
1.0,1788263947318,0.0,0.0,-0.0040491106919944,-0.0049060559831559,0.9763696789741516,0.2160133123397827,0.0,0.0,0.0,0.0,0.0,0.0,-0.0038242656737565,-0.0050832740962505,0.9851001501083374,0.1718636453151703,0.0001384336104789,-7.081530235662287e-05,-1.470727442515699e-10,0.0031427145004272,-0.0431915521621704,-0.0002813339233398,7,0,0,0
1.1,1788263947418,0.0,0.0,-0.0040491106919944,-0.0049060559831559,0.9763696789741516,0.2160133123397827,0.0,0.0,0.0,0.0,0.0,0.0,-0.0038242656737565,-0.0050832740962505,0.9851001501083374,0.1718636453151703,0.0001384336104789,-7.081530235662287e-05,-1.470727442515699e-10,0.0031427145004272,-0.0431915521621704,-0.0002813339233398,7,0,0,0
1.2,1788263947518,0.0,0.0,-0.0040491106919944,-0.0049060559831559,0.9763696789741516,0.2160133123397827,0.0,0.0,0.0,0.0,0.0,0.0,-0.0038242656737565,-0.0050832740962505,0.9851001501083374,0.1718636453151703,0.0001384336104789,-7.081530235662287e-05,-1.470727442515699e-10,0.0031427145004272,-0.0431915521621704,-0.0002813339233398,7,0,0,0
1.3,1788263947618,0.0,0.0,-0.0040491106919944,-0.0049060559831559,0.9763696789741516,0.2160133123397827,0.0,0.0,0.0,0.0,0.0,0.0,-0.0038242656737565,-0.0050832740962505,0.9851001501083374,0.1718636453151703,0.0001384336104789,-7.081530235662287e-05,-1.470727442515699e-10,0.0031427145004272,-0.0431915521621704,-0.0002813339233398,7,0,0,0
1.4,1788263947718,0.0,0.0,-0.0040491106919944,-0.0049060559831559,0.9763696789741516,0.2160133123397827,0.0,0.0,0.0,0.0,0.0,0.0,-0.0038242656737565,-0.0050832740962505,0.9851001501083374,0.1718636453151703,0.0001384336104789,-7.081530235662287e-05,-1.470727442515699e-10,0.0031427145004272,-0.0431915521621704,-0.0002813339233398,7,0,0,0
1.5,1788263947818,0.0,0.0,-0.0040491106919944,-0.0049060559831559,0.9763696789741516,0.2160133123397827,0.0,0.0,0.0,0.0,0.0,0.0,-0.0038242656737565,-0.0050832740962505,0.9851001501083374,0.1718636453151703,0.0001384336104789,-7.081530235662287e-05,-1.470727442515699e-10,0.0031427145004272,-0.0431915521621704,-0.0002813339233398,7,0,0,0
1.6,1788263947918,0.0,0.0,-0.0040491106919944,-0.0049060559831559,0.9763696789741516,0.2160133123397827,0.0,0.0,0.0,0.0,0.0,0.0,-0.0038242656737565,-0.0050832740962505,0.9851001501083374,0.1718636453151703,0.0001384336104789,-7.081530235662287e-05,-1.470727442515699e-10,0.0031427145004272,-0.0431915521621704,-0.0002813339233398,7,0,0,0
1.7,1788263948018,0.0,0.0,-0.0040491106919944,-0.0049060559831559,0.9763696789741516,0.2160133123397827,0.0,0.0,0.0,0.0,0.0,0.0,-0.0038242656737565,-0.0050832740962505,0.9851001501083374,0.1718636453151703,0.0001384336104789,-7.081530235662287e-05,-1.470727442515699e-10,0.0031427145004272,-0.0431915521621704,-0.0002813339233398,7,0,0,0
1.8,1788263948118,0.0,0.0,-0.0040491106919944,-0.0049060559831559,0.9763696789741516,0.2160133123397827,0.0,0.0,0.0,0.0,0.0,0.0,-0.0038242656737565,-0.0050832740962505,0.9851001501083374,0.1718636453151703,0.0001384336104789,-7.081530235662287e-05,-1.470727442515699e-10,0.0031427145004272,-0.0431915521621704,-0.0002813339233398,7,0,0,0
1.9,1788263948218,0.0,0.0,-0.0040491106919944,-0.0049060559831559,0.9763696789741516,0.2160133123397827,0.0,0.0,0.0,0.0,0.0,0.0,-0.0038242656737565,-0.0050832740962505,0.9851001501083374,0.1718636453151703,0.0001384336104789,-7.081530235662287e-05,-1.470727442515699e-10,0.0031427145004272,-0.0431915521621704,-0.0002813339233398,7,0,0,0
2.0,1788263948318,0.0,0.0,-0.0040491106919944,-0.0049060559831559,0.9763696789741516,0.2160133123397827,0.0,0.0,0.0,0.0,0.0,0.0,-0.0038242656737565,-0.0050832740962505,0.9851001501083374,0.1718636453151703,0.0001384336104789,-7.081530235662287e-05,-1.470727442515699e-10,0.0031427145004272,-0.0431915521621704,-0.0002813339233398,7,0,0,0
2.1,1788263948418,0.0,0.0,-0.0040491106919944,-0.0049060559831559,0.9763696789741516,0.2160133123397827,0.0,0.0,0.0,0.0,0.0,0.0,-0.0038242656737565,-0.0050832740962505,0.9851001501083374,0.1718636453151703,0.0001384336104789,-7.081530235662287e-05,-1.470727442515699e-10,0.0031427145004272,-0.0431915521621704,-0.0002813339233398,7,0,0,0
2.2,1788263948518,0.0,0.0,-0.0040491106919944,-0.0049060559831559,0.9763696789741516,0.2160133123397827,0.0,0.0,0.0,0.0,0.0,0.0,-0.0038242656737565,-0.0050832740962505,0.9851001501083374,0.1718636453151703,0.0001384336104789,-7.081530235662287e-05,-1.470727442515699e-10,0.0031427145004272,-0.0431915521621704,-0.0002813339233398,7,0,0,0
2.3,1788263948618,0.0,0.0,-0.0040449029766023,-0.0049020126461982,0.9763696789741516,0.2160133421421051,-0.0001987614393501,0.000191632125913,-1.4870131888814876e-07,4.592720870277845e-05,-1.872529355750885e-05,0.0,-0.0038197934627532,-0.0050771767273545,0.985100269317627,0.1718636602163314,0.0001020967141975,-3.1831925988737195e-06,-4.5165362994969925e-12,0.0108598470687866,-0.0177692174911499,-0.000925064086914,8,0,0,0
2.4,1788263948718,0.0,0.0,-0.0040444182232022,-0.0048990761861205,0.9763697385787964,0.2160133719444275,-0.0006393677527779,0.0002000935976183,-1.6272899700484266e-07,0.0001264769089175,6.856942945887568e-06,-6.34168145552394e-07,-0.0038224207237362,-0.0050743548199534,0.985100269317627,0.1718636602163314,5.9897496257695615e-05,0.0001431282336658,9.963443496375265e-07,-0.0342304706573486,0.0238025188446044,-0.0251350402832031,8,0,0,0
2.5,1788263948818,0.0,0.0,-0.0040501407347619,-0.0048949760384857,0.9763697385787964,0.2160133421421051,-0.0050266351631111,0.0025182024858394,-6.035813472318742e-07,7.10571912350133e-05,0.0001755569683155,2.13038424590195e-06,-0.0038339644670486,-0.0050686849281191,0.985100269317627,0.1718635708093643,4.486178907961916e-05,0.0002707912655709,2.9081750434941588e-06,0.1083824038505554,-0.013710081577301,-0.0159721374511718,0,0,0,0
2.6,1788263948918,0.0,0.0,-0.0040610330179333,-0.0048932614736258,0.9763697385787964,0.2160132527351379,0.0004533825152037,-0.0004371483216929,3.588076637481576e-07,-7.853254646761343e-05,0.0001067287012119,1.333414274995448e-06,-0.0038360282778739,-0.005072851665318,0.985100269317627,0.1718635857105255,-0.000165629720812,-8.320238307800075e-05,-1.983753785527542e-06,0.0084967017173767,0.021962285041809,-0.0091724395751953,4,0,0,0
2.7,1788263949018,0.0,0.0,-0.0040610330179333,-0.0048932614736258,0.9763697385787964,0.2160132527351379,0.0004533825152037,-0.0004371483216929,3.588076637481576e-07,-7.853254646761343e-05,0.0001067287012119,1.333414274995448e-06,-0.0038360282778739,-0.005072851665318,0.985100269317627,0.1718635857105255,-0.000165629720812,-8.320238307800075e-05,-1.983753785527542e-06,0.0084967017173767,0.021962285041809,-0.0091724395751953,4,0,0,0
2.8,1788263949118,0.0,0.0,-0.0040610330179333,-0.0048932614736258,0.9763697385787964,0.2160132527351379,0.0004533825152037,-0.0004371483216929,3.588076637481576e-07,-7.853254646761343e-05,0.0001067287012119,1.333414274995448e-06,-0.0038360282778739,-0.005072851665318,0.985100269317627,0.1718635857105255,-0.000165629720812,-8.320238307800075e-05,-1.983753785527542e-06,0.0084967017173767,0.021962285041809,-0.0091724395751953,4,0,0,0
2.9,1788263949218,0.0,0.0,-0.0040610330179333,-0.0048932614736258,0.9763697385787964,0.2160132527351379,0.0004533825152037,-0.0004371483216929,3.588076637481576e-07,-7.853254646761343e-05,0.0001067287012119,1.333414274995448e-06,-0.0038360282778739,-0.005072851665318,0.985100269317627,0.1718635857105255,-0.000165629720812,-8.320238307800075e-05,-1.983753785527542e-06,0.0084967017173767,0.021962285041809,-0.0091724395751953,4,0,0,0
3.0,1788263949318,0.0,0.0,-0.0040244469419121,-0.0049433480016887,0.9763695001602172,0.2160138338804245,-2.118582513372095e-07,4.553105852006897e-07,3.966197123979025e-09,-0.0002139382995665,-0.0002109407651005,-6.528633548441576e-06,-0.0037973262369632,-0.0051203640177845,0.985100030899048,0.1718641370534896,-0.0001401672902265,-0.0001422001703738,-3.63890577921241e-06,-0.003631591796875,-0.0708778500556945,0.0205049514770507,0,0,0,0
3.1,1788263949418,0.0,0.0,-0.0040205428376793,-0.0049533853307366,0.9763694405555724,0.2160139679908752,-2.504869041842744e-07,5.383279681918086e-07,4.706928698904099e-09,-0.000144601566717,-9.01602761587128e-05,-7.125241154426476e-06,-0.0037899427115917,-0.0051350640133023,0.985100030899048,0.171864315867424,-0.0001963017856877,-0.0001941738864719,-4.969881025230754e-06,0.0263895392417907,-0.0182170867919921,0.0082979202270507,3,0,0,0
3.2,1788263949518,0.0,0.0,-0.004009264986962,-0.0049713179469108,0.9763693809509276,0.216014102101326,0.0,0.0,0.0,-0.0002758854243438,-0.0002803617098834,-3.060717517655576e-06,-0.0037802914157509,-0.0051482180133461,0.9850999116897584,0.1718644350767135,-0.0002617411279654,-0.0002779493130239,-4.761580408244418e-06,-0.0176038742065429,0.045435607433319,0.0010652542114257,3,0,0,0
3.3,1788263949618,0.0,0.0,-0.0040056067518889,-0.0049758073873817,0.9763693809509276,0.2160141170024871,0.0,0.0,0.0,-0.0001700661960057,-0.0002149411011487,-2.8212120923853945e-06,-0.0037669725716114,-0.005159736610949,0.9850999116897584,0.1718645840883255,-0.0001479790394677,-0.0002820938553661,-4.961991057592022e-06,-0.0302245616912841,0.0177361965179443,-0.0048437118530273,0,0,0,0
3.4,1788263949718,0.0,0.0,-0.0039874864742159,-0.0049885027110576,0.9763692021369934,0.2160144299268722,-2.602102299726924e-07,5.592228489426691e-07,4.939690893357352e-09,-7.07798171788454e-05,-0.000347499619238,-8.635446647531353e-06,-0.0037580709904432,-0.0051628611981868,0.9850999116897584,0.171864703297615,1.780149047817849e-05,-0.0001760001693147,-2.886775470245812e-06,-0.0027365684509277,-0.0373206138610839,-0.0105552673339843,5,0,0,0
3.5,1788263949818,0.0,0.0,-0.0039813932962715,-0.004988316912204,0.976369321346283,0.2160143852233886,0.0,0.0,0.0,3.260961238993332e-05,-7.190718315541744e-05,-5.969723133603111e-07,-0.0037506008520722,-0.0051600467413663,0.9850999116897584,0.171864703297615,0.0001209596204635,-6.451593719794002e-05,-1.1704586973561638e-10,-0.002058982849121,-0.0043219327926635,0.0137796401977539,3,0,0,0
3.6,1788263949918,0.0,0.0,-0.0039777122437953,-0.0049801617860794,0.976369321346283,0.216014415025711,0.0,0.0,0.0,0.000152569336933,2.1893858502153307e-05,0.0,-0.0037497449666261,-0.0051531828939914,0.9850999116897584,0.171864703297615,0.0001532997710588,4.623372694641207e-05,1.1236121366735308e-10,-0.0029702186584472,0.0311735272407531,0.0159311294555664,5,0,0,0
3.7,1788263950018,0.0,0.0,-0.0039781294763088,-0.0049773529171943,0.9763693809509276,0.2160144299268722,0.0,0.0,0.0,0.0001273766829399,4.868574978900142e-05,7.154737318160187e-07,-0.0037522353231906,-0.0051449770107865,0.9850999116897584,0.171864703297615,0.0001489383308134,9.25189815862704e-05,9.952015150993952e-07,0.0028972625732421,-0.0187500715255737,-0.0041980743408203,4,0,0,0
3.8,1788263950118,0.0,0.0,-0.00398257561028,-0.0049680192023515,0.9763693809509276,0.216014415025711,0.0,0.0,0.0,0.0,0.0,0.0,-0.0037583271041512,-0.0051396237686276,0.9850999116897584,0.171864703297615,6.332993127050612e-05,0.0001229564161414,9.520043549025746e-07,-0.0112754702568054,-0.0329887866973876,0.0348358154296875,8,0,0,0
3.9,1788263950218,0.0,0.0,-0.0039871181361377,-0.0049645365215837,0.9763693809509276,0.2160144001245498,0.0,0.0,0.0,0.0,0.0,0.0,-0.0037652775645256,-0.0051366752013564,0.9850999116897584,0.171864703297615,4.059407430048512e-05,0.0001692610641628,9.94750828134357e-07,0.0195888876914978,-0.0024132132530212,0.0488443374633789,7,0,0,0
4.0,1788263950318,0.0,0.0,-0.0039996169507503,-0.0049593788571655,0.9763694405555724,0.2160144299268722,0.0,0.0,0.0,4.013741272501648e-05,0.0002898982784245,4.554600309347734e-06,-0.003772422671318,-0.0051343161612749,0.9850999116897584,0.171864703297615,1.8262571684936826e-05,0.0001732614568913,9.939288595109956e-07,0.0075072050094604,0.0429491400718688,-0.0003633499145507,8,0,0,0
4.1,1788263950418,0.0,0.0,-0.0039996169507503,-0.0049593788571655,0.9763694405555724,0.2160144299268722,0.0,0.0,0.0,0.0,1.0828284047192938e-08,0.0,-0.0037816418334841,-0.0051264390349388,0.9850999116897584,0.171864703297615,0.0001549475600859,0.0001978400165755,2.1938790135182303e-06,0.0094364285469055,-0.0102785229682922,0.0199298858642578,0,0,0,0
4.2,1788263950518,0.0,0.0,-0.0040114829316735,-0.0049477405846118,0.9763694405555724,0.2160143852233886,0.0,0.0,0.0,0.0002120665158145,0.0002816409105435,2.9072609777358598e-06,-0.0037881499156355,-0.0051189633086323,0.9850999116897584,0.171864703297615,0.0001502528153063,0.0001526611804106,9.947780339572777e-07,0.0129542350769042,-0.0158197879791259,0.0070247650146484,0,0,0,0
4.3,1788263950618,0.0,0.0,-0.0040159956552088,-0.0049407053738832,0.9763694405555724,0.2160143703222274,0.0,0.0,0.0,0.0,0.0,0.0,-0.0037915920838713,-0.0051108403131365,0.985100030899048,0.1718647181987762,0.0001728958307111,8.270078644301156e-05,9.370149563063618e-07,0.0179323554039001,0.0482934117317199,0.0165910720825195,0,0,0,0
4.4,1788263950718,0.0,0.0,-0.0040172524750232,-0.0049217394553124,0.9763695001602172,0.2160144001245498,0.0,0.0,0.0,0.000470403698273,7.345274207182229e-05,1.28899796436599e-06,-0.0037916796281933,-0.0050945132970809,0.985100030899048,0.1718647181987762,0.0002939772219305,4.246302351542945e-05,9.94928582358277e-07,-0.0089763402938842,0.0240961909294128,-0.0266122817993164,2,0,0,0
4.5,1788263950818,0.0,0.0,-0.0040165171958506,-0.0049086641520261,0.976369559764862,0.2160144448280334,0.0,0.0,0.0,0.0005158774438314,8.405914559261873e-05,1.1894285307789687e-06,-0.0037913098931312,-0.0050797378644347,0.9851001501083374,0.1718647330999374,0.000302865581729,3.442962712632437e-05,9.7000899802593e-07,-0.021522045135498,0.0006617307662963,-0.040863037109375,0,0,0,0
4.6,1788263950918,0.0,0.0,-0.0040165171958506,-0.0049086641520261,0.976369559764862,0.2160144448280334,0.0,0.0,0.0,0.0,0.0,0.0,-0.0037917857989668,-0.005068551748991,0.9851001501083374,0.1718647330999374,0.0002815174772099,7.173523010992333e-05,1.1572803233132673e-06,0.0324410200119018,-0.0370839834213256,-0.0149717330932617,8,0,0,0
4.7,1788263951018,0.0,0.0,-0.0040160724893212,-0.004888117313385,0.9763696789741516,0.2160145044326782,0.0,0.0,0.0,0.0,0.0,0.0,-0.003792680799961,-0.0050568543374538,0.985100269317627,0.1718647480010986,0.0001410714433009,4.445332716850784e-05,9.93117908224094e-07,6.67572021484375e-05,0.0299334526062011,-0.0083160400390625,2,0,0,0
4.8,1788263951118,0.0,0.0,-0.0040174419991672,-0.0048768264241516,0.9763697385787964,0.2160145342350006,0.0,0.0,0.0,0.0001706182665657,8.551162318326533e-05,1.2959374089405171e-06,-0.0037942649796605,-0.0050523867830634,0.985100269317627,0.1718647480010986,4.885190773207044e-05,5.892174207828448e-05,9.39505456949341e-07,-0.0069802403450012,0.0268901586532592,0.0025415420532226,4,0,0,0
4.9,1788263951218,0.0,0.0,-0.0040174419991672,-0.0048768264241516,0.9763697385787964,0.2160145342350006,0.0,0.0,0.0,0.0,0.0,0.0,-0.0037978626787662,-0.0050492063164711,0.985100269317627,0.1718647480010986,7.774185919430312e-05,9.227377409767646e-05,9.94805349492031e-07,-0.0011696815490722,-0.0307286977767944,-0.0320472717285156,4,0,0,0
5.0,1788263951318,0.0,0.0,-0.0040233358740806,-0.0048706461675465,0.9763697981834412,0.2160145044326782,0.0,0.0,0.0,8.600937871960923e-05,0.0001073852399713,1.7988890022024862e-06,-0.0038012024015188,-0.0050459317862987,0.985100269317627,0.1718647480010986,4.056601259670269e-05,8.088409700044487e-05,4.9302963713385716e-11,0.0237711668014526,0.0196433663368225,-0.0026788711547851,1,0,0,0
5.1,1788263951418,0.0,0.0,-0.0040255552157759,-0.0048682261258363,0.9763697385787964,0.216014489531517,0.0,0.0,0.0,0.0,0.0,0.0,-0.0038037495687603,-0.005043807439506,0.985100269317627,0.1718647480010986,-4.238917096240441e-06,4.3495654073886845e-05,9.973896946285315e-07,-0.0088239312171936,0.0108599066734313,0.0184183120727539,0,0,0,0
5.2,1788263951518,0.0,0.0,-0.004029924981296,-0.0048681772314012,0.9763697385787964,0.2160144746303558,0.0,0.0,0.0,-5.449513992061839e-05,0.0001136311839218,6.485104222520022e-07,-0.0038068033754825,-0.0050445701926946,0.985100269317627,0.1718647480010986,-7.026276625275325e-05,7.275996390544492e-05,9.92598102369264e-07,-0.0102236270904541,-0.0348986983299255,-0.0038280487060546,4,0,0,0
5.3,1788263951618,0.0,0.0,-0.004029924981296,-0.0048681772314012,0.9763697385787964,0.2160144746303558,0.0,0.0,0.0,0.0,0.0,0.0,-0.003814241848886,-0.0050532827153801,0.985100269317627,0.1718647480010986,-0.0001907775987458,9.305733734701972e-05,-2.6593577299242217e-10,-0.0117442607879638,0.0056259036064147,-0.0109243392944335,3,0,0,0
5.4,1788263951718,0.0,0.0,-0.004029924981296,-0.0048681772314012,0.9763697385787964,0.2160144746303558,0.0,0.0,0.0,0.0,0.0,0.0,-0.0038205990567803,-0.0050636567175388,0.9851001501083374,0.1718647330999374,-0.0002853809378236,9.60643618911934e-05,-9.94769516890653e-07,0.0063884854316711,0.055047869682312,-0.0199871063232421,6,0,0,0
5.5,1788263951818,0.0,0.0,-0.004029924981296,-0.0048681772314012,0.9763697385787964,0.2160144746303558,0.0,0.0,0.0,0.0,0.0,0.0,-0.0038273576647043,-0.0050749834626913,0.985100030899048,0.1718647181987762,-0.0002657015756145,0.0001209614444824,-5.211378097853306e-10,-0.0056701898574829,0.0230927467346191,-0.0257835388183593,8,0,0,0
5.6,1788263951918,0.0,0.0,-0.004029924981296,-0.0048681772314012,0.9763697385787964,0.2160144746303558,0.0,0.0,0.0,0.0,0.0,0.0,-0.0038406187668442,-0.0050911456346511,0.9850999116897584,0.171864703297615,-0.0003076152977358,0.0001748230451716,-8.073261084673037e-10,-0.0035637617111206,-0.035820722579956,0.000798225402832,8,0,0,0
5.7,1788263952018,0.0,0.0,-0.004029924981296,-0.0048681772314012,0.9763697385787964,0.2160144746303558,0.0,0.0,0.0,0.0,0.0,0.0,-0.0038516819477081,-0.0051044318825006,0.9850997924804688,0.1718646883964538,-0.0003116456320104,0.0001921769021486,-9.760457526520995e-07,-0.0067982077598571,-0.0354506969451904,-0.0042018890380859,7,0,0,0
5.8,1788263952118,0.0,0.0,-0.004029924981296,-0.0048681772314012,0.9763697385787964,0.2160144746303558,0.0,0.0,0.0,0.0,0.0,0.0,-0.0038644336163997,-0.0051172524690628,0.9850996732711792,0.1718646734952926,-0.0003151215817312,0.000253069594398,-1.195416769745691e-09,0.0029659271240234,0.0240853428840637,-0.0233097076416015,5,0,0,0
5.9,1788263952218,0.0,0.0,-0.004029924981296,-0.0048681772314012,0.9763697385787964,0.2160144746303558,0.0,0.0,0.0,0.0,0.0,0.0,-0.0038787797093391,-0.0051292348653078,0.9850995540618896,0.1718646585941314,-0.0002237928638325,0.0001383222145261,-4.666598719740845e-10,0.0091051459312438,-0.0178448557853698,0.0144300460815429,4,0,0,0
6.0,1788263952318,0.0,0.0,-0.004029924981296,-0.0048681772314012,0.9763697385787964,0.2160144746303558,0.0,0.0,0.0,0.0,0.0,0.0,-0.0038827685639262,-0.0051374332979321,0.9850995540618896,0.1718646585941314,-0.0001737804521287,2.099917634778175e-05,-5.0212615423770287e-11,-0.0061585903167724,-0.0380591750144958,0.0254755020141601,2,0,0,0
6.1,1788263952418,0.0,0.0,-0.0041109342128038,-0.0049608228728175,0.9763688445091248,0.2160143405199051,-2.671785811442352e-06,2.861581553118457e-06,1.6780428072452557e-08,-0.0044022225774824,0.0024092667736113,-1.8228429325972684e-06,-0.0038844207301735,-0.0051439721137285,0.9850995540618896,0.1718646585941314,-0.0001171535041577,1.0734934879500456e-05,-9.928451347585757e-07,0.0173014998435974,-0.0147808194160461,0.004734992980957,6,0,0,0
6.2,1788263952518,0.0,0.0,-0.0041120764799416,-0.0049654357135295,0.9763688445091248,0.2160143256187439,0.0,0.0,0.0,-4.7093570174183697e-05,-5.717963176721241e-06,0.0,-0.0038835704326629,-0.0051491511985659,0.9850994348526,0.1718646436929702,-7.430778773016803e-05,-2.192762308485943e-05,-9.488368288929622e-07,0.0045323967933654,0.0282148122787475,-0.0002880096435546,3,0,0,0
6.3,1788263952618,0.0,0.0,-0.0041111377067863,-0.0049704937264323,0.97636878490448,0.2160143256187439,0.0,0.0,0.0,-2.16938387893606e-05,-9.028008207678797e-06,-7.098188348209078e-07,-0.0038833543658256,-0.005151093006134,0.9850994348526,0.1718646436929702,-5.628729246773541e-05,-1.0075734702677536e-05,8.492303766878284e-12,0.0099047422409057,-0.0024136900901794,0.0044565200805664,5,0,0,0
6.4,1788263952718,0.0,0.0,-0.0041115120984613,-0.0049735601060092,0.97636878490448,0.2160143107175827,0.0,0.0,0.0,-4.662984429160133e-05,-1.55371890286915e-06,5.849294666404603e-07,-0.0038837296888232,-0.0051541868597269,0.9850994348526,0.1718646436929702,-4.579998350167429e-05,3.042981954687512e-06,-2.0900733690541613e-12,-0.0024200081825256,0.0388435721397399,-0.0155391693115234,1,0,0,0
6.5,1788263952818,0.0,0.0,-0.0041118431836366,-0.0049740122631192,0.97636878490448,0.2160143107175827,0.0,0.0,0.0,-2.181236050091684e-05,9.608532309357544e-06,0.0,-0.0038842400535941,-0.0051531055942177,0.9850994348526,0.1718646436929702,2.1621893475475956e-05,1.2654073760360929e-05,4.112973569301855e-12,0.0045749545097351,0.0380464196205139,0.0268878936767578,3,0,0,0
6.6,1788263952918,0.0,0.0,-0.0041115316562354,-0.0049709947779774,0.97636878490448,0.2160143256187439,0.0,0.0,0.0,0.0001348873483948,-1.2947134564456064e-05,-1.0255156439598068e-06,-0.0038835285231471,-0.0051502240821719,0.9850994348526,0.1718646436929702,4.849061128146093e-05,-2.9010187629130244e-06,-2.178989399344317e-12,0.0100641846656799,0.0488549470901489,-0.0059366226196289,7,0,0,0
6.7,1788263953018,0.0,0.0,-0.0041115316562354,-0.0049709947779774,0.97636878490448,0.2160143256187439,0.0,0.0,0.0,0.0,0.0,0.0,-0.0038825599476695,-0.005146843381226,0.9850994348526,0.1718646436929702,8.430150621468156e-05,-2.0365154167709864e-05,-2.420129572959969e-11,-0.0009757876396179,-0.0197668075561523,0.00799560546875,2,0,0,0
6.8,1788263953118,0.0,0.0,-0.0041115316562354,-0.0049709947779774,0.97636878490448,0.2160143256187439,0.0,0.0,0.0,0.0,0.0,0.0,-0.0038807149976491,-0.0051438752561807,0.9850994348526,0.1718646436929702,7.268454182714363e-05,-3.433706552283266e-05,-3.738332707862163e-11,0.0274688005447387,-0.0092377662658691,0.0279607772827148,3,0,0,0
6.9,1788263953218,0.0,0.0,-0.0041115316562354,-0.0049709947779774,0.97636878490448,0.2160143256187439,0.0,0.0,0.0,0.0,0.0,0.0,-0.0038768388330936,-0.0051399432122707,0.9850995540618896,0.1718646585941314,0.0001015934441969,-7.1520757076521e-05,-1.1853052310766043e-10,-0.0050929188728332,-0.0004873871803283,0.0117387771606445,1,0,0,0
7.0,1788263953318,0.0,0.0,-0.0041115316562354,-0.0049709947779774,0.97636878490448,0.2160143256187439,0.0,0.0,0.0,0.0,0.0,0.0,-0.0038711726665496,-0.0051344754174351,0.9850995540618896,0.1718646585941314,0.0001371400930178,-0.0001145532210618,-9.964854225516016e-07,-0.0144699811935424,-0.0276488065719604,0.0168428421020507,0,0,0,0
7.1,1788263953418,0.0,0.0,-0.0041115316562354,-0.0049709947779774,0.97636878490448,0.2160143256187439,0.0,0.0,0.0,0.0,0.0,0.0,-0.0038638114929199,-0.0051296819001436,0.9850996732711792,0.1718646734952926,9.296550270113985e-05,-0.0001107974462697,-9.822943296447096e-07,-0.0055296421051025,-0.0022729039192199,0.0071830749511718,0,0,0,0
7.2,1788263953518,0.0,0.0,-0.0040895575657486,-0.0049501284956932,0.976369082927704,0.2160143107175827,1.0645410276738124e-06,-8.462710751537002e-07,-3.4576093051263247e-09,0.0010253021027892,-0.000691732566338,1.824550054152496e-06,-0.0038609383627772,-0.0051279515027999,0.9850996732711792,0.1718646734952926,8.364028048738003e-05,-7.91978480072811e-05,-9.061261664791484e-11,0.003778338432312,0.0139070749282836,0.0036697387695312,0,0,0,0
7.3,1788263953618,0.0,0.0,-0.0040863985195755,-0.0049477498978376,0.9763690233230592,0.2160143256187439,0.0,0.0,0.0,0.0001231408386956,-0.0001053529776982,-1.8322257346881088e-06,-0.0038571963086724,-0.0051243007183074,0.9850996732711792,0.1718646734952926,5.3884916613285376e-05,-5.11116560975355e-05,-4.1389451340592566e-11,0.0109811425209045,0.0194956064224243,0.0052852630615234,0,0,0,0
7.4,1788263953718,0.0,0.0,-0.0040838532149791,-0.0049455612897872,0.976369082927704,0.2160143703222274,0.0,0.0,0.0,0.0,0.0,0.0,-0.0038517415523529,-0.0051229335367679,0.9850996732711792,0.1718646734952926,-9.982327715846929e-06,-0.0001003009813688,-1.0542252612837635e-06,-0.0072383284568786,0.0273287296295166,-0.0202655792236328,0,0,0,0
7.5,1788263953818,0.0,0.0,-0.0040838532149791,-0.0049455612897872,0.976369082927704,0.2160143703222274,0.0002026497196501,-0.0001953800987782,1.435758379888313e-07,0.0,0.0,0.0,-0.0038482090458273,-0.0051229679957032,0.9850996732711792,0.1718646734952926,2.944940653773946e-05,-7.240941181601051e-05,-3.1897484479921386e-11,-0.0036754608154296,-0.0002105832099914,-0.0005483627319335,0,0,0,0
7.6,1788263953918,0.0,0.0,-0.0040838532149791,-0.0049455612897872,0.976369082927704,0.2160143703222274,0.0,0.0,0.0,0.0,0.0,0.0,-0.0038465233519673,-0.005123590119183,0.9850996732711792,0.1718646734952926,-2.2015288947817528e-05,-1.3325826434590096e-05,-9.57181867122054e-07,0.0021790266036987,0.0253459811210632,-0.0026130676269531,0,0,0,0
7.7,1788263954018,0.0,0.0,-0.0040838532149791,-0.0049455612897872,0.976369082927704,0.2160143703222274,0.0,0.0,0.0,0.0,0.0,0.0,-0.0038480879738926,-0.0051251566037535,0.9850996732711792,0.1718646734952926,-6.456633885273666e-05,5.3872622203192426e-05,-5.210445979333075e-11,-0.0007880330085754,0.0132983326911926,-0.0086069107055664,0,0,0,0
7.8,1788263954118,0.0,0.0,-0.0040838532149791,-0.0049455612897872,0.976369082927704,0.2160143703222274,-0.0001440503457357,0.0001388828508002,-1.0205861196008146e-07,0.0,0.0,0.0,-0.0038513746112585,-0.0051266346126794,0.9850996732711792,0.1718646734952926,-7.026445241466876e-06,5.653226391232373e-05,-6.344298963808043e-12,0.0010511875152587,-0.059039831161499,-0.0139265060424804,0,0,0,0
7.9,1788263954218,0.0,0.0,-0.0040838532149791,-0.0049455612897872,0.976369082927704,0.2160143703222274,0.0,0.0,0.0,0.0,0.0,0.0,-0.0038545643910765,-0.0051325354725122,0.9850996732711792,0.1718646734952926,-0.0001754498472663,1.0911214810502928e-05,-2.8676770809329358e-11,0.0094661712646484,-0.0161467194557189,0.0016059875488281,0,0,0,0
8.0,1788263954318,0.0,0.0,-0.0040838532149791,-0.0049455612897872,0.976369082927704,0.2160143703222274,0.0002028380169395,-0.0001955616413092,1.4370924523545104e-07,0.0,0.0,0.0,-0.0038553327322006,-0.0051423050463199,0.9850996732711792,0.1718646734952926,-0.0002078832503847,-2.570066005395804e-05,8.518678558979233e-11,0.0217402577400207,0.0415040850639343,0.0257244110107421,1,0,0,0
8.1,1788263954418,0.0,0.0,-0.0040838532149791,-0.0049455612897872,0.976369082927704,0.2160143703222274,0.0,0.0,0.0,0.0,0.0,0.0,-0.0038503538817167,-0.0051513230428099,0.9850995540618896,0.1718647181987762,-0.0001046881257668,-0.0001802890427075,-4.122829025253056e-06,-0.0242919921875,0.0085527300834655,-0.0089654922485351,1,0,0,0
8.2,1788263954518,0.0,0.0,-0.0040838532149791,-0.0049455612897872,0.976369082927704,0.2160143703222274,0.0,0.0,0.0,0.0,0.0,0.0,-0.0038405368104577,-0.0051526622846722,0.9850995540618896,0.1718648374080658,6.428519547603685e-05,-0.0002509341840356,-4.002430665076179e-06,0.0016669034957885,-0.0217177867889404,0.0232868194580078,1,0,0,0
8.3,1788263954618,0.0,0.0,-0.0040838532149791,-0.0049455612897872,0.976369082927704,0.2160143703222274,0.0,0.0,0.0,0.0,0.0,0.0,-0.0038238912820816,-0.0051460536196827,0.9850996732711792,0.1718649566173553,0.0002183084532717,-0.0002260319689603,-9.95310845401507e-07,0.0034717321395874,-0.0283343791961669,0.0139331817626953,0,0,0,0
8.4,1788263954718,0.0,0.0,-0.0040838532149791,-0.0049455612897872,0.976369082927704,0.2160143703222274,0.0,0.0,0.0,0.0,0.0,0.0,-0.0038144402205944,-0.0051413094624876,0.9850996732711792,0.1718649566173553,9.209664792953748e-05,-0.0001494119342401,-9.961817925198397e-07,-0.0084521770477294,0.01936537027359,0.0001840591430664,1,0,0,0
8.5,1788263954818,0.0,0.0,-0.0040838532149791,-0.0049455612897872,0.976369082927704,0.2160143703222274,0.0,0.0,0.0,0.0,0.0,0.0,-0.0038108499720692,-0.0051379473879933,0.9850997924804688,0.1718649715185165,7.100267333984353e-05,-2.1673974194072367e-05,-2.1507609173454444e-11,-0.016491413116455,0.003376305103302,2.86102294921875e-05,5,0,0,0
8.6,1788263954918,0.0,0.0,-0.0040838532149791,-0.0049455612897872,0.976369082927704,0.2160143703222274,0.0,0.0,0.0,0.0,0.0,0.0,-0.0038121584802865,-0.005133107304573,0.9850997924804688,0.1718649715185165,0.000152145148637,5.249579802884021e-05,9.882763983694098e-07,-0.0016794800758361,-0.022763192653656,0.0017557144165039,0,0,0,0
8.7,1788263955018,0.0,0.0,-0.0040393969975411,-0.0049512046389281,0.9763692021369934,0.2160146534442901,0.0,0.0,0.0,0.0,0.0,0.0,-0.0038137873634696,-0.0051188822835683,0.9850997924804688,0.1718649715185165,0.0002616741483829,8.041489418567645e-05,9.165883719285644e-07,-0.0031514167785644,-0.0133883357048034,0.020064353942871,3,0,0,0
8.8,1788263955118,0.0,0.0,-0.0040404009632766,-0.0049404725432395,0.9763692617416382,0.2160146832466125,0.0,0.0,0.0,0.0004105004773009,0.0001319592265645,1.7882672409541556e-06,-0.0038164220750331,-0.0051043536514043,0.9850999116897584,0.1718649864196777,0.0002958036392008,0.0001224475255082,1.986011165940145e-06,-0.0027134418487548,0.0027177929878234,0.0034999847412109,0,0,0,0
8.9,1788263955218,0.0,0.0,-0.0040422244928777,-0.0049274661578238,0.9763692617416382,0.2160146832466125,0.0,0.0,0.0,0.0,0.0,0.0,-0.0038156313821673,-0.0050900587812066,0.9850969314575196,0.171882227063179,0.0003505239051768,-0.000111105270839,-0.0011708817347278,0.0231885910034179,-0.0243197679519653,0.0191545486450195,111,186,5233,7366
9.0,1788263955318,2.760563373565674,3.633802890777588,-0.0038866405375301,-0.0049257241189479,0.9766904711723328,0.2145610451698303,0.0789685848278979,-0.0002864493416554,-4.259622534041095e-06,-0.0024415501393377,0.02355014719069,0.0797024518251419,-0.003550729714334,-0.0051379650831222,0.9855940341949464,0.16901296377182,-0.0034702137316664,0.0106074586497913,0.1261222825388625,0.6223249435424805,0.1393635272979736,0.2232427597045898,150,211,10620,13444
9.1,1788263955418,4.169013977050781,6.14084529876709,-0.0040679713711142,-0.0052624153904616,0.9789991974830629,0.2037559300661087,0.1563004107099829,0.0041294164329417,1.0229981300426825e-05,-0.0091772833839058,0.0005261216429062,0.244457259774208,-0.0038298200815916,-0.0054431790485978,0.9871960282325744,0.1593731641769409,-0.0079589765435741,0.0104775805350504,0.2557912672980577,0.7729112505912781,0.0886850357055664,-0.6132106781005859,149,190,15331,19339
9.2,1788263955518,4.535211086273193,5.943662166595459,-0.0042342999950051,-0.005203588400036,0.9804107546806335,0.1968492418527603,0.1875767877366845,0.0017510899836908,1.3682464072224612e-05,0.0001213284122059,0.0053091892041265,0.2820046246051788,-0.0035395110026001,-0.0053836032748222,0.9892424941062928,0.1461432427167892,0.0036213842749962,-0.018131807820417,0.3033100083151808,-0.2816830277442932,0.3252447843551636,0.5946073532104492,72,52,13325,16344
9.3,1788263955618,4.591549396514893,5.6619720458984375,-0.0038398271426558,-0.0053196367807686,0.9832372665405272,0.1822126507759094,0.1710927742822511,0.0087173442129601,1.1958815059470126e-05,-0.0058873984962701,0.010652182623744,0.3360783457756042,-0.0031959926709532,-0.0055063776671886,0.9917786121368408,0.1278074532747268,-0.0026354674911298,-0.0285708830920613,0.2588984534465716,0.1463502049446106,-0.1946897506713867,0.2809410095214844,145,22,15011,14140
9.4,1788263955718,4.760563373565674,5.352112770080566,-0.0032071452587842,-0.0052424962632358,0.9856877326965332,0.1684693843126297,0.1812628055256998,0.0013888337945911,4.601744081098916e-05,0.0030664431396871,-0.015239430591464,0.1866104900836944,-0.0033958191052079,-0.0049303127452731,0.9925705790519714,0.1215233355760574,0.0204978490986627,0.0244720477098381,0.1093189272178381,0.2487398386001587,0.0880548954010009,-1.1318788528442385,90,58,14296,15217
9.5,1788263955818,4.591549396514893,5.549295902252197,-0.0039714435115456,-0.0046407473273575,0.9867950677871704,0.1618586331605911,0.1814680144499877,0.0015849811722408,1.3895353997012046e-05,0.0029604230076074,-0.0021680372301489,0.092813566327095,-0.0038570873439311,-0.0047853495925664,0.9931831955909728,0.1164018139243125,-0.0015020007218373,0.0128718363197731,0.0876686120276714,-0.1486625671386718,-0.0768083333969116,0.3015241622924804,62,66,14260,14968
9.6,1788263955918,4.507042407989502,5.549295902252197,-0.0039016758091747,-0.0047529120929539,0.9871524572372437,0.1596630066633224,0.1716796152828042,0.0033964272105113,-1.04723713644726e-05,-0.0042580161243677,-0.003944325260818,0.0889462605118751,-0.0035925395786762,-0.0045193862169981,0.9937314391136168,0.111645258963108,0.0028343054821215,-0.016743756007706,0.1302285787679072,-0.0110000371932983,0.1967848539352417,0.6311578750610352,43,71,12611,15101
9.7,1788263956018,4.788732528686523,5.436619758605957,-0.003508583176881,-0.0045191999524831,0.987924337387085,0.1548313647508621,0.1776958883545577,0.0016459789575789,8.92001957628593e-05,-0.0129189128056168,-0.0264169536530971,0.1026206165552139,-0.0033616721630096,-0.004722811281681,0.9943031072616576,0.1064318045973777,-0.0118157879562564,0.0067111880078727,0.152942770513232,0.1824396848678589,0.4028357863426208,-0.6271352767944336,32,103,13097,15848
9.8,1788263956118,4.450704097747803,5.577464580535889,-0.0030891054775565,-0.0038843001239001,0.9895387291908264,0.1441821455955505,0.1719293650510448,2.921190311276532e-05,0.000110159765126,0.023193534463644,-0.0203136298805475,0.1561449915170669,-0.0029111942276358,-0.0040193675085902,0.9950242042541504,0.0995098873972892,0.0278664797304765,-0.0009719950610229,0.1532268061706806,-0.2100189924240112,-0.3332332968711853,0.505864143371582,47,81,12640,15086
9.9,1788263956218,4.507042407989502,5.577464580535889,-0.0033763824030756,-0.0040963003411889,0.9905242919921876,0.1372351944446563,0.1800435632344675,0.0011494299965538,-4.203615102558519e-05,0.0064326887950301,-0.0001273057132493,0.1449634432792663,-0.0030911229550838,-0.0042375810444355,0.9957676529884338,0.0917574018239975,0.0098479989241246,-0.0251847065541308,0.1474189281292613,-0.2050853371620178,0.198591411113739,0.3138771057128906,41,52,12566,15539
10.0,1788263956318,4.535211086273193,5.690140724182129,-0.0035891942679882,-0.0041169421747326,0.9910253882408142,0.1335623860359192,0.1754685701527291,0.0037146116833439,-1.5207680945775248e-05,-0.0023999381810426,0.0076488903723657,0.1483008712530136,-0.0034508546814322,-0.0047372272238135,0.9961788058280944,0.0871400088071823,-0.0035963471456554,0.0264091950696963,0.0711117697267729,-0.0763958096504211,-1.5855633020401,0.3056364059448242,8,139,12259,16722
10.1,1788263956418,4.394366264343262,5.6619720458984375,-0.0037987697869539,-0.0042378241196274,0.9916746020317078,0.1286430805921554,0.1760400983222573,-0.0075423255597618,3.2955975931472814e-05,0.0146749857813119,0.0078759770840406,0.1553727835416793,-0.0030336361378431,-0.0043338285759091,0.9968955516815186,0.0785580724477768,0.0027154709800829,-0.0371535626463492,0.2491843418712013,0.1731821894645691,-0.0047576427459716,-0.4935894012451172,64,55,12652,15789
10.2,1788263956518,4.535211086273193,5.408450603485107,-0.0038303625769913,-0.0040302365086972,0.99333518743515,0.1151274144649505,0.1877660015886715,0.0005081059767562,-3.3397120022477375e-05,-0.0047258138656616,0.0067647672258317,0.1271676272153854,-0.0034181978553533,-0.0045691179111599,0.997617483139038,0.0687523409724235,-0.0299364384347673,-0.0160553415650093,0.1455242751765842,1.5772039890289309,-7.516872882843018,-0.0013437271118164,10,70,11434,15382
10.3,1788263956618,4.309859275817871,5.97183084487915,-0.0040782927535474,-0.0040411972440779,0.9942197203636168,0.1072109341621398,0.1748929337933888,0.0133062521021755,5.820941405024214e-05,-0.0122568719089031,-0.0052769291214644,0.125005766749382,-0.0039093336090445,-0.0043027000501751,0.9980257153511048,0.0625371262431144,-0.0197857120510017,0.0089499978138679,0.1190078947025021,0.003811776638031,-1.2156291007995603,-0.0020227432250976,18,99,9266,16626
10.4,1788263956718,3.88732385635376,5.88732385635376,-0.0045383432880043,-0.0038846016395837,0.9946061968803406,0.1035509780049324,0.1883996224902334,-0.0040158385392979,-2.7708201746310423e-05,0.0040431357920169,0.019902478903532,0.1600995510816574,-0.0045301867648959,-0.0040803486481308,0.998530089855194,0.0538556016981601,-0.0015759746923485,0.0027497413646339,0.2778194742732589,-0.1631171107292175,-0.0207544565200805,0.0862865447998046,16,109,11322,17156
10.5,1788263956818,3.859154939651489,6.0,-0.0043933908455073,-0.0038778046146035,0.995887577533722,0.090407595038414,0.1801390848812783,-0.0097562262283547,7.259494944010713e-05,0.0024728276766836,-0.0131936334073543,0.3276294767856598,-0.0042251534759998,-0.0039569018408656,0.9993941783905028,0.0343178696930408,-0.0070251292717438,-0.0129348246922294,0.3207442100386091,-0.0434373617172241,-0.3318208456039428,-0.2187728881835937,31,61,11839,16358
10.6,1788263956918,4.169013977050781,5.915493011474609,-0.0043965317308902,-0.0036356735508888,0.9977076649665833,0.0674309208989143,0.1792089481654944,0.0006493489452008,-1.1045420819332756e-05,0.0120864138007164,-0.0093375854194164,0.3107806742191314,-0.004175690934062,-0.0037947036325931,0.9997669458389282,0.0208402071148157,0.0116494215146905,-0.0248308658897638,0.2981006763060817,0.065402090549469,0.039300799369812,0.5406808853149414,57,77,12460,16293
10.7,1788263957018,4.366197109222412,5.915493011474609,-0.0043162307702004,-0.0033902027644217,0.9987246990203856,0.0501879714429378,0.1749347442736313,-0.003179290542323,1.4591917755134746e-06,0.0103119937703013,0.0028262287378311,0.2977651059627533,-0.0041392007842659,-0.0035691205412149,0.9999821186065674,0.0024164011701941,-0.003638784306185,0.0134008981791482,0.3103757895796838,-0.3209591507911682,-0.2162740230560302,-0.2214021682739257,80,75,12803,16052
10.8,1788263957118,4.0,5.97183084487915,-0.0036092181690037,-0.0035004862584173,0.999086618423462,0.0424336604773998,0.1779873059996025,-0.0013932550705839,5.23998171799947e-05,-0.0044569680467247,-0.0308312121778726,0.323519229888916,0.0039231106638908,0.0033948682248592,-0.9999022483825684,0.0129881165921688,0.003935588868063,0.0267607175357655,0.3193909790753375,-0.0716751813888549,-0.1532011032104492,-0.3955087661743164,143,54,14225,16110
10.9,1788263957218,4.619718074798584,5.380281925201416,-0.0038779929745942,-0.0029603082221001,0.999623715877533,0.0269926600158214,0.1712960156191199,0.0056381699504955,-1.0858238052460351e-05,0.0132802175357937,-0.0053457673639059,0.3199297785758972,0.0037982603535056,0.003034058958292,-0.9997218251228333,0.023081686347723,-0.0162831886592877,0.0330367379248584,0.1167010626526297,0.1275954246520996,0.1749255657196045,-0.402780532836914,103,74,14740,14878
11.0,1788263957318,4.591549396514893,5.577464580535889,-0.0028033186681568,-0.0033413311466574,0.9998515248298644,0.0166722238063812,0.1875813287740679,-0.0032078910738946,7.551061062565658e-05,0.0041020684875547,-0.0475305132567882,0.1391569823026657,0.0026501277461647,0.0034640897065401,-0.9995889663696288,0.028335427865386,0.0040668936630988,-0.0483188783535857,0.1414355179900414,0.0567370057106018,0.2014721632003784,0.8776340484619141,101,49,15073,14963
11.1,1788263957418,4.563380241394043,5.577464580535889,-0.0026939515955746,-0.0035265125334262,0.999958336353302,0.0079705622047185,0.1725932133883176,0.0056678389625378,1.0844082290725844e-05,-0.0102546429261565,-0.0156655479222536,0.1583653539419174,0.0024159178137779,0.0036575254052877,-0.9992791414260864,0.0377101115882396,-0.0034766438893469,-0.0345634383068223,0.1862508393812171,0.0542370080947876,-0.0187587141990661,-0.2555227279663086,135,57,15211,15067
11.2,1788263957518,4.309859275817871,5.88732385635376,-0.0024997198488563,-0.0038370857946574,0.9999801516532898,0.0043328986503183,0.1753465667013363,-0.0009946425562863,2.6686923404148736e-05,-0.0132928900420665,-0.0087408171966671,0.1516467928886413,0.0023738872259855,0.0040877889841794,-0.9989897012710572,0.0446907095611095,-0.0116772116557317,0.0128216885327157,0.1536404137631613,-0.1405001282691955,0.1155744194984436,0.1825418472290039,85,80,13253,16388
11.3,1788263957618,3.91549301147461,6.02816915512085,0.0026919119991362,0.0040281573310494,-0.9999778866767884,0.0045483540743589,0.1611129456208844,0.0014710216569325,-1.2006614043394553e-05,-0.0029676030389964,0.0054494906216859,0.2257689088582992,0.0027907490730285,0.004558578133583,-0.9983842968940736,0.0565715953707695,-0.0186145647249045,0.0220482357085296,0.279415751688158,0.1805302500724792,0.1152301430702209,0.3676586151123047,108,80,14333,16389
11.4,1788263957718,4.11267614364624,5.943662166595459,0.0032218464184552,0.0047324332408607,-0.9996424317359924,0.0261194072663784,0.1813311376569102,0.0065142530388781,2.612872134709315e-05,-0.0093183312565088,-0.0222156755626201,0.306854099035263,0.0028508473187685,0.0049091018736362,-0.99733704328537,0.0727087929844856,-0.0089560431784103,-0.0274873776949736,0.2938123080709329,-0.1801263689994812,-0.2047899961471557,0.2141876220703125,143,70,14439,16332
11.5,1788263957818,4.0,6.0,0.0028289326000958,0.0050776288844645,-0.9989631175994872,0.045155182480812,0.1742843849337033,0.0012900255720547,-2.538049799714618e-05,-0.0013189438031986,0.0073318937793374,0.338506817817688,0.0027024373412132,0.0052324142307043,-0.9959627985954284,0.0895732045173645,-0.0011567858683162,0.0162347419632206,0.3334952568172712,0.0599917769432067,-0.2819926738739013,0.4791164398193359,162,54,15358,15999
11.6,1788263957918,4.309859275817871,5.88732385635376,0.002470679115504,0.0049680355004966,-0.9985431432724,0.0536715947091579,0.174947107846922,-0.0053287124396348,2.8485924523227383e-05,0.002570392563939,-0.0155150992795825,0.3266768157482147,0.0021114014089107,0.0051776580512523,-0.9942105412483216,0.1073044762015342,0.0013106941139839,-0.0024266727640125,0.2688233710259746,0.0141851305961608,-0.0601990818977355,0.4768180847167969,169,62,15063,15751
11.7,1788263958018,4.197183132171631,5.915493011474609,0.0022607359569519,0.0051615783013403,-0.9978389143943788,0.0654663741588592,0.176630990354639,-0.0035155207132781,2.3356681082494982e-05,-0.0043520969338715,-0.0084257684648036,0.2661026120185852,0.0021103331819176,0.0053351148962974,-0.9928095936775208,0.119567297399044,-0.012049787510088,0.0061590224821987,0.2796953011971282,0.0561431646347045,-0.2790620326995849,0.0192985534667968,160,35,14370,15414
11.8,1788263958118,4.591549396514893,5.436619758605957,0.0022882486227899,0.0050454051233828,-0.9964331984519958,0.0842040926218032,0.1668081971540506,0.0006942248278653,5.760223920370301e-05,0.0076490179635584,-0.005889774300158,0.189693421125412,0.0020995307713747,0.0051411762833595,-0.9915907382965088,0.1292942613363266,0.0037301119385791,0.015981229099511,0.149382820619184,0.05181485414505,0.0082273483276367,0.1901330947875976,176,63,15946,14989
11.9,1788263958218,4.197183132171631,5.915493011474609,0.0023154462687671,0.0050084362737834,-0.995724320411682,0.0922099724411964,0.1689365857165106,0.0103426435300751,2.259520023169698e-05,-0.0011557188117876,0.0054086199961602,0.1898100823163986,0.0021088188514113,0.0050731021910905,-0.9903002381324768,0.1388356685638427,-0.0015246835825915,0.0123601310804239,0.2185839924422416,-0.0710667967796325,-0.4223747849464416,-0.1405496597290039,105,90,14201,16355
12.0,1788263958318,4.394366264343262,5.577464580535889,0.0019965348765254,0.0045493021607398,-0.9943135976791382,0.1063758507370948,0.1686191218482778,0.0102370461346674,8.259106230641276e-05,-0.0021538308355957,-0.0130053646862506,0.3283324241638183,0.0018789339810609,0.0046832095831632,-0.988309383392334,0.1523780524730682,-0.0192318925011383,0.0216260046209907,0.2952339812624356,0.5117861032485962,-0.258419930934906,0.4873266220092773,302,16,19675,13060
12.1,1788263958418,5.098591327667236,4.985915660858154,0.0017996856477111,0.0044709397479891,-0.9939614534378052,0.1096234545111656,0.1785105785721733,0.001103211508855,2.8364507695260877e-05,0.0022217168007045,-0.0099125914275646,0.148407369852066,0.0015645958483219,0.0040976041927933,-0.9876940250396729,0.1563372910022735,0.0190764127816272,-0.0329637601716761,0.0723010210274277,0.0989419817924499,0.1354397535324096,-0.8253374099731445,240,30,19050,13514
12.2,1788263958518,5.042253494262695,5.183098793029785,0.0021200194023549,0.0040735276415944,-0.993662416934967,0.1123116686940193,0.1694010820269466,0.0024708295253901,-6.877386546399859e-07,0.0,0.0,0.0,0.0022546295076608,0.0043871542438864,-0.9875982403755188,0.1569250375032425,-0.0113150874586704,0.0234409428419468,0.0008858238552202,0.0608088374137878,-0.1298086643218994,-0.1646642684936523,211,45,18153,13515
12.3,1788263958618,5.042253494262695,5.070422649383545,0.0018887456972151,0.0034911907278001,-0.993524134159088,0.1135523468255996,0.1736273447084879,0.0046400709160414,-1.0534780341256416e-06,0.0107333417981863,-0.0089727789163589,0.0286956150084733,0.0016768015921115,0.00348218716681,-0.9873740673065186,0.1583586931228637,0.0026841581839065,-0.0039529803274236,0.0334901682617927,0.0408945679664611,-0.0123727917671203,0.550933837890625,196,48,18802,13775
12.4,1788263958718,5.042253494262695,5.014084339141846,0.0014297133311629,0.003370955819264,-0.9933534264564514,0.115046240389347,0.1739843693409546,0.0027248838269636,5.501699448488045e-07,-0.0039372672326862,0.006716844625771,0.0193239357322454,0.001276571303606,0.0034318780526518,-0.9871699810028076,0.1596308350563049,-0.0083419129307621,0.0137669957625889,0.010588800187173,-0.0658544898033142,0.0293369889259338,0.2722043991088867,278,71,19681,13572
12.5,1788263958818,5.070422649383545,5.126760482788086,0.0012202083598822,0.0033664219081401,-0.9931996464729308,0.116368368268013,0.1659308481715874,0.0035496773164219,8.803179671093274e-06,-0.0010006064549088,-0.0096784709021449,0.0604853145778179,0.0006274981424212,0.0034848628565669,-0.9865806102752686,0.1632365733385086,-0.002187557813116,-0.0013235974411121,0.076615002081938,0.4117856025695801,-0.067884624004364,-0.5446681976318359,275,41,19877,13165
12.6,1788263958918,5.267605781555176,5.014084339141846,0.0004198589886073,0.0035039053764194,-0.9927775263786316,0.1199178248643875,0.1669268217983212,0.0021464422143633,2.2937910802065e-05,0.0004697083495557,-0.0002101143763866,0.0453123971819877,0.0004499107599258,0.0035486984997987,-0.9863040447235109,0.1648987829685211,-0.0022854843687195,0.021614858840047,0.0359353736535046,-0.5482871532440186,0.1401859521865844,-0.0010499954223632,250,30,19681,13313
12.7,1788263959018,4.816901206970215,4.985915660858154,-2.7098110876977444e-05,0.0033674803562462,-0.9923269152641296,0.1235960274934768,0.1704558540724922,0.0003685531422118,5.061367829200694e-05,-0.001819982426241,-0.0219112746417522,0.0806539133191108,-0.0001705531030893,0.0033421888947486,-0.9857767224311828,0.168026864528656,0.0002303047695201,-0.0160687716648488,0.0794420593042535,0.5120474696159363,-0.2258189916610717,-0.0888967514038086,330,47,19793,13585
12.8,1788263959118,4.873239517211914,5.211267471313477,-0.0010631628101691,0.0030747805722057,-0.991906762123108,0.1269270628690719,0.1603032601769192,0.0047789075889945,0.0001016813842016,0.0010570203885436,-0.0355446599423885,0.0602160729467868,-0.0013735378161072,0.0030152294784784,-0.9850170612335204,0.1724250018596649,-0.0020778881964432,-0.0165339445098416,0.0855746559790107,0.0840137600898742,-0.2519114017486572,-0.0974044799804687,279,46,19537,13756
12.9,1788263959218,4.929577350616455,5.154929637908936,-0.0012640863424167,0.0030757167842239,-0.9916053414344788,0.1292586624622345,0.1654374717439201,0.0024759388806881,3.580434629596134e-05,-0.0011061301920562,-0.0091885048896074,0.1044974476099014,-0.0017024595290422,0.0027810540050268,-0.9841259121894836,0.1774420291185379,-0.0001075982977624,-0.0305400187795184,0.1077725644781663,0.0860599279403686,0.2907233238220215,-0.0724697113037109,321,18,19803,13237
13.0,1788263959318,4.619718074798584,5.521126747131348,-0.0022788604255765,0.0029159528203308,-0.9905360341072084,0.1372032016515731,0.1744920724664498,0.0006810109454581,3.253592175432802e-05,-0.0013747662305831,-0.0126003641635179,0.1100169122219085,-0.0024453522637486,0.0028212554752826,-0.9833115339279176,0.18189138174057,-0.0042967147361479,-0.0118906913015169,0.102659393111307,-0.1353051662445068,0.1809432506561279,-0.2421989440917968,287,46,18584,14780
13.1,1788263959418,4.563380241394043,5.690140724182129,-0.0020936508662998,0.0030909290071576,-0.9887559413909912,0.1494917869567871,0.1687722965459057,0.0114358630098171,5.662895957283085e-06,0.0002337668265681,0.0042560696601867,0.2904216349124908,-0.0021999031305313,0.0030538849532604,-0.9806051850318908,0.1959577649831771,-0.0075838835331865,0.0104557063364524,0.2812249243143873,-0.2372106313705444,0.2219298481941223,-0.1312150955200195,321,21,18738,14297
13.2,1788263959518,4.366197109222412,5.85915470123291,-0.0029638388659805,0.0030007951427251,-0.986967384815216,0.1608653217554092,0.1640743824503201,0.0054978272844429,4.510609630446414e-05,-0.0053446935489773,0.0033095481339842,0.2083983272314071,-0.0030595511198043,0.0029303133487701,-0.978648006916046,0.2054999470710754,-0.0305289815417878,0.0271759875267178,0.2137111362755688,-0.1629082560539245,0.400316059589386,-0.2694520950317383,282,78,18395,15672
13.3,1788263959618,4.450704097747803,5.549295902252197,-0.0028872238472104,0.0033240113407373,-0.9862152338027954,0.1654092371463775,0.1602768504097274,0.0173362937434521,-4.995844170022698e-05,-0.0151370819658041,0.0057248352095484,0.2360134124755859,-0.0032080356031656,0.0031430311501026,-0.9763727188110352,0.2160466462373733,0.0052926789773801,0.0146974552485139,0.2241555054905722,-0.0977815985679626,-0.5267205238342285,1.260112762451172,339,28,18847,14157
13.4,1788263959718,4.619718074798584,5.577464580535889,-0.0033348300494253,0.0033249002881348,-0.9835045337677002,0.1808219403028488,0.168718709440577,0.0042547128393949,1.717703051208194e-05,-0.0055986014194786,-0.0108550824224948,0.1753660440444946,-0.0033971900120377,0.0032366393133997,-0.97447669506073,0.2244395166635513,-0.0084059958777647,-0.0075619742678619,0.1645054477497379,-0.0927332043647766,0.1783171892166137,0.284454345703125,296,43,19619,14657
13.5,1788263959818,4.563380241394043,5.492957592010498,-0.0035754616837948,0.0033251012209802,-0.9814885854721068,0.1914582848548889,0.1655553675571908,0.0087029011919538,7.467849129133855e-05,-0.0036624055355787,-0.0086616510525345,0.1995158344507217,-0.0036854650825262,0.0031874813139438,-0.971786081790924,0.2358137816190719,-0.0075890010565122,0.0151178820590508,0.1932227026000301,-0.0212485790252685,-0.2036762833595276,-0.1668119430541992,315,32,18429,14543
13.6,1788263959918,4.591549396514893,5.436619758605957,-0.0034914501011371,0.0031254200730472,-0.9799726009368896,0.1990772932767868,0.171376318943713,-0.0005856254048567,-2.7856180518075008e-05,0.0012759011005982,-0.0006619765772484,0.1146280318498611,-0.0035594785585999,0.0029943715780973,-0.9701012969017028,0.2426557540893554,-0.0005150665524739,-0.0013627405285161,0.0963859870771871,-0.170159637928009,0.4799055457115173,0.1514453887939453,285,75,18750,14687
13.7,1788263960018,4.591549396514893,5.633802890777588,-0.0031391507945954,0.0030686794780194,-0.9792734980583192,0.2024947255849838,0.1703811611886322,0.0056000678710613,-8.722970198870286e-06,0.0069468608126044,0.0164499301463365,0.1788979917764663,-0.0039082532748579,0.002798831090331,-0.9672211408615112,0.2538899779319763,0.004767463673861,-0.0270493897051844,0.2306336770692171,0.2425408959388733,0.1380623579025268,0.2952461242675781,271,29,18141,14377
13.8,1788263960118,4.647887229919434,5.577464580535889,-0.0041523817926645,0.0029501696117222,-0.9770947098731996,0.2127438336610794,0.1720116777945664,0.0034377764799218,4.176182695550084e-05,-0.002286531496793,-0.02877177298069,0.2095404267311096,-0.004159964621067,0.0027067819610238,-0.9645779728889464,0.2637511491775512,-4.42178796034726e-05,-0.0067653560875339,0.2270614629938851,0.0624879598617553,0.2774215936660766,-0.083770751953125,361,34,19832,14518
13.9,1788263960218,4.535211086273193,5.549295902252197,-0.0040964074432849,0.0029685741756111,-0.9732961058616638,0.2294974476099014,0.1735414349265871,0.0053038728838705,-4.951761346237232e-06,-0.0020517075899988,0.0005794634926132,0.1987285614013672,-0.0042193857952952,0.0027401689440011,-0.962152063846588,0.2724667489528656,-0.0015274316001248,-0.0012535021333282,0.1788922361522645,-0.3496774435043335,0.023230493068695,0.0107784271240234,286,28,18881,14372
14.0,1788263960318,4.619718074798584,5.633802890777588,-0.0032795981969684,0.0029450978618115,-0.9708709716796876,0.2395622581243515,0.1716710278638464,0.0018582472682655,-7.222120086538674e-05,0.0069851423613727,0.0259349383413791,0.2116157263517379,-0.0034097218886017,0.0027577858418226,-0.9587196707725524,0.2843190431594848,0.0132295928073484,0.0082559046492972,0.2060720369788681,-0.0864514708518982,0.440876305103302,0.160593032836914,320,29,19683,14379
14.1,1788263960418,5.295774459838867,4.873239517211914,-0.0032875393517315,0.0030074615497142,-0.9699752330780028,0.2431626468896865,0.1715368604652078,0.0025405709644794,3.766551265888639e-06,-0.0026627471670508,-0.0003154081641696,0.1854276955127716,-0.0035548619925975,0.0030210940167307,-0.9573255777359008,0.2889743149280548,-0.0043347313599599,0.0039692352795565,0.0200648287189278,-0.2483082413673401,-0.3063053488731384,-0.2623538970947265,378,18,21778,12189
14.2,1788263960518,5.070422649383545,5.126760482788086,-0.0034831229131668,0.0031251937616616,-0.9694300293922424,0.2453233152627945,0.1668402774227399,0.0003814939743351,3.425835757159391e-07,0.0,-9.460776162484308e-09,0.0,-0.0027775149792432,0.0029898537322878,-0.9570050835609436,0.2900426983833313,0.0067430295282335,0.0283980368604633,0.0390337875856265,0.3364596962928772,-0.610802948474884,0.1878519058227539,317,32,21024,13010
14.3,1788263960618,5.014084339141846,4.957746505737305,-0.00176522298716,0.0031205741688609,-0.968567192554474,0.2487259805202484,0.1722975553239749,-0.0002177572856886,-6.54546737450982e-05,0.0066828746348619,0.0134475426748394,0.0446304492652416,-0.0018983222544193,0.002907296642661,-0.9562865495681764,0.2924107313156128,0.0172233105372064,-0.007197657109827,0.0420689460384689,-0.0717865228652954,0.0828507542610168,-0.0181570053100585,318,25,21480,12807
14.4,1788263960718,5.014084339141846,4.929577350616455,-0.0005141816218383,0.0035829874686896,-0.9679454565048218,0.2511345446109772,0.1680326562503684,0.0023509137534399,-9.009582320706416e-05,-0.0143933724611997,0.0366705656051635,0.0478447414934635,-0.0006170887500047,0.0035798158496618,-0.9556355476379396,0.2945293486118316,-0.0077137101469383,0.0429452914623566,0.0591323084739438,0.1228140592575073,-0.1243938207626342,0.0585861206054687,348,24,21269,13096
14.5,1788263960818,4.985915660858154,4.985915660858154,-1.5187019016593696e-05,0.0037113444413989,-0.9676734209060668,0.252179354429245,0.1650980428046097,0.0022276816299717,-7.360261473339859e-05,3.095752981607802e-05,0.0249413177371025,0.0527496337890625,0.0006057471036911,0.0038921842351555,-0.9549996852874756,0.2965806126594543,-0.0045100201576525,0.0274771050283642,0.0194851970937748,-0.1296895146369934,0.0494340658187866,0.1875495910644531,342,23,20543,12898
14.6,1788263960918,5.267605781555176,4.788732528686523,0.0012929998338222,0.0042193438857793,-0.9671260118484496,0.2542594373226166,0.1735808458114761,0.0023245429125119,-9.180788703637416e-05,-0.0066073150373995,0.019813934341073,0.031116085126996,0.0015597520396113,0.0047018518671393,-0.9545317888259888,0.2980680763721466,-0.0104770572157021,-0.001805119619983,0.0124129268632092,-0.0721535086631774,0.0256929993629455,0.0655574798583984,372,16,21432,11937
14.7,1788263961018,4.985915660858154,5.211267471313477,0.0022458634339272,0.0048414347693324,-0.9667639136314392,0.2556152641773224,0.1721398872928645,0.0003200589473402,-4.3175607781790085e-05,-0.0036116554401814,0.0221276208758354,0.0168196316808462,0.0022841021418571,0.0050911298021674,-0.9541682004928588,0.2992188930511474,-0.0063643281178094,0.031108753603253,0.0342717372300078,-0.0144615769386291,0.3309364914894104,-0.0091619491577148,387,59,20336,13632
14.8,1788263961118,5.070422649383545,5.098591327667236,0.0041605453006923,0.0059359348379075,-0.9655419588088988,0.2601466774940491,0.1734611585209492,0.0003416691411795,-3.588944554815755e-05,-0.0182422511279582,0.0332262068986892,0.081988513469696,0.0036921873688697,0.0060129575431346,-0.9529452323913574,0.3030602633953094,-0.0222710103641125,0.0397079181249766,0.0822810219363272,0.0899109840393066,-0.2544894218444824,-0.0844154357910156,327,22,19876,12950
14.9,1788263961218,5.183098793029785,5.042253494262695,0.0042919777333736,0.0059602041728794,-0.9651588201522828,0.2615615427494049,0.1699097829853334,0.0001053278011006,-3.421263555516435e-06,0.0001267284096684,0.0061665102839469,0.0715345218777656,0.0050272401422262,0.0063796136528253,-0.9516130089759828,0.3071916699409485,-0.0001130847779018,0.0332749764918026,0.0634604279460594,-0.0624666810035705,-0.0412811040878295,0.2648096084594726,374,26,20882,12876
15.0,1788263961318,4.985915660858154,5.070422649383545,0.0053671789355576,0.0060011120513081,-0.964184045791626,0.2651117146015167,0.1718516952619748,0.0003201708431965,-1.7185155633745843e-05,0.0098287556320428,0.0054231500253081,0.0815498009324073,0.0049244966357946,0.0064246272668242,-0.9504469633102416,0.3107815384864807,-0.0050614700419954,-0.0020179707374724,0.1031605138464063,0.0657186508178711,0.2655606269836426,-0.0645580291748046,354,19,20244,12714
15.1,1788263961418,4.873239517211914,5.211267471313477,0.005155948922038,0.0061460477299988,-0.962907612323761,0.2697118520736694,0.1656052580608276,0.0032122217798585,-1.2697071984732952e-05,-0.001343848532997,-0.0012407003669068,0.0848592892289161,0.0043985350057482,0.0062570441514253,-0.9490793347358704,0.3149444758892059,-0.006558278250956,-0.0287716269245643,0.1163067652350685,-0.2237464189529419,-0.1954349279403686,0.039957046508789,325,17,19966,12932
15.2,1788263961518,5.042253494262695,5.098591327667236,0.003663329873234,0.0057203508913517,-0.9605114459991456,0.2781574428081512,0.176576782969842,0.0011187808208097,0.0001202899677329,0.0009483236935921,-0.0402722172439098,0.1154693439602851,0.0032809050753712,0.0058745723217725,-0.9468901753425598,0.3214866518974304,-0.0078586908151476,-0.0276478676182652,0.0802968219867673,-0.3482447862625122,0.1166882514953613,-0.0287418365478515,357,19,20610,12515
15.3,1788263961618,5.126760482788086,5.070422649383545,0.0032612015493214,0.0054661026224493,-0.9600408673286438,0.2797874808311462,0.1735513746253441,0.0036769744775041,2.8080235702247903e-05,0.0061923586763441,-0.0232579633593559,0.0848667547106742,0.0026052575558423,0.0055005168542265,-0.9458367228507996,0.3245858252048492,-0.0044108367630662,-0.0101015503907461,0.0531865291727943,0.4495540261268616,-0.445956826210022,-0.1286306381225586,345,25,20778,13001
15.4,1788263961718,5.211267471313477,4.816901206970215,0.0027927947230637,0.0054553495720028,-0.9592228531837464,0.2825844585895538,0.1795247123131037,-3.2418246373866594e-05,3.040660740978541e-05,-0.0046071405522525,-0.0050066472031176,0.0561476238071918,0.0023746723309159,0.0055061373859643,-0.9452974200248718,0.326154500246048,-0.0035720154586359,-0.0124950661486034,0.0111690331341716,0.016213834285736,0.0936372280120849,0.4761228561401367,338,17,20745,11760
15.5,1788263961818,5.183098793029785,4.929577350616455,0.0022226478904485,0.0053633777424693,-0.9589752554893494,0.2834303379058838,0.1653155073257301,0.0027844903802691,-2.0008307648828396e-07,0.0,0.0,0.0,0.0016381917521357,0.0053741941228508,-0.945085108280182,0.3267761468887329,-0.0019511661298912,-0.006248912677994,0.0215989421484813,-0.12587571144104,-0.0581993460655212,-0.1244010925292968,376,17,21917,12192
15.6,1788263961918,5.323943614959717,4.788732528686523,0.0010451279813423,0.0045647476799786,-0.9585927724838256,0.2847419083118438,0.1666391781973067,0.0015488464259994,4.6716742541634616e-05,0.0115014342591166,-0.0130493296310305,0.0206664390861988,0.0008312100544571,0.0045814309269189,-0.9447949528694152,0.3276291489601135,0.0102394299143873,0.0023553224914596,0.020797729244515,-0.0777254104614257,-0.2255405783653259,0.0614795684814453,345,18,21222,12001
15.7,1788263962018,5.295774459838867,4.901408672332764,0.0010451279813423,0.0045647476799786,-0.9585927724838256,0.2847419083118438,0.1739122107009638,0.0016295045828989,-4.099680089039969e-07,0.0,0.0,0.0,0.0004055807366967,0.0046703964471817,-0.9445728063583374,0.3282686471939087,0.0028126737021984,-0.0174936974611608,0.0245239208045818,0.0630422830581665,0.191382348537445,0.1966619491577148,358,17,21493,12132
15.8,1788263962118,5.070422649383545,5.070422649383545,0.0003351443447172,0.0044158361852169,-0.9577874541282654,0.2874431610107422,0.1654423685831998,0.0047265237983085,9.187425451333011e-06,-0.0013445203658193,-0.0022226101718842,0.0499985516071319,9.355414658784866e-05,0.0044929776340723,-0.9436507821083068,0.3309125602245331,-0.0120955890739447,0.0010506115035999,0.069280390261966,0.0454068779945373,0.2684500217437744,-0.1768388748168945,316,37,21343,13063
15.9,1788263962218,4.985915660858154,4.985915660858154,0.0002873430494219,0.0043362886644899,-0.9568817615509032,0.2904451489448547,0.1715139367761887,-2.484637558957298e-05,9.974031540020876e-06,0.0045774383470416,-0.0130833629518747,0.0588143654167652,8.041225373744965e-05,0.0043358374387025,-0.942831814289093,0.333240658044815,0.0063610033812608,-0.0194475817981251,0.0408274282214535,0.0116111636161804,-0.0818087458610534,-0.464029312133789,354,16,21074,12658
16.0,1788263962318,5.154929637908936,4.788732528686523,0.0002680975012481,0.0043709487654268,-0.9564805626869202,0.2917631864547729,0.1745786687635195,0.0007588909852202,4.146777949688874e-07,0.0,1.1654518461412522e-09,0.0,-6.623193621635437e-05,0.0043605212122201,-0.9422260522842408,0.3349494040012359,0.0027203862374357,-0.0091077300971898,0.0155621478968131,0.1174762248992919,0.0591773986816406,-0.1630172729492187,332,16,21403,12158
16.1,1788263962418,5.323943614959717,4.985915660858154,-0.000166410813108,0.004313210491091,-0.9563385844230652,0.2922292351722717,0.1700155496037685,-2.0407725032716e-05,0.0001064707597106,-0.0036141781602054,-0.0217192191630601,0.0242617335170507,-0.0002981051802635,0.0043708942830562,-0.9419429898262024,0.335744172334671,0.0084632971895285,-0.0050237566073448,0.0196516135456182,0.4181889295578003,-0.0189604759216308,-0.1119852066040039,387,15,22019,11843
16.2,1788263962518,5.239436626434326,5.098591327667236,7.490906864404678e-05,0.004441849887371,-0.9558551907539368,0.2938043177127838,0.172238517736566,0.0015912173383467,-3.037740398249459e-05,0.0019354437245056,0.0035528142470866,0.0322597920894622,-4.5622698962688446e-05,0.0044537680223584,-0.9415685534477234,0.3367921710014343,-0.0068104853080001,0.0031414684343806,0.0407091559319845,-0.4532015919685364,0.0598456859588623,-0.0356044769287109,279,24,20086,12621
16.3,1788263962618,5.239436626434326,4.873239517211914,-0.0001722623128443,0.0044191032648086,-0.9549700021743774,0.2966694235801697,0.1655017742913645,0.0045524664077888,-7.8166256046979e-07,0.0012032678350806,0.0013719639973714,0.0621074810624122,-0.0004768632352352,0.0044316826388239,-0.9402906894683838,0.3403435349464416,-0.0055933783939925,-0.0122642649873455,0.0346052022567368,-0.2184095382690429,-0.2574370503425598,0.2312355041503906,369,20,21935,12438
16.4,1788263962718,4.985915660858154,4.873239517211914,-0.000586278096307,0.0043399352580308,-0.954120397567749,0.2993910908699035,0.1708078455210021,-0.0012924049546723,8.228897563497084e-05,0.001380207715556,-0.0138403614982962,0.0613519325852394,-0.0006842827424407,0.0043019633740186,-0.9395623207092284,0.3423504531383514,0.0078836740186093,0.0137111327956008,0.0552239486299962,0.2112449407577514,0.0818397402763366,-0.0979671478271484,294,16,20598,12206
16.5,1788263962818,5.295774459838867,4.901408672332764,-0.0005209546070545,0.0042291050776839,-0.9537837505340576,0.3004637956619262,0.174678920925472,0.0005793383337068,-5.06195313618881e-06,0.0062316916882991,0.0012162001803517,0.0562989152967929,-0.0011837892234325,0.0039224913343787,-0.9389656782150269,0.3439863622188568,0.0001530408009742,-0.0325738766917998,0.0118787180758812,-0.1288276314735412,0.0528588891029357,-0.2746047973632812,369,18,22507,11873
16.6,1788263962918,5.267605781555176,5.098591327667236,-0.0010924782836809,0.0038280030712485,-0.9533180594444276,0.3019417226314544,0.1773286393407493,0.0007789150593319,9.20120560456522e-05,0.005864683073014,-0.0181015990674495,0.0264716148376464,-0.0010016784071922,0.0040002139285206,-0.9383381605148317,0.3456942439079284,-0.0034208520751856,0.0163481690835837,0.0601235308524438,0.0369734764099121,0.0014746189117431,0.1714420318603515,315,16,20838,12655
16.7,1788263963018,5.267605781555176,4.816901206970215,-0.0016946947434917,0.0037158799823373,-0.9523171782493592,0.3050825297832489,0.1772760484086755,-0.0001063074409121,3.0069117133692265e-05,0.0008183444151654,-0.0163909792900085,0.025767657905817,-0.001858614385128,0.0036088591441512,-0.9375947713851928,0.3477062284946441,-0.0011148547532479,-0.0100869612561523,0.0139103380278142,0.0423441529273986,-0.0328993797302246,0.065159797668457,365,18,21469,11940
16.8,1788263963118,5.014084339141846,5.098591327667236,-0.0016367874341085,0.0034811862278729,-0.952043116092682,0.3059397637844085,0.1763266155043086,0.0015864543322239,9.797301376899947e-06,0.0026857850607484,-0.0024315994232892,0.0184814520180225,-0.0017917891964316,0.0034040017053484,-0.937310755252838,0.3484735190868377,0.0012673924325486,-0.0011160390699977,0.0115987114664014,0.0010151267051696,0.1896717548370361,0.3034734725952148,334,22,20588,12751
16.9,1788263963218,5.239436626434326,4.816901206970215,-0.0017358304467052,0.0033319336362183,-0.9518598914146424,0.3065104782581329,0.1693711300026596,0.0038439091136765,1.3125601670452452e-05,0.0056187319569289,-0.0071301674470305,0.0300169270485639,-0.0013628024607896,0.0031569637358188,-0.936771273612976,0.3499253392219543,-0.0021987214253465,0.0042360395865814,0.021696907359088,-0.0285942554473876,0.003664493560791,-0.0536975860595703,384,19,21288,12197
17.0,1788263963318,5.211267471313477,4.901408672332764,-0.0018233440350741,0.0030976526904851,-0.9511783719062804,0.3086208701133728,0.1704495719515279,0.0031051679882144,5.002136400587967e-05,0.0064095011912286,-0.0099344877526164,0.0509610921144485,-0.0017130393534898,0.0030940053984522,-0.9361359477043152,0.3516207337379455,0.0062706252851401,0.0201636473852135,0.0578713677507689,0.0126606225967407,-0.1478201746940612,-0.0114345550537109,373,16,21125,12169
17.1,1788263963418,4.169013977050781,4.591549396514893,-0.0015265712281689,0.0030095954425632,-0.9505457282066344,0.3105663955211639,0.1735983902620319,-0.0004585631080647,4.066970415969633e-05,0.0065858270972967,-0.0133703695610165,0.0430267713963985,-0.0016604624688625,0.0029378477483987,-0.9356065392494202,0.3530282378196716,0.0009079194040285,-0.0092566081017092,0.0328301087360981,-0.330992043018341,0.1024911403656005,-0.2567129135131836,282,22,17826,10447
17.2,1788263963518,2.0,3.1549296379089355,0.0010433157440274,0.0033942922018468,-0.9492153525352478,0.31460702419281,0.1141970162099959,0.0014429608804312,-2.103081693495104e-06,0.0066920057870447,0.0029430617578327,0.1068223863840103,0.0008070124313235,0.0034571038559079,-0.9343137741088868,0.3564338982105255,0.008239996171032,-0.0082887933341561,0.0961197942748338,-1.00008225440979,0.1996808648109436,-0.6104593276977539,46,31,7724,7170
17.3,1788263963618,0.0,2.169013977050781,0.0012554209679365,0.0033736394252628,-0.9477890729904176,0.3188775479793548,0.0754594496715347,-8.402780328804565e-05,-5.739572338489576e-06,0.0038514879997819,0.0090905660763382,0.2251349687576294,0.0014995876699686,0.003521217033267,-0.9277193546295166,0.3732588291168213,0.0082885383390874,0.0046744406308024,0.4101003721283462,0.2086198329925537,-0.2436413764953613,-0.0388498306274414,3,20,-1767,6367
17.4,1788263963718,-1.6901408433914185,1.7183098793029783,0.0020370539277791,0.0035246161278337,-0.9380213618278505,0.3465537130832672,-0.0016384012968537,0.0039648536097856,7.237194214048684e-07,0.0017108328174799,-0.0002919718972407,0.4288350641727447,0.0018267780542373,0.0035730600357055,-0.9214779734611512,0.3884100317955017,0.0031374273806387,-0.0132370016572495,0.426798249815196,-0.4029847383499145,0.300642192363739,0.1176424026489257,115,77,-7828,6350
17.5,1788263963818,-1.6619718074798584,1.6338027715682983,0.0019674398936331,0.0036052786745131,-0.9289401769638062,0.3702070713043213,-0.0039000846632508,-0.0056783359617123,6.582802285995839e-07,-0.0023729221429675,-0.0003688925353344,0.5312690734863281,0.0017751920968294,0.003781153820455,-0.9093137383461,0.4160902202129364,-0.0087794789141139,-0.0006635269168599,0.5033780678061743,0.1630024313926696,-0.1805359721183776,0.1606998443603515,103,57,-6741,5504
17.6,1788263963918,-1.4647886753082275,1.5211267471313477,0.001726784161292,0.003781815059483,-0.9202281832695008,0.3913602530956268,-0.0006759466419919,-0.0019955418928511,-1.131460425984514e-06,-0.0035736784338951,-0.0079251928254961,0.4524979591369629,0.0015387861058115,0.0039119273424148,-0.9006956815719604,0.4344303905963897,-0.0099200461672248,-0.0034921951101369,0.4545277563064442,0.0088589787483215,0.1266694068908691,0.0739412307739257,132,80,-7278,6161
17.7,1788263964018,-1.4647886753082275,1.6338027715682983,0.0016768666682764,0.0039477748796343,-0.9165617823600768,0.3998701572418213,0.000881727112451,0.0029381190148238,-4.778153535600214e-07,-0.0100485868752002,-0.0003421225992497,0.4636293053627014,0.0014992095530033,0.0041112853214144,-0.8913633823394775,0.4532684981822967,-0.003757507060101,-0.005325568988259,0.4618538522076987,-0.034108817577362,0.1504061818122863,0.1259403228759765,99,60,-7263,5700
17.8,1788263964118,-1.4929577112197876,1.5492957830429075,0.0014886725693941,0.0040759714320302,-0.9066235423088074,0.4219181537628174,0.0025426182949245,-0.0036542784823236,1.6080192861537038e-06,-0.0063322675414383,-0.0091960960999131,0.4774776399135589,0.0010520759969949,0.0041336854919791,-0.8813782930374146,0.4723919630050659,-0.0063103170664109,-0.0143779162247223,0.4873126095933494,-0.0202272534370422,0.0552533864974975,0.0588884353637695,65,72,-7151,5960
17.9,1788263964218,-1.1267606019973757,1.2394366264343262,0.0006896442500874,0.0041447402909398,-0.8912845253944397,0.4534250497817993,0.0065722266150596,-0.000808973777153,5.800061981942983e-07,-0.0048602004535496,-0.0060660545714199,0.3538169264793396,0.0004895841702818,0.0041806967929005,-0.8694218993186951,0.4940524697303772,-0.0053939177719189,-0.00233004763936,0.3364494062498175,-0.0563727021217346,-0.1030987501144409,0.0216321945190429,62,71,-5755,4292
18.0,1788263964318,-1.0985915660858154,1.183098554611206,0.0006565299117937,0.0041926321573555,-0.8881765007972717,0.459482878446579,0.0009146286927774,-2.437260480051334e-06,-5.295880113162529e-07,-0.0031828563660383,-0.0013097418705001,0.2898602783679962,0.0004689898341894,0.0042839413508772,-0.8623127937316895,0.5063576698303223,-0.0045675862699875,-1.5207355239398277e-07,0.3568757830887334,-0.1927009224891662,-0.0044385194778442,-0.0377531051635742,127,45,-6892,5023
18.1,1788263964418,-1.0704225301742554,1.2676056623458862,0.0006298678927123,0.00432457216084,-0.8805091381072998,0.4740089774131775,0.0036691972671622,0.0026126455526016,5.91984864959557e-08,-0.004453582689166,-0.0011502375127747,0.3760711550712585,0.000381976366043,0.0043850326910614,-0.8539288640022278,0.5203711986541748,-0.002889611325018,-0.0039625901063651,0.3447181043496112,-0.0843164324760437,-0.0243124365806579,-0.0282707214355468,129,74,-6227,5236
18.2,1788263964518,-0.98591548204422,1.154929518699646,0.0003901023883372,0.0044744787737727,-0.8670836687088013,0.498142272233963,0.0023064687677895,-4.786172370313955e-05,-1.451747759131739e-07,-0.0050522265955805,-0.004736952483654,0.3335214257240295,0.0001548631116747,0.0044758478179574,-0.8430783152580261,0.5377721190452576,-0.0033454805141759,-0.0053165939073661,0.3317238494059051,-0.0539653301239013,-0.0168055295944213,0.072549819946289,151,103,-6633,5151
18.3,1788263964618,0.0,0.9577465057373048,0.0001091309823095,0.0045757517218589,-0.8604701161384583,0.5094804763793945,0.0041400494119423,-0.0016213177216976,4.804843667619809e-07,-0.0053641824051737,-0.0053616221994161,0.1992487758398056,-8.65710899233818e-05,0.004594094119966,-0.8368186950683594,0.5474608540534973,-0.0050377734706038,-0.0070239683614272,0.1679464671021914,0.1120708584785461,0.0689902305603027,-0.0713443756103515,303,123,-7484,4320
18.4,1788263964718,0.0,0.0,3.68594191968441e-06,0.0045728273689746,-0.8569722175598145,0.5153421759605408,0.0069059512490759,-0.0035386261363244,2.1536859697937678e-06,0.0013957320479676,-0.0044842395000159,0.1189057603478431,-0.0002253605052828,0.0045776301994919,-0.8329193592071533,0.5533754825592041,0.0005796282839964,-0.0028186815172482,0.1459589527498325,0.2853910326957702,-0.4590991139411926,0.0588665008544921,159,258,6088,7762
18.5,1788263964818,2.05633807182312,3.126760482788086,1.9159168004989624e-05,0.0044949105940759,-0.8573110699653625,0.5147790312767029,0.0108655690751703,-0.002074939099647,-3.096017104374184e-07,0.0036184622440487,-0.0011533708311617,-0.0311665348708629,-0.0003620721399784,0.0041932538151741,-0.8305408954620361,0.5569418668746948,0.0056476692692302,-0.0174669494937899,0.2032628360398633,1.0895460844039917,-0.1207841038703918,0.0283164978027343,171,202,10551,13459
18.6,1788263964918,4.704225540161133,6.084506988525391,0.0001432135468348,0.0043561812490224,-0.850893497467041,0.5253201127052307,0.17083534219317,-0.0017684606948678,-2.439196826962143e-05,-0.0075362497009336,0.0186614822596311,0.200088694691658,-0.0001231608912348,0.0042771073058247,-0.8257921934127808,0.5639582872390747,-0.0030789385607771,0.0102824429310093,0.1974851934306012,0.9977099895477296,-0.2366145253181457,-0.8388071060180664,156,153,14898,17617
18.7,1788263965018,4.732394218444824,5.7183098793029785,0.0009236800251528,0.0039474130608141,-0.8443798422813416,0.5357295274734497,0.1838868792510891,0.0017984870575761,-2.1686455968372463e-05,0.0079754907637834,0.0129146864637732,0.2230955511331558,0.0006472589448094,0.0037124147638678,-0.818316638469696,0.5747553110122681,0.0144070645456272,-0.0152959064668803,0.21051909968605,-0.3107277750968933,0.0540158748626709,0.1721248626708984,76,58,13844,15215
18.8,1788263965118,4.422535419464111,5.549295902252197,0.0006862293230369,0.003372180275619,-0.8399361371994019,0.5426743030548096,0.1770398836779353,0.0031366568016558,2.7926660014940444e-05,0.0038291253149509,-0.0036554899998009,0.1381475627422332,0.0004559559747576,0.0032568825408816,-0.814224362373352,0.5805409550666809,0.0072280370185396,-0.0019190110559516,0.1304577226284606,-0.1180819272994995,-0.1422611474990844,-0.0220870971679687,80,58,13810,15378
18.9,1788263965218,4.478873252868652,5.549295902252197,6.189767736941576e-05,0.0025615519843995,-0.8381004333496094,0.5455099940299988,0.1781076655667049,0.000226230158596,0.0001266843890261,0.0159489028155803,-0.0464528240263462,0.1612630486488342,-0.0004069460555911,0.002189690247178,-0.8103249073028564,0.5859767198562622,0.0086867159246977,-0.0148854297842708,0.1333370640180445,0.0827696919441223,0.2579850554466247,0.2514486312866211,83,66,13675,15044
19.0,1788263965318,4.084506988525391,5.802816867828369,-0.0034634894691407,-0.0003027224447578,-0.8283931612968445,0.5601363182067871,0.169080300009051,0.0168649436961021,0.0002085493735515,0.0075891315937042,-0.1738567799329757,0.3801526427268982,-0.0054268110543489,-0.0024436805397272,-0.7998908758163452,0.600115954875946,0.0271590055206208,-0.1834397778792062,0.2689714891924437,-0.0750081539154052,-0.362809419631958,-0.0343942642211914,298,16,18315,13896
19.1,1788263965418,4.647887229919434,5.464788913726807,-0.0080295642837882,-0.0031786607578396,-0.8232678174972534,0.5675874948501587,0.1699749186747541,0.0078119189252288,0.0001810218744353,-0.0210033077746629,-0.0338290967047214,0.0979347079992294,-0.0077350512146949,-0.0033552078530192,-0.7962644100189209,0.604889988899231,-0.0077855030485165,0.0168540074268028,0.1322095599427108,0.6515176892280579,0.0238283276557922,-0.1773490905761718,263,68,18049,15598
19.2,1788263965518,4.619718074798584,5.577464580535889,-0.004187183920294,-0.0006983689963817,-0.8189597725868225,0.5738352537155151,0.1652829531657369,0.0043052890132536,-0.0003558732639727,0.0068222866393625,0.1404695212841034,0.1955511569976806,-0.0034717191010713,-0.0002769045531749,-0.7917569279670715,0.6108264327049255,-0.0073610666227946,0.1571901101723595,0.1680042684552133,-0.3335587382316589,0.3645307421684265,0.1156263351440429,249,66,18012,14934
19.3,1788263965618,4.535211086273193,5.492957592010498,-0.0020667091012001,0.0011933430796489,-0.8161553740501404,0.5778276920318604,0.1712956086343234,0.0070077799810022,-0.0004148499112844,-0.0144961336627602,0.1299728751182556,0.2257114201784134,-0.0023299194872379,0.0013979291543364,-0.7853648066520691,0.619027316570282,-0.0165049880275194,0.0249598824565437,0.2258660281731433,-0.4567003846168518,-0.0515268445014953,1.2862367630004885,278,24,17436,14686
19.4,1788263965718,4.619718074798584,5.549295902252197,-0.0025893133133649,0.0017134153749793,-0.8064867258071899,0.591244101524353,0.1692056233710061,-0.0008809138828312,-5.2788619874478966e-05,-0.0066241296008229,0.0150116849690675,0.2247686386108398,-0.0025401692837476,0.0016239453107118,-0.7792598009109497,0.626693844795227,-0.0038918556155305,0.0249290524165585,0.2368862455337021,0.4249480962753296,-0.1556386947631836,0.1250076293945312,277,58,18451,14947
19.5,1788263965818,4.394366264343262,5.577464580535889,-0.0030201140325516,0.0027172851841896,-0.8000963926315308,0.5998578667640686,0.1626750346052641,0.011993976307467,2.8792330266089384e-06,-0.017476363107562,0.0103760296478867,0.198406383395195,-0.0030822791159152,0.002672966569662,-0.7718040943145752,0.6358473300933838,-0.0117876709406045,0.0306560418345376,0.2170819129788361,-0.0131899118423461,-0.194244384765625,0.4328260421752929,263,66,18439,15057
19.6,1788263965918,4.3380279541015625,5.577464580535889,-0.0037651378661394,0.0026196832768619,-0.7939404249191284,0.6079782843589783,0.1711266293565096,0.0088474409864716,3.8014965875483285e-05,-0.0048572118394076,-0.0169481076300144,0.2091706991195678,-0.0038792137056589,0.0024475930258631,-0.7657761573791504,0.6430909633636475,-0.0050161157553191,-0.0189129227679225,0.2153367757897491,0.2200199365615844,0.1591572165489196,-0.0696887969970703,294,50,18212,14603
19.7,1788263966018,4.535211086273193,5.492957592010498,-0.0036768354475498,0.002674379851669,-0.7910945415496826,0.6116769313812256,0.1722173944780539,0.0033772168061186,-1.0604325096512224e-05,0.0007783882319927,0.003859519958496,0.2171384394168853,-0.0035676788538694,0.0029761232435703,-0.7579523324966431,0.6522933840751648,-0.0104899781992775,0.0428639144897909,0.2222006349735151,0.0577827095985412,-0.263177216053009,0.3034648895263672,303,46,18396,14636
19.8,1788263966118,4.704225540161133,5.154929637908936,-0.0035475506447255,0.0032252005767077,-0.7830989360809326,0.6218786239624023,0.1748692013040104,0.0038513929804539,4.645872827481885e-06,-0.0101454630494117,-0.0060745943337678,0.1195751503109932,-0.0038226777687668,0.0030158553272485,-0.7539118528366089,0.6569575071334839,-0.004311742804482,-0.0190942853348421,0.0748296915277753,0.0147517323493957,0.2035380005836486,0.1412944793701172,331,59,19579,13953
19.9,1788263966218,5.126760482788086,5.126760482788086,-0.0035833213478326,0.0034078431781381,-0.7804927825927734,0.6251451969146729,0.1707478900345811,0.0037410722177752,1.7934534464002116e-05,-0.002101250225678,-0.0023842675145715,0.0819846838712692,-0.0037615718320012,0.003213838674128,-0.7515912055969238,0.6596107482910156,-0.0065255143292964,-0.0064615528992216,0.0836900679912462,0.1622313261032104,-0.1908544301986694,-0.1641979217529297,301,24,20496,12724
20.0,1788263966318,5.323943614959717,5.098591327667236,-0.0033955187536776,0.0039118290878832,-0.7792799472808838,0.6266546249389648,0.170124602114043,0.0043083214134565,-1.830887192264462e-05,-0.0020657854620367,-0.0002755705208983,0.0446667969226837,-0.0036887796595692,0.0039221998304128,-0.7500830292701721,0.6613216996192932,-0.015243536392393,-0.0122782400155614,0.0341442025569908,-0.1614667177200317,0.066739797592163,-0.4499244689941406,301,58,19848,13245
20.1,1788263966418,5.098591327667236,4.929577350616455,-0.0035286925267428,0.0040640295483171,-0.7788820862770081,0.6271473169326782,0.1641548457373766,0.0062385635157087,-6.908367601364088e-07,-0.0091841258108615,-0.000531219120603,0.0288001932203769,-0.0039304178208112,0.0038651777431368,-0.748204231262207,0.6634457111358643,-0.0003918352945813,0.0160976275348744,0.0780522571318859,0.1643844842910766,-0.0114374160766601,0.2645645141601562,308,47,20201,13647
20.2,1788263966518,5.070422649383545,4.985915660858154,-0.0034725337754935,0.0039986949414014,-0.7753868103027344,0.631464421749115,0.1740398874121533,0.0021592061531112,-3.612740730523163e-05,0.0139465071260929,-0.0022613233886659,0.0797981619834899,-0.0036568166688084,0.0037718443199992,-0.746060848236084,0.6658570766448975,0.0168940204951293,-0.0223049623636782,0.0713462816126319,-0.1830252408981323,0.0856712460517883,0.3152427673339844,307,18,19903,12664
20.3,1788263966618,5.070422649383545,5.098591327667236,-0.0034609250724315,0.0043178596533834,-0.7749732732772827,0.6319698095321655,0.1693328891874853,0.0034564935758223,1.5395689625571985e-06,0.0,9.322775440523401e-09,0.0,-0.0032803751528263,0.0043471930548548,-0.7454529404640198,0.6665360331535339,0.0014307336586009,0.0223616677398429,0.0068291600758678,-0.2073444724082946,0.4954141974449157,0.2694387435913086,357,50,20923,13637
20.4,1788263966718,5.042253494262695,4.957746505737305,-0.0033585745841264,0.0043501369655132,-0.7736930251121521,0.6335368156433105,0.1758100691143326,0.0023937665763716,2.6082595694663063e-05,-0.0105773378163576,-0.0135097987949848,0.0300458222627639,-0.0034432290121912,0.0043338593095541,-0.7441807985305786,0.6679553389549255,-0.0113049044105034,0.0037580147749513,0.044730873067474,-0.081304132938385,-0.2250961661338806,-0.1839332580566406,307,28,19631,12414
20.5,1788263966818,5.098591327667236,4.957746505737305,-0.0030880442354828,0.0045196102000772,-0.7727751135826111,0.6346563696861267,0.1700010581897782,-0.0015021725547202,5.0966052547716815e-05,0.0065580583177506,-0.0123483166098594,0.0350297912955284,-0.0035611363127827,0.0042533529922366,-0.7434787154197693,0.6687366366386414,-0.0039390254008746,-0.0233846529819789,0.0060791037445761,0.1105449199676513,0.463091492652893,0.3375892639160156,329,75,20735,13755
20.6,1788263966918,4.957746505737305,4.901408672332764,-0.0041242190636694,0.0040018931031227,-0.7713143229484558,0.6364285349845886,0.1669552270728569,0.004862705863143,8.907009894407885e-08,-0.0042015500366687,-0.0039420956745743,0.0473624169826507,-0.0042616678401827,0.0037876414135098,-0.7414767742156982,0.6709544062614441,0.0071347929143732,0.0057023774311726,0.0473691542121105,0.2913812398910522,0.2596201300621032,0.1473627090454101,358,30,20868,13527
20.7,1788263967018,4.957746505737305,5.070422649383545,-0.0042679514735937,0.0039850356988608,-0.7697389721870422,0.6383320689201355,0.1750582832329394,0.0008228806739589,5.560239099843037e-06,-0.0059822425246238,0.0047298767603933,0.0540322065353393,-0.0044275866821408,0.0038329400122165,-0.7400941848754883,0.6724778413772583,-0.0072182828147164,0.0167668239935624,0.0627109740652649,-0.2405847907066345,-0.1231221556663513,-0.2738304138183594,339,37,19659,12936
20.8,1788263967118,5.042253494262695,5.042253494262695,-0.0028964513912796,0.0051472140476107,-0.7668871283531189,0.6417547464370728,0.1666017742328535,0.0050070412401236,-0.0001086355942054,-0.0012328869197517,0.0327928774058818,0.0863887593150138,-0.0031079277396202,0.0050330599769949,-0.7373456954956055,0.6754897832870483,0.000664686131478,0.0376069982699059,0.0843779218476898,0.2089472413063049,0.0415643453598022,0.00262451171875,300,21,20214,12831
20.9,1788263967218,5.126760482788086,4.873239517211914,-0.0031862452160567,0.0050837891176342,-0.7655506134033203,0.6433477401733398,0.1737308235139117,0.0011534602369914,2.1579181403109584e-06,-0.001542235026136,-0.0054976032115519,0.0448898263275623,-0.0034324871376156,0.0048572048544883,-0.7355358004570007,0.6774597764015198,0.0016858924957388,-0.0030106421566525,0.0245282953147108,0.103851318359375,-0.0843622088432312,0.0831613540649414,366,25,21469,12514
21.0,1788263967318,5.183098793029785,5.014084339141846,-0.0033045057207345,0.0049802279099822,-0.7651640772819519,0.643807590007782,0.1701366297009333,0.0001750812057133,3.2448404595194314e-05,0.0001083831593859,-0.0064550112001597,0.0240872241556644,-0.003269069828093,0.004828262142837,-0.7348198294639587,0.6782373785972595,0.0087620396901414,0.0129629817295063,0.0381151011684334,0.1782164573669433,-0.0916492938995361,-0.1637182235717773,322,21,20314,13000
21.1,1788263967418,5.014084339141846,5.126760482788086,-0.0031102143693715,0.0051420899108052,-0.7626644968986511,0.6467663645744324,0.1670391406631149,-0.0002794935809371,-4.493453732383697e-06,-0.0049795764498412,0.008389794267714,0.0869635194540023,-0.0033924225717782,0.0050191786140203,-0.7328941822052002,0.6803157329559326,-0.0105065934708052,0.0135968392422607,0.0640507220675976,-0.1013057827949523,0.0207452774047851,-0.1554603576660156,357,24,20501,13027
21.2,1788263967518,5.436619758605957,4.873239517211914,-0.0029907138086855,0.0052468124777078,-0.7614259123802185,0.6482238173484802,0.1647622113105456,0.0017797794194261,5.798735435591283e-07,0.0,-9.310563875430944e-09,0.0,-0.0035171965137124,0.0048008533194661,-0.7311475276947021,0.6821935176849365,-0.0033863157461562,-0.0195019938246226,0.0012112272790857,-0.188972532749176,-0.0657531023025512,0.0321626663208007,365,27,21472,12455
21.3,1788263967618,5.070422649383545,5.014084339141846,-0.0031186395790427,0.0050053773447871,-0.7610790729522705,0.6486324071884155,0.1690678379882555,-8.75093715581362e-05,2.2714684795527785e-05,0.0050176386721432,-0.0128596844151616,0.0267373844981193,-0.003096554428339,0.0047825267538428,-0.7305659055709839,0.6828185319900513,0.0075098903110578,-0.0058189806892834,0.025452795104661,0.0468631982803344,0.2389929890632629,0.1363401412963867,346,29,20370,12852
21.4,1788263967718,5.070422649383545,5.070422649383545,-0.0026635280810296,0.0048675965517759,-0.758834719657898,0.6512596607208252,0.1704026623580828,0.0025845828564479,-3.259007020904164e-05,-0.0001011390268104,0.0121671641245484,0.0753646343946456,-0.0028691291809082,0.004794112406671,-0.728496253490448,0.6850270628929138,-0.0061971822314835,0.0098253165407725,0.0778353355205757,-0.1796585917472839,-0.3565611839294433,0.3536691665649414,342,20,20189,12561
21.5,1788263967818,5.211267471313477,4.788732528686523,-0.0033157810103148,0.0037659942172467,-0.7566258311271667,0.6538288593292236,0.1666590158639884,0.0008474923698501,2.8064806444801465e-05,0.0071788066998124,-0.0176437310874462,0.0345322601497173,-0.0039480365812778,0.0032622590661048,-0.7261845469474792,0.6874807476997375,-0.0043888666513583,-0.038799138457486,0.0240862341042894,0.2831525206565857,-0.3605626225471496,-0.1322336196899414,416,34,21677,12718
21.6,1788263967918,5.323943614959717,5.014084339141846,-0.0050190892070531,0.0021670192945748,-0.756015956401825,0.6545303463935852,0.1615197143297464,0.0012437324054782,0.0001943037056442,0.0056544486433267,-0.0466178730130195,0.0204726755619049,-0.0051549160853028,0.0018459847196936,-0.7256920337677002,0.6879979372024536,0.0080124126539831,-0.0116869898006528,0.027060771531449,0.046401560306549,0.2134749293327331,0.4813671112060547,388,21,21241,12057
21.7,1788263968018,5.295774459838867,4.929577350616455,-0.0049847955815494,0.0023947320878505,-0.7555496692657471,0.655068039894104,0.170723992383684,0.0014044815417968,1.6432338681189598e-05,-0.0061624376103281,0.0071385432966053,0.0296797975897789,-0.0043115010485053,0.0031215073540806,-0.7246411442756653,0.6891058683395386,-0.0085500122264665,0.0501628356155459,0.0432838673762845,-0.0747036337852478,0.0368837118148803,0.2459545135498047,363,20,21945,12188
21.8,1788263968118,5.211267471313477,4.816901206970215,-0.0039069945923984,0.003435754450038,-0.7546807527542114,0.6560716032981873,0.1740010340943006,-0.0004439273091725,-2.6868147072300066e-05,0.0036905282177031,0.0130967097356915,0.017381727695465,-0.0039594564586877,0.0033946083858609,-0.7239246368408203,0.6898592710494995,0.0010371921963526,0.0183613765451012,0.0227267300228654,-0.0937427878379821,-0.0830671787261962,-0.4014043807983398,365,15,20939,12143
21.9,1788263968218,5.126760482788086,4.901408672332764,-0.0033804615959525,0.0036219179164618,-0.7533074617385864,0.6576499342918396,0.1657289842057322,-0.0005003488337428,-1.4315098091255636e-05,0.0066098123788833,0.0074403043836355,0.0332233272492885,-0.0035862866789102,0.0034986017271876,-0.7228370308876038,0.6910003423690796,-0.0010727825288984,0.0029209878816425,0.025377372570891,0.1243553161621093,0.1315324306488037,0.2569408416748047,354,23,21813,12233
22.0,1788263968318,5.492957592010498,4.535211086273193,-0.0034484232310205,0.0037566360551863,-0.7527627348899841,0.6582722067832947,0.1697111396868205,0.0021036143271112,-2.693578201866188e-05,-0.001298933639191,0.0050408579409122,0.0123270722106099,-0.0036628888919949,0.0036747679114341,-0.7220903635025024,0.691779375076294,-0.005824355732082,0.0010375397361124,0.0268726198472745,-0.0348390340805053,-0.2235498428344726,-0.0686683654785156,409,19,22214,10733
22.1,1788263968418,5.577464580535889,4.619718074798584,-0.003405803348869,0.0040868776850402,-0.7527701258659363,0.6582620739936829,0.1707210322533449,-0.003481314141409,-2.3873036723467295e-05,-0.0090157017111778,0.0102007873356342,-0.0004568603762891,-0.0036979243159294,0.0033980347216129,-0.7229259610176086,0.6909072995185852,0.0161915655142164,-0.0247016439415566,-0.0321602022044005,-0.0460597276687622,0.0535781979560852,-0.1224374771118164,394,18,23072,10624
22.2,1788263968518,5.267605781555176,4.816901206970215,-0.0037421784363687,0.0032391003333032,-0.7539951801300049,0.6568612456321716,0.1652619559776774,-0.0010031185810047,0.0001119617641402,0.0063163912855088,-0.0165305808186531,-0.0372184179723262,-0.0037159221246838,0.0029063243418931,-0.7238031625747681,0.6899904012680054,0.0045393164401526,0.0139909853271783,0.0104692261596226,0.0664367079734802,-0.0169943571090698,0.0142707824707031,335,17,21120,12331
22.3,1788263968618,5.436619758605957,4.619718074798584,-0.0031334233935922,0.0032978306990116,-0.7536165714263916,0.6572986245155334,0.1759920490492507,4.846086100292905e-05,-4.939315641734786e-06,0.007344719953835,0.0002778159687295,0.0264586359262466,-0.0033441046252846,0.003092267550528,-0.7232072353363037,0.6906160116195679,0.0013898638460599,-0.0083926835808823,0.0133259231552475,0.0243606567382812,-0.1845460534095764,0.2570552825927734,365,18,22664,10316
22.4,1788263968718,5.690140724182129,4.535211086273193,-0.0036614625714719,0.0029031776357442,-0.7551409602165222,0.6555458903312683,0.1694526744838677,-0.0009550887677579,2.611323252201673e-05,-0.0042254496365785,-0.0104217026382684,-0.0607265792787075,-0.0038134129717946,0.0027581257745623,-0.7246981859207153,0.6890503764152527,-0.0088228969575467,-0.012111887222471,-0.0576661338924808,0.0278522372245788,-0.1263536810874939,-0.1286048889160156,384,18,22461,10947
22.5,1788263968818,5.239436626434326,4.704225540161133,-0.0036645994987338,0.0025902492925524,-0.7560480237007141,0.6545007228851318,0.1659353225967268,-0.0007608932694367,9.334144420698928e-06,0.0113658793270587,-0.0098100053146481,-0.0675467029213905,-0.0039865421131253,0.0022995313629508,-0.7277022004127502,0.6858778595924377,-0.0035190082801781,-0.0134677207884152,-0.0579391855509347,-0.0927894115447998,-0.204580008983612,-0.0867013931274414,341,37,20958,12620
22.6,1788263968918,5.267605781555176,4.873239517211914,-0.0033312863670289,0.0028064169455319,-0.7580915689468384,0.652133584022522,0.1685864180927671,0.0017432227240384,3.9803947797946895e-05,0.0015304486732929,0.0124206067994236,-0.039913784712553,-0.0029077567160129,0.0033516995608806,-0.7280600666999817,0.6854989528656006,-0.0091609787638891,0.0409813456307132,-0.0023457222213819,0.1025943756103515,0.0589299798011779,-0.1952466964721679,346,30,20680,12725
22.7,1788263969018,5.042253494262695,5.098591327667236,-0.0023649476934224,0.0037178231868892,-0.7566715478897095,0.6537803411483765,0.1646798917668299,0.0041972684582146,3.2620306199645927e-06,0.0064286175183951,-0.0052513172850012,0.0797658860683441,-0.0025062123313546,0.0036401441320776,-0.7260722517967224,0.6876042485237122,0.0004011924954498,0.0037290127884379,0.0565470229883676,0.1254373788833618,0.2657588124275207,0.3415565490722656,320,24,19990,12957
22.8,1788263969118,5.549295902252197,4.563380241394043,-0.0027746916748583,0.0031244202982634,-0.7561601400375366,0.6543732285499573,0.1685780271463049,-0.0033412901154777,5.373032679916631e-07,0.0023135035298764,-0.0164351370185613,-0.0219742376357316,-0.0032022958621382,0.0029283370822668,-0.7261613607406616,0.6875106692314148,-0.0225213212722609,-0.0403229659899073,-0.0544363628336969,-0.1846673488616943,0.152654230594635,-0.0255985260009765,399,23,21791,10310
22.9,1788263969218,5.633802890777588,4.535211086273193,-0.0034975551534444,0.0029730540700256,-0.7569679617881775,0.6534357666969299,0.1631749617524252,0.0004178243949709,3.689309656051254e-05,-0.0174955204129219,-0.0312443114817142,-0.0604984611272811,-0.004637966863811,0.0019090557470917,-0.7280492186546326,0.6855065226554871,-0.0008539491502306,-0.0418524142946327,-0.0613264154126891,0.1041803956031799,-0.0075550079345703,-0.3228864669799804,413,16,23176,11568
23.0,1788263969318,5.549295902252197,4.422535419464111,-0.0047713108360767,0.0020618247799575,-0.7602366805076599,0.6496253609657288,0.169522218074018,0.0015604752741413,-9.55020792954264e-06,-0.0083426274359226,0.0143519761040806,-0.0757537111639976,-0.0046679247170686,0.0022546965628862,-0.7310381531715393,0.6823170185089111,-0.0112457372171546,0.0261870450937303,-0.0718435432938624,-0.0681297779083252,0.0844777822494506,0.6017417907714844,388,19,22488,11350
23.1,1788263969418,5.6619720458984375,4.507042407989502,-0.0045437333174049,0.0025480799376964,-0.7630627751350403,0.6463032960891724,0.1678921919288881,-0.0010099398127062,-2.5634299633921152e-05,-0.0010893518337979,0.0037003816105425,-0.1002207994461059,-0.0046391868963837,0.0023230984807014,-0.7335427403450012,0.6796236634254456,-0.0033373486854664,-0.0029389559638107,-0.0795751102722658,0.1102052330970764,-0.0956188440322876,-0.533660888671875,340,16,21925,11177
23.2,1788263969518,5.549295902252197,4.619718074798584,-0.0037889967206865,0.0031666459981352,-0.7654600143432617,0.6434645652770996,0.1719021594352943,0.0022737274401293,-7.387678990580696e-05,-0.0032047908753156,0.0306350588798522,-0.0689198225736618,-0.0039002578705549,0.0030157407745718,-0.73577481508255,0.677208423614502,-0.0025879096343188,0.0339364463732614,-0.0701171605582287,-0.1637318730354309,-0.1279693245887756,0.4935216903686523,357,16,22224,10913
23.3,1788263969618,5.577464580535889,4.450704097747803,-0.0034768276382237,0.0033373737242072,-0.7662579417228699,0.6425150036811829,0.1695788126127934,-0.0014837052509823,-3.457916106058074e-05,0.0034524996299296,0.0177257917821407,-0.06187704205513,-0.0036366507411003,0.0032315701246261,-0.7378777861595154,0.6749169230461121,-0.0032328254867418,0.0085476291603048,-0.0772866297880942,0.1196567416191101,0.1062866449356079,-0.1803417205810547,359,17,22229,11265
23.4,1788263969718,5.492957592010498,4.450704097747803,-0.0033589343074709,0.0036039121914654,-0.7698147892951965,0.6382483243942261,0.1611488692354624,-0.0051079155735884,1.0650324885994316e-05,-0.0056336866691708,-0.0016336455009877,-0.0624802373349666,-0.0034592421725392,0.003545306622982,-0.740608811378479,0.6719182133674622,-0.005177837514909,0.0178058465014717,-0.0781859165638486,0.0126099586486816,0.0575736165046691,0.1581192016601562,332,16,22240,10603
23.5,1788263969818,5.549295902252197,4.619718074798584,-0.0035926948767155,0.0032289228402078,-0.7717836499214172,0.6358669400215149,0.1738424949369593,0.0005286685729012,2.2614683478549572e-05,-8.566089672967792e-05,-0.0084893871098756,-0.0740436986088752,-0.0037389146164059,0.0030615925788879,-0.7424132227897644,0.6699248552322388,-0.0029730091448908,-0.0093541598285223,-0.0769373838125046,0.0164670348167419,-0.1018557548522949,0.1283397674560547,397,16,22800,10756
23.6,1788263969918,5.6619720458984375,4.507042407989502,-0.0041837943717837,0.0027480295393615,-0.7744530439376831,0.6326115727424622,0.1706717183196283,-0.0002710779211319,3.062296678128822e-05,0.0011175693944096,-0.0112819662317633,-0.0844917297363281,-0.004241345450282,0.0025739436969161,-0.7449891567230225,0.6670581698417664,0.0023565566790999,-0.0079861309088756,-0.0771452645047007,0.0616427659988403,0.199244737625122,0.1344413757324218,352,16,22142,10899
23.7,1788263970018,5.492957592010498,4.619718074798584,-0.0042707128450274,0.0025587477721273,-0.7753854990005493,0.631468653678894,0.1768813352135206,0.0015238806681539,1.2187704892750584e-05,0.0044683497399091,-0.0089988997206091,-0.0737892165780067,-0.0038996189832687,0.0029419576749205,-0.7470598816871643,0.6647388339042664,-0.002132014251153,0.0435316421818419,-0.0246784355890072,-0.0042077302932739,-0.1195111274719238,0.1191463470458984,352,17,22266,10995
23.8,1788263970118,5.549295902252197,4.478873252868652,-0.0036055755335837,0.0033800769597291,-0.7773100733757019,0.6290982961654663,0.1747874175925706,-0.0033146645589197,2.540734283322484e-05,0.0024635731242597,-0.0074573163874447,-0.0263944491744041,-0.003820757381618,0.0030750539153814,-0.7488424181938171,0.6627299785614014,0.0032322761484488,-0.0092953997610899,-0.0643633842783745,0.0677909255027771,0.0853002071380615,0.2359590530395507,382,17,22143,10620
23.9,1788263970218,3.8309860229492183,4.14084529876709,-0.0022119269706308,0.0039905095472931,-0.7788535356521606,0.6271892786026001,0.1541341191626453,0.0035920536475892,-5.305094994281876e-05,0.0084483241662383,0.0756382942199707,-0.0157879758626222,-0.0007410328835248,0.0051059145480394,-0.7491925954818726,0.6623321175575256,0.0165111499054873,0.1928784707251588,0.0844227480321016,-0.6299140453338623,0.1755242943763733,1.5325803756713867,160,14,12741,9880
24.0,1788263970318,1.436619758605957,3.436619758605957,-0.0006562620401382,0.005098006222397,-0.7738291621208191,0.6333734393119812,0.088157885628769,0.0023582647554862,-3.678259805269606e-05,-0.0060212523676455,0.0068569798022508,0.2154281437397003,-0.0008676992729306,0.0051211817190051,-0.7432072162628174,0.6690411567687988,-0.0005725794946588,-0.0132456866254392,0.3232609270810264,-0.8098743557929993,0.5571399331092834,-0.6750688552856445,8,61,650,9773
24.1,1788263970418,0.0,3.183098554611206,-0.0005548077169805,0.0051526762545108,-0.7682955265045166,0.6400743722915649,0.0574560399952911,0.006590147255081,-1.0611332446349574e-05,-9.31868635234423e-05,0.0037749691400676,0.4354466795921325,-0.00064267963171,0.0050213951617479,-0.7281867265701294,0.6853601336479187,0.0040759833665729,-0.0065440591729308,0.5350293778553497,0.0463756918907165,0.1185725331306457,0.3435287475585937,87,37,-6858,8929
24.2,1788263970518,-3.183098554611206,2.873239517211914,-0.000190561870113,0.005195727571845,-0.7351710796356201,0.6778616905212402,-0.0064509940810781,-0.000930541705179,-1.5084400523754042e-06,0.0035897635389119,-0.010402793996036,0.8441250920295715,-0.0003109527751803,0.0052529079839587,-0.7069897651672363,0.7072042226791382,0.0054753113382513,-0.0045822429225543,0.9088411441778604,0.0188429951667785,0.2557650804519653,0.0479717254638671,101,96,-11445,9465
24.3,1788263970618,-2.563380241394043,2.619718313217163,-0.0003797260578721,0.0047323242761194,-0.7039004564285278,0.7102828025817871,0.0139866674275826,-0.0039908904642912,9.76962002308561e-07,0.0061334762722253,0.0005438989610411,0.8503677248954773,-0.0005740160122513,0.0047997571527957,-0.6681235432624817,0.7440347075462341,-0.0039915941418225,0.0121478289336064,0.7326886023942926,-0.6461215615272522,0.2735205292701721,0.0082216262817382,69,38,-9553,7597
24.4,1788263970718,-2.6478872299194336,2.253521203994751,-0.0011572032235562,0.0051157176494598,-0.678652822971344,0.7344404458999634,-0.0095872002565804,-0.0051973090431059,2.432131086111352e-06,-0.0140356896445155,-0.0149774011224508,0.6829385161399841,-0.0013862438499927,0.0050584590062499,-0.6449147462844849,0.764236569404602,-0.0084655198907988,-0.0233020921609142,0.687081578517981,0.4807005524635315,0.2005355954170227,-0.2101202011108398,100,100,-8662,8683
24.5,1788263970818,-2.169013977050781,2.253521203994751,-0.0011440033558756,0.0051811970770359,-0.6676892042160034,0.744421124458313,0.0032532120916111,-0.0020983395660286,-2.903863733639567e-07,-0.0039630001410841,-0.0003347415185999,0.7410922646522522,-0.0013825790956616,0.0053342413157224,-0.6195236444473267,0.7849586606025696,-0.0080572166861779,0.0101312153215108,0.6935521016872261,-0.0786695480346679,-0.497877836227417,0.1929473876953125,94,49,-8615,7142
24.6,1788263970918,-2.169013977050781,2.2253520488739014,-0.0009354231879115,0.0054029896855354,-0.6297153234481812,0.7768065929412842,0.004163218468797,-0.0022465128381929,5.56541910043083e-07,-0.0035731536336243,0.0002938949619419,0.6753063201904297,-0.0013319477438926,0.0052858591079711,-0.588837206363678,0.8082332015037537,-0.0089617994165523,-0.0136548411300342,0.6619076141619306,-0.1039826869964599,-0.0847257375717163,0.1382408142089843,125,72,-8766,6667
24.7,1788263971018,-1.6901408433914185,1.6901408433914185,-0.001562105724588,0.0050542829558253,-0.6051185727119446,0.7961177825927734,0.0037664930546607,-0.0036800345340849,1.0362074952439858e-06,-0.0044248471967875,-0.0150756333023309,0.4983433187007904,-0.0017879763618111,0.0049788635224103,-0.5686786770820618,0.8225427865982056,-0.0023654796862267,-0.0157729438181532,0.4790304000754436,0.0046887397766113,0.0776205062866211,-0.1545400619506836,202,167,-9957,7491
24.8,1788263971118,-1.7183098793029783,1.8028168678283687,-0.0018791648326441,0.005146708805114,-0.5840994715690613,0.8116635680198669,0.0021370595257852,0.0016460155547522,-1.536747216725661e-07,-0.0099574392661452,-0.0025516070891171,0.5391756892204285,-0.0020930105820298,0.0050123380497097,-0.5492544174194336,0.8356375098228455,-0.0093897494534812,-0.0026914969867827,0.5108742026385973,0.0627403855323791,-0.0001565814018249,0.2224559783935547,254,144,-10231,7462
24.9,1788263971218,-1.8309859037399288,1.6901408433914185,-0.0019644380081444,0.0050261467695236,-0.5750604867935181,0.8180930614471436,0.003145724177196,0.0011671200154279,1.65900473097419e-06,-0.0016605757409706,-0.0098809264600276,0.5542300939559937,-0.002348905429244,0.0047402288764715,-0.5209469795227051,0.8535726070404053,-0.0038009451831718,-0.0040120770019348,0.5489792195694985,0.2117493152618408,-0.2424726486206054,0.1228361129760742,170,59,-9013,5738
25.0,1788263971318,-1.380281686782837,1.4929577112197876,-0.0023424290120601,0.0049723666161298,-0.5447804927825928,0.8385607600212097,-0.0017950558150287,-0.0013966597305587,-6.329029684882279e-07,-0.0099363345652818,0.0021125595085322,0.4139257967472076,-0.0025830650702118,0.0048590879887342,-0.5046324729919434,0.8633167743682861,-0.0081923214679115,-0.0012112393533179,0.3961970986249267,-0.0145723223686218,-0.0043984055519104,0.0513381958007812,289,126,-10183,6677
25.1,1788263971418,-1.4929577112197876,1.5492957830429075,-0.0023280358873307,0.0048757544718682,-0.5236243605613708,0.8519321084022522,-0.0002703161731147,-0.0056145242257388,-1.7212456985822712e-08,0.0012864143354818,-0.0065867402590811,0.4636700749397278,-0.0025081345811486,0.0047922367230057,-0.4807804822921753,0.8768242597579956,0.0006794788061277,-0.0009221191924092,0.4561672559473837,0.0411475896835327,-0.0566534399986267,0.0872163772583007,211,116,-9774,6308
25.2,1788263971518,-1.3521126508712769,1.4647886753082275,-0.002316984347999,0.0049741994589567,-0.5046898722648621,0.8632832765579224,0.0023496150305238,0.0016909326915902,-4.6327812981118926e-07,-0.0043002911843359,-0.000214010986383,0.4328852593898773,-0.002547494135797,0.0048852525651454,-0.4633676707744598,0.8861490488052368,-0.0057296391079125,0.0010557762026712,0.4362242610929577,0.1286268234252929,-0.0382563471794128,0.075291633605957,193,165,-9725,6582
25.3,1788263971618,-1.1267606019973757,1.0985915660858154,-0.002328454516828,0.0049820691347122,-0.4969460964202881,0.8677639961242676,0.0033395263712972,0.0008901807213929,-8.986726441032276e-07,-0.0021003847941756,-0.001961076632142,0.4472814500331878,-0.0026055751368403,0.0046008164063096,-0.4474064409732818,0.8943151235580444,-0.0010010620351034,-0.0123718823431044,0.3572694385161197,0.0515196919441223,-0.0582767724990844,-0.0007514953613281,181,108,-8777,5434
25.4,1788263971718,-1.0704225301742554,1.2676056623458862,-0.0025288600008934,0.0046151857823133,-0.4731716811656952,0.8809545040130615,0.0010615777114871,-0.000572891504882,-8.650679945546321e-07,-0.0014290226390585,-0.0044546099379658,0.3183432817459106,-0.0027386350557208,0.0044890837743878,-0.4346525967121124,0.9005828499794006,-0.0007021047710864,-0.0063887482559246,0.3283435872828769,-0.1553758978843689,0.0659207701683044,0.0420093536376953,258,123,-9618,5877
25.5,1788263971818,-1.0985915660858154,1.211267590522766,-0.0025006872601807,0.0047506368719041,-0.457669198513031,0.8891063332557678,0.001778371328381,-0.0009451417475371,-3.4440399043694815e-07,-0.0023189801722764,0.0037648712750524,0.3475703597068786,-0.0027108918875455,0.0046423422172665,-0.4160724878311157,0.909315586090088,-0.0023519240204593,0.0013640110336421,0.3784712317705186,-0.0360350608825683,-0.0624077916145324,0.0974893569946289,243,111,-9664,6109
25.6,1788263971918,-1.0704225301742554,1.1267606019973757,-0.0026092561893165,0.0046785902231931,-0.4423403143882751,0.8968312740325928,0.0018479708601164,-0.0038305195515051,6.468857288215613e-07,-0.0044561680406332,-0.0038770998362451,0.3517479002475738,-0.0028171762824058,0.0045564174652099,-0.4015294313430786,0.9158304333686828,-0.0029200504419113,-0.0040136532790014,0.3461581994739484,0.0494074821472168,-0.2145285010337829,0.0556097030639648,209,123,-7055,4574
25.7,1788263972018,-0.6478873491287231,0.8450704216957092,-0.0026615620590746,0.0046693258918821,-0.4378993213176727,0.8990079760551453,0.0011450381150579,-0.0009320489952801,1.6493286034295377e-07,-0.0027573755942285,-0.0025339366402477,0.2354767471551895,-0.0029475446790456,0.0044789984822273,-0.3927165567874908,0.9196439981460572,-0.0031713345475986,-0.0088123652001751,0.1853549616245147,0.3113554716110229,0.0482633113861084,0.1434431076049804,111,0,0,0
25.8,1788263972118,0.0,0.0,-0.0027001369744539,0.0044275070540606,-0.4330854117870331,0.9013379216194152,-0.0039851629098329,-0.0008304156613442,8.287601307767752e-07,0.0026010253932327,-0.0038187988102436,-0.039446722716093,-0.0028540221974253,0.0044122831895947,-0.3920028507709503,0.9199490547180176,0.0010991293708046,0.0038990788418225,0.0018901767521243,-0.1192838549613952,0.0829494595527648,0.0010290145874023,8,0,0,0
25.9,1788263972218,0.0,0.0,-0.0026749847456812,0.0044739451259374,-0.4330071806907654,0.901375412940979,-0.0003509620246234,0.0008293469417453,5.106150652020827e-07,0.000169699822436,-0.000778193003498,-0.0063197053968906,-0.0028640758246183,0.0043970542028546,-0.3919578492641449,0.9199682474136353,-0.0006779983054943,0.0031810432616634,0.0031142191609812,-0.0893435478210449,-0.0843147635459899,0.041335105895996,7,0,0,0
26.0,1788263972318,0.0,0.0,-0.0026644323952496,0.0045093744993209,-0.4329765737056732,0.901390016078949,9.68566695219846e-06,-1.0812780915198548e-05,-3.7488230242000025e-08,-0.0001298500428674,-0.0004426265077199,0.0001169386814581,-0.0028624329715967,0.0043886108323931,-0.3919592201709747,0.9199677109718324,-0.0003416221004087,-0.0001751022552818,-0.0001066168103656,0.0219149589538574,0.0431561470031738,0.0357122421264648,8,0,0,0
26.1,1788263972418,0.0,0.0,-0.0026655839756131,0.0045544351451098,-0.4329728484153747,0.9013915061950684,1.451783895862597e-05,-1.9072096233401852e-05,-8.156501749045329e-08,-0.0010026808595284,0.0019556302577257,0.0002005611604545,-0.0028727045282721,0.0044114785268902,-0.3919496536254883,0.9199716448783876,0.0007520794899739,-0.0010508235414029,0.0007852956212112,-0.0170722603797912,0.0060298442840576,0.0028877258300781,8,0,0,0
26.2,1788263972518,0.0,0.0,-0.0026712492108345,0.0045362990349531,-0.4329571425914764,0.9013991355895996,4.0782727276312e-05,-4.787183858256896e-05,-1.7921091307854865e-07,0.0004492599400691,-0.0006277020438574,0.0004703033191617,-0.0028812363743782,0.0044130831956863,-0.3919461965560913,0.919973075389862,-0.0001242372671272,0.0001832997754924,0.0002517736584011,-0.008426547050476,0.0130238533020019,0.0532817840576171,9,0,0,0
26.3,1788263972618,0.0,0.0,-0.0026849436108022,0.0045071230269968,-0.4329543709754944,0.9014005661010742,-4.115475729789841e-05,4.831383364750388e-05,1.8117316707392493e-07,3.190189090673812e-05,-0.0012678449274972,-0.0004938004422001,-0.0028816256672143,0.0043913191184401,-0.3919416069984436,0.9199751615524292,4.747455874894832e-05,0.0001939400018307,8.74062446518871e-05,0.007502794265747,0.0166453719139099,0.026458740234375,0,0,0,0
26.4,1788263972718,0.0,0.0,-0.002690702676773,0.0044949264265596,-0.4329385161399841,0.9014082551002502,6.261400505204599e-05,-7.234863835316057e-05,-2.6937731390620533e-07,1.596030529071868e-06,-0.0005635487032122,0.0007304983446374,-0.0029194606468081,0.0043446933850646,-0.3919138014316559,0.9199870228767396,-0.0002933471906448,-0.0004903300353367,0.0005794562471448,0.0009431838989257,0.009732961654663,0.0335578918457031,0,0,0,0
26.5,1788263972818,0.0,0.0,-0.0027283504605293,0.0044715227559208,-0.4329275488853454,0.9014135599136353,-2.8001142396761884e-05,3.3372917948709075e-05,1.3302341070344817e-07,-0.0003446709306444,-0.0002386932028457,-0.0003203861124347,-0.0029274560511112,0.0043343938887119,-0.3918664753437042,0.9200072884559632,0.0002171293685871,0.0001853128327689,0.001508798792165,0.0216208100318908,0.0104260444641113,-9.1552734375e-05,0,0,0,0
26.6,1788263972918,0.0,0.0,-0.002736591733992,0.0044127637520432,-0.4328805804252624,0.9014363288879396,1.7493919712419677e-05,-2.0853255616803896e-05,-8.398842884348691e-08,0.0003997315943706,-0.0011962128337472,0.0001984026603167,-0.0029428899288177,0.0042927311733365,-0.39185830950737,0.9200108647346495,-0.0008103932520934,0.0001811054542132,0.0009276556603217,0.0235120058059692,-0.0099273324012756,0.0244293212890625,0,0,0,0
26.7,1788263973018,0.0,0.0,-0.002745684236288,0.0044349245727062,-0.4328683912754059,0.901442050933838,-6.037560913010919e-05,6.979401938563884e-05,2.726769479002533e-07,-0.000179999609827,-0.0003035461413674,-0.0007045673555694,-0.0029406175017356,0.0043247053399682,-0.3918534815311432,0.9200127720832824,-0.0005210093028356,0.0013439261330581,0.0004790951262163,-0.007553219795227,-0.0049649477005004,0.0130567550659179,0,0,0,0
26.8,1788263973118,0.0,0.0,-0.0027318967040628,0.0044634286314249,-0.4328524470329284,0.9014496207237244,6.249827964558941e-05,-7.224270884756363e-05,-2.838481067863796e-07,1.6658602817187784e-06,0.0013100808719173,0.0007367255166172,-0.0029454287141561,0.0043420102447271,-0.3918303847312927,0.9200224876403807,-0.000689278883829,-0.0007208726883489,0.0008129375844045,0.0116393566131591,0.0247340202331542,0.0067853927612304,33,150,1462,5463
26.9,1788263973218,0.98591548204422,3.6619718074798575,-0.0028594816103577,0.0043726535513997,-0.4314513206481933,0.9021210670471193,0.0085296813097203,-0.0040432628622333,1.870432873743106e-06,-0.0029098289087414,-0.0065655806101858,0.0704862400889396,-0.0031011598184704,0.004119430668652,-0.3849340677261352,0.9229297041893004,0.0006242152352628,-0.0080187139401651,0.2622979576316332,0.7570686936378479,0.0604273080825805,0.140787124633789,41,224,3502,13826
27.0,1788263973318,1.97183096408844,6.084506988525391,-0.0027613346464931,0.0040964018553495,-0.4122622907161712,0.9110518097877502,0.0922714827372524,-0.0011547107741059,2.0813032329237857e-05,0.0047197411768138,-0.0046660364605486,0.4382341504096985,-0.0026842886582016,0.0040536802262067,-0.3562456667423248,0.9343797564506532,0.0085086946118087,0.0052742299120413,0.6513361960445235,0.7569335103034973,0.1760339736938476,-0.3092498779296875,118,216,8463,21263
27.1,1788263973418,2.507042169570923,7.943662166595459,-0.0023643972817808,0.0041379341855645,-0.3660352528095245,0.930588722229004,0.1757275462683707,-0.0145941961526571,3.490076037752068e-05,0.0046677398495376,-0.0025724098086357,0.7776193618774414,-0.0025890376418828,0.0039316788315773,-0.3250603675842285,0.945681631565094,0.0062224645614409,-0.002686723390762,0.7827060805242013,-0.0506427288055419,0.3114539384841919,-0.2735700607299804,102,108,8602,22377
27.2,1788263973518,2.929577350616455,7.380281925201416,-0.0024151597172021,0.004050588235259,-0.3301461637020111,0.943917989730835,0.1766368769477855,-0.009695328871381,1.8689479260190663e-05,-0.0096396235749125,-0.0029424051754176,0.7229840755462646,-0.0024458579719066,0.0040069296956062,-0.280843049287796,0.9597422480583192,0.0025968596305478,0.0117768431160608,0.6732285911484569,-0.1766759157180786,0.1816742420196533,0.1037569046020507,93,114,10254,20529
27.3,1788263973618,2.7887322902679443,7.295774459838867,-0.0021452468354254,0.0040163779631257,-0.3161361813545227,0.948702871799469,0.1702938477304506,-0.0094406952442101,-8.19064543427641e-06,0.0103497235104441,0.0001687395124463,0.6937209367752075,-0.0022838842123746,0.0037724785506725,-0.2508793473243713,0.968008279800415,0.0090373748839767,-0.000485675313708,0.7050061918518968,-0.2147110700607299,-0.0625845193862915,0.4969635009765625,84,103,10244,20267
27.4,1788263973718,3.4084506034851074,6.901408672332764,-0.0021391720511019,0.0038113691844046,-0.2835163474082947,0.9589574337005616,0.1732495140782231,-0.0069766746455161,3.860320567527004e-06,0.0007730723009444,-0.0034079852048307,0.6743056774139404,-0.0024915691465139,0.0034275464713573,-0.224044382572174,0.9745697379112244,-0.0140964048852008,-0.0241062785213624,0.607054946075111,0.3271197080612182,0.077652096748352,-0.6843013763427734,125,117,10168,19662
27.5,1788263973818,3.070422649383545,6.647887229919434,-0.0026928605511784,0.0040224990807473,-0.2416613101959228,0.9703485369682312,0.1676118044335995,-0.0057768397847402,7.089773212421269e-05,-0.0238915309309959,0.0047397599555552,0.5253592133522034,-0.0030495403334498,0.0039406614378094,-0.1934298872947693,0.9811014533042908,-0.0287663535087487,0.0309096516060738,0.5080596027789359,-0.0188187956809997,0.3666397929191589,-0.3807573318481445,78,121,11018,19934
27.6,1788263973918,3.4084506034851074,6.507042407989502,-0.003359091002494,0.0047904606908559,-0.2176709920167923,0.9760046005249025,0.1761130546736639,-0.0035100115777898,4.353667366990478e-05,-0.0195466838777065,0.0089775780215859,0.4877803027629852,-0.0036206226795911,0.0047810329124331,-0.1713887751102447,0.985185205936432,-0.0175660950481511,0.0489211509870421,0.4151490123848344,-0.251108705997467,0.0865968465805053,0.5876455307006836,110,95,12211,18057
27.7,1788263974018,3.9718310832977295,6.2816901206970215,-0.0035123126581311,0.0056597469374537,-0.1978899538516998,0.980201542377472,0.1701057840252833,0.002222847575922,-1.149947983812932e-05,-0.0020867728162556,0.0112604843452572,0.4096902012825012,-0.0037494860589504,0.00557960011065,-0.1525141298770904,0.9882784485816956,-0.0069664622781208,0.0232126449306938,0.3689013885769667,0.1128636598587036,0.1814969778060913,-0.4225034713745117,161,81,13236,17537
27.8,1788263974118,3.690140962600708,6.3380279541015625,-0.0034406895283609,0.0057111168280243,-0.1858640909194946,0.9825528860092164,0.1765085844410407,0.0038872303243994,4.810163540286408e-05,7.148670647438848e-06,0.0002731135464273,0.3726872503757477,-0.0038982965052127,0.005126385949552,-0.1355916559696197,0.99074387550354,-0.0116307088287957,-0.0316187095780201,0.3947267650868555,0.0507404804229736,0.6061655282974243,-0.0229415893554687,107,61,12799,17104
