time_s,timestamp_ms,wheel_vels__velocity_left,wheel_vels__velocity_right,odom__orient_x,odom__orient_y,odom__orient_z,odom__orient_w,odom__lin_x,odom__lin_y,odom__lin_z,odom__ang_x,odom__ang_y,odom__ang_z,imu__orient_x,imu__orient_y,imu__orient_z,imu__orient_w,imu__angvel_x,imu__angvel_y,imu__angvel_z,imu__acc_x,imu__acc_y,imu__acc_z,wheel_status__current_ma_left,wheel_status__current_ma_right,wheel_status__pwm_left,wheel_status__pwm_right
0.0,1788433541119,0.0,0.0,0.0014736388111487,0.0013982352102175,0.4427870213985443,0.8966245651245117,0.0,0.0,0.0,-2.7806545404018834e-06,-0.0001320637529715,-4.7338157855847385e-06,0.0011935951188206,0.0016443859785795,0.599777102470398,0.800164520740509,5.7643316142901005e-05,-8.99293617001829e-05,-9.789708651929651e-11,0.0218453407287597,0.0080058574676513,0.0052614212036132,0,0,0,0
0.1,1788433541219,0.0,0.0,0.0014736388111487,0.0013982352102175,0.4427870213985443,0.8966245651245117,0.0,0.0,0.0,-2.7806545404018834e-06,-0.0001320637529715,-4.7338157855847385e-06,0.0011935951188206,0.0016443859785795,0.599777102470398,0.800164520740509,5.7643316142901005e-05,-8.99293617001829e-05,-9.789708651929651e-11,0.0218453407287597,0.0080058574676513,0.0052614212036132,0,0,0,0
0.2,1788433541319,0.0,0.0,0.0014736388111487,0.0013982352102175,0.4427870213985443,0.8966245651245117,0.0,0.0,0.0,-2.7806545404018834e-06,-0.0001320637529715,-4.7338157855847385e-06,0.0011935951188206,0.0016443859785795,0.599777102470398,0.800164520740509,5.7643316142901005e-05,-8.99293617001829e-05,-9.789708651929651e-11,0.0218453407287597,0.0080058574676513,0.0052614212036132,0,0,0,0
0.3,1788433541419,0.0,0.0,0.0014736388111487,0.0013982352102175,0.4427870213985443,0.8966245651245117,0.0,0.0,0.0,0.0,0.0,0.0,0.0011974554508924,0.0016425736248493,0.599777102470398,0.800164520740509,6.169569417485337e-05,-0.0001418584560033,-1.2731028556074628e-10,-0.0145519375801086,0.0009720921516418,0.0034418106079101,0,0,0,0
0.4,1788433541519,0.0,0.0,0.0014779630582779,0.0013955219183117,0.4427870213985443,0.8966245651245117,0.0,0.0,0.0,0.0,-2.2773207764004155e-09,0.0,0.0012022107839584,0.00163927488029,0.599777102470398,0.800164520740509,6.381170325638905e-05,-0.0001214226513835,-1.0648242287173064e-10,0.0125318765640258,0.0474115014076232,-0.0089807510375976,0,0,0,0
0.5,1788433541619,0.0,0.0,0.0014779630582779,0.0013955219183117,0.4427870213985443,0.8966245651245117,0.0,0.0,0.0,0.0,-1.670708127399223e-09,0.0,0.0012093447148799,0.0016385717317461,0.599777102470398,0.800164520740509,0.0001334512218103,-9.452406361643942e-05,-1.8935772779185847e-10,7.12275505065918e-05,-0.0053883790969848,-0.0140533447265625,0,0,0,0
0.6,1788433541719,0.0,0.0,0.0014779630582779,0.0013955219183117,0.4427870213985443,0.8966245651245117,0.0,0.0,0.0,0.0,-1.670708127399223e-09,0.0,0.0012093447148799,0.0016385717317461,0.599777102470398,0.800164520740509,0.0001334512218103,-9.452406361643942e-05,-1.8935772779185847e-10,7.12275505065918e-05,-0.0053883790969848,-0.0140533447265625,0,0,0,0
0.7,1788433541819,0.0,0.0,0.0014779630582779,0.0013955219183117,0.4427870213985443,0.8966245651245117,0.0,0.0,0.0,0.0,-1.670708127399223e-09,0.0,0.0012093447148799,0.0016385717317461,0.599777102470398,0.800164520740509,0.0001334512218103,-9.452406361643942e-05,-1.8935772779185847e-10,7.12275505065918e-05,-0.0053883790969848,-0.0140533447265625,0,0,0,0
0.8,1788433541919,0.0,0.0,0.0014779630582779,0.0013955219183117,0.4427870213985443,0.8966245651245117,0.0,0.0,0.0,0.0,-1.670708127399223e-09,0.0,0.0012093447148799,0.0016385717317461,0.599777102470398,0.800164520740509,0.0001334512218103,-9.452406361643942e-05,-1.8935772779185847e-10,7.12275505065918e-05,-0.0053883790969848,-0.0140533447265625,0,0,0,0
0.9,1788433542019,0.0,0.0,0.0015015329699963,0.0013855095021426,0.4427869617938995,0.8966245055198669,0.0,0.0,0.0,0.0,0.0,1.186845793199609e-06,0.0012364964932203,0.0016335491091012,0.599777102470398,0.800164520740509,0.000112344548714,-2.521751316522136e-05,-3.75095016453454e-11,0.0020263195037841,-0.0036631822586059,-0.0112876892089843,0,0,0,0
1.0,1788433542119,0.0,0.0,0.0015015329699963,0.0013855095021426,0.4427869617938995,0.8966245055198669,0.0,0.0,0.0,0.0,0.0,1.4937625110178487e-06,0.0012387027963995,0.0016376972198486,0.599777102470398,0.800164520740509,6.935665846108143e-05,8.073257728514297e-05,8.406026419698247e-11,-0.0078902244567871,0.0110281109809875,-0.0093936920166015,0,0,0,0
1.1,1788433542219,0.0,0.0,0.0015015329699963,0.0013855095021426,0.4427869617938995,0.8966245055198669,0.0,0.0,0.0,0.0,0.0,1.1757426818803651e-06,0.001237541437149,0.001641939394176,0.599777102470398,0.800164520740509,2.900990486794793e-05,7.917129719799594e-05,3.552136237279935e-11,-0.0312477946281433,-0.0066714286804199,-0.0068750381469726,0,0,0,0
1.2,1788433542319,0.0,0.0,0.0015015329699963,0.0013855095021426,0.4427869617938995,0.8966245055198669,0.0,0.0,0.0,0.0,0.0,1.1598220908126675e-06,0.0012334370985627,0.0016466071829199,0.599777102470398,0.800164520740509,-1.9697158269030426e-06,9.240049041650856e-05,-2.646180875885895e-12,-0.0203562974929809,-0.0262678265571594,0.0090246200561523,0,0,0,0
1.3,1788433542419,0.0,0.0,0.0015015329699963,0.0013855095021426,0.4427869319915771,0.8966245055198669,0.0,0.0,0.0,0.0,0.0,0.0,0.0012312298640608,0.0016475757583975,0.599777102470398,0.800164520740509,-9.160062473820083e-06,3.465170974185296e-05,-4.626986462844692e-12,0.0008326172828674,0.0277049541473388,0.0016632080078125,0,0,0,0
1.4,1788433542519,0.0,0.0,0.0015015329699963,0.0013855095021426,0.4427869319915771,0.8966245055198669,0.0,0.0,0.0,0.0,0.0,-1.425923301212606e-06,0.0012299651280045,0.0016486635431647,0.599777102470398,0.800164520740509,-1.6354465672592385e-05,5.659494705349308e-05,-1.268289952141784e-11,0.0190021395683288,0.0171349644660949,-0.0198640823364257,0,0,0,0
1.5,1788433542619,0.0,0.0,0.0015015329699963,0.0013855095021426,0.4427869319915771,0.8966245055198669,0.0,0.0,0.0,0.0,0.0,-1.1789550171670271e-06,0.001229784451425,0.0016504423692822,0.599777102470398,0.800164520740509,2.7768380211530055e-05,4.552003274229928e-06,1.9024233047949893e-12,0.0114257335662841,0.0023621916770935,-0.0090551376342773,0,0,0,0
1.6,1788433542719,0.0,0.0,0.0015015329699963,0.0013855095021426,0.4427869319915771,0.8966245055198669,0.0,0.0,0.0,0.0,0.0,-1.1612497701207758e-06,0.0012333458289504,0.0016515180468559,0.599777102470398,0.800164520740509,0.0001010625718781,-3.4562414877499257e-05,-5.6161333296873846e-11,0.0003848075866699,-0.0307511091232299,-0.0004444122314453,0,0,0,0
1.7,1788433542819,0.0,0.0,0.0015015329699963,0.0013855095021426,0.4427869617938995,0.8966245055198669,0.0,0.0,0.0,0.0,0.0,0.0,0.0012370003387331,0.0016542272642254,0.599777102470398,0.800164520740509,0.000111708199639,2.0599064977539124e-05,3.452706531250965e-11,0.0134253501892089,0.0103694200515747,-0.005751609802246,0,0,0,0
1.8,1788433542919,0.0,0.0,0.0015015329699963,0.0013855095021426,0.4427869617938995,0.8966245055198669,0.0,0.0,0.0,0.0,0.0,1.5006492048996734e-06,0.0012450283393263,0.0016612252220511,0.599777102470398,0.800164520740509,0.0002297667671435,7.535305393367711e-06,2.6039538300417823e-11,0.0043151974678039,0.0216982364654541,0.0049848556518554,0,0,0,0
1.9,1788433543019,0.0,0.0,0.0015015329699963,0.0013855095021426,0.4427869617938995,0.8966245055198669,0.0,0.0,0.0,0.0,0.0,1.2037991155011696e-06,0.0012576235458254,0.0016688732430338,0.5997770428657532,0.8001644015312195,0.0003769454052913,-4.813065961589213e-05,-2.50062861517478e-10,-0.0122489333152771,0.0045857429504394,-0.0076732635498046,0,0,0,0
2.0,1788433543119,0.0,0.0,0.0015015329699963,0.0013855095021426,0.4427869617938995,0.8966245055198669,0.0,0.0,0.0,0.0,0.0,0.0,0.0012725163251161,0.0016773911193013,0.5997770428657532,0.8001644015312195,0.0003899936377003,-6.206731769298441e-05,1.980713129803205e-06,-0.0106934309005737,-0.0175716876983642,-0.0163555145263671,0,0,0,0
2.1,1788433543219,0.0,0.0,0.0015015329699963,0.0013855095021426,0.4427869319915771,0.8966245055198669,0.0,0.0,0.0,0.0,0.0,0.0,0.0012862971052527,0.0016852980479598,0.5997770428657532,0.8001644015312195,0.0003348664324481,-1.941397177339408e-05,1.916587430464993e-06,0.0058180093765258,-0.0391162037849426,0.0004005432128906,0,0,0,0
2.2,1788433543319,0.0,0.0,0.0015858906554058,0.0014263265766203,0.4427869021892547,0.8966243863105774,0.0,0.0,0.0,0.0041487743146717,-3.3420823456253856e-05,2.638825208123308e-06,0.0012987060472369,0.0016944240778684,0.5997770428657532,0.8001644015312195,0.0001906667218223,1.786266837286163e-05,5.120738374084387e-11,0.0025173425674438,-0.0112561583518981,-0.004861831665039,0,0,0,0
2.3,1788433543419,0.0,0.0,0.0015911323716863,0.0014295266009867,0.4427868723869324,0.8966243267059326,0.0,0.0,0.0,9.029958164319396e-05,3.808407427641214e-06,0.0,0.0013023652136325,0.0016976967453956,0.5997770428657532,0.8001644015312195,4.779417721745005e-05,6.088922562351622e-06,4.3955393214007e-12,0.0078121423721313,-0.0011716485023498,0.0006961822509765,0,0,0,0
2.4,1788433543519,0.0,0.0,0.0015911646187305,0.0014296453446149,0.4427868723869324,0.8966243267059326,0.0,0.0,0.0,3.255931005696766e-06,3.6885046483803303e-06,0.0,0.001299032010138,0.0016943262889981,0.5997770428657532,0.8001644015312195,-0.0001555387474539,-2.1864197659560797e-05,5.1288336976119445e-11,0.0058101415634155,-0.0157437920570373,0.0189905166625976,0,0,0,0
2.5,1788433543619,0.0,0.0,0.0015819647815078,0.001424228423275,0.4427867531776428,0.8966244459152222,0.0,0.0,0.0,-0.0002186606143368,-4.925555572299345e-07,-3.4864760891650803e-06,0.001290688291192,0.0016880957409739,0.5997770428657532,0.8001644015312195,-0.0002553032812542,6.966218771152949e-06,-2.657076272880198e-11,-0.0136648416519165,-0.0043345689773559,0.0078754425048828,0,0,0,0
2.6,1788433543719,0.0,0.0,0.0015698014758527,0.0014199505094438,0.4427867829799652,0.8966244459152222,0.0,0.0,0.0,-0.0003536898293532,5.6915869208751246e-05,0.0,0.0012818370014429,0.0016835266724228,0.5997770428657532,0.8001644015312195,-0.0001666343914865,3.7839174308602615e-05,-1.818372273813674e-06,0.0026913285255432,0.0080577135086059,-0.0086870193481445,0,0,0,0
2.7,1788433543819,0.0,0.0,0.0015644697705283,0.0014178592246025,0.4427867829799652,0.8966244459152222,0.0,0.0,0.0,-8.643438195576891e-05,-3.427693400226417e-06,-1.4612647873946116e-06,0.0012759361416101,0.0016792993992567,0.5997770428657532,0.8001644015312195,-8.023489273479623e-05,-7.320136477542232e-07,8.8268394622e-13,-0.0119534134864807,-0.0016325116157531,-0.000187873840332,0,0,0,0
2.8,1788433543919,0.0,0.0,0.0015616151504218,0.0014167169574648,0.4427867829799652,0.8966245055198669,-0.0002271924205097,-0.0002274356132022,6.607560723854962e-07,-0.0001365600328426,1.0678760190785397e-05,-1.3277137895784108e-06,0.0012749712914228,0.0016795014962553,0.5997770428657532,0.8001644015312195,1.7635163271835048e-06,2.5236928585267022e-05,6.669180920412316e-13,-0.004506230354309,0.0121557116508483,0.0104141235351562,0,0,0,0
2.9,1788433544019,0.0,0.0,0.001561747631058,0.0014181819278746,0.4427867531776428,0.8966244459152222,0.0,0.0,0.0,2.1772930267616172e-05,3.560665936674923e-05,8.456148066215974e-07,0.0012766225263476,0.0016822144389152,0.5997770428657532,0.8001644015312195,0.000127337554407,1.294930503267322e-05,2.3510931209844014e-11,0.0096028447151184,0.0327948331832885,-0.0022783279418945,0,0,0,0
3.0,1788433544119,0.0,0.0,0.0015661250799894,0.0014202524907886,0.4427867531776428,0.8966244459152222,0.0002229349553914,0.0002231736106832,-6.488793298606829e-07,0.0,0.0,0.0,0.0012842053547501,0.001686212606728,0.5997770428657532,0.8001644015312195,0.0001665330377606,-1.1262179706467484e-05,-2.7296891571915516e-11,-0.0084198117256164,0.0107356309890747,-0.0139455795288085,0,0,0,0
3.1,1788433544219,0.0,0.0,0.0015717801870778,0.0014219710137695,0.442786693572998,0.8966244459152222,0.0,0.0,0.0,1.373329894249764e-08,4.5777661661361435e-09,-1.1719081385308527e-06,0.0012892773374915,0.0016902359202504,0.5997770428657532,0.8001644015312195,0.0001170317097533,1.3624488753461482e-05,2.4462399556021545e-11,0.01149183511734,0.0038023591041564,0.0164613723754882,0,0,0,0
3.2,1788433544319,0.0,0.0,0.0015802888665348,0.0014260903699323,0.442786693572998,0.8966244459152222,-0.0002220557987491,-0.0002222935327127,6.519250259658819e-07,0.0001541647070553,-7.591012035845779e-06,1.297695575885882e-06,0.0012923181056976,0.0016918629407882,0.5997770428657532,0.8001644015312195,5.512473270244275e-05,-2.6964792884332464e-05,-2.229712603809465e-11,-0.0157443284988403,-0.0172604918479919,0.0003213882446289,0,0,0,0
3.3,1788433544419,0.0,0.0,0.0015813731588423,0.0014258241280913,0.4427865445613861,0.8966245055198669,0.0,0.0,0.0,3.440623186179437e-05,-2.895701618399471e-05,-5.999996574246325e-06,0.0012930426746606,0.0016914112493395,0.5997770428657532,0.8001644015312195,-7.930673923443296e-06,-2.3466484513097336e-05,2.761907878244705e-12,0.0057865977287292,-0.0116286873817443,0.0144948959350585,0,0,0,0
3.4,1788433544519,0.0,0.0,0.0015812726924195,0.0014245314523577,0.4427863657474518,0.8966246247291565,0.0002277937521478,0.0002280378730766,-6.71388573333342e-07,-7.800169399274637e-09,-7.800169399274637e-09,-5.324915491655702e-06,0.001291075721383,0.0016883481293916,0.5997770428657532,0.8001644015312195,-8.845097278749216e-05,-1.484666057076154e-05,1.968795461313941e-11,0.0291007161140441,0.0107172727584838,0.0218839645385742,0,0,0,0
3.5,1788433544619,0.0,0.0,0.0015785173745825,0.0014223927864804,0.4427863359451294,0.8966246247291565,0.0,0.0,0.0,0.0,0.0,0.0,0.0012900047004222,0.001683291979134,0.5997770428657532,0.8001644015312195,-7.681213599404966e-05,-0.0001026726593604,1.1873778158735846e-10,0.0139996409416198,0.021453857421875,-0.0030784606933593,0,0,0,0
3.6,1788433544719,0.0,0.0,0.0015774101484566,0.0014132531359791,0.4427861869335174,0.896624743938446,0.0,0.0,0.0,-6.823245348641649e-05,-0.0001802372426027,-7.172042387537658e-06,0.0012913346290588,0.0016760164871811,0.5997770428657532,0.8001644015312195,-9.145603843180726e-05,-0.0001108126215983,1.3909089449713123e-10,-0.0200731754302978,0.0018792748451232,0.0148878097534179,0,0,0,0
3.7,1788433544819,0.0,0.0,0.0015753796324133,0.0014085674192756,0.442786157131195,0.896624743938446,0.0,0.0,0.0,-0.0001540127123007,-0.0001305498299188,0.0,0.0012879269197583,0.0016704574227333,0.5997770428657532,0.8001644015312195,-0.000149870992502,-5.190106050421333e-05,1.1691422390833843e-10,-0.028860867023468,-0.0100058913230896,0.003361701965332,0,0,0,0
3.8,1788433544919,0.0,0.0,0.0015703382669016,0.0014038851950317,0.4427862167358398,0.8966246843338013,0.0002278777698289,0.0002281222451156,-6.692232518513637e-07,-5.202034358831042e-09,5.202034358831042e-09,0.0,0.0012812353670597,0.0016629109159111,0.5997770428657532,0.8001644015312195,-0.0002399769154175,-4.715096854600342e-05,1.7112803484547862e-10,-0.0072945356369018,-0.0165159702301025,0.0173873901367187,0,0,0,0
3.9,1788433545019,0.0,0.0,0.0015606636879965,0.0013957129558548,0.442786306142807,0.8966246843338013,0.0,0.0,0.0,-0.0001250937057193,-4.778556831297465e-05,0.0,0.0012738462537527,0.0016513699665665,0.5997770428657532,0.8001644015312195,-0.0002131467592029,-8.635698740454868e-05,2.7802341446661885e-10,-0.0058767199516296,-0.012785792350769,0.0139112472534179,0,0,0,0
4.0,1788433545119,0.0,0.0,0.0015506283380091,0.0013845384819433,0.4427862465381622,0.896624743938446,0.0,0.0,0.0,-0.0002114451199304,-8.489775791531429e-05,-3.6055785130884033e-06,0.0012680198997259,0.0016421098262071,0.5997770428657532,0.8001644015312195,-0.0002587920790148,-9.284749980713887e-05,3.5860604234723935e-10,0.0317511558532714,0.0181807279586792,0.003453254699707,0,0,0,0
4.1,1788433545219,0.0,0.0,0.0015418138355016,0.0013743417803198,0.4427862763404846,0.8966248035430908,-0.0002137442961432,-0.0002139736848031,6.191118747295399e-07,-0.0003586207749322,-0.0001615298824617,0.0,0.0012631230056285,0.0016328757628798,0.5997770428657532,0.8001644015312195,-0.0001746131700436,-0.0001083907564321,2.90461779427593e-10,-0.0063037276268005,-0.0143176317214965,-0.0125713348388671,0,0,0,0
4.2,1788433545319,0.0,0.0,0.0015374399954453,0.001366312848404,0.4427860677242279,0.8966249823570251,0.000238265066845,0.0002385209198171,-6.872163214976299e-07,-0.000130401138449,-9.293892071582376e-05,-4.177274604444392e-06,0.0012601613998413,0.001620945520699,0.599777102470398,0.800164520740509,-9.973512238558228e-05,-0.0001204647773737,1.8085982050600878e-10,-0.0082467794418334,-0.0202498435974121,-0.0029191970825195,0,0,0,0
4.3,1788433545419,0.0,0.0,0.0015357079682871,0.0013600860256701,0.4427860677242279,0.8966249823570251,0.0,0.0,0.0,-5.3611314797308296e-05,-6.736203795298934e-05,0.0,0.0012600608170032,0.0016158446669578,0.599777102470398,0.800164520740509,-3.7366585080705504e-05,-5.971914890672801e-05,3.508092285931795e-11,0.0137370228767395,0.0026143193244934,-0.0062713623046875,0,0,0,0
4.4,1788433545519,0.0,0.0,0.0015357832890003,0.0013555360492318,0.4427860677242279,0.8966249823570251,0.0,0.0,0.0,-1.975176928681321e-06,-5.071162377134897e-05,0.0,0.0012612557038664,0.0016140369698405,0.599777102470398,0.800164520740509,2.025397983088141e-06,-4.038790739125473e-05,-1.2295131784413372e-12,-0.0148802995681762,-0.0101768374443054,0.0129337310791015,0,0,0,0
4.5,1788433545619,0.0,0.0,0.0015371475601568,0.0013550689909607,0.4427860677242279,0.8966249823570251,-0.0001501918683064,-0.0001503532405857,4.3392261353590267e-07,2.720772317843512e-05,-1.593617162143346e-05,0.0,0.0012624338269233,0.001614092849195,0.599777102470398,0.800164520740509,1.822590226996374e-05,-1.2739117980049171e-05,-3.4828924779018244e-12,-0.0003303289413452,-0.033775508403778,0.0032825469970703,0,0,0,0
4.6,1788433545719,0.0,0.0,0.001537061179988,0.001355929300189,0.4427860677242279,0.8966249823570251,0.0002328206691293,0.000233070821168,-6.733121361430445e-07,2.795623913698364e-06,2.4153447157004848e-05,0.0,0.0012624086812138,0.0016153305768966,0.599777102470398,0.800164520740509,2.641297522349241e-05,4.919050506397314e-06,1.7557536313093928e-12,0.0140370726585388,0.0075557231903076,0.0157909393310546,0,0,0,0
4.7,1788433545819,0.0,0.0,0.0015381117118522,0.0013559453655034,0.4427860677242279,0.8966249823570251,0.0,0.0,0.0,1.5805147995706648e-05,-2.075591510219965e-05,0.0,0.0012642610818147,0.0016140406951308,0.599777102470398,0.800164520740509,9.932809502603153e-06,-6.53613991120216e-05,-9.682539655068371e-12,0.0171102881431579,0.0201366543769836,0.0104894638061523,0,0,0,0
4.8,1788433545919,0.0,0.0,0.0015432501677423,0.0013510546414181,0.4427860975265503,0.8966249823570251,-0.0002665307931409,-0.0002668171171795,7.733706578374387e-07,7.973930769367144e-05,-0.0001928638084791,1.557610403324361e-06,0.0012699291110038,0.001610861159861,0.599777102470398,0.800164520740509,6.693475360839976e-05,-0.0001555469123475,-1.5767578609524284e-10,0.0037324428558349,0.000190258026123,-0.0130424499511718,0,0,0,0
4.9,1788433546019,0.0,0.0,0.0015489729121327,0.0013430796097964,0.4427860975265503,0.8966249823570251,0.0,0.0,0.0,3.0192722988431345e-05,-0.0002107078180415,0.0,0.0012775296345353,0.0016031851992011,0.599777102470398,0.800164520740509,2.483135054381439e-05,-0.0001828309568071,-6.776928977038626e-11,0.0069764852523803,-0.0086208581924438,0.0018377304077148,0,0,0,0
5.0,1788433546119,0.0,0.0,0.0015526900533586,0.0013373912079259,0.4427859187126159,0.8966251015663147,0.0,0.0,0.0,2.4592189220129512e-05,-0.0001158061786554,-1.0228432074654847e-05,0.001282756216824,0.001597873866558,0.599777102470398,0.800164520740509,2.814681932117053e-05,-0.0001612619960669,-6.852279017264003e-11,0.0141142010688781,0.00907564163208,0.0237112045288085,0,0,0,0
5.1,1788433546219,0.0,0.0,0.001558176241815,0.0013301179278641,0.4427858889102936,0.8966250419616699,0.0,0.0,0.0,2.967835644085426e-05,-0.0001896035828394,1.1721165265043965e-06,0.0012881876900792,0.0015929052606225,0.599777102470398,0.800164520740509,2.5706835582750616e-05,-0.0001477533741778,-5.714951269730244e-11,-0.0128087401390075,-0.0032872557640075,0.0217485427856445,0,0,0,0
5.2,1788433546319,0.0,0.0,0.0015602366765961,0.0013244685251265,0.4427858889102936,0.8966250419616699,0.0,0.0,0.0,-2.6924193662125617e-05,-0.0001279722346225,-1.4917419548510225e-06,0.0012908093631267,0.0015877746045589,0.599777102470398,0.800164520740509,-4.5998320485703455e-05,-8.999806643804668e-05,6.19723660356366e-11,-0.0070489645004272,0.0205936431884765,-0.0015201568603515,0,0,0,0
5.3,1788433546419,0.0,0.0,0.0015596208395436,0.0013216919032856,0.4427858591079712,0.8966250419616699,0.0,0.0,0.0,-6.010784636600874e-05,-7.4792631494347e-05,-1.0054303629658534e-06,0.0012899870052933,0.0015822071582078,0.599777102470398,0.800164520740509,-9.945989624768048e-05,-9.438989245611508e-05,1.7546874467840982e-10,-0.0054173469543457,-0.0112718939781188,-0.0015182495117187,0,0,0,0
5.4,1788433546519,0.0,0.0,0.0015554830897599,0.0013130161678418,0.4427858591079712,0.8966251015663147,0.0,0.0,0.0,-0.0001095934640034,-6.813388608861715e-05,-2.936409828180331e-06,0.0012879269197583,0.0015753535553812,0.599777102470398,0.800164520740509,-0.000134557335236,-8.862659862889124e-05,1.8582838707574247e-10,-0.001899778842926,0.0052914023399353,0.0001440048217773,0,0,0,0
5.5,1788433546619,0.0,0.0,0.0015520048327744,0.0013058679178357,0.4427857398986816,0.8966251611709595,0.0,0.0,0.0,-0.0001308404607698,-9.418957051821052e-05,0.0,0.001285957172513,0.0015491032972931,0.5997763276100159,0.8001652359962463,-0.0007794287697434,-0.0010280044803956,-6.753773246554186e-05,-0.0024263262748718,0.0110669136047363,-0.0185308456420898,226,226,-7446,7504
5.6,1788433546719,-2.676056385040283,2.619718313217163,0.0017219564178958,0.0014618068234995,0.4506778419017792,0.8926838636398315,-0.0071685027118621,0.0024388954901765,2.6891966839548e-06,0.0078908605501055,0.0030909026972949,0.3457455635070801,0.0012590652331709,0.0018599806353449,0.6097354888916016,0.7926018238067627,0.0023969106017115,0.0151004136886107,0.6175485384111684,-0.2447478771209716,0.7591267824172974,-0.0032901763916015,306,173,-13614,10902
5.7,1788433546819,-2.2253520488739014,2.676056385040283,-0.0001805881038308,0.0049647940322756,0.4904409050941467,0.8714602589607239,0.0139396414369318,-0.011042590829613,-2.109745848646775e-05,0.0016264449805021,0.0854802429676055,0.8273943066596985,-0.0001773945987224,0.0044052153825759,0.6476117968559265,0.7619577050209045,0.024768330041995,-0.0237850789565474,0.7702280322282167,-0.7129944562911987,-0.4718905687332153,-0.713932991027832,475,77,-16434,8828
5.8,1788433546919,-2.0,2.450704336166382,0.0015553892590105,0.0036939298734068,0.5186254978179932,0.854992151260376,0.0025559340611971,0.0013221456969288,-6.776457940220975e-06,-0.0014839720679447,-0.0083819273859262,0.7260724306106567,0.0008729621767997,0.0037476262077689,0.672641932964325,0.7399581670761108,-0.012156509428644,-0.0084432647011122,0.7665289577179033,0.4274528622627258,-0.5041836500167847,-0.6580381393432617,502,35,-16595,7389
5.9,1788433547019,-1.9154930114746092,2.11267614364624,0.0016409107483923,0.0032289715018123,0.5469710826873779,0.8371436595916748,0.0090417221504495,-0.0051546595061872,1.5457196728816902e-06,-0.0037034491542726,-0.0031617877539247,0.6110193729400635,0.0010138293728232,0.0033988812938332,0.6936315894126892,0.7203212380409241,-0.0080198482370849,-0.0120225425520012,0.5840570098687382,0.1401497721672058,0.0034823417663574,0.1980581283569336,656,55,-18881,8218
6.0,1788433547119,-1.97183096408844,2.253521203994751,0.0013814172707498,0.0027916866820305,0.5733845233917236,0.8192803859710693,0.0025243206322238,-0.0065148692400212,7.866486973697036e-06,-0.0096728028729557,0.0180320218205451,0.6768182516098022,0.0007405700162053,0.0028632804751396,0.7215014696121216,0.6924067139625549,-0.0119938181467627,0.0003764521455504,0.6971314903536476,-0.1028039455413818,0.0363923907279968,0.3632059097290039,646,78,-20015,8175
6.1,1788433547219,-2.05633807182312,2.2253520488739014,0.0011073367204517,0.0024273074232041,0.6027576923370361,0.7979198098182678,0.0068876203010168,-0.0059625826397365,1.6882926538123356e-06,-0.0079794935882091,-0.0008484637364745,0.6492640376091003,0.0005784854292869,0.0025630006566643,0.7412963509559631,0.6711727976799011,-0.0103415010532449,-0.0069147444827433,0.6313900725085161,-0.2333405613899231,0.0264039635658264,0.1727046966552734,656,97,-20959,8059
6.2,1788433547319,-2.11267614364624,2.7323944568634038,0.0010678630787879,0.0019465333316475,0.6257556676864624,0.7800159454345703,0.0082932736740995,-0.0065777984269092,-4.645287111814015e-06,-0.0067953942343592,0.0038864593952894,0.6110069751739502,0.0006812680512666,0.0020397137850522,0.760297417640686,0.6495715379714966,-0.0095860171166414,-0.0004873423983467,0.6207636095178475,-0.1799114942550659,-0.0445595383644104,-0.0196952819824218,808,139,-26276,11226
6.3,1788433547419,-3.070422649383545,2.7323944568634038,0.0006167426472529,0.0013334127143025,0.6559919714927673,0.7547664046287537,0.0046701011203059,-0.003819000609727,1.6816868928188593e-07,-0.0172915831208229,0.0030157959554344,0.953916609287262,-0.0001164404675364,0.0015256712213158,0.7934771776199341,0.6085981130599976,-0.0140662348075504,0.0312306085150357,1.060691639258872,0.5241097211837769,-0.0905301570892334,2.036849021911621,520,17,-19117,6359
6.4,1788433547519,0.0,0.0,0.0001248858170583,0.0011835783952847,0.6859931349754333,0.727607011795044,0.0156842379677857,-0.0172375693573228,7.852827617826675e-07,-0.0061411671340465,-0.0002761430223472,0.5680719017982483,3.3863820135593414e-05,0.0011120634153485,0.8090746402740479,0.5877047777175903,0.0022482472415338,-0.0199428860219178,0.2207057811928598,0.3302867412567138,-0.170306384563446,-0.2121562957763672,50,1,0,0
6.5,1788433547619,0.0,0.0,0.0001359815360046,0.0012808814644813,0.6865089535713196,0.7271201610565186,-0.0010778165984097,-0.003395079757398,4.7993022421422975e-06,0.0014304531505331,0.0036981462035328,-0.0482881441712379,6.31827861070633e-05,0.0012696236371994,0.80791836977005,0.5892930626869202,0.0053742648065362,-0.0103205002398708,-0.0277289902915426,0.4483540058135986,0.3184495568275451,0.0100564956665039,0,0,0,0
6.6,1788433547719,0.0,0.0,0.0002222820185124,0.0012427748879417,0.6858010292053223,0.727787971496582,0.0004879470949837,0.0004996044403845,-2.7936202830872925e-07,0.0,-1.4336033471451515e-09,0.0,-9.605661034584044e-06,0.0012728478759527,0.8078839182853699,0.5893403887748718,-0.0008231169949605,-0.0014920104342597,0.0076154616599222,0.1603842973709106,-0.1692168712615966,-0.0218105316162109,0,0,0,0
6.7,1788433547819,0.0,0.0,0.0002222820185124,0.0012427748879417,0.6858010292053223,0.727787971496582,-3.59829586594308e-06,0.0003816746144828,-7.795044731022573e-07,0.0,-1.163379281798882e-09,0.0,2.056360244750977e-06,0.0012896759435534,0.807921290397644,0.5892890691757202,4.065127761169193e-05,0.0011527469406445,-0.0042317983982138,-0.03898286819458,0.0206884741783142,0.0091457366943359,0,0,0,0
6.8,1788433547919,0.0,0.0,0.0002222820185124,0.0012427748879417,0.6858010292053223,0.727787971496582,0.0,0.0,0.0,0.0,-1.162192786452465e-09,0.0,2.028420567512512e-06,0.001295207068324,0.8079381585121155,0.5892658233642578,0.0005756310732921,-0.0018971601779398,0.0020161773423489,0.0580770969390869,0.0404169559478759,-0.0141210556030273,0,0,0,0
6.9,1788433548019,0.0,0.0,0.0002222820185124,0.0012427748879417,0.6858010292053223,0.727787971496582,0.0,0.0,0.0,0.0,-1.1747796069272454e-09,0.0,2.1977350115776065e-05,0.0012696404010057,0.8079252243041992,0.5892837047576904,0.0005318744117226,-9.83267946375145e-05,0.001202734409729,-0.0143778324127197,-0.0204796195030212,-0.0125064849853515,0,0,0,0
7.0,1788433548119,0.0,0.0,0.0002222820185124,0.0012427748879417,0.6858010292053223,0.727787971496582,0.0,0.0,0.0,0.0,-1.4195610242850876e-09,0.0,-1.5451572835445404e-05,0.0012668706476688,0.8079095482826233,0.5893052816390991,0.0002170867929278,0.001139977705554,4.363318390537264e-05,0.0041493773460388,-0.0109815597534179,-0.0286436080932617,0,0,0,0
7.1,1788433548219,0.0,0.0,0.0002222820185124,0.0012427748879417,0.6858010292053223,0.727787971496582,0.0,0.0,0.0,0.0,-1.169722096960868e-09,0.0,1.6148202121257782e-05,0.0012526158243417,0.8079090118408203,0.5893058776855469,-0.0001353794523025,-0.0002707338317026,-0.0018854530468796,0.0429927110671997,-0.0057782530784606,-0.010655403137207,0,0,0,0
7.2,1788433548319,0.0,0.0,0.0002222820185124,0.0012427748879417,0.6858010292053223,0.727787971496582,0.0,0.0,0.0,0.0,-1.1682101952459334e-09,0.0,-2.6469118893146515e-05,0.0013006823137402,0.8079121112823486,0.5893016457557678,0.0003519066655848,0.0007838844371201,-0.0020977696425943,0.0113205313682556,0.0144872665405273,0.0010890960693359,0,0,0,0
7.3,1788433548419,0.0,0.0,0.0002222820185124,0.0012427748879417,0.6858010292053223,0.727787971496582,0.0,0.0,0.0,0.0,-8.499252412974555e-10,0.0,-2.660602331161499e-05,0.001306272111833,0.8079085946083069,0.5893064141273499,0.0002156474825847,-0.0002848312686763,0.0021767138370746,-0.0314401984214782,0.0162404775619506,0.0026731491088867,0,0,0,0
7.4,1788433548519,0.0,0.0,0.0002222820185124,0.0012427748879417,0.6858010292053223,0.727787971496582,0.0,0.0,0.0,0.0,-1.4395049596771512e-09,0.0,-7.493607699871063e-05,0.0013246545568108,0.8078961372375488,0.5893233418464661,-0.0004763554694826,0.0002398033220409,0.001591580424826,0.0040168762207031,0.0023112297058105,-0.0046339035034179,0,0,0,0
7.5,1788433548619,0.0,0.0,0.0002222820185124,0.0012427748879417,0.6858010292053223,0.727787971496582,0.0,0.0,0.0,0.0,-1.1597798277307447e-09,0.0,-8.186511695384979e-05,0.0012708446010947,0.8078833818435669,0.5893411040306091,-0.0016553195610573,0.0004125774651162,-0.0011207271318414,-0.0088776350021362,-0.0147385597229003,-0.020904541015625,0,0,0,0
7.6,1788433548719,-0.3098591566085815,1.4647886753082275,0.0002222820185124,0.0012427748879417,0.6858010292053223,0.727787971496582,0.0,0.0,0.0,0.0,-1.409889427428368e-09,0.0,-4.174280911684036e-05,0.0011544069275259,0.808356523513794,0.5886920690536499,-0.0049527425762719,-0.0066206732948958,0.0519864587445866,0.335548996925354,0.4959468245506286,-0.0883255004882812,557,154,-15486,9268
7.7,1788433548819,-2.450704336166382,3.3521127700805664,-0.0003765239962376,0.0007056581089273,0.7074121236801147,0.7068008184432983,0.0253143269176601,0.0021718189727773,4.665215820676874e-06,-0.0175846479833126,0.006400701124221,0.7155850529670715,-0.0005629155784845,0.0006514396518468,0.8234483599662781,0.5673905611038208,-0.0163711731875093,0.0138877188160229,0.7789832906205794,-0.9589345455169678,-0.1842331290245056,0.0855083465576171,830,79,-25376,10071
7.8,1788433548919,-1.8309859037399288,2.9577465057373047,-0.0003065119381062,-0.0006125739309936,0.7365031242370605,0.676433801651001,0.012925956640087,-0.0042797692278028,6.872854841454436e-06,-0.0301301535218954,-0.0247739665210247,0.8809133768081665,-0.0001772260293364,-0.0010526701807975,0.8530142903327942,0.5218864679336548,-0.0271875498299398,-0.0203284909584635,0.7811391660753934,0.166366696357727,-0.0353392958641052,0.2819700241088867,881,68,-26550,9213
7.9,1788433549019,0.0,2.450704336166382,-0.0006837178952991,-0.0013503280933946,0.7571287155151367,0.653264045715332,0.0311427689164675,-0.0033238970137371,-2.687050470321431e-06,-0.0109530752524733,0.0055514643900096,0.5241362452507019,-0.0005126679316163,-0.0014554373919963,0.8655877709388733,0.5007548928260803,-0.0037653612311422,0.0039206049233963,0.4425801402095427,-0.2767556309700012,-0.1697799563407898,-0.0058889389038085,934,82,-32767,9004
8.0,1788433549119,-0.4507042169570923,0.9295774698257446,-0.0009398130932822,-0.0011144583113491,0.7703946232795715,0.6375656723976135,0.033186286790236,0.0004058653945962,-1.98177459548879e-06,-0.0040075900033116,0.010879729874432,0.4105594754219055,-0.0007423227652907,-0.0013128081336617,0.8772129416465759,0.4800992012023926,-0.0027560000491663,-0.0002276276915964,0.3311040294040976,-0.4627969264984131,-0.7650874853134155,-0.4636726379394531,944,66,-26032,0
8.1,1788433549219,0.0,0.0,-0.0010026497766375,-0.0003457100829109,0.7724074125289917,0.6351264119148254,0.0095795378018247,-0.0112089748452052,5.407691360098836e-06,0.0185746978968381,0.0294579025357961,-0.1467548310756683,-0.0008374080061912,-0.0004961108788847,0.8755518198013306,0.4831233918666839,0.0090873103229383,0.0048215059271451,-0.1184993197015509,-1.1865370273590088,1.1599633693695068,0.1732215881347656,3,0,0,0
8.2,1788433549319,0.0,0.0,-0.0009497331338934,-0.000457589601865,0.7718747854232788,0.6357737183570862,0.0003561621544958,-0.0028050534991541,-5.054025220518617e-06,7.315674732666366e-09,1.1705079572266186e-08,-7.491250926250359e-06,-0.000722050666809,-0.0005881981924176,0.8754169940948486,0.4833674728870392,0.0058570948714683,-0.009332382185205,0.026251016209751,0.5259138345718384,0.5106073021888733,0.039198875427246,0,0,0,0
8.3,1788433549419,0.0,0.0,-0.0009497332503087,-0.0004575893981382,0.7718746662139893,0.6357738375663757,0.0002606077370911,-0.0021940553360182,-3.969050103446944e-06,0.0,2.2926220921704044e-09,0.0,-0.0007427968084812,-0.0006045280024409,0.8752982020378113,0.4835825860500335,-0.0001402111625907,-0.0025981459304506,0.0058990309615239,0.2782601118087768,-0.3006662726402282,0.0065250396728515,0,0,0,0
8.4,1788433549519,0.0,0.0,-0.0009497332503087,-0.0004575893981382,0.7718746662139893,0.6357738375663757,-0.0002575592570882,0.0006993229026807,1.11077008429579e-06,0.0,2.777214458404842e-09,0.0,-0.0007539382204413,-0.0005902852863073,0.8753212094306946,0.4835410118103027,0.0003985127953762,0.0004500590032002,-0.0072858463091905,0.0486937761306762,0.0674421787261962,-0.012369155883789,0,0,0,0
8.5,1788433549619,0.0,0.0,-0.0009497332503087,-0.0004575893981382,0.7718746662139893,0.6357738375663757,0.0,0.0,0.0,0.0,1.647135983162684e-09,0.0,-0.0007963795214891,-0.0005830731242895,0.8753415942192078,0.4835040271282196,0.0003788764849112,-0.0004556342300881,0.0055414056832577,-0.0133760571479797,0.0605040788650512,0.000166893005371,0,0,0,0
8.6,1788433549719,0.0,0.0,-0.0008757294854149,-0.0004491897125262,0.7716990113258362,0.6359871625900269,0.000456263734495,-1.8253555340073656e-06,3.526977971346995e-07,0.0,0.0,0.0,-0.0007991893216967,-0.000606226734817,0.8753209710121155,0.4835413992404938,0.0002140603478945,-0.0013457234577415,0.0039288689870841,-0.0207256078720092,0.0142849087715148,-0.0215072631835937,0,0,0,0
8.7,1788433549819,0.0,0.0,-0.0008968510664999,-0.0004493025189731,0.7717427015304565,0.6359341740608215,0.0,0.0,0.0,0.0,2.2934121268747276e-09,0.0,-0.0007710652425885,-0.0006197476759552,0.8752883076667786,0.4836005866527557,0.0003747314928303,-0.0006086625195439,0.0017340440136648,0.0251242518424987,0.0109105110168457,-0.0093231201171875,0,0,0,0
8.8,1788433549919,0.0,0.0,-0.0008466932922601,-0.000466975296149,0.7717396020889282,0.6359379291534424,-0.0001283101037648,-0.0005195195075732,-1.052102582676143e-06,0.0011826793197542,-0.0010386867215856,0.004885328002274,-0.0007467400282621,-0.0006128791719675,0.8752983808517456,0.4835824370384216,4.051670829991073e-05,-9.24517819772044e-05,-0.0038629506826243,0.0076361298561096,0.0090548396110534,0.0010938644409179,0,0,0,0
8.9,1788433550019,0.0,0.0,-0.0008764941594563,-0.0004564886330626,0.7717390656471252,0.6359385848045349,0.0,0.0,0.0,-0.0004370796959847,0.0011942589189857,-3.239094075979665e-05,-0.0007508285343647,-0.0006024967879056,0.8753342032432556,0.4835174977779388,0.0012797278286611,-0.0013489532016146,0.0021689509223118,-0.0003131031990051,-0.0211765766143798,0.0025968551635742,0,0,0,0
9.0,1788433550119,0.0,0.0,-0.0008458539959974,-0.0004647313035093,0.7717060446739197,0.635978639125824,0.0004659856506902,-1.874685310440194e-06,3.295312384580786e-07,5.321794560586568e-09,1.3304486401466422e-08,-8.174276445060968e-06,-0.0008093742653727,-0.0005613584071397,0.8753368258476257,0.4835126101970672,0.0003952806001382,0.00256388382839,0.0038086206391959,0.0187597274780273,0.0084402561187744,0.0099306106567382,0,0,0,0
9.1,1788433550219,0.0,0.0,-0.0008976698154583,-0.0004015618178527,0.7717615962028503,0.6359111070632935,0.0,0.0,0.0,0.0,0.0,0.0,-0.0008330605924129,-0.0005584247410297,0.8753042221069336,0.4835716187953949,-0.0004762969878916,0.0016155317419586,4.98557742256116e-05,0.0096042156219482,-0.0409055948257446,0.0062246322631835,0,0,0,0
9.2,1788433550319,0.0,1.6056338548660278,-0.0009297934593632,-0.0004273582308087,0.7718742489814758,0.6357743740081787,0.0006055029193155,-0.0013202152176015,-1.7982813430027166e-06,-0.0015920102596282,-0.0007318278658203,0.0130251608788967,-0.0007403325289487,-0.0008500088006258,0.8777323365211487,0.4791500270366668,-0.0103074864661572,-0.0124391061399989,0.3198974738947561,-0.2017533183097839,0.8979442119598389,-0.0103416442871093,684,221,-16320,9219
9.3,1788433550419,-0.7323943376541138,2.929577350616455,-0.0008834811742417,-0.0010716606630012,0.7886555790901184,0.6148337125778198,0.0411672408033559,-0.0023775737204562,-5.192738432622986e-06,-0.0070874537341296,0.0081202592700719,0.6030373573303223,-0.0007973555475473,-0.0011600432917475,0.8900526762008667,0.4558554589748382,-0.0013334906058193,0.0112229818734191,0.5903882627991731,0.547806978225708,-0.3552982807159424,-0.0240650177001953,947,50,-30805,8933
9.4,1788433550519,-0.1971831023693084,2.5352113246917725,-0.0011180059518665,-0.0008219737792387,0.801470160484314,0.59803307056427,0.0463459129475692,-0.0022256322276273,-9.739617891281464e-06,0.0027274971362203,0.0029225861653685,0.4385111629962921,-0.0010496955364942,-0.0010198121890425,0.8990353941917419,0.4378735423088074,-0.0040984168376727,0.0093342119530972,0.3882764203759042,-0.8218106627464294,0.1525118947029113,0.0163097381591796,931,72,-32767,8837
9.5,1788433550619,0.0,2.563380241394043,-0.0009526889771223,-0.0010178927332162,0.8133041858673096,0.5818371176719666,0.0417531942774644,-0.0016924309219098,1.7572116292322823e-06,0.0009493918623775,-0.0015205144882202,0.3922214806079864,-0.000844526104629,-0.0012027565389871,0.9095598459243774,0.4155702888965606,-0.0046006479664013,0.0024449200113051,0.4471846161080454,-0.4186567068099975,0.1784097552299499,0.2481975555419922,932,99,-32767,9291
9.6,1788433550719,0.0,0.98591548204422,-0.0011508560273796,-0.0009981107432395,0.8260598182678223,0.563580334186554,0.0404443066889782,-0.003481566607083,1.3554372566216843e-06,-0.000660290766973,0.0040205954574048,0.3679981529712677,-0.0009808037430047,-0.0011523580178618,0.916674554347992,0.3996315896511078,0.0011752981796256,0.0027279077402145,0.3508947673056043,-0.5625483989715576,-0.3563464879989624,0.0851459503173828,945,81,-29294,0
9.7,1788433550819,0.0,0.0,-0.0011846091365441,-0.0003264262049924,0.8277814388275146,0.5610494613647461,0.0132294505224019,-0.0096222841770659,-3.90894483746741e-06,0.0195490289479494,0.0128307724371552,-0.0666139125823974,-0.0011510262265801,-0.0005015758797526,0.9164611101150512,0.400121808052063,0.0107175230627311,0.0120804982587368,-0.1185674609952103,-1.330269455909729,0.7705762982368469,-0.0505218505859375,0,0,0,0
9.8,1788433550919,0.0,0.0,-0.0012317248620092,-0.0003693501930683,0.827396810054779,0.5616163015365601,0.000627049306308,0.0015746273761494,3.793822007015167e-06,-0.0018405566224828,0.0089593948796391,-0.0199358761310577,-0.001013315282762,-0.0005620531737804,0.9165733456611632,0.3998648226261139,0.0021594769573294,-0.0028058768873302,0.0176283988460361,0.141353964805603,0.1525377035140991,0.0220069885253906,0,0,0,0
9.9,1788433551019,0.0,0.0,-0.0011771677527576,-0.0003839752753265,0.8275388479232788,0.5614070892333984,-0.0016147748180631,-0.0002466077254805,-2.727647092158594e-06,-0.0022847191430628,0.0021635391749441,-0.0075448411516845,-0.0010599615052342,-0.0005863914266228,0.9164950847625732,0.4000440835952759,-0.0011560830129712,0.002136557927844,-0.005773210261249,-0.1812946200370788,-0.004679799079895,0.0089340209960937,0,0,0,0
10.0,1788433551119,0.0,0.0,-0.0010823088232427,-0.0004205355071462,0.8275327086448669,0.5614162087440491,0.0004512903433131,-0.0002619514131168,1.20434228585631e-07,0.0002903586137108,-0.0013014061842113,-0.0047865426167845,-0.0010294076055288,-0.000621061772108,0.9164841175079346,0.4000692665576935,-0.0024438221151293,0.0016787457311015,-0.0026206214341746,0.1124417185783386,-0.0994979739189148,0.0123758316040039,0,0,0,0
10.1,1788433551219,0.0,0.0,-0.0011158346896991,-0.0004295095277484,0.8275551795959473,0.5613831281661987,0.0003184842676924,-0.0003380411416744,-2.1062838376612278e-07,-6.500700237666024e-06,-0.0008582071750424,0.0019386197673156,-0.000996290706098,-0.0006350688636302,0.9165086150169371,0.400013267993927,3.925174795871706e-05,-0.0024060427043076,-0.0010351200415868,0.0704230070114135,0.0136053562164306,0.028813362121582,0,0,0,0
10.2,1788433551319,0.0,0.0,-0.0011448409641161,-0.0004004215879831,0.8275560736656189,0.5613817572593689,-0.0001535269829938,0.0001570908435573,9.535953622723869e-08,0.0002766948600765,0.0014217618154361,0.0009102220647037,-0.0010435357689857,-0.0005950545892119,0.9165211915969848,0.3999843895435333,0.0007586599973372,-0.0002887597685469,0.00202516620079,0.0177106857299804,-0.0028488039970397,0.0054073333740234,0,0,0,0
10.3,1788433551419,0.0,0.0,-0.0011469121091067,-0.0004218122921884,0.8275481462478638,0.5613934993743896,-7.541419971407719e-05,0.0001092709159714,1.0577924048384349e-07,-0.0006972540868446,4.589430682244711e-05,-0.0009010207722894,-0.0010285833850502,-0.0005961004644632,0.9165158867836,0.3999966382980346,0.0011028075910151,-0.0008168534326315,0.0019969682171823,-0.0143886804580688,0.0314321517944335,0.0232429504394531,0,0,0,0
10.4,1788433551519,0.0,0.0,-0.0010932155419141,-0.0004336676793172,0.8275526762008667,0.56138676404953,-7.613492358407776e-05,0.0001103201426873,1.0620607348466773e-07,-0.0005500748520717,-0.001170880976133,-0.0010014384752139,-0.0010035447776317,-0.0006167413666844,0.9165017008781432,0.4000291228294372,0.0003940571503929,0.0007863310576077,-0.0008364842956219,-0.008704662322998,-0.0315528512001037,0.009230613708496,0,0,0,0
10.5,1788433551619,0.0,0.0,-0.0010852527339011,-0.0004192630003672,0.8275541067123413,0.5613846778869629,4.1278419831605726e-05,-4.62648145295095e-05,-3.388398222573788e-08,0.0003042525495402,-0.0003002778976224,0.000440189614892,-0.0009810766205191,-0.0006100609898567,0.9165046215057372,0.4000223577022552,-0.0002986237656273,-0.0014384202499698,-0.0016437504296923,0.0242186188697814,0.0005976557731628,0.0316133499145507,0,0,0,0
10.6,1788433551719,0.0,0.0,-0.0011120189446955,-0.0003916803689207,0.827562689781189,0.5613720417022705,0.0001181297360255,-0.0001481899290768,-1.209479700187277e-07,0.0004227785102557,0.0005774117889814,0.0014808847336098,-0.0010126959532499,-0.0005943160504102,0.9165172576904296,0.3999935388565063,0.0002165551423473,-0.0004640723384946,0.0012878083402135,-0.0001284480094909,0.0239930748939514,0.0021162033081054,0,0,0,0
10.7,1788433551819,0.0,0.0,-0.0011309342226013,-0.0004073979216627,0.8275564908981323,0.5613810420036316,-1.7815386332602612e-05,7.08877211458024e-06,-1.0273125451909694e-08,-0.0010245380690321,0.0016993441386148,-0.0001533913018647,-0.0010360553860664,-0.0006164545193314,0.9165193438529968,0.3999885320663452,-0.0004939129695485,-0.0002843260244659,0.0016472659103968,-0.0039591789245605,0.0126539468765258,0.0007362365722656,0,0,0,0
10.8,1788433551919,0.0,1.6619718074798584,-0.0010946614202111,-0.0004661146958824,0.8275938034057617,0.561326265335083,0.0002128173000778,-0.000238560473762,-1.7863154507377654e-07,-0.0009737545624375,-0.0017769378609955,0.002460278570652,-0.0009510377421975,-0.000755950808525,0.91684752702713,0.3992357850074768,-0.0070078599320411,-0.0061133578382896,0.0610573341505902,0.7709953188896179,0.3480435609817505,-0.1102151870727539,626,126,-16153,8306
10.9,1788433552019,-0.591549277305603,2.9577465057373047,-0.0015460684662684,-0.0008110523922368,0.8401039838790894,0.5424225926399231,0.0445812052118555,0.0029547938206572,1.819611385307957e-05,-0.0102011850103735,0.0022516399621963,0.5776896476745605,-0.0012254519388079,-0.0010056253522634,0.9273714423179626,0.3741386532783508,0.0066090767844987,0.0151777122959356,0.5479573461400575,0.1947506666183471,-0.346635103225708,-0.6438016891479492,944,60,-32343,9022
11.0,1788433552119,-0.2535211145877838,2.619718313217163,-0.0012878589332103,-0.0009342189878225,0.8518955707550049,0.523709237575531,0.0448801912361432,-0.0006219867728298,3.1214374241965757e-06,-0.0056423563510179,-0.0123889427632093,0.4337489306926727,-0.0009971437975764,-0.0011119488626718,0.9351049065589904,0.3543680906295776,0.0034373411627579,-0.0056200941658076,0.4370425595987822,-0.0054344534873962,-0.2950237989425659,-0.4407796859741211,924,66,-32767,8496
11.1,1788433552219,0.0,2.563380241394043,-0.0012526020873337,-0.0007850538240745,0.8629211783409119,0.5053364038467407,0.0404135827133166,-0.0005999675186052,-3.7427719090236585e-06,0.0001296384725719,0.0040488122031092,0.4076649844646454,-0.0010538399219512,-0.0010248720645904,0.9416581392288208,0.3365675806999206,-0.0046485875341774,0.0058250742719602,0.3778611429756717,-0.4487837553024292,-0.0706069469451904,-0.2625322341918945,929,76,-32767,8692
11.2,1788433552319,0.0,1.211267590522766,-0.0006286660791374,-0.0005114383529871,0.8731996417045593,0.4873619675636291,0.0413424879706177,-0.0014499115878104,-4.608485264178724e-06,0.0111735444515943,-0.0070437346585094,0.398899644613266,-0.0002847593277692,-0.0006419587880373,0.9491435289382936,0.314842939376831,0.0031493801494094,-0.0155632309815089,0.2704683051839484,0.0678685307502746,-0.5447291731834412,-0.1216812133789062,942,76,-28279,0
11.3,1788433552419,0.0,0.0,-0.0007538419449701,0.0002207940269727,0.8742793202400208,0.4854225814342499,0.0098418839654229,-0.0099446445807748,-3.818490787628818e-06,0.0222285371273756,0.0295437183231115,-0.093656912446022,-0.0008033765479922,8.508563041687012e-05,0.9483671188354492,0.3171737492084503,0.0053152435978255,0.030912333852631,-0.1298892894524084,-1.2633357048034668,0.7322976589202881,0.0697593688964843,2,0,0,0
11.4,1788433552519,0.0,0.0,-0.0007331424276344,0.0001016733440337,0.8736109137535095,0.4866245985031128,-0.0010658851907977,-0.0015411120013153,-2.1008454835273854e-06,-0.0008129899506457,0.0033052959479391,-0.0190991908311843,-0.0006633624434471,-1.648813486099243e-05,0.9480385780334472,0.3181548118591308,0.0037617001000394,-0.0085000665979435,0.0178371347545916,0.2852588891983032,0.3005664348602295,0.0314264297485351,0,0,0,0
11.5,1788433552619,0.0,0.0,-0.0007331424276344,0.0001016733440337,0.8736109137535095,0.4866245985031128,-0.0001645770842768,-0.0014309494594624,-9.939270662288351e-07,0.0,0.0,0.0,-0.0007758075371384,-1.0021030902862549e-05,0.9479987025260924,0.3182734549045563,-0.001202463194024,0.0046894088688195,0.0002321847302617,-0.0807934403419494,-0.1441423296928405,-0.0237026214599609,0,0,0,0
11.6,1788433552719,0.0,0.0,-0.0007331424276344,0.0001016733440337,0.8736109137535095,0.4866245985031128,0.00035193711606,-0.000329014563453,3.093301407856912e-07,0.0,0.0,0.0,-0.0008054869249463,-3.819353878498077e-06,0.9479891657829284,0.3183018565177917,-0.0003392759149073,0.002372659208561,-0.0005186404211581,0.0257607698440551,-0.1045992374420166,-0.0074024200439453,0,0,0,0
11.7,1788433552819,0.0,0.0,-0.0007331424276344,0.0001016733440337,0.8736109137535095,0.4866245985031128,0.0,0.0,0.0,0.0,0.0,0.0,-0.0007347827777266,-1.7236918210983276e-05,0.9479965567588806,0.3182798624038696,-0.0008479440566758,-0.0004506035648612,-0.0028046726179482,0.0530992150306701,0.0209207534790039,-0.001688003540039,0,0,0,0
11.8,1788433552919,0.0,0.0,-0.0007331424276344,0.0001016733440337,0.8736109137535095,0.4866245985031128,0.0,0.0,0.0,0.0,0.0,0.0,-0.0007492834702134,-4.643481224775314e-05,0.9480032920837402,0.3182595670223236,-0.0013029744593951,-0.0007620102874343,-0.0019770521256964,0.0163318514823913,-0.0516866445541381,0.0009212493896484,0,0,0,0
11.9,1788433553019,0.0,0.0,-0.0007331424276344,0.0001016733440337,0.8736109137535095,0.4866245985031128,0.0,0.0,0.0,0.0,0.0,0.0,-0.0007864255458116,-5.457364022731781e-05,0.9480125308036804,0.3182322382926941,-0.0010248522316892,-0.0004609141877287,0.0016431422338135,-0.0193767547607421,-0.0070688128471374,0.0188865661621093,0,0,0,0
12.0,1788433553119,0.0,0.0,-0.0007331424276344,0.0001016733440337,0.8736109137535095,0.4866245985031128,0.0,0.0,0.0,0.0,0.0,0.0,-0.0008255345746874,-8.458644151687622e-05,0.9479910135269164,0.3182960748672485,-0.0006697898676508,0.0023767900684938,0.0007588597164321,-0.0209900140762329,-0.0081920623779296,-0.0066814422607421,0,0,0,0
12.1,1788433553219,0.0,0.0,-0.0007331424276344,0.0001016733440337,0.8736109137535095,0.4866245985031128,0.0,0.0,0.0,0.0,0.0,0.0,-0.0007440326735377,-0.0001207031309604,0.947989284992218,0.3183014094829559,-0.0003540894703159,-0.0005102301111817,-0.0013507842064288,-0.0215814709663391,-0.0312238335609436,0.0177373886108398,0,0,0,0
12.2,1788433553319,0.0,0.0,-0.0007331424276344,0.0001016733440337,0.8736109137535095,0.4866245985031128,0.0,0.0,0.0,0.0,0.0,0.0,-0.0007559265941381,-0.000120454467833,0.9479950070381165,0.3182842433452606,-0.0006697623605498,-0.0013398319808506,-0.0012015191068337,0.0052604675292968,0.0098710060119628,0.0264196395874023,0,0,0,0
12.3,1788433553419,0.0,0.0,-0.0007331424276344,0.0001016733440337,0.8736109137535095,0.4866245985031128,0.0,0.0,0.0,0.0,0.0,0.0,-0.0007872115820646,-0.0001193219795823,0.9479981660842896,0.3182746171951294,0.0008639186909288,-0.000928037667747,0.001866077149671,-0.0012995600700378,0.00985848903656,-0.0060205459594726,0,0,0,0
12.4,1788433553519,0.0,1.6338027715682983,-0.0007331424276344,0.0001016733440337,0.8736109137535095,0.4866245985031128,-1.4040669503119134e-05,0.0004170921624787,2.0413841003825715e-07,0.0,0.0,0.0,-0.0005052834749221,-0.0003704009577631,0.9491702914237976,0.3147623538970947,-0.0057820097601305,-0.0205581410296562,0.2164884875844808,0.0431163311004638,0.8040485382080078,-0.1254396438598632,611,146,-15125,8170
12.5,1788433553619,-0.5633803009986877,3.633802890777588,0.001112792873755,-0.0005579505814239,0.8861292600631714,0.4634364545345306,0.0519571833189675,0.001213414264657,3.0994502347986385e-05,0.0276233777403831,-0.0548742599785327,0.6719354391098022,0.001213002949953,-0.0003815721720457,0.9574227333068848,0.2886868715286255,0.0219590153288252,-0.0440938207818572,0.7044360800532793,0.1384420990943908,-0.0511137843132019,0.3807697296142578,940,46,-32767,11002
12.6,1788433553719,0.0,3.2676055431365967,-0.0008320794440805,-0.0008407403947785,0.8976750373840332,0.4406563341617584,0.0546803556745241,-0.0080427321613399,-1.011559363666508e-05,-0.0192680563777685,0.0225182399153709,0.5117686986923218,-0.0007515400648117,-0.0010686023160815,0.964145302772522,0.2653717398643493,-0.0195120041613474,0.0164165101993401,0.5724551160722211,-0.9218870401382446,0.598909854888916,0.6244916915893555,938,103,-32767,11230
12.7,1788433553819,-0.1971831023693084,3.2957746982574463,-0.0011990942293778,-0.0011213163379579,0.9096434712409972,0.4153867661952972,0.0503576315266725,-0.0046493357141401,5.925424405335635e-06,-0.0069855051115155,-0.0029274681583046,0.577989399433136,-0.0019184118136763,-0.0014412561431527,0.9723360538482666,0.2335739880800247,-0.0219198962233814,0.0581214922682228,0.4802304027391308,-0.4709748029708862,-0.2106940150260925,-0.4209127426147461,928,99,-32767,10978
12.8,1788433553919,-0.5633803009986877,2.676056385040283,-0.0025117299519479,-0.0009150998666882,0.9202647805213928,0.3912870585918426,0.0602648580877717,-0.0061318512788638,-1.593549304892066e-05,-0.0009498869767412,0.0146668758243322,0.5285803079605103,-0.0023155901581048,-0.0014389026910066,0.977717101573944,0.209909126162529,-0.0079393674531298,0.0030896740370082,0.4899728585867574,-0.4232426285743713,0.0950784087181091,0.4492168426513672,941,15,-31459,5850
12.9,1788433554019,-0.2253521084785461,0.6197183132171631,-0.0025587624404579,-0.000969382293988,0.9284532070159912,0.3714393675327301,0.0189985326163845,-0.0059541345474105,-1.6624712792992477e-06,-0.0016976133920252,-0.0026063115801662,0.2503566443920135,-0.0023020887747406,-0.0014224974438548,0.9808997511863708,0.1944952756166458,0.0029772036126661,-0.0171874821999677,0.1567081132088267,0.2437469363212585,-0.3330770134925842,-0.372476577758789,148,12,0,0
13.0,1788433554119,-0.2535211145877838,0.0,-0.0029596670065075,-0.0001637543318793,0.9275529980659484,0.3736798763275146,0.0002897472732731,-0.0024343184051348,-5.778699482529925e-06,0.0107852555811405,0.0212792102247476,-0.1024025604128837,-0.0026790760457515,-0.0007851170375943,0.9802131652832032,0.1979254782199859,-0.0050819582925298,-0.0101312476002667,-0.03144204850199,0.4921545386314392,-0.4753316044807434,-0.1787490844726562,0,0,0,0
13.1,1788433554219,0.0,0.0,-0.0028960066847503,-0.0002512021455913,0.9271572828292848,0.3746610283851623,-0.0005807383549164,-0.0014402967439849,2.7774652855367223e-06,0.0,0.0,0.0,-0.0028123063966631,-0.0007770778611302,0.980071187019348,0.1986251175403595,-0.005812750997684,0.0059653706112308,-0.0099216469410856,-0.1950121521949768,-0.4106018543243408,-0.049468994140625,0,0,0,0
13.2,1788433554319,0.0,0.0,-0.0028960066847503,-0.0002512021455913,0.9271572828292848,0.3746610283851623,-1.932525328219017e-05,0.0003921369454766,9.334888506068338e-07,0.0,0.0,0.0,-0.0027560107409954,-0.000751175917685,0.9800840020179749,0.1985629498958587,0.0004267121407897,-0.0010971011684872,0.0068831861692181,0.0985602736473083,-0.104250967502594,-0.0252542495727539,0,0,0,0
13.3,1788433554419,0.0,0.0,-0.0028960066847503,-0.0002512021455913,0.9271572828292848,0.3746610283851623,-0.0001425513294845,0.0001475819210205,-3.496854976541634e-07,0.0,0.0,0.0,-0.0027151172980666,-0.0007197940722107,0.980067014694214,0.1986475139856338,0.0010484828880326,-0.0012845348983862,0.0025763003599596,0.0619718432426452,-0.0062332153320312,-0.021428108215332,0,0,0,0
13.4,1788433554519,0.0,0.0,-0.0028960066847503,-0.0002512021455913,0.9271572828292848,0.3746610283851623,0.0,0.0,0.0,0.0,0.0,0.0,-0.0027394639328122,-0.0006962111219763,0.9800599813461304,0.1986815333366394,-0.0006684299412535,-0.0004523311664467,-0.0015558818437465,0.0499505400657653,-0.0102412104606628,0.0019121170043945,0,0,0,0
13.5,1788433554619,0.0,0.0,-0.0028960066847503,-0.0002512021455913,0.9271572828292848,0.3746610283851623,0.0,0.0,0.0,0.0,0.0,0.0,-0.0027277069166302,-0.0006614290177822,0.9800605177879332,0.1986796557903289,3.948263541200903e-05,-0.0011628646777429,-0.0008477576456703,0.0175339579582214,0.0321782231330871,-0.0087690353393554,0,0,0,0
13.6,1788433554719,0.0,0.0,-0.0028960066847503,-0.0002512021455913,0.9271572828292848,0.3746610283851623,0.0,0.0,0.0,0.0,0.0,0.0,-0.0027849758043885,-0.0006528701633214,0.9800577163696288,0.1986925452947616,-0.0006717610774549,0.0018530129044311,4.967911469270001e-05,-0.0124940276145935,-0.0034541487693786,-0.0120401382446289,0,0,0,0
13.7,1788433554819,0.0,0.0,-0.0028960066847503,-0.0002512021455913,0.9271572828292848,0.3746610283851623,0.0,0.0,0.0,0.0,0.0,0.0,-0.0028287591412663,-0.0006639556959271,0.9800564050674438,0.1986982822418213,-0.0003156300379067,0.0023774056716825,0.0011182403080219,-0.0148152709007263,-0.0067756175994873,0.0117082595825195,0,0,0,0
13.8,1788433554919,0.0,0.0,-0.0028960066847503,-0.0002512021455913,0.9271572828292848,0.3746610283851623,0.0,0.0,0.0,0.0,0.0,0.0,-0.0028118565678596,-0.0006574233993887,0.9800557494163512,0.1987015455961227,0.0005231760984102,0.0003957203880631,-0.0009328393489136,-0.000326931476593,0.0218915939331054,0.0246858596801757,0,0,0,0
13.9,1788433555019,0.0,0.0,-0.0028960066847503,-0.0002512021455913,0.9271572828292848,0.3746610283851623,0.0,0.0,0.0,0.0,0.0,0.0,-0.0027514835819602,-0.0006454400718212,0.9800612926483154,0.1986755579710006,0.0003789755026226,-0.0033401101253252,3.529011822977529e-05,0.0014607906341552,0.0097115039825439,-0.020538330078125,0,0,0,0
14.0,1788433555119,0.0,0.0,-0.0028172913007438,-0.000116279697977,0.9269856810569764,0.3750863373279571,-0.0019414885187635,0.0023202578483248,-3.94476934686299e-06,0.0088020674884319,-0.0012333616614341,-0.0258912798017263,-0.0027407398447394,-0.0006293840706348,0.9800707697868348,0.1986290961503982,0.0002165325600768,-0.0004578861811139,0.0004004947459051,0.0013692378997802,-0.0221248865127563,0.0187034606933593,0,0,0,0
14.1,1788433555219,0.0,1.5774648189544678,-0.0027200547046959,-0.0002747609396465,0.927563488483429,0.3736554980278015,0.0039390917301103,-0.0033676604509953,-1.189585872483564e-06,-0.0032573947682976,-0.0043101566843688,0.0439245738089084,-0.0025917310267686,-0.0008028177544474,0.9804664254188538,0.19666787981987,-0.0075586048048121,-0.0116327940300956,0.1337232952188402,0.7400737404823303,0.7224102020263672,-0.101994514465332,558,168,-15265,8621
14.2,1788433555319,0.0,3.521126747131348,-0.0026724427007138,-0.0009272132883779,0.9358739256858826,0.3523236513137817,0.0486054468858564,0.0024548839520098,7.30587450108954e-06,-0.0103222467005252,-0.0046441936865448,0.6343190670013428,-0.0024291342124342,-0.0013116896152496,0.9865493774414062,0.1634406149387359,0.0047502497501143,-0.0052293348227175,0.6183179871044536,-0.3828176856040954,0.2722551822662353,-0.1502037048339843,931,43,-32767,10936
14.3,1788433555419,0.0,3.239436626434326,-0.0026932444889098,-0.0007464163354597,0.9462957382202148,0.3232902586460113,0.0560027722287539,-0.0019895211871064,2.67186862648812e-05,0.0007558334618806,-0.007101128809154,0.593349814414978,-0.0026715099811553,-0.001120819710195,0.9906580448150636,0.1363386958837509,0.0050554667329629,0.036544117279235,0.5805961411721928,-0.220162808895111,0.2164434194564819,-1.0608901977539062,946,59,-32767,10656
14.4,1788433555519,-0.2535211145877838,3.2676055431365967,-0.0023204791359603,-0.0006975085125304,0.9549764394760132,0.2966718077659607,0.048577595526602,-0.0041284031209662,-1.0558780128171924e-05,-0.0006384345469996,-0.0090655572712421,0.5676783323287964,-0.0022821184247732,-0.000960580073297,0.994360327720642,0.1060250997543335,0.0041403968681351,0.0108873457163411,0.5676764455149976,-1.189610481262207,0.5296980738639832,0.0441713333129882,909,74,-32767,10320
14.5,1788433555619,0.0,1.5211267471313477,-0.0028243258129805,-0.0005892764311283,0.9633823037147522,0.2681160569190979,0.0457129246268083,-0.0110465578251821,-4.4546704643892894e-05,-0.0093003120273351,0.0045381034724414,0.4756310582160949,-0.0015797447413206,-0.0010365787893533,0.9964935183525084,0.0836484208703041,0.0161862831824286,-0.1427198594883158,0.4113014519023816,-0.4059441089630127,-0.0979779958724975,1.5407218933105469,936,61,-30322,1646
14.6,1788433555719,-0.6760563254356384,0.0,-0.0011379258939996,-0.0007294319802895,0.965114414691925,0.2618251442909241,0.0022429793275161,-0.0058884694236922,1.09707725183399e-06,0.0200646836310625,-0.031398482620716,0.0355829410254955,-0.0017554266378283,-0.0007074810564517,0.9966382384300232,0.0819068178534507,0.0232165419560925,0.0534332069823964,-0.15595663152673,-1.2259925603866575,-0.119255781173706,0.4070873260498047,27,0,0,0
14.7,1788433555819,0.0,0.0,-0.0028638420626521,0.0001363510382361,0.9638684391975404,0.2663632035255432,-0.0004212137511342,0.0061184144012805,-4.022394089730784e-06,0.0,0.0,0.0,-0.0025243144482374,-0.000422740355134,0.9964218139648438,0.0844808518886566,0.0030329568807078,-0.0152604038174305,0.0383711102474566,0.3145375847816467,0.2715444564819336,-0.2451486587524414,0,0,0,0
14.8,1788433555919,0.0,0.0,-0.0027782726101577,9.89906839095056e-05,0.9637858271598816,0.2666631937026977,-0.0018875454511567,0.0009280565884053,3.846491126749748e-06,0.0021271430887281,-0.0028545649256557,-0.009475409053266,-0.002750551328063,-0.000421654433012,0.996379554271698,0.084970898926258,-0.0006781635548252,1.8692135405307223e-05,0.0221085406740235,-0.4283325672149658,-0.0989633202552795,0.1057310104370117,0,0,0,0
14.9,1788433556019,0.0,0.0,-0.0027857103850692,7.321801967918873e-05,0.9637876749038696,0.2666561901569366,0.0007403561769133,0.000764714585043,4.99118810916957e-06,-0.0010335209080949,1.1214930964342784e-05,0.0002765453245956,-0.00273949932307,-0.0004692114889621,0.996369481086731,0.0850886479020118,-0.001894281747899,-0.0057510394572911,0.0147519230743328,0.0240333676338195,-0.1730946898460388,-0.0469856262207031,0,0,0,0
15.0,1788433556119,0.0,0.0,-0.0028205169364809,5.789677379652858e-05,0.9638016819953918,0.2666051685810089,0.0004351933772327,0.0004645804647798,3.0264067097553133e-06,0.0,0.0,0.0,-0.0027563236653804,-0.0004689050838351,0.996361255645752,0.085185021162033,-0.0012445691732118,7.060049833261945e-05,0.0028042970646726,0.0009921789169311,-0.1444898247718811,0.015944480895996,0,0,0,0
15.1,1788433556219,0.0,0.0,-0.0027637747116386,4.825927317142487e-05,0.9638152718544006,0.2665566802024841,4.840578818971071e-05,-8.081279579587414e-05,1.4821757879778742e-07,0.0004443610087037,-0.001010444946587,0.0007677390822209,-0.0027157822623848,-0.0004727710038423,0.9963579177856444,0.0852250605821609,-0.0008076115795743,0.0009209149908372,-0.0014811886122254,0.0504941344261169,0.0513753294944763,-0.0158758163452148,0,0,0,0
15.2,1788433556319,0.0,0.0,-0.0027617616578936,4.390033427625895e-05,0.963814616203308,0.2665588855743408,-0.0003852739274809,-0.0007303441038926,-3.1069912270418164e-06,0.0008030010503716,-0.0007504399982281,0.0017472519539296,-0.0027118241414427,-0.0004772562533617,0.9963622093200684,0.085174947977066,-0.0008479290939099,-0.0008149118760644,0.0012860722438699,0.0353221893310546,-0.0339139103889465,0.0046358108520507,0,0,0,0
15.3,1788433556419,0.0,0.0,-0.0028019342571496,1.3985263649374248e-05,0.9638209342956544,0.2665357589721679,-0.0002891070643107,-0.0003367411283891,-2.014651868755644e-06,-0.0007906375685706,0.0012649326818063,0.000133332592668,-0.0027546994388103,-0.0005012191832065,0.9963629841804504,0.0851648300886154,3.768096081245737e-05,0.0011028164743208,0.0014284295294116,-0.0260202288627624,0.0168241262435913,0.0064716339111328,0,0,0,0
15.4,1788433556519,0.0,0.0,-0.0027747540734708,3.511609975248575e-06,0.963822901248932,0.266528844833374,0.0004537485956878,0.0004842358393593,3.1157165115844357e-06,-0.0003539081080816,0.0009454912506043,3.275854396633804e-05,-0.0027295937761664,-0.0004983637481927,0.9963614344596864,0.0851835310459137,0.0007446734794125,-0.0006315252741201,0.0002199263657787,-0.0234962701797485,-0.0099660158157348,-0.0079231262207031,0,0,0,0
15.5,1788433556619,0.0,0.0,-0.0027529357466846,1.3816810678690672e-05,0.9638185501098632,0.2665451467037201,9.46697500322177e-06,-1.58069893391163e-05,2.7641873599537824e-08,0.0003317131777293,-0.0007806027424521,0.0001289758802158,-0.0026768231764435,-0.0004984261468052,0.996361494064331,0.0851843357086181,0.0002090853651877,-0.00233240850744,0.0012401844061924,0.024170696735382,-0.0187806487083435,-0.0114250183105468,0,0,0,0
15.6,1788433556719,0.0,0.0,-0.0027246698737144,2.4336040951311588e-05,0.9638200998306274,0.266539603471756,0.0003334768135908,0.0002903306427872,2.1861483494787973e-06,0.0010166984284296,-0.0002003752160817,0.00038669272908,-0.002670438028872,-0.0004784148186445,0.9963632225990297,0.0851637944579124,3.951646702670256e-05,-0.0011718387775205,0.0007524709022628,0.0855138897895813,0.0441583395004272,0.0092592239379882,29,105,915,4216
15.7,1788433556819,0.4225352108478546,2.9577465057373047,-0.0011602874146774,-0.000358057761332,0.9663000702857972,0.2574153542518616,0.0351121400126235,1.1382378077587492e-05,4.481755880322798e-05,0.0008216283167712,-0.0457058735191822,0.2710148990154266,-0.0010748943313956,-0.0005648666992783,0.997126042842865,0.0757504776120185,0.0012030113583134,-0.0489314710420223,0.3933672369772413,0.5033832788467407,0.1923099756240844,-0.0855293273925781,123,163,4327,13007
15.8,1788433556919,0.6760563254356384,6.197183132171631,-0.0009700482478365,0.0002831576275639,0.9727725386619568,0.2317596971988678,0.0907046652436942,0.000851585296008,-1.0451121805744034e-06,0.0206054672598838,0.0128570050001144,0.6408690214157104,-0.0017762901261448,0.0006840759888291,0.9992276430130004,0.0392505936324596,0.0437848377909813,0.0641146356791279,0.7969568845041558,0.1214278936386108,0.0782983899116516,0.4404163360595703,322,204,12013,21220
15.9,1788433557019,1.8309859037399288,8.563380241394043,-0.0032725394703447,0.0035758791491389,0.9816255569458008,0.1907560676336288,0.143385349139833,-0.0027568491366676,-0.0001738315829665,0.0588205978274345,0.0688130483031272,0.8893507122993469,0.0045745251700282,-0.0034739738330245,-0.9999831914901732,0.0008727516978979,0.0685841494891829,0.0822259909583365,0.9646682120764996,0.6266366243362427,0.1666976809501648,0.107426643371582,380,158,13130,25939
16.0,1788433557119,1.6901408433914185,8.450704574584961,-0.0056098587810993,0.0070599364116787,0.9901361465454102,0.1398183852434158,0.1782562276231944,-0.0097346430486632,-9.402051019531018e-05,0.0431064404547214,0.0461184494197368,1.1128429174423218,0.007210150361061,-0.0061956094577908,-0.9987215995788574,0.0496477484703063,0.0343447933790601,0.0719412627329761,1.0908127366798497,0.03267502784729,-0.021462857723236,0.3091869354248047,422,100,13736,24279
16.1,1788433557219,1.6338027715682983,8.338027954101562,-0.0071130669675767,0.009978107176721,0.996393084526062,0.0839677602052688,0.1782283606451475,-0.0039756194864065,-0.0002816358488711,0.0354499295353889,0.0436866767704486,0.9907162189483644,0.0094419559463858,-0.0086753740906715,-0.9938581585884094,0.1099162399768829,-0.0025545021820443,0.0623283193992455,0.9728322460792126,0.0596896409988403,0.1764211058616638,-1.2153844833374023,388,98,13955,23945
16.2,1788433557319,1.94366192817688,8.450704574584961,-0.0070657404139637,0.0105268703773617,0.9991348385810852,0.0396079123020172,0.1678492035528918,-0.0039650139053885,5.902933515727152e-05,0.0085267201066017,-0.0039759390056133,0.977326512336731,0.0087552601471543,-0.0093686236068606,-0.987947642803192,0.154256209731102,0.0267708218447658,0.0059374549479123,0.997081222036502,-0.3470613360404968,-0.035581350326538,-0.7148847579956055,365,92,12777,23757
16.3,1788433557419,1.6338027715682983,8.338027954101562,0.0076905949972569,-0.0108005199581384,-0.9998627305030824,0.009936929680407,0.1653138909058106,-0.0030188042622956,-6.336420292316614e-05,-0.0130704045295715,0.0398218631744384,0.9692546725273132,0.0099398540332913,-0.0090600280091166,-0.9801018238067628,0.198039636015892,-0.0319452521711244,0.0651771132728433,0.9719181349625592,-0.0818281769752502,0.208361804485321,1.788106918334961,442,99,14795,24189
16.4,1788433557519,1.8028168678283687,8.309859275817871,0.0080149481073021,-0.0103263398632407,-0.9981829524040222,0.0588203370571136,0.1726500219667206,-0.0053296105569076,-5.283729665484471e-05,-0.0269242823123931,0.0261996202170848,0.9755733013153076,0.0097822779789567,-0.0084123695269227,-0.9667077660560608,0.255557507276535,-0.0237080339575844,0.0154764527057905,0.9778621132951782,0.4657196402549743,0.0056825280189514,2.6370296478271484,393,103,14107,24356
16.5,1788433557619,1.7464789152145386,8.36619758605957,0.0077144745737314,-0.0101728774607181,-0.9934977293014526,0.1131334900856018,0.1752388593756823,-0.0051525569139781,7.329446576803687e-05,0.0050448100082576,-0.0158318020403385,1.0164175033569336,0.0092550227418541,-0.0086015751585364,-0.95435231924057,0.2984159588813782,-0.0027643680286867,-0.014941386529814,0.973154433351717,-0.0245033502578735,0.1757913827896118,0.2304286956787109,429,90,13388,23895
16.6,1788433557719,2.11267614364624,7.943662166595459,0.0084504121914505,-0.009461629204452,-0.987730860710144,0.1556495279073715,0.1661984483447249,-0.0066924586205839,-0.0001830132181019,-0.0669323801994323,0.0952763706445694,0.8638727068901062,0.0096902502700686,-0.0074838697910308,-0.937935471534729,0.3465936779975891,-0.0229955522989634,-0.037333477993649,0.726012130657878,-0.0198747515678405,0.0789402723312377,-0.1993045806884765,355,83,15554,23434
16.7,1788433557819,2.676056385040283,7.746479034423828,0.0086687710136175,-0.0093942061066627,-0.9799675345420836,0.1987465918064117,0.1793785211492855,-0.0055497639091201,-5.7554057148630505e-05,0.008799104951322,0.0001989302545553,0.8742470741271973,0.0103785404935479,-0.0076739527285099,-0.9235634803771972,0.3832283020019531,-0.0014491955690542,0.0109840679360779,0.8311403580420561,-0.0041801333427429,0.1622375845909118,-0.8147878646850586,466,59,16178,21652
16.8,1788433557919,2.6478872299194336,7.183098793029785,0.0090584382414817,-0.0082432841882109,-0.9720335006713868,0.234522670507431,0.164061629543599,-0.0027228943908313,-0.0002083403301258,-0.0386412851512432,0.0452812686562538,0.6652466058731079,0.0098213087767362,-0.0059461183845996,-0.9112586379051208,0.4116746783256531,-0.0354470674716673,-0.0174969687364782,0.6219675664024712,-0.2815280556678772,0.3213743567466736,-1.5983304977416992,478,95,18409,21497
16.9,1788433558019,2.816901445388794,7.126760482788086,0.0060905404388904,-0.004436154384166,-0.963434398174286,0.2678381502628326,0.174198444014261,0.0032774910891167,4.5042319046838624e-05,-0.0966279581189155,-0.0359131805598735,0.6457873582839966,0.0051376791670918,-0.0030589941889047,-0.8950202465057373,0.4459856152534485,-0.1053167245960858,-0.1066755871884153,0.6370473220665924,-0.1678922772407531,0.0030997395515441,-1.1952695846557615,544,57,20603,19804
17.0,1788433558119,2.7042253017425537,7.323943614959717,-0.0003511030226945,-0.0004605627036653,-0.956519901752472,0.2916663289070129,0.1671378766936113,0.0067298274694182,0.0002480952919613,-0.0910926088690757,-0.0727993547916412,0.5013555884361267,-0.0002147890627384,-0.0005324222147464,-0.8855323195457458,0.4645775556564331,-0.0283649121939195,0.0026046266720923,0.5145920365257538,-0.6157013177871704,-0.8576831221580505,0.2725019454956054,477,109,18185,21418
17.1,1788433558219,3.802816867828369,6.591549396514893,-0.0006054754485376,9.348343883175404e-05,-0.948232650756836,0.3175759017467499,0.1820734770471905,0.0043684533135741,-3.324043677502223e-05,-0.0190348792821168,0.0069240443408489,0.5179407000541687,-0.0010662209242582,0.0001325225457549,-0.8703861236572266,0.4923686683177948,-0.0229141788103772,-0.0216645831305993,0.4546098765040942,0.1265511512756347,-0.3022615909576416,0.8416814804077148,332,67,17802,19475
17.2,1788433558319,3.8309860229492183,6.197183132171631,-0.0011706028599292,0.0002849934389814,-0.9416313767433168,0.3366436958312988,0.1729785691460598,0.0024903057792985,9.66759085865712e-06,-0.0067486660555005,-0.0118812918663024,0.3646964728832245,-0.0010677045211195,0.0006722966209053,-0.8622066974639893,0.5065551400184631,-0.0386645059740518,0.024375393940121,0.318309707188283,0.1873497366905212,-0.1292235255241394,2.1838064193725586,341,77,17512,18053
17.3,1788433558419,3.521126747131348,6.14084529876709,-0.0018786218715831,0.0007589863380417,-0.9357590079307556,0.3526341319084167,0.1606612950631978,0.0013374806443742,0.0002044996908327,0.0107282912358641,-0.0786268785595893,0.3331302106380462,-0.0022038305178284,0.0005223844200372,-0.8559076189994812,0.517123818397522,-0.0195267630854348,-0.1242877145659362,0.3104845753259522,0.267263114452362,0.1429688334465026,-2.381098747253418,316,112,18886,18949
17.4,1788433558519,4.169013977050781,6.450704097747803,-0.0016397663857787,0.0008719296893104,-0.929035782814026,0.3699852228164673,0.1627644189312707,0.0013190722616473,5.258667848155822e-06,0.0059721698053181,0.0192316956818103,0.4328840970993042,-0.001095256768167,0.000917344354093,-0.8415064811706543,0.5402451753616333,0.0044798790682592,0.0485570864566823,0.4446855769184126,0.2412549257278442,-0.1106531023979187,0.2853937149047851,347,81,17328,18449
17.5,1788433558619,4.507042407989502,6.11267614364624,-0.0003685002739075,0.0015825181035324,-0.9217207431793212,0.3878506422042846,0.1717793912124191,0.0072974144080103,-2.725864606529208e-05,-0.0059145125560462,0.0322708189487457,0.333955317735672,-0.0004412522539496,0.0013017188757658,-0.8328856825828552,0.5534434914588928,0.0264928223112147,0.0142004640148126,0.3265694805692047,0.2421075105667114,-0.0075503587722778,0.4347248077392578,326,70,17525,16928
17.6,1788433558719,4.309859275817871,5.943662166595459,0.0029754852876067,0.0003448687493801,-0.9159620404243468,0.4012537598609924,0.1624607502275643,0.0002131607840313,-0.000217227652714,0.0711779370903968,0.0856347233057022,0.2737913429737091,0.0035210577771067,0.0008815564215183,-0.8259263634681702,0.5637662410736084,0.0709267610517886,0.0932204867632324,0.2689639862455786,0.2626581192016601,-0.0832154154777526,-0.3320608139038086,217,85,17134,17625
17.7,1788433558819,4.056337833404541,5.830986022949219,0.0105798747390508,-0.0028486873488873,-0.9105783700942992,0.4131913483142853,0.1612210069810211,0.0017150487672168,-0.0003773983991775,0.1638735234737396,0.1597312688827514,0.3179558515548706,0.0175183713436126,-0.0023680813610553,-0.8149169087409973,0.5793081521987915,0.2754062022342549,0.2543191496022381,0.4096379618823915,-0.0385534763336181,-0.0635024905204773,1.7487316131591797,214,101,17526,18242
17.8,1788433558919,4.0,6.0,0.0283951796591281,-0.0104772560298442,-0.9017128944396972,0.4312745928764343,0.1497968509799769,0.001318761429452,-0.0004036772579641,0.2634768486022949,0.248834416270256,0.3706283271312713,0.0322859846055507,-0.0057220701128244,-0.8058364391326904,0.5912297964096069,0.3274034480625026,0.3110225514417525,0.4290502965950622,-0.1891748309135437,-0.5612738132476807,1.9927845001220703,244,95,17502,17825
17.9,1788433559019,4.676056385040283,5.7183098793029785,0.0403641127049922,-0.0161892622709274,-0.8936556577682495,0.4466409981250763,0.1788231873685185,-0.002615863650329,-0.0003858672098095,0.1285793781280517,0.0580494850873947,0.3025862276554107,0.0395948775112628,-0.0059325061738491,-0.7961631417274475,0.6037559509277344,-0.2598274135889976,-0.0565093549144133,0.0177556865509906,0.0466653108596801,0.4127467274665832,-0.1817502975463867,259,45,16560,15708
18.0,1788433559119,4.309859275817871,5.492957592010498,0.0468606390058994,-0.015480138361454,-0.8897770643234253,0.4537193179130554,0.1145717982107336,-0.0168795354256613,-0.0006569105694206,0.2936316728591919,0.3125388026237488,0.3095164895057678,0.0539860017597675,-0.0076175881549716,-0.7887716293334961,0.6122636198997498,0.3129983457990461,0.3124220301113589,0.3516540653133258,0.3286144733428955,1.4455612897872925,-0.78216552734375,320,142,18524,17550
18.1,1788433559219,4.394366264343262,5.492957592010498,0.0686297491192817,-0.023826889693737,-0.8791723251342773,0.4709333777427673,0.1353652251858685,-0.0107202277011027,-0.0006309441521771,0.2954671084880829,0.2366835325956344,0.3888486623764038,0.0723221972584724,-0.0110220620408654,-0.7774091362953186,0.6247263550758362,0.301528873670882,0.1912470161225607,0.4098322362401063,0.8292611837387085,0.8164539337158203,-1.4565420150756836,280,74,19685,17456
18.2,1788433559319,0.0,0.0,0.0761848837137222,-0.0246408395469188,-0.8723984956741333,0.4821923673152923,0.0301822189136459,-0.0107721085561634,-3.1727199235313494e-06,-0.0130025604739785,-0.0184237174689769,0.2122527211904525,0.0789002180099487,-0.0107649229466915,-0.7685524821281433,0.6348117589950562,0.008594863380586,-0.0509191849923908,0.0414642337763323,1.013113498687744,-0.0051057338714599,0.7594375610351562,94,4,1738,0
18.3,1788433559419,0.0,0.0,0.0756954252719879,-0.0248530693352222,-0.8732472062110901,0.4807201027870178,-0.0046296515258986,0.0038724768333811,1.8018180787364045e-06,-0.0010066179092973,0.0081057157367467,-0.0621270351111888,0.0786144062876701,-0.0105018252506852,-0.7692079544067383,0.6340572237968445,-0.0085278380683422,-0.0026849115752403,0.1150404455028679,0.4711788892745971,0.1320019960403442,-0.3567724227905273,0,0,0,0
18.4,1788433559519,0.0,0.0,0.0752174481749534,-0.0247664637863636,-0.8728023767471313,0.4816066920757293,-0.0017871010688592,-0.0006761157706063,-1.1740356301550234e-05,-0.000296060781693,-0.007018051110208,0.0051684570498764,0.078533262014389,-0.0105223972350358,-0.7694984078407288,0.633714497089386,0.0021534464434403,0.0017511555687165,0.0397243362993881,0.2779088616371155,0.2722355127334595,0.047398567199707,0,0,0,0
18.5,1788433559619,0.0,0.0,0.0752174481749534,-0.0247664637863636,-0.8728023767471313,0.4816066920757293,-0.0005909331323273,-0.0002345974224398,1.5098062739890642e-06,0.0,0.0,0.0,0.0785198807716369,-0.0105293272063136,-0.7695886492729187,0.6336064338684082,0.0042162937085269,0.0003707693182585,0.0131296673702176,0.1251501441001892,0.1972970962524414,-0.0660324096679687,0,0,0,0
18.6,1788433559719,0.0,0.0,0.0752174481749534,-0.0247664637863636,-0.8728023767471313,0.4816066920757293,0.0002593804616372,-0.0002325811245801,7.448046329928531e-06,0.0,0.0,0.0,0.0784690752625465,-0.0105274217203259,-0.7697283625602722,0.6334429979324341,-0.0003143959586976,-0.0018669548967248,-0.0029819446992566,-0.0657520294189453,-0.0983569622039794,0.0048418045043945,0,0,0,0
18.7,1788433559819,0.0,0.0,0.0752174481749534,-0.0247664637863636,-0.8728023767471313,0.4816066920757293,0.0,0.0,0.0,0.0,0.0,0.0,0.0784677863121032,-0.0105572175234556,-0.769707977771759,0.6334673762321472,0.0008197080451245,-0.0001201382815617,0.0033562935550591,-0.0374459028244018,-0.059355616569519,0.0229206085205078,0,0,0,0
18.8,1788433559919,0.0,0.0,0.0752174481749534,-0.0247664637863636,-0.8728023767471313,0.4816066920757293,0.0,0.0,0.0,0.0,0.0,0.0,0.0784546285867691,-0.0105744758620858,-0.7697033882141113,0.6334744095802307,-0.0001333249592091,-0.0014704442955548,0.0019157161063748,0.0698721408843994,0.0351930856704711,0.021834373474121,0,0,0,0
18.9,1788433560019,0.0,0.0,0.0752174481749534,-0.0247664637863636,-0.8728023767471313,0.4816066920757293,0.0,0.0,0.0,0.0,0.0,0.0,0.0784857347607612,-0.0105430390685796,-0.7696799635887146,0.6334994435310364,0.0012370947157697,-0.0021654969997714,0.0039863056519952,0.0527045726776123,0.05817711353302,0.0039482116699218,0,0,0,0
19.0,1788433560119,0.0,0.0,0.075262576341629,-0.0247406885027885,-0.8728903532028198,0.4814414083957672,-0.0007083233950883,0.0008053400902272,8.395070230101653e-06,0.0004156650684308,0.0018000729614868,-0.0083100376650691,0.078501746058464,-0.0105272810906171,-0.7696986198425293,0.6334750652313232,0.0002151337829998,-0.0018698598261596,0.0003952084985765,-0.0039260387420654,0.0034983158111572,0.0179872512817382,0,0,0,0
19.1,1788433560219,0.0,0.0,0.0751946792006492,-0.0247461721301078,-0.8729066848754883,0.4814222157001495,-9.365007205602744e-05,0.0001050344816648,6.293756769116926e-07,-0.0004811777034774,5.671404869644903e-05,-0.0011228668736293,0.078474260866642,-0.0104988571256399,-0.7697151899337769,0.6334588527679443,-0.0006700949666637,0.0018498522218177,-0.0001369896611301,-0.0451195240020751,-0.0259740352630615,0.0049362182617187,0,0,0,0
19.2,1788433560319,0.0,0.0,0.0751587301492691,-0.0247923247516155,-0.872908890247345,0.4814213216304779,0.0002487873210656,0.0005636749031087,-5.797507719503172e-07,-3.2350530091207474e-05,-0.0011924537830054,-0.00133962277323,0.0784341990947723,-0.0105791334062814,-0.7697184681892395,0.6334584355354309,4.410295012004993e-05,-0.0018716040517051,-0.0019263316228483,-0.0076704025268554,-0.0251092910766601,0.0139417648315429,164,222,5338,7514
19.3,1788433560419,2.0,3.4647886753082275,0.0758353620767593,-0.0244938880205154,-0.8704368472099304,0.4857866764068603,0.0457052217072611,-0.0025564134620403,-2.854087993262846e-05,-0.0040487018413841,0.0417358502745628,0.1655376851558685,0.0795972645282745,-0.0101123126223683,-0.7649142146110535,0.6391152143478394,0.0169438910599052,0.0606406361413324,0.2199951439451703,0.4307859539985657,-0.4025797843933105,0.4835529327392578,421,179,15671,14222
19.4,1788433560519,3.88732385635376,5.7183098793029785,0.077640026807785,-0.0251109525561332,-0.8640021085739136,0.4968318045139313,0.1188085501852926,0.0010124751488801,-0.0001128798226334,0.0059368824586272,0.0335793457925319,0.2454517036676406,0.0807615965604782,-0.010791877284646,-0.7572553753852844,0.648016631603241,0.0136901355083414,-0.0221586778357767,0.2379570948282345,0.6270454525947571,0.0625799894332885,-0.0212612152099609,591,216,22850,20774
19.5,1788433560619,5.014084339141846,6.02816915512085,0.0738870427012443,-0.0231165681034326,-0.859466552734375,0.5052956938743591,0.1855696335867817,-0.016173931664375,0.0002766321623755,-0.1672323942184448,-0.109995812177658,0.1558390706777572,0.0707826763391494,-0.0081464163959026,-0.7518290877342224,0.6554971933364868,-0.2505233227755449,-0.2115425429486882,0.040658999404052,0.063460886478424,-0.1929453611373901,0.936579704284668,224,26,19448,16070
19.6,1788433560719,4.563380241394043,5.6619720458984375,0.058159340173006,-0.0176928676664829,-0.8602655529975891,0.5062090754508972,0.1899322923541115,-0.0016145090000189,0.0006350527099666,-0.2688499689102173,-0.2452748715877533,-0.0209254287183284,0.0544996559619903,-0.0066248103976249,-0.753710925579071,0.6549090147018433,-0.2533267254053288,-0.2890436229298729,-0.069142921323266,-0.3712013363838196,-0.2027351260185241,-2.1974034309387207,224,67,17993,15988
19.7,1788433560819,4.478873252868652,5.295774459838867,0.0364131145179271,-0.0136247174814343,-0.8630558848381042,0.5036097764968872,0.165050699958265,0.0120140912599852,0.0007963292700176,-0.1749855279922485,-0.2835976779460907,-0.0176831223070621,0.037678312510252,-0.0069406144320964,-0.7557743787765503,0.6537103652954102,-0.0772407421097394,-0.2493620739792504,0.099246487900091,0.5212892889976501,-0.5070552825927734,0.1691265106201172,231,178,17837,18034
19.8,1788433560919,4.563380241394043,5.436619758605957,0.0350149236619472,-0.0122823193669319,-0.8589650988578796,0.5106878280639648,0.1764336021662764,-0.0056303191552722,0.0002097321331825,-0.0976609364151954,-0.1144833341240882,0.17449851334095,0.0360711589455604,-0.0057199606671929,-0.7503520846366882,0.6600286960601807,-0.1416250031195571,-0.1620989816979824,0.1739649481297959,-0.2803098559379577,0.0561145544052124,1.4607839584350586,278,74,17943,17285
19.9,1788433561019,4.478873252868652,5.577464580535889,0.0050800284370779,-0.0037987795658409,-0.8598874807357788,0.5104441046714783,0.1975366323653636,0.0016441424400597,0.0016204817633555,-0.5445070862770081,-0.5013324022293091,-0.0736236497759819,-0.0029863631352782,-0.0020559644326567,-0.7518733739852905,0.6592976450920105,-0.450184040949139,-0.4387714806474765,-0.0316956232068761,-0.0704318881034851,-1.0059348344802856,5.371642112731934,326,91,18044,16467
20.0,1788433561119,5.070422649383545,5.126760482788086,-0.0032648569904267,-0.0009224768145941,-0.8580777645111084,0.5135085582733154,0.1596151448778316,-0.0023946506902251,-0.0001292379896662,0.0042737955227494,0.0464497208595275,0.1325711160898208,-0.0024624690413475,-0.000769599340856,-0.7482471466064453,0.6634151935577393,-0.0076553483827217,0.084312485499488,0.1481439225387044,0.0810991525650024,-0.5443555116653442,1.0854158401489258,421,64,21081,15240
20.1,1788433561219,4.478873252868652,5.633802890777588,-0.0003783938009291,-0.000116135670396,-0.8551850914955139,0.5183224678039551,0.166771793756362,-0.0017615504639154,-0.0002143557596578,0.0130420587956905,0.0560564547777175,0.0710365250706672,-0.0009387135505676,-0.0007036216557025,-0.7455882430076599,0.666405975818634,0.0152669924952368,0.007434398252355,0.0329441663634443,0.0615682005882263,-0.1686330437660217,-0.0667915344238281,417,104,20723,16472
20.2,1788433561319,4.873239517211914,5.352112770080566,0.0004589862073771,-0.0006479225121438,-0.8535831570625305,0.5209560394287109,0.1562698983939719,0.0007249635873909,0.0001296295508057,0.0242838840931653,0.0071557904593646,0.0819786116480827,0.0009823124855756,-0.0008612480014562,-0.7427690029144287,0.6695464849472046,0.0382779678815506,0.0231710034925588,0.0724642128478901,-0.210583746433258,-0.2455871701240539,-0.3597669601440429,207,108,18211,17634
20.3,1788433561419,5.380281925201416,5.126760482788086,0.0042631863616406,-0.0008647912181913,-0.8511406779289246,0.5249196290969849,0.162732643334675,0.0037686887435231,-0.0002156697690171,0.0615552216768264,0.0945578515529632,0.088454745709896,0.0061440737918019,-0.0001170663163065,-0.7397556900978088,0.6728475093841553,0.1449241427021242,0.1448924669505684,0.0923653183607448,0.2081036567687988,-0.063414454460144,-0.5900430679321289,288,72,18359,15237
20.4,1788433561519,5.239436626434326,5.098591327667236,0.019960792735219,-0.0040631936863064,-0.8484276533126831,0.5289192795753479,0.1578810541365162,-0.0008567045860195,-0.0006054231306733,0.2742028534412384,0.2672090828418731,0.1188630685210228,0.0287141576409339,-0.0002393517643213,-0.7349190711975098,0.6775466203689575,0.2940315816680521,0.355368869631911,0.1455381934973108,0.2826196551322937,-0.1415191888809204,1.0639076232910156,220,103,17409,16752
20.5,1788433561619,5.295774459838867,5.183098793029785,0.0380291454493999,-0.0090352874249219,-0.8439016938209534,0.5350719690322876,0.1646951734254502,-0.0008361538802932,-0.0009146902377335,0.2128568142652511,0.1767409890890121,0.1329300552606582,0.040369726717472,-0.0019394773989915,-0.7306886911392212,0.6815135478973389,0.1563500788162671,0.0996904722563949,0.1068428551926847,-0.0528234243392944,0.0879837274551391,-0.5106821060180664,215,90,16650,16096
20.6,1788433561719,5.042253494262695,5.098591327667236,0.0401819497346878,-0.0107795698568224,-0.8422752022743225,0.5374400019645691,0.1685616752628777,0.0013546874839786,9.145586798723226e-05,0.0333712361752986,-0.0390685051679611,0.0472279489040374,0.0419804789125919,-0.0031694723293185,-0.7289434671401978,0.6832782030105591,0.0383885558865076,0.0141560601935309,0.0594482075824461,0.2583627700805664,-0.1853861808776855,2.7909727096557617,286,95,18455,15003
20.7,1788433561819,5.211267471313477,4.901408672332764,0.0420697778463363,-0.0091519635170698,-0.8426541686058044,0.5367311835289001,0.1544455636553124,-0.0010291689213704,-8.778525281540528e-05,-0.0042703202925622,0.0184479169547557,-0.0328420959413051,0.0445781946182251,-0.0009702900424599,-0.7301403284072876,0.6818409562110901,0.0352201004972952,0.0758845642993116,-0.0130263262349917,0.1884542107582092,0.1759644150733947,0.4090700149536133,325,101,20142,15058
20.8,1788433561919,5.042253494262695,5.352112770080566,0.0438209287822246,-0.0093517415225505,-0.8431140780448914,0.5358646512031555,0.1640292250449812,-0.000801746257475,-4.198173255613896e-05,-0.0016627687728032,0.017312541604042,0.0085347397252917,0.0447946786880493,-0.0011734813451766,-0.7299463152885437,0.6820340752601624,0.0042894776258351,-0.0008321708823459,0.0761857804041057,-0.0055213570594787,0.1845020055770874,1.063213348388672,305,96,18544,15890
20.9,1788433562019,4.929577350616455,4.929577350616455,0.0444553717970848,-0.0085825975984334,-0.8415725827217102,0.5382431149482727,0.1683150236512466,0.0007543687443174,0.0001081209764338,-0.0079738590866327,0.0087930364534258,0.0441040284931659,0.0454986132681369,5.160924047231674e-05,-0.728558361530304,0.6834710836410522,-0.0126784134788878,0.0914700582282229,0.0065278370186374,0.1011032462120056,-0.4702549576759338,-0.8087558746337891,381,89,22003,14614
21.0,1788433562119,4.535211086273193,4.788732528686523,0.0430378951132297,-0.0084009859710931,-0.8424233794212341,0.5370289087295532,0.1561887221555291,-0.0021704302271095,-4.051423316017343e-05,-0.0288260225206613,-0.0036356057971715,-0.0210461840033531,0.0390728376805782,0.0002066632732748,-0.7298851013183594,0.6824523210525513,-0.2309578676504917,-0.1784514233634891,-0.0265902974764627,-0.0864591002464294,0.6722541451454163,-0.4737062454223633,446,63,23998,15049
21.1,1788433562219,5.464788913726807,5.211267471313477,0.0213589332997798,-0.0026398226618766,-0.8463391661643982,0.5322095155715942,0.1825657621154698,-0.0073381330288254,0.001179219255007,-0.4221685826778412,-0.3983498513698578,-0.1966713219881057,0.0121676037088036,0.0021255277097225,-0.7363116145133972,0.6765298247337341,-0.4733344987119569,-0.4415926164001525,-0.1922690158669972,0.1277241110801696,-0.36068856716156,2.111043930053711,361,67,21456,14758
21.2,1788433562319,4.816901206970215,4.760563373565674,0.0006894711405038,0.0021848403848707,-0.8500340580940247,0.52672278881073,0.1502463156382437,0.0100360808416653,0.0007198388277359,-0.1259080618619918,-0.1544004529714584,-0.071145161986351,0.0007460247725248,0.0023626647889614,-0.7391583323478699,0.673527181148529,0.0278627155429749,0.1058829014611265,-0.0187121654240386,0.6565439701080322,0.3620670437812805,-0.7746963500976562,505,82,24699,15175
21.3,1788433562419,4.957746505737305,4.816901206970215,0.0057511911727488,0.001500473706983,-0.8513752818107605,0.5245234966278076,0.1643630063101839,-0.0075704821716005,-0.0002387346795414,0.08817158639431,0.1020512282848358,-0.0252542681992054,0.0053779939189553,0.0025307703763246,-0.7406147122383118,0.6719037294387817,0.0725097786420829,0.1218352255642852,-0.0288743708769533,0.2386206984519958,0.214491069316864,1.0718812942504885,450,111,23998,15295
21.4,1788433562519,5.633802890777588,4.985915660858154,0.0056715859100222,0.0012868071207776,-0.8539957404136658,0.5202474594116211,0.1694725258694479,-0.007302207783041,-0.0001041977685682,-0.0049504833295941,-0.0181305240839719,-0.111391544342041,0.0054444931447505,0.0024332469329237,-0.7450159192085266,0.6670200228691101,-0.0075651937304812,0.0028706194817487,-0.1223124417332573,0.2856131196022033,-0.0588303804397583,-0.1249885559082031,250,74,19358,14402
21.5,1788433562619,5.380281925201416,5.154929637908936,0.0040621766820549,0.0026138129178434,-0.8577160239219666,0.5141010880470276,0.1669515853054111,-0.0071428290133024,0.0002110145088159,-0.0798753648996353,-0.0615372546017169,-0.1370360404253006,0.0027696127071976,0.0034816050902009,-0.7493891716003418,0.6621148586273193,-0.0939724734829537,-0.0256697728254667,-0.1172014381870243,-0.2928515076637268,-0.2489881515502929,-0.7044267654418945,157,78,15984,14930
21.6,1788433562719,4.478873252868652,5.295774459838867,0.0084175392985343,2.1900981664657596e-05,-0.8569350242614746,0.5153555870056152,0.1506710675099641,0.0064236267271831,-0.0003207517840329,0.1573160588741302,0.1380558758974075,0.0882009863853454,0.0096326973289251,0.0014286274090409,-0.7471469044685364,0.6645876169204712,0.2205676032083421,0.1588648795447595,0.136091190915989,-0.3452523350715637,-0.1750137209892273,-0.4292240142822265,241,95,19016,15946
21.7,1788433562819,5.070422649383545,5.098591327667236,0.0247217062860727,-0.0051774121820926,-0.8522367477416992,0.5225461721420288,0.1559675895904665,0.001183386314603,-0.0005125348512251,0.2347676753997802,0.2185915559530258,0.1484254747629165,0.0276055727154016,-0.0003657080233097,-0.7406801581382751,0.6712903380393982,0.1795669585245689,0.1901809102455917,0.162935890591529,0.2250072956085205,0.4386711716651916,-0.8696126937866211,318,95,19039,15286
21.8,1788433562919,4.507042407989502,4.929577350616455,0.0344754084944725,-0.0068025523796677,-0.8488122820854187,0.5275253653526306,0.1529387320073395,-0.0110226182066985,-0.0002831854061745,0.1144287809729576,0.1217321306467056,0.1368277072906494,0.0363307036459445,-0.0002717711031436,-0.7368229627609253,0.675108790397644,0.0631544141393248,0.099447598500205,0.1079942237768448,0.0181766152381896,0.3566904067993164,0.3614664077758789,572,70,24884,14662
21.9,1788433563019,4.760563373565674,4.957746505737305,0.0376274324953556,-0.0091837095096707,-0.8467751741409302,0.5305389761924744,0.1532770191750589,-0.004685724869793,-5.798043834067692e-05,0.0837045237421989,-0.0367707163095474,0.0624522119760513,0.0383012853562831,-0.0024968609213829,-0.7348384857177734,0.6771552562713623,0.096367543307007,-0.0798629921562096,0.0712810418093592,0.368391752243042,0.5240530371665955,0.8395872116088867,717,79,27541,14473
22.0,1788433563119,5.098591327667236,5.014084339141846,0.0384779050946235,-0.0105782458558678,-0.8467263579368591,0.5305300951004028,0.1528081421370814,-0.003246824605619,2.3444418426137933e-05,0.0590350329875946,0.0065868524834513,0.0233142394572496,0.040459893643856,-0.0041657416149973,-0.734819233417511,0.6770423650741577,0.0713129888892818,-0.0031408425618979,0.0118858888931209,-0.0093186497688293,0.2962784171104431,0.2271404266357422,773,78,28475,16005
22.1,1788433563219,4.478873252868652,4.704225540161133,0.0384406149387359,-0.0118615720421075,-0.846519947052002,0.5308347344398499,0.1603861830944566,-0.0014623436860203,6.907256909568089e-05,0.0019182251999154,-0.0207569170743227,-0.0126720163971185,0.0401008613407611,-0.0042335502803325,-0.734753429889679,0.6771347522735596,-0.0172815770935931,0.0276245874352751,-0.0247519712761494,-0.4580804705619812,0.2498688697814941,1.8244552612304688,863,58,30639,12771
22.2,1788433563319,1.94366192817688,1.7464789152145386,0.038918450474739,-0.0111178178340196,-0.8453332781791687,0.5327039957046509,0.1085527933687374,-0.0037524202854935,-7.017626619961219e-05,-0.0114021115005016,0.0514309145510196,0.0738682076334953,0.0402314141392707,-0.0035904459655284,-0.7331671714782715,0.6788479089736938,-0.0182841544296999,0.0365355519474219,0.0240630254797806,-1.349776268005371,-0.1155666708946228,-1.028864860534668,782,77,19261,2093
22.3,1788433563419,-0.9014084339141846,0.0,0.0375217758119106,-0.010504393838346,-0.8465901017189026,0.5308171510696411,0.0159516395476683,-0.0003422954132263,7.199664309367375e-06,-0.0244045630097389,-0.0232754051685333,-0.0644215047359466,0.038457728922367,-0.003472807817161,-0.7347539663314819,0.6772338151931763,-0.0143290053540961,-0.0189156974401335,0.0013844331357319,-0.4369818568229675,0.2133266925811767,0.0866174697875976,54,0,0,0
22.4,1788433563519,0.0,0.0,0.0369035676121711,-0.0103618297725915,-0.8464493751525879,0.5310877561569214,0.0002553083551295,-0.0002623604370029,-7.38098844205993e-07,-0.0075574228540062,0.0007204558351077,0.0005830365116707,0.0381514355540275,-0.0034478558227419,-0.7344444990158081,0.6775867938995361,-0.0005567151024908,-0.0047060607450019,0.0221817492348753,0.0562196373939514,-0.015822947025299,0.0228548049926757,0,0,0,0
22.5,1788433563619,0.0,0.0,0.0367540083825588,-0.0103105809539556,-0.8464148044586182,0.5311541557312012,-0.0011099636052544,-0.0001178461148898,-3.401230982857632e-06,-0.002232919447124,-0.0007692269864492,0.000877944403328,0.0380221791565418,-0.0033881291747093,-0.7345219254493713,0.6775104403495789,-0.0033227190093731,0.0002460107577528,0.0025310602187616,-0.025608479976654,-0.049111783504486,0.0207414627075195,0,0,0,0
22.6,1788433563719,0.0,0.0,0.0367540083825588,-0.0103105809539556,-0.8464148044586182,0.5311541557312012,0.0,0.0,0.0,0.0,9.174735282613257e-08,0.0,0.0379297249019146,-0.0033766664564609,-0.7345662117004395,0.6774677038192749,-0.0020951972038819,0.0008979372688223,-0.0034115790074551,0.0415077209472656,-0.0170929431915283,-0.0044450759887695,0,0,0,0
22.7,1788433563819,0.0,0.0,0.0367540083825588,-0.0103105809539556,-0.8464148044586182,0.5311541557312012,0.0,0.0,0.0,0.0,7.484756991971153e-08,0.0,0.0378972217440605,-0.0033765947446227,-0.7345456480979919,0.6774917244911194,-0.0004905064601155,-0.0025722568820114,-0.0010213243507321,0.0230562090873718,-0.0113433003425598,0.0170698165893554,0,0,0,0
22.8,1788433563919,0.0,0.0,0.0367540083825588,-0.0103105809539556,-0.8464148044586182,0.5311541557312012,0.0,0.0,0.0,0.0,7.44458432677675e-08,0.0,0.0378343239426612,-0.0033431407064199,-0.7345399856567383,0.6775016188621521,-0.0008499177421506,0.0004279797156463,0.0011183911052595,0.0261850357055664,-0.0333596467971801,0.0079317092895507,0,0,0,0
22.9,1788433564019,0.0,0.0,0.0367540083825588,-0.0103105809539556,-0.8464148044586182,0.5311541557312012,0.0,0.0,0.0,0.0,7.445464689226355e-08,0.0,0.0377556532621383,-0.0033304877579212,-0.7345552444458008,0.6774895191192627,-0.0028182373080183,0.0013287299866113,-0.0012063814916243,0.0162464380264282,-0.0627039670944213,0.0256938934326171,0,0,0,0
23.0,1788433564119,0.0,0.0,0.0367540083825588,-0.0103105809539556,-0.8464148044586182,0.5311541557312012,0.0,0.0,0.0,0.0,9.136424239386542e-08,0.0,0.0377302393317222,-0.0033022239804267,-0.7345502376556396,0.6774963736534119,-0.0013789656328528,7.704161851424343e-05,-0.0008424483131978,0.0252400040626525,-0.0098140239715576,0.0006446838378906,0,0,0,0
23.1,1788433564219,0.0,0.0,0.0364925302565097,-0.0101453363895416,-0.8464506268501282,0.5311183333396912,0.0,0.0,0.0,0.0,0.0,0.0,0.0377032458782196,-0.0033004498109221,-0.7345691919326782,0.6774773597717285,0.0005727231684496,-0.0025855656144528,-0.0010304796217856,-0.0020404458045959,-0.0129226446151733,-0.033538818359375,286,211,8582,8010
23.2,1788433564319,1.5774648189544678,3.070422649383545,0.0356623642146587,-0.0101767666637897,-0.8450599312782288,0.533383846282959,0.0335430097809751,0.0012635528733408,2.498366132313619e-05,-0.0240531526505947,-0.0321613326668739,0.132791206240654,0.0366903729736804,-0.0035543190315365,-0.7317175269126892,0.6806104779243469,-0.0271292006135214,-0.0277724635891182,0.2424319034698863,1.7163050174713137,0.3482701778411865,0.1137418746948242,941,198,30271,14252
23.3,1788433564419,4.197183132171631,5.352112770080566,0.0303267333656549,-0.0072081116959452,-0.8398969769477844,0.5418499112129211,0.1329836915703293,0.000753481606524,0.0002121610162979,-0.1269241273403167,-0.0648352280259132,0.1601275503635406,0.031917966902256,-0.0017641196027398,-0.7264959812164307,0.6864267587661743,-0.1488028668372062,-0.063859746952546,0.1537420015926774,0.6209467053413391,0.4270877838134765,0.7659578323364258,917,123,31846,16943
23.4,1788433564519,4.760563373565674,4.901408672332764,0.015329766087234,-0.0033378764055669,-0.8381806015968323,0.5451669096946716,0.1866441120052898,-0.0127653577478853,0.0007616101393728,-0.3341544568538666,-0.3142889142036438,0.0619155950844287,0.0098838070407509,0.0014776708558201,-0.7247214317321777,0.6889694333076477,-0.5009117677606936,-0.2570788355425971,-0.0992178474729241,-0.1684105992317199,0.195368230342865,0.3672904968261719,769,21,27268,11219
23.5,1788433564619,2.2253520488739014,2.3380281925201416,0.0022115153260529,0.0023047323338687,-0.8403024077415466,0.542108416557312,0.0911223855074689,-0.0046724809480613,8.415267535450849e-05,-0.0277605503797531,-0.0057370774447917,-0.0018671537982299,0.0015319902449846,0.0026057930663228,-0.7262987494468689,0.6873725652694702,0.0083294949283431,-0.0008244727438964,0.0589697023231383,-1.3303604125976562,0.5707526803016663,2.3343238830566406,664,49,19355,3134
23.6,1788433564719,-0.3943662047386169,0.0,0.0020953330677002,0.0025910353288054,-0.8410890698432922,0.540886402130127,0.0124789269645528,-0.0012933743174846,-5.204842202739785e-07,-0.0119432946667075,0.0023425701074302,-0.0580774396657943,0.0015890356153249,0.0029315520077943,-0.7275357246398926,0.6860617995262146,0.0011026971938315,6.533187245326048e-05,0.0037759389012274,0.4787960648536682,-0.1774097681045532,0.048384666442871,94,1,0,0
23.7,1788433564819,0.0,0.0,0.0020777380559593,0.002585673239082,-0.8417394161224365,0.5398739576339722,-0.0054145554461501,0.0009121330741194,-2.268018583786584e-06,-0.0015653077280148,0.005281011108309,-0.0284529756754636,0.0015272600576281,0.0027906093746423,-0.7282623052597046,0.6852911710739136,0.0035800316965766,-0.0026249359782636,0.0151523932142315,0.4688090085983276,0.0656911134719848,0.0687408447265625,0,0,0,0
23.8,1788433564919,0.0,0.0,0.0020777380559593,0.002585673239082,-0.8417394161224365,0.5398739576339722,-0.0004392246750351,-0.0010390993081817,-4.9546737691006e-06,0.0,0.0,0.0,0.0014847656711935,0.0027631949633359,-0.7283379435539246,0.6852109432220459,-0.0009324928871101,0.0015073995985791,-0.0194454695534859,-0.0979135632514953,0.0696521997451782,-0.0032758712768554,0,0,0,0
23.9,1788433565019,0.0,0.0,0.0020777380559593,0.002585673239082,-0.8417394161224365,0.5398739576339722,0.0,0.0,0.0,0.0,0.0,0.0,0.0014964155852794,0.0027339002117514,-0.7282610535621643,0.6852927207946777,0.0014572370972681,-0.0016886482501161,-0.0029826239066111,0.0221955180168151,-0.0117847919464111,0.0091276168823242,0,0,0,0
24.0,1788433565119,0.0,0.0,0.0020777380559593,0.002585673239082,-0.8417394161224365,0.5398739576339722,0.0,0.0,0.0,0.0,0.0,0.0,0.0015114294365048,0.0027344357222318,-0.7282266616821289,0.685329258441925,0.0003699507991569,0.0010663337855069,0.0020557481345258,-0.0260674357414245,0.000663936138153,-0.0195932388305664,0,0,0,0
24.1,1788433565219,0.0,0.0,0.0020777380559593,0.002585673239082,-0.8417394161224365,0.5398739576339722,0.0,0.0,0.0,0.0,0.0,0.0,0.0015187561511993,0.0027938541024923,-0.7282379865646362,0.6853169798851013,3.895522763729313e-05,0.0023757409855621,0.0011155131964274,-0.0305584073066711,-0.045324683189392,-0.0035409927368164,0,0,0,0
24.2,1788433565319,0.0,0.0,0.0020777380559593,0.002585673239082,-0.8417394161224365,0.5398739576339722,0.0,0.0,0.0,0.0,0.0,0.0,0.0015857443213462,0.002853718586266,-0.7282524108886719,0.6853013634681702,-0.0003020475165365,0.0022820275404067,-0.0002966841543269,-6.73532485961914e-05,-0.0436228513717651,0.0162382125854492,0,0,0,0
24.3,1788433565419,0.0,0.0,0.0020929491147398,0.0024866699241101,-0.8416632413864136,0.5399929285049438,0.0005430700432872,-9.924764027202565e-05,3.173817795808809e-06,0.00065968738636,0.0001773384574335,0.0010543691460043,0.001574583351612,0.0028005046769976,-0.7282492518424988,0.6853048205375671,4.421700563798545e-05,-0.0020756282685399,-0.0019246091088404,0.0062497854232788,-0.0351976156234741,-0.0052947998046875,0,0,0,0
24.4,1788433565519,0.0,0.0,0.0020697144791483,0.0024594899732619,-0.8416883945465088,0.5399540066719055,-3.441814469790357e-05,2.7670971722369952e-05,-1.582153706661479e-07,0.0002454094064887,4.7803147026570514e-05,-0.0004184535355307,0.0015777209773659,0.0027825655415654,-0.7282204031944275,0.6853355169296265,3.862380174061581e-05,-0.0006394662285353,0.0021759949431108,0.0365947484970092,-0.012094497680664,-0.0267801284790039,112,126,4576,4576
24.5,1788433565619,1.6338027715682983,2.929577350616455,0.0020233278628438,0.0025392728857696,-0.8384122252464294,0.5450268387794495,0.0403906293132915,0.0032920679130154,-3.477820125002923e-06,-0.0025725874584168,0.0025779951829463,0.1936337202787399,0.0015447400510311,0.0029179314151406,-0.7241071462631226,0.6896796822547913,-0.0048669742091028,0.0127154802925277,0.2709802014815259,1.253978610038757,-0.1505056619644165,0.1007795333862304,834,196,23584,13346
24.6,1788433565719,6.253520965576172,5.352112770080566,0.0016608270816504,0.0022689527831971,-0.8358855247497559,0.5488966107368469,0.1667567914724215,-0.006952546865128,-4.711215458648737e-06,0.0018166358349844,-0.0173907447606325,-0.0177717190235853,0.0012345369905233,0.0024687154218554,-0.7214726209640503,0.6924375891685486,0.0088329311773452,-0.0248094836271515,-0.0821305285868373,0.3559142351150512,0.2211377024650573,1.3442840576171875,543,122,25490,16937
24.7,1788433565819,5.154929637908936,5.408450603485107,0.0055815977975726,0.0014576949179172,-0.8364701271057129,0.5479821562767029,0.173032669981803,-0.0048556118294155,-0.0001790774886126,0.0965769588947296,0.0979208871722221,0.0318487249314785,0.0063185989856719,0.0021308381110429,-0.7216390371322632,0.6922374963760376,0.1024208480711347,0.0795241116721253,0.0042552928333293,-0.1772119402885437,-0.0688639879226684,-2.6107330322265625,257,52,20312,15269
24.8,1788433565919,4.901408672332764,5.436619758605957,0.0031415782868862,0.00146129517816,-0.8380696773529053,0.5455520749092102,0.1747797745719653,-0.0035122163140242,0.0002546385609029,-0.0611292272806167,-0.081775926053524,-0.0866303443908691,0.0016513681039214,0.0019198004156351,-0.7243839502334595,0.6893922090530396,-0.0577217850186347,-0.0663113050334475,-0.0890246253639799,-0.6884979605674744,0.3697732090950012,-0.8540773391723633,110,73,15051,16735
24.9,1788433566019,4.816901206970215,5.239436626434326,0.0041049346327781,0.0011456408537924,-0.8373165130615234,0.5467017889022827,0.1532958156866959,-0.0018930146546365,-9.855800174191956e-05,0.0484747178852558,0.0517144128680229,0.0672262161970138,0.0049638487398624,0.0017786379903554,-0.7223562002182007,0.6915010809898376,0.0859179855016,0.1040137920166904,0.0841239402381169,-0.0854256749153137,0.4138005971908569,0.770421028137207,186,88,17489,15815
25.0,1788433566119,5.239436626434326,5.126760482788086,0.0130348093807697,-0.0010708048939704,-0.8347561955451965,0.550464391708374,0.1542415515880411,0.0017782828369836,-0.0002896153164798,0.1657310128211975,0.1746082603931427,0.1128508895635604,0.0152217280119657,0.001017915084958,-0.7189205288887024,0.6949248313903809,0.2068283561942897,0.1752600937527162,0.0943622005229903,-0.0144309401512146,-0.3073194622993469,1.1160240173339844,221,87,16454,16367
25.1,1788433566219,4.422535419464111,5.211267471313477,0.0274982973933219,-0.0044565182179212,-0.830806314945221,0.555864155292511,0.1570346027480293,-0.0040410393342193,-0.0005150487527301,0.1969191581010818,0.20035220682621,0.1409945338964462,0.0321951657533645,0.0005280692130327,-0.712508499622345,0.700924277305603,0.1777827670898247,0.1690542471896921,0.1685662446977137,-0.1287761330604553,-0.1759060621261596,0.5165624618530273,258,90,19104,16018
25.2,1788433566319,4.704225540161133,5.070422649383545,0.037002258002758,-0.0063004493713378,-0.8261062502861023,0.562263011932373,0.1527971339720356,0.0019466889308357,-0.0002978364647356,0.1235664039850235,0.1307952255010604,0.1582309454679489,0.0392383225262165,0.0012590317055583,-0.7073475122451782,0.7057749629020691,0.045205989242754,0.1140855518426889,0.1342250095708946,0.3477539420127868,-0.0061599612236022,-0.0708723068237304,324,81,21109,15339
25.3,1788433566419,5.154929637908936,4.901408672332764,0.0420348718762397,-0.007087068632245,-0.8227877020835876,0.5667478442192078,0.1627501670612158,-0.0001248229624295,-5.810050501204453e-05,0.0488590747117996,0.0038658252451568,0.0756206512451171,0.0426740087568759,0.0005930876359343,-0.7045732736587524,0.7083467245101929,0.0585933763368248,-0.0270846528735648,0.089910534052919,0.7396196126937866,-0.2959075570106506,-0.4160928726196289,498,51,22524,14608
25.4,1788433566519,5.408450603485107,4.253520965576172,0.0429854318499565,-0.0074190013110637,-0.823508083820343,0.565625011920929,0.1572129510332451,-0.0060857493535774,-2.536999207010365e-05,0.0138406902551651,0.0141523284837603,-0.0322633199393749,0.0435655824840068,0.0002824580296874,-0.7065776586532593,0.7062931656837463,0.0206603210944191,-0.0210611979796307,-0.059070068459243,0.5609791278839111,-0.4884063005447387,-1.2071809768676758,593,44,28647,12308
25.5,1788433566619,5.943662166595459,4.169013977050781,0.0429183170199394,-0.0082373302429914,-0.8272783756256104,0.5600899457931519,0.1517971861528979,-0.0086190288700786,1.8257302355808764e-05,0.0157788600772619,-0.011221894994378,-0.1824090331792831,0.0432239100337028,-0.0003605522215366,-0.7126363515853882,0.7002007961273193,-0.0011409808137381,-0.0359197090205914,-0.2342944494860305,-0.1285514235496521,-0.0395160913467407,-0.0770931243896484,767,84,29455,12578
25.6,1788433566719,5.436619758605957,4.14084529876709,0.0379617847502231,-0.0074458010494709,-0.8347194790840149,0.5493147969245911,0.1551482041614476,-0.0065146528101496,0.000179911969528,-0.095762513577938,-0.1228320747613906,-0.2790929675102234,0.0351963192224502,-0.000295172445476,-0.7216919660568237,0.6913188695907593,-0.2103257842294958,-0.2551767310061376,-0.2609035064192806,0.0952063202857971,0.6290760040283203,-0.102294921875,826,69,31108,13102
25.7,1788433566819,5.042253494262695,3.746478796005249,0.0068431883119046,-0.0020084942225366,-0.8448820114135742,0.5349050760269165,0.1710243317325203,-0.0006836859710569,0.0012802270121585,-0.4500868022441864,-0.5666356086730957,-0.3042767643928528,0.0089409872889518,-0.0009836582466959,-0.7318018674850464,0.6814581155776978,-0.4449391969698272,-0.6862098542111621,-0.2710557791925848,0.7611039876937866,-0.7529146671295166,-3.697900295257568,802,29,28935,10340
25.8,1788433566919,3.183098554611206,2.11267614364624,-0.0004544196999631,0.0002792183368001,-0.8510110378265381,0.525147557258606,0.1087340807975938,-0.0119274378289029,-0.0001826541409828,0.0280598420649766,0.0435239821672439,-0.1546417772769928,-4.683993756771088e-05,0.0004981607198715,-0.7413313984870911,0.6711390614509583,0.0054032755805189,0.0277770939797077,-0.1344815927908746,-0.2636632919311523,0.5344453454017639,0.5149860382080078,562,19,18973,4182
25.9,1788433567019,0.9014084339141846,0.0,-0.0001785842468962,0.0004835580475628,-0.854026734828949,0.520228922367096,0.0318564411275337,-0.0030434858806809,-1.7343780085666542e-06,0.0025417052675038,0.0029188804328441,-0.0849134847521781,-0.0002588964998722,0.0004931045696139,-0.7444924712181091,0.6676307320594788,0.000258770293378,-0.0089873670986741,-0.0661942409313768,-0.5450462102890015,0.0988180041313171,-0.1489734649658203,377,5,9656,315
26.0,1788433567119,0.0,0.0,-0.0003607205289881,0.0004285722970962,-0.8547701239585876,0.5190063118934631,-0.0055479803623896,0.0010265476183051,-2.8116834047917057e-08,0.0012358953244984,-0.0083960397168993,-0.0014911609468981,-0.0004187664017081,0.0004611816257238,-0.7450045943260193,0.6670591235160828,-0.0020770184285571,-0.0012697935372076,0.0012063392604153,-0.4994321465492248,-0.3746942281723022,0.2324037551879882,0,0,0,0
26.1,1788433567219,0.0,0.0,-0.0003084762429352,0.000525283277966,-0.8547910451889038,0.5189719200134277,5.6250571640908056e-05,-0.0003250262911414,-3.694989508841413e-07,-0.0016645960276946,0.0028427250217646,-0.0012046352494508,-0.0003995662555098,0.0004044789820909,-0.744914174079895,0.667160153388977,0.0035947537116431,-0.0038796647390955,0.0148488050306716,0.0803254842758178,0.1672918200492859,-0.0210800170898437,0,0,0,0
26.2,1788433567319,0.0,0.0,-0.0003614606685005,0.0004746396443806,-0.8548011779785156,0.5189551711082458,3.2490829316825935e-05,0.0004103373001177,4.7421244476105125e-07,-0.0005830312729813,-0.0012923802714794,0.0010008052922785,-0.0003986544907093,0.0004207761958241,-0.7449715733528137,0.6670960187911987,0.0009021467985361,0.0030051505551115,0.0031733386498331,-0.0272161364555358,0.039982259273529,-0.0160493850708007,0,0,0,0
26.3,1788433567419,0.0,0.0,-0.0003239316283725,0.0004852103302255,-0.854777991771698,0.5189934372901917,0.0,0.0,0.0,2.316682548553217e-05,-0.0005858076037839,2.3479813535232097e-05,-0.0004024915397167,0.0004678219556808,-0.7449857592582703,0.6670800447463989,-0.0015554007526544,0.0022079662599049,-0.0022597250380446,0.0757107734680175,-0.0563423037528991,0.0124759674072265,0,0,0,0
26.4,1788433567519,0.0,0.0,-0.0002448198501951,0.0005593545502051,-0.8547624349594116,0.5190190672874451,0.0001048207900917,-0.0001184486399118,-1.357282485421732e-07,0.0002893714117817,0.0014660524902865,0.0013462548376992,-0.0003637289628386,0.0004894332960247,-0.7449612021446228,0.6671075224876404,-0.0001331210513673,-0.0016383418483354,-0.0006510155998595,-0.0006715059280395,-0.0403642058372497,0.010695457458496,0,0,0,0
26.5,1788433567619,0.0,0.0,-0.0002283883222844,0.0005813491297885,-0.8547623753547668,0.5190190672874451,3.044491191397244e-05,-0.0003332966624864,-4.014105790464774e-07,-0.0002421303361188,0.0015047843335196,0.0003018460702151,-0.0003268355503678,0.0005451412871479,-0.7449471950531006,0.6671230792999268,-0.0006358124418028,0.0027575551126107,0.0017355788659462,-0.0047850608825683,-0.0130326151847839,-0.0125846862792968,0,0,0,0
26.6,1788433567719,0.0,0.0,-0.0002064149302896,0.0006229834398254,-0.8547808527946472,0.5189887285232544,-0.0001494370675089,0.0006257103243319,7.582955094364292e-07,-9.664233948569743e-05,0.0006784506258554,-0.0010852108243852,-0.000276805832982,0.0005760174244642,-0.7449648976325989,0.6671034097671509,0.0012810879922666,0.0009595525538346,0.0011179020698238,0.0125091075897216,-0.0366215109825134,0.0017280578613281,0,0,0,0
26.7,1788433567819,0.7605633735656738,1.2394366264343262,-0.0001686676550889,0.0006024774629622,-0.8547700643539429,0.5190064311027527,0.0,0.0,0.0,0.0004435786104295,-0.0003759429382625,2.584879803180229e-05,-0.0003364039584994,0.0004486888647079,-0.7451508641242981,0.6668957471847534,0.0003751503678197,-0.0055922280598255,-0.0112152587435107,1.4379135370254517,-0.0660242438316345,-0.1613407135009765,484,109,13330,6505
26.8,1788433567919,4.14084529876709,3.0422534942626958,-0.000435417459812,0.0002139226417057,-0.8547272682189941,0.5190770030021667,0.0902829853789077,-0.0052404853102697,7.463523596955661e-07,0.0039881756529212,-0.0076159983873367,-0.0010570432059466,-0.0003859922289848,0.0001288363710045,-0.7457891702651978,0.6661818623542786,0.0046993750387148,0.002871978878061,-0.117252508902236,0.7576048970222473,-0.1406411528587341,0.0520009994506835,735,171,25504,12483
26.9,1788433568019,7.042253494262695,4.309859275817871,-0.0002721805358305,5.637404683511704e-06,-0.8614501357078552,0.5078421831130981,0.1685392615311602,-0.0085694522519359,2.3585852423967853e-05,0.0039455918595194,-0.003116903360933,-0.2809368968009949,-0.0002685897052288,-4.442501813173294e-05,-0.753580629825592,0.6573553681373596,-0.0032282889403257,-0.000120704182425,-0.3415045352030728,0.1859966516494751,-0.0305747985839843,-0.3538084030151367,346,67,23617,14030
27.0,1788433568119,6.563380241394043,4.14084529876709,0.0047713830135762,-0.0018571144901216,-0.8690674901008606,0.4946669340133667,0.1812539872568232,-0.0100516655011318,-0.0005675364638236,0.1366722881793975,0.1562743484973907,-0.3548262417316437,0.0048794383183121,-0.001394435763359,-0.7672641277313232,0.6413111686706543,0.0248172707338647,-0.0448375767788242,-0.4583242258301724,-0.5265249013900757,0.3087853789329529,1.5352258682250977,199,53,22939,11303
27.1,1788433568219,6.366197109222412,4.197183132171631,0.0013910768320783,-0.0016781588783487,-0.8797518014907837,0.4754282534122467,0.1739094244165224,0.0032282400277297,0.0002818531289926,-0.0335244834423065,-0.074349544942379,-0.4308988749980926,0.0019405297935009,-0.0016506928950548,-0.779492199420929,0.6264067888259888,0.0451493182012156,0.0139817207501275,-0.3726769360005217,-0.4664111137390136,-0.4899651408195495,-0.4213838577270508,149,92,17425,12477
27.2,1788433568319,5.492957592010498,4.11267614364624,0.0061147166416049,-0.0054618436843156,-0.8855867981910706,0.4644016027450561,0.1672878977564213,0.0023316486261488,-0.0001558047105011,0.1763603091239929,0.0833785608410835,-0.2037680745124817,0.0090083070099353,-0.0043847160413861,-0.7856720089912415,0.6185621023178101,0.249187358524931,0.1727328891633398,-0.1454236570310441,0.2105090618133545,-0.4475173950195312,2.6003150939941406,220,69,21488,12959
27.3,1788433568419,6.084506988525391,4.2816901206970215,0.0236848928034305,-0.0089547485113143,-0.8896194100379944,0.4560000300407409,0.1528068181760737,0.0028799826870758,-0.0008517663855404,0.2288648188114166,0.2941682636737823,-0.2228516936302185,0.0305212270468473,-0.0054651899263262,-0.7918704152107239,0.609901487827301,0.2119599819883362,0.186905844599569,-0.0959813587116052,-0.0780671238899231,0.3568800687789917,-0.7910499572753906,241,62,19600,13525
27.4,1788433568519,4.929577350616455,4.591549396514893,0.0337493643164634,-0.0127253253012895,-0.8924696445465088,0.4496631622314453,0.1596507142114186,0.0015429336012245,-0.0001347892673398,0.1146873906254768,0.0706251785159111,-0.1062945947051048,0.0369474738836288,-0.0062399767339229,-0.7950514554977417,0.6053834557533264,0.0823537208888697,0.1101449149592676,-0.0491627414481719,0.1838489174842834,0.1934602260589599,0.0131521224975585,326,102,22396,14752
27.5,1788433568619,5.070422649383545,4.676056385040283,0.0378538146615028,-0.013400999829173,-0.8946468830108643,0.4449658095836639,0.1685973295205048,-0.0013554573235764,-1.3721058466033771e-06,0.0198048334568738,0.0341880954802036,-0.115365445613861,0.0398150496184825,-0.0061537623405456,-0.7981696724891663,0.6010841131210327,-0.0031929028330326,0.0712465018872962,-0.1303433041551991,0.1483258605003357,-0.369594931602478,-0.7239274978637695,365,103,23361,14167
27.6,1788433568719,5.605633735656738,4.084506988525391,0.0356107205152511,-0.0133263748139142,-0.8978719115257263,0.4386116564273834,0.1849950403709436,-0.0033449268159675,8.586781919828558e-05,-0.0358298048377037,-0.0737156420946121,-0.1561628133058548,0.0356050617992877,-0.0058156894519925,-0.804290235042572,0.5931406021118164,-0.1066198074458874,-0.0759768980598855,-0.2395007509483057,-0.1941746473312378,0.2649016976356506,-0.0283832550048828,444,71,24918,13267
27.7,1788433568819,5.408450603485107,4.563380241394043,0.0243452601134777,-0.0090738637372851,-0.9039894342422484,0.426764577627182,0.1920738865113894,-0.0065421711980815,0.0002673346278653,-0.3045510947704315,-0.2710356414318084,-0.3327631056308746,0.0180747080594301,-0.0031756851822137,-0.8132821321487427,0.5815801620483398,-0.3541762882204344,-0.3682773765902411,-0.3222106209916911,0.309802770614624,0.2275418639183044,-1.172140121459961,451,87,24379,13809
27.8,1788433568919,5.77464771270752,4.760563373565674,0.0047595063224434,-0.0010350372176617,-0.9098863005638124,0.4148291051387787,0.1460974543927995,-0.0056293057369781,2.9406594308628138e-05,-0.1007160395383834,-0.062380414456129,-0.0741927549242973,0.0033541331067681,-4.904996603727341e-05,-0.8182624578475952,0.5748351216316223,-0.1417325012782697,-0.1617033786838059,0.0095451307601517,1.6054083108901978,0.5366983413696289,-0.973064422607422,407,54,24780,13611
27.9,1788433569019,5.690140724182129,4.563380241394043,0.0006833121879026,0.000673892092891,-0.913890302181244,0.4059600830078125,0.1800405697050565,-0.0063832575658741,-0.0003539701567016,0.0207694433629512,0.0703185871243476,-0.1913410425186157,0.0014439905062317,0.0010234462097287,-0.8249279260635376,0.5652351975440979,0.0209288860261314,0.0582110319857579,-0.1286013270157337,-0.4257575273513794,-0.1739564538002014,2.172793388366699,408,81,23259,14064
28.0,1788433569119,5.521126747131348,4.394366264343262,0.0021116735879331,0.0010324355680495,-0.9179234504699708,0.3967506289482116,0.1766596462641895,0.0012706895849529,-0.000126496830428,0.0060536032542586,0.0292118974030017,-0.2184411883354187,0.0022762985900044,0.001452506519854,-0.8300088047981262,0.5577438473701477,0.0290333012355275,0.0556235260602508,-0.2388126223204477,-0.4833974242210388,-0.0784991383552551,-2.1752490997314453,353,87,22326,14551
28.1,1788433569219,5.77464771270752,4.619718074798584,0.004061197862029,0.0006871995865367,-0.919840693473816,0.3922702074050903,0.1844421389393157,0.0071871167884476,-0.0001439212476121,0.0181733313947916,0.0388580523431301,-0.1117774471640586,0.0038893548771739,0.0014136033132672,-0.8322376012802124,0.5544036626815796,0.0289034477019269,0.0281050134595848,-0.1373995620007622,0.3752996921539306,-0.9506985545158386,-0.3269863128662109,325,58,21021,13982
28.2,1788433569319,5.070422649383545,4.591549396514893,0.0100376904010772,-0.0018287515267729,-0.9227842688560486,0.3851818740367889,0.175400983577754,0.000105574799406,-9.934146441712776e-05,0.0950242206454277,0.0245123840868473,-0.1459117531776428,0.0119839096441864,-0.0003075404092669,-0.8377746343612671,0.5458846688270569,0.0570728897523142,0.1008239911044021,-0.1581375401554442,0.2819631695747375,-0.3616805076599121,-1.3501520156860352,381,63,22186,13771
28.3,1788433569419,5.352112770080566,4.8450703620910645,0.0111071104183793,-0.0022840010933578,-0.9260657429695128,0.3771917521953583,0.1830617942960131,0.0019392692315993,9.351096725802237e-05,-0.0344104431569576,-0.0336662121117115,-0.1568972170352935,0.0122386487200856,-0.0002144556492567,-0.8409185409545898,0.5410233736038208,0.0480370075271156,0.0554836866076282,0.0055933080229613,0.0540582537651062,-0.3467257618904114,-0.1844015121459961,177,96,16465,15056
28.4,1788433569519,5.7183098793029785,4.901408672332764,0.0249047875404357,-0.0079326340928673,-0.924533188343048,0.3802043497562408,0.1595844489423691,-0.0018478203308832,-0.000670582001718,0.2985099852085113,0.2819221019744873,0.0891278311610221,0.0284074284136295,-0.0038297744467854,-0.8387972116470337,0.543688952922821,0.3007333570089994,0.3267224376467203,0.0816238416971474,0.0922337174415588,-0.0942370891571044,-0.1359338760375976,231,96,16919,15208
