time_s,timestamp_ms,wheel_vels__velocity_left,wheel_vels__velocity_right,odom__orient_x,odom__orient_y,odom__orient_z,odom__orient_w,odom__lin_x,odom__lin_y,odom__lin_z,odom__ang_x,odom__ang_y,odom__ang_z,imu__orient_x,imu__orient_y,imu__orient_z,imu__orient_w,imu__angvel_x,imu__angvel_y,imu__angvel_z,imu__acc_x,imu__acc_y,imu__acc_z,wheel_status__current_ma_left,wheel_status__current_ma_right,wheel_status__pwm_left,wheel_status__pwm_right
0.0,1788426387977,0.0,0.0,-0.0011859382502734,-0.0017113354988396,0.0480232201516628,0.9988440871238708,0.0,0.0,0.0,-5.416696424731526e-09,0.0,-4.378971425467171e-07,-0.0008939830586314,-0.001887833699584,0.2035779953002929,0.979056477546692,0.0001034859392696,-0.0001244869027877,-7.578718312321956e-07,-0.0065302848815917,0.0041619539260864,-0.0360870361328125,0,0,0,0
0.1,1788426388077,0.0,0.0,-0.0011859382502734,-0.0017113354988396,0.0480232201516628,0.9988440871238708,0.0,0.0,0.0,-5.416696424731526e-09,0.0,-4.378971425467171e-07,-0.0008939830586314,-0.001887833699584,0.2035779953002929,0.979056477546692,0.0001034859392696,-0.0001244869027877,-7.578718312321956e-07,-0.0065302848815917,0.0041619539260864,-0.0360870361328125,0,0,0,0
0.2,1788426388177,0.0,0.0,-0.0011859382502734,-0.0017113354988396,0.0480232201516628,0.9988440871238708,0.0,0.0,0.0,-5.416696424731526e-09,0.0,-4.378971425467171e-07,-0.0008939830586314,-0.001887833699584,0.2035779953002929,0.979056477546692,0.0001034859392696,-0.0001244869027877,-7.578718312321956e-07,-0.0065302848815917,0.0041619539260864,-0.0360870361328125,0,0,0,0
0.3,1788426388277,0.0,0.0,-0.0011859382502734,-0.0017113354988396,0.0480232201516628,0.9988440871238708,0.0,0.0,0.0,-5.416696424731526e-09,0.0,-4.378971425467171e-07,-0.0008939830586314,-0.001887833699584,0.2035779953002929,0.979056477546692,0.0001034859392696,-0.0001244869027877,-7.578718312321956e-07,-0.0065302848815917,0.0041619539260864,-0.0360870361328125,0,0,0,0
0.4,1788426388377,0.0,0.0,-0.0011859382502734,-0.0017113354988396,0.0480232201516628,0.9988440871238708,0.0,0.0,0.0,-5.416696424731526e-09,0.0,-4.378971425467171e-07,-0.0008939830586314,-0.001887833699584,0.2035779953002929,0.979056477546692,0.0001034859392696,-0.0001244869027877,-7.578718312321956e-07,-0.0065302848815917,0.0041619539260864,-0.0360870361328125,0,0,0,0
0.5,1788426388477,0.0,0.0,-0.0011859382502734,-0.0017113354988396,0.0480232201516628,0.9988440871238708,0.0,0.0,0.0,-5.416696424731526e-09,0.0,-4.378971425467171e-07,-0.0008939830586314,-0.001887833699584,0.2035779953002929,0.979056477546692,0.0001034859392696,-0.0001244869027877,-7.578718312321956e-07,-0.0065302848815917,0.0041619539260864,-0.0360870361328125,0,0,0,0
0.6,1788426388577,0.0,0.0,-0.0011859382502734,-0.0017113354988396,0.0480232201516628,0.9988440871238708,0.0,0.0,0.0,-5.416696424731526e-09,0.0,-4.378971425467171e-07,-0.0008939830586314,-0.001887833699584,0.2035779953002929,0.979056477546692,0.0001034859392696,-0.0001244869027877,-7.578718312321956e-07,-0.0065302848815917,0.0041619539260864,-0.0360870361328125,0,0,0,0
0.7,1788426388677,0.0,0.0,-0.0011859382502734,-0.0017113354988396,0.0480232201516628,0.9988440871238708,0.0,0.0,0.0,-5.416696424731526e-09,0.0,-4.378971425467171e-07,-0.0008939830586314,-0.001887833699584,0.2035779953002929,0.979056477546692,0.0001034859392696,-0.0001244869027877,-7.578718312321956e-07,-0.0065302848815917,0.0041619539260864,-0.0360870361328125,0,0,0,0
0.8,1788426388777,0.0,0.0,-0.0011859382502734,-0.0017113354988396,0.0480232201516628,0.9988440871238708,0.0,0.0,0.0,-5.416696424731526e-09,0.0,-4.378971425467171e-07,-0.0008939830586314,-0.001887833699584,0.2035779953002929,0.979056477546692,0.0001034859392696,-0.0001244869027877,-7.578718312321956e-07,-0.0065302848815917,0.0041619539260864,-0.0360870361328125,0,0,0,0
0.9,1788426388877,0.0,0.0,-0.0011859382502734,-0.0017113354988396,0.0480232201516628,0.9988440871238708,0.0,0.0,0.0,-5.416696424731526e-09,0.0,-4.378971425467171e-07,-0.0008939830586314,-0.001887833699584,0.2035779953002929,0.979056477546692,0.0001034859392696,-0.0001244869027877,-7.578718312321956e-07,-0.0065302848815917,0.0041619539260864,-0.0360870361328125,0,0,0,0
1.0,1788426388977,0.0,0.0,-0.0011859383666887,-0.0017113356152549,0.0480232089757919,0.9988440871238708,0.0,0.0,0.0,-5.5366085049968206e-09,-4.953808030450091e-09,-4.4759110551240166e-07,-0.0008920188993215,-0.0018897308036684,0.2035779953002929,0.979056477546692,7.454113092789876e-05,-0.000109486766409,-1.6826552345360272e-10,-0.0153916478157043,-0.0013555288314819,0.0162897109985351,0,0,0,0
1.1,1788426389077,0.0,0.0,-0.0011859383666887,-0.0017113356152549,0.0480231828987598,0.9988440871238708,0.0,0.0,0.0,-4.235163775234696e-09,-1.058790943808674e-09,-4.336807819527167e-07,-0.0008873902261257,-0.0018914807587862,0.2035779953002929,0.979056477546692,9.788860001777004e-05,-3.8666473412160736e-05,-5.6998610270091565e-11,-0.0006536245346069,0.0164984464645385,-0.0158300399780273,0,0,0,0
1.2,1788426389177,0.0,0.0,-0.0011859383666887,-0.0017113354988396,0.048023160547018,0.9988440871238708,0.0,0.0,0.0,-9.65829194399248e-10,1.8109297394985902e-09,-4.94504547532415e-07,-0.0008796658366918,-0.0018871277570724,0.2035779953002929,0.979056477546692,0.0001409326219464,9.086200692555724e-05,2.0101922121469326e-10,-0.0208836197853088,-0.0415599942207336,-0.0016813278198242,0,0,0,0
1.3,1788426389277,0.0,0.0,-0.0011859384831041,-0.0017113354988396,0.0480231381952762,0.9988440871238708,0.0,0.0,0.0,-8.710154819624448e-10,1.1613540129573607e-09,-4.459599267647718e-07,-0.0008760970085859,-0.0018769986927509,0.2035779953002929,0.979056477546692,0.0001159975309724,0.0002272904593095,9.936844750514507e-07,0.0393134355545043,-0.0072835087776184,0.0021724700927734,0,0,0,0
1.4,1788426389377,0.0,0.0,-0.0011859384831041,-0.0017113356152549,0.0480231158435344,0.9988440871238708,0.0,0.0,0.0,-8.851552824040708e-10,1.475258804006785e-10,-4.531995045908843e-07,-0.0008751256391406,-0.0018654074519872,0.2035780251026153,0.9790565967559814,5.495383351196397e-05,0.0002709483928507,2.2422805755155007e-10,0.0237545371055603,-0.0015081167221069,0.0095777511596679,0,0,0,0
1.5,1788426389477,0.0,0.0,-0.0011859383666887,-0.0017113356152549,0.0480230897665023,0.9988440871238708,0.0,0.0,0.0,2.493034667594429e-09,-8.310115928722438e-10,-4.254779355505889e-07,-0.0008748266845941,-0.0018511610105633,0.2035780251026153,0.9790565967559814,4.900374518790894e-05,0.0002171743025378,1.4496932579763678e-10,0.0125371217727661,0.0164217948913574,0.0150117874145507,0,0,0,0
1.6,1788426389577,0.0,0.0,-0.0011859383666887,-0.0017113354988396,0.0480230823159217,0.9988440871238708,0.0,0.0,0.0,0.0,4.683381238379525e-09,-5.048191837886407e-07,-0.0008734976872801,-0.0018457304686307,0.2035780251026153,0.9790565967559814,8.258736079931352e-05,0.0001495629526573,1.8575808330372208e-10,0.0248358845710754,-0.0179491639137268,-0.0013132095336914,0,0,0,0
1.7,1788426389677,0.0,0.0,-0.0011859383666887,-0.0017113354988396,0.0480230823159217,0.9988440871238708,0.0,0.0,0.0,0.0,4.683381238379525e-09,-5.048191837886407e-07,-0.0008734976872801,-0.0018457304686307,0.2035780251026153,0.9790565967559814,8.258736079931352e-05,0.0001495629526573,1.8575808330372208e-10,0.0248358845710754,-0.0179491639137268,-0.0013132095336914,0,0,0,0
1.8,1788426389777,0.0,0.0,-0.0011859383666887,-0.0017113354988396,0.0480230823159217,0.9988440871238708,0.0,0.0,0.0,0.0,4.683381238379525e-09,-5.048191837886407e-07,-0.0008734976872801,-0.0018457304686307,0.2035780251026153,0.9790565967559814,8.258736079931352e-05,0.0001495629526573,1.8575808330372208e-10,0.0248358845710754,-0.0179491639137268,-0.0013132095336914,0,0,0,0
1.9,1788426389877,0.0,0.0,-0.0011859385995194,-0.0017113353824242,0.0480230450630188,0.9988440871238708,0.0,0.0,0.0,-8.881144708539067e-10,1.6282099002395967e-09,-4.547146090772003e-07,-0.000873097218573,-0.0018397811800241,0.2035780251026153,0.9790565967559814,-6.2766091782629e-07,0.0001229722926527,-1.163163517674487e-12,0.0177419185638427,0.013170838356018,0.0021839141845703,0,0,0,0
2.0,1788426389977,0.0,0.0,-0.0011859389487653,-0.0017113357316702,0.0480230003595352,0.9988440871238708,0.0,0.0,0.0,-9.336114992208875e-09,-9.477571616400836e-09,1.4485124211205402e-07,-0.0008813645690679,-0.0018360000103712,0.2035780251026153,0.9790565967559814,-5.307599934271333e-05,-1.4977509268050476e-05,1.0928085277517364e-11,-0.0191874504089355,-0.0097399950027465,0.0406122207641601,0,0,0,0
2.1,1788426390077,0.0,0.0,-0.0011859387159347,-0.0017113354988396,0.0480229966342449,0.9988440871238708,0.0,0.0,0.0,9.548562829309049e-09,8.535836037992794e-09,-1.481473930198263e-07,-0.000884830020368,-0.0018365811556577,0.2035780251026153,0.9790565967559814,-5.634409996329852e-05,-1.6611353907038787e-05,1.4054975495249719e-11,0.0023143291473388,-0.0095546245574951,-0.0011558532714843,0,0,0,0
2.2,1788426390177,0.0,0.0,-0.0011859387159347,-0.0017113354988396,0.0480229966342449,0.9988440871238708,0.0,0.0,0.0,9.747969542672765e-09,8.714094335005031e-09,-1.5124122398901818e-07,-0.0008876668289303,-0.0018371036276221,0.2035780251026153,0.9790565967559814,-5.711872271633475e-05,1.500052330507315e-05,-1.3543358218663368e-11,-0.0099467635154724,-0.0309615135192871,-0.0137548446655273,0,0,0,0
2.3,1788426390277,0.0,0.0,-0.0011859389487653,-0.0017113357316702,0.0480230003595352,0.9988440871238708,0.0,0.0,0.0,0.0,-2.0534175748654346e-10,0.0,-0.0008912431076169,-0.0018361117690801,0.2035780251026153,0.9790565967559814,-0.0001054948209022,4.466301338028765e-05,-6.845088142315677e-11,-0.0078597068786621,-0.0035622119903564,-0.009307861328125,0,0,0,0
2.4,1788426390377,0.0,0.0,-0.0011711785336956,-0.0016723559238016,0.0480229742825031,0.9988441467285156,5.9113452410616e-08,6.133126733298659e-07,1.3584828248477883e-09,0.0006870354409329,0.0015806291485205,-3.080781993958226e-07,-0.0009008450433611,-0.0018341336399316,0.2035780251026153,0.9790565967559814,-0.0002019892887145,6.828025089692631e-05,-2.0214367451576691e-10,0.0067780017852783,0.0008929967880249,0.0037317276000976,0,0,0,0
2.5,1788426390477,0.0,0.0,-0.0011816958431154,-0.0016688440227881,0.0480230003595352,0.9988441467285156,-0.0002499755326799,0.0002311167492564,1.3868783629126592e-06,-0.0001445861416868,6.069483424653299e-05,7.057218454065151e-07,-0.0009101033210754,-0.0018323576077818,0.2035780251026153,0.9790565967559814,-0.0001987634584315,8.335327173442419e-05,-2.1864146499830572e-10,-0.0039944648742675,0.0188142657279968,-0.0283536911010742,0,0,0,0
2.6,1788426390577,0.0,0.0,-0.0011885818094015,-0.001666082534939,0.0480230264365673,0.9988441467285156,0.0,0.0,0.0,-9.247568232240155e-05,5.42083362233825e-05,1.0572458677415852e-06,-0.0009170230478048,-0.0018300106748938,0.2035780251026153,0.9790565967559814,-0.00011475456044,8.367771234742404e-05,9.955912369521152e-07,0.0052301883697509,0.0021270513534545,0.0020923614501953,0,0,0,0
2.7,1788426390677,0.0,0.0,-0.0011945842998102,-0.0016601959941908,0.0480230376124382,0.9988441467285156,0.0,0.0,0.0,-5.476781734614633e-05,0.0001021595235215,7.382312219306186e-07,-0.0009207418188452,-0.0018260916694998,0.2035780251026153,0.9790565967559814,-5.0775615667850734e-05,0.0001049190408364,-8.098004062582435e-11,0.0073160529136657,0.0017855167388916,-0.0048274993896484,0,0,0,0
2.8,1788426390777,0.0,0.0,-0.0011954305227845,-0.0016555287875235,0.0480230823159217,0.9988441467285156,0.0,0.0,0.0,-5.1186630116717424e-06,0.0001912669977173,1.002872068056604e-06,-0.0009214906021952,-0.0018198732286691,0.2035780251026153,0.9790565967559814,3.9207153675614415e-05,8.679171983359444e-05,3.900605137161339e-11,-0.0052350759506225,-0.0132516622543334,-0.0206365585327148,0,0,0,0
2.9,1788426390877,0.0,0.0,-0.001194852637127,-0.0016539512434974,0.0480231121182441,0.9988441467285156,0.0,0.0,0.0,8.687652264249833e-10,0.0,4.448077959295915e-07,-0.0009180912747979,-0.0018131537362933,0.2035780251026153,0.9790565967559814,0.0001336875469588,0.0001193475603125,2.399196413516094e-10,0.0308983922004699,-0.0051622986793518,-0.0025587081909179,0,0,0,0
3.0,1788426390977,0.0,0.0,-0.0011948524042963,-0.0016539512434974,0.0480231717228889,0.9988441467285156,0.0,0.0,0.0,6.6463474723832405e-09,-7.946719726703577e-09,1.3315811884240247e-06,-0.0009106621146202,-0.0018054079264402,0.2035780251026153,0.9790565967559814,0.0001723647230026,0.0001139573380986,-9.915649340756318e-07,0.0165782570838928,-0.0092029571533203,0.00689697265625,0,0,0,0
3.1,1788426391077,0.0,0.0,-0.0011948524042963,-0.0016539510106667,0.0480232164263725,0.9988441467285156,0.0,0.0,0.0,8.585470667732408e-10,4.435826372883866e-09,4.3957609818789933e-07,-0.0009043049067258,-0.0017999047413468,0.2035780251026153,0.9790565967559814,0.0001427923223053,0.0001033120410875,2.2198435189097302e-10,0.0129405260086059,0.0108299851417541,-0.0077943801879882,0,0,0,0
3.2,1788426391177,0.0,0.0,-0.0011729756370186,-0.001635217340663,0.0480231679975986,0.9988442063331604,-0.0003087969208125,0.0002855006368268,1.6877939093247903e-06,0.0,4.2567588343089824e-10,0.0,-0.0009007770568132,-0.0017967000603675,0.2035780251026153,0.9790565967559814,6.490562964576218e-05,2.965865207033965e-05,3.0768073473052546e-11,-0.0163045525550842,-0.0317246913909912,-0.0024480819702148,0,0,0,0
3.3,1788426391277,0.0,0.0,-0.001170412520878,-0.0016335601685568,0.0480231754481792,0.9988442063331604,0.0,0.0,0.0,0.0,-8.702666920434864e-10,0.0,-0.0009026983752846,-0.0017985589802265,0.2035780251026153,0.9790565967559814,-7.050945666378876e-05,-8.112043172851934e-05,6.572554271384989e-11,-0.0137216448783874,-0.0072685480117797,-0.0134487152099609,0,0,0,0
3.4,1788426391377,0.0,0.0,-0.0011762188514694,-0.0016407141229137,0.0480231754481792,0.9988442063331604,0.0002324162958264,-0.0002148823455757,-1.2698718851112663e-06,-0.0001819010358303,-0.0002517711545806,-3.280746057043871e-07,-0.000905729830265,-0.0018063485622406,0.2035780251026153,0.9790565967559814,-8.737314454993615e-05,-0.0001745817002752,2.292901672512992e-10,0.0124576091766357,-0.0179741978645324,-0.0192909240722656,0,0,0,0
3.5,1788426391477,0.0,0.0,-0.0011782435467466,-0.0016493515577167,0.0480231679975986,0.9988442063331604,0.0,0.0,0.0,-9.715803753351791e-05,-0.0003400559071451,-5.940347591604223e-07,-0.0009047891944646,-0.0018213279545307,0.2035780251026153,0.9790565967559814,-5.264775492212121e-06,-0.0002645542498109,-9.444654753528892e-07,0.0241117477416992,-0.0115483403205871,0.0015802383422851,0,0,0,0
3.6,1788426391577,0.0,0.0,-0.001178027363494,-0.0016601672396063,0.048023160547018,0.9988441467285156,0.0001596673103765,-0.0001476216880673,-8.788764494852295e-07,-9.179974767903332e-06,-0.0003271194873377,-4.507669757458644e-07,-0.0009007779881358,-0.001833994872868,0.2035780251026153,0.9790565967559814,2.578943756423984e-05,-0.0003215704781047,-1.2438957059280348e-10,0.014431893825531,0.0225007534027099,-0.0148286819458007,0,0,0,0
3.7,1788426391677,0.0,0.0,-0.0011761977802962,-0.0016722639556974,0.0480231493711471,0.9988441467285156,0.0,0.0,0.0,0.0,2.9574975801693876e-10,0.0,-0.0008960459381341,-0.0018488718196749,0.2035780251026153,0.9790565967559814,4.781156959304449e-05,-0.0003503419960592,-2.51828065166175e-10,-0.0005922317504882,-0.0028708577156066,0.0086421966552734,0,0,0,0
3.8,1788426391777,0.0,0.0,-0.0011727325618267,-0.001700903638266,0.0480231307446956,0.9988440871238708,0.0002372332658214,-0.0002193359862237,-1.3222665387520907e-06,2.7391673938836902e-05,-0.0006689765723422,-1.3394973166214186e-06,-0.0008921511471271,-0.0018650600686669,0.2035780251026153,0.9790565967559814,-1.5124417811479077e-05,-0.0003536445675054,-9.806311116653197e-07,-0.0060675144195556,0.0029557943344116,-0.0107002258300781,0,0,0,0
3.9,1788426391877,0.0,0.0,-0.0011725518852472,-0.0017131608910858,0.0480231083929538,0.9988440871238708,0.0,0.0,0.0,-1.6111529475892894e-05,-0.0004836830776184,-1.470690449423273e-06,-0.0008902056142687,-0.0018807174637913,0.2035780251026153,0.9790565967559814,-6.185672308059288e-05,-0.0002428585107689,1.585306446397165e-10,-0.0146757960319519,-0.0037585496902465,0.0064888000488281,0,0,0,0
4.0,1788426391977,0.0,0.0,-0.0011747129028663,-0.0017231408273801,0.0480230674147605,0.9988440871238708,0.0,0.0,0.0,-0.000101727877336,-0.000380424229661,-1.0056397741209366e-06,-0.0008917339146137,-0.0018930863589048,0.2035779953002929,0.979056477546692,-7.52871140590619e-05,-0.0002492152071458,2.8826795521024767e-10,0.0172623395919799,-0.0286851525306701,-0.0093994140625,0,0,0,0
4.1,1788426392077,0.0,0.0,-0.0011775140883401,-0.0017332026036456,0.0480230711400508,0.998844027519226,0.0,0.0,0.0,-4.038619216828465e-09,7.211820030050831e-10,4.430942226463231e-07,-0.0008968068286776,-0.0019095251336693,0.2035779953002929,0.979056477546692,-0.0001677584233296,-0.0002183926723864,5.520495183533047e-10,-0.0112149715423583,0.0080660581588745,-0.0304698944091796,0,0,0,0
4.2,1788426392177,0.0,0.0,-0.0011898836819455,-0.0017505367286503,0.0480230562388896,0.9988439679145812,0.0002282169523781,-0.0002109998909914,-1.3028681057065325e-06,-0.0003250462177675,-0.0002838528889697,1.6107360067962873e-07,-0.0009039593860507,-0.0019168276339769,0.2035779953002929,0.979056477546692,-0.0001782271173806,-8.556144090126919e-05,2.2902045952224114e-10,0.0308900475502014,0.0369390249252319,-0.0089502334594726,0,0,0,0
4.3,1788426392277,0.0,0.0,-0.0011953451903536,-0.001753426506184,0.0480230450630188,0.9988439679145812,0.0,0.0,0.0,-0.0001171177573269,-5.374843021854758e-05,2.9911032584095665e-07,-0.0009081773459911,-0.001919612288475,0.2035779953002929,0.979056477546692,-8.407426883982137e-05,-1.890406574461566e-05,2.3767799465913013e-11,0.025948941707611,0.0022106170654296,0.0069971084594726,0,0,0,0
4.4,1788426392377,0.0,0.0,-0.0011988061014562,-0.0017543542198836,0.0480230934917926,0.9988439679145812,0.0002193331344642,-0.0002027862625565,-1.2622452749254723e-06,-8.863316179485992e-05,-1.358098234049976e-05,6.192139494487492e-07,-0.0009102560579776,-0.0019200751557946,0.2035779953002929,0.979056477546692,-2.2780013195645665e-05,1.3532292777025256e-05,-4.296809863279207e-12,-0.0240896940231323,-0.0323061943054199,0.022139549255371,0,0,0,0
4.5,1788426392477,0.0,0.0,-0.0012001426657661,-0.0017535337246954,0.0480231083929538,0.9988439679145812,0.0,0.0,0.0,-2.950680391222704e-05,2.046495137619786e-05,4.477131483326957e-07,-0.000912507995963,-0.0019182711839675,0.2035779953002929,0.979056477546692,-3.8829639175046845e-05,6.193897866574586e-05,9.926625048510072e-07,0.0068509578704833,-0.0213992595672607,0.0144195556640625,0,0,0,0
4.6,1788426392577,0.0,0.0,-0.0012045120820403,-0.0017487310105934,0.0480231121182441,0.9988439679145812,0.0,0.0,0.0,-9.285281703341752e-05,9.749441232997924e-05,4.423030190991995e-07,-0.0009169187396764,-0.0019151093438267,0.2035779953002929,0.979056477546692,-9.616357849767348e-05,9.5895239190399e-05,-1.4551286358467463e-10,-0.0088557004928588,0.0006559491157531,0.0086545944213867,0,0,0,0
4.7,1788426392677,0.0,0.0,-0.0012075962731614,-0.0017437951173633,0.0480231381952762,0.9988439679145812,0.0,0.0,0.0,-5.969583799014799e-05,0.0001339756563538,8.862119784680544e-07,-0.0009221732616424,-0.0019074389711022,0.2035779953002929,0.979056477546692,-5.138410460938034e-05,0.0001627008465439,-1.2570582718831126e-10,-0.0207720398902893,0.0039209127426147,0.0134267807006835,0,0,0,0
4.8,1788426392777,0.0,0.0,-0.0012100683525204,-0.0017346530221402,0.0480231530964374,0.9988439679145812,0.0,0.0,0.0,-4.464280937099829e-05,0.0002270280383527,8.673158617966692e-07,-0.0009244680404663,-0.0018999734893441,0.2035779953002929,0.979056477546692,4.933144031909932e-06,0.0001702826339831,1.2612706705638444e-11,-0.0188174843788146,-0.0071984529495239,-0.0042057037353515,0,0,0,0
4.9,1788426392877,0.0,0.0,-0.0012102416949346,-0.0017273880075663,0.048023160547018,0.998844027519226,0.0,0.0,0.0,3.950211521441815e-06,0.0001131468816311,0.0,-0.0009250724688172,-0.0018876120448112,0.2035779953002929,0.979056477546692,7.326131900212706e-05,0.0002081084252562,2.287695990496305e-10,-0.0434429049491882,-0.0473304986953735,0.0110130310058593,0,0,0,0
5.0,1788426392977,0.0,0.0,-0.0012071072123944,-0.0017126949969679,0.0480231642723083,0.998844027519226,0.0,0.0,0.0,6.948077498236671e-05,0.0002420660748612,2.982382625305036e-07,-0.0009239017963409,-0.0018762219697237,0.2035779953002929,0.979056477546692,9.657746393963276e-05,0.0002598706100491,9.920871548129955e-07,-0.0194688439369201,-0.0188912749290466,0.0132961273193359,0,0,0,0
5.1,1788426393077,0.0,0.0,-0.001201688311994,-0.0016983159584924,0.0480232201516628,0.998844027519226,0.0001534978026573,-0.000141917664311,-8.713515972485533e-07,0.0001352855324512,0.0002965620078612,1.5167242963798344e-06,-0.0009211897850036,-0.0018639443442225,0.2035779953002929,0.979056477546692,9.905139463741624e-05,0.0002356553051534,3.7666054926015957e-10,-0.0229169130325317,-0.0045773983001708,0.0151357650756835,0,0,0,0
5.2,1788426393177,0.0,0.0,-0.0011976913083344,-0.0016881850315257,0.0480232462286949,0.9988440871238708,0.0,0.0,0.0,0.000156304318807,0.0003464350884314,6.500079621218902e-07,-0.000918579287827,-0.0018493114039301,0.2035780251026153,0.9790565967559814,4.105148340177736e-05,0.0002016713866803,1.2420261228432842e-10,-0.0015280246734619,-0.0255889296531677,0.0115957260131835,0,0,0,0
5.3,1788426393277,0.0,0.0,-0.001197668374516,-0.0016787371132522,0.0480232797563076,0.9988440871238708,0.0,0.0,0.0,-4.39740288129542e-05,0.0001746025955071,6.054495997886988e-07,-0.0009218025952577,-0.0018446613103151,0.2035780251026153,0.9790565967559814,-7.53985143709088e-05,6.099040594886655e-05,-6.873363715940491e-11,0.0064746737480163,-0.0122129321098327,-0.0131053924560546,0,0,0,0
5.4,1788426393377,0.0,0.0,-0.0011990285711362,-0.001680004177615,0.0480193644762039,0.9988442659378052,-1.7878313592980933e-05,1.6310915846964362e-05,9.956994648387341e-08,2.3771488486090675e-05,-0.0001069169011316,-0.0001595755602465,-0.0009222170338034,-0.0018872376531362,0.2035902887582779,0.9790539741516112,-0.0004470299743561,-0.0030472763046717,0.000891675365073,0.2099718451499939,0.0483874678611755,0.0146341323852539,137,168,5106,5463
5.5,1788426393477,4.084506988525391,3.88732385635376,-0.0010393816046416,-0.0024990222882479,0.0519521161913871,0.9986459016799928,0.0744597047532971,0.0006951600872146,1.4785960613964531e-05,0.0036652309354394,-0.0185355469584465,0.0903320685029029,-0.0005418192595243,-0.0027910955250263,0.2078778147697448,0.9781506061553956,0.0039868300263902,-0.0117829152095164,0.0306247279329105,0.8807625770568848,-0.0065033435821533,0.4602260589599609,144,184,12217,13598
5.6,1788426393577,5.633802890777588,5.577464580535889,-0.0009714792249724,-0.0026720797177404,0.0524115711450576,0.9986215829849244,0.1191020899731895,0.0037072638083869,2.34582423660035e-05,0.0039986013434827,-0.0117997685447335,0.0306683015078306,-0.0009076194837689,-0.0014056367799639,0.2093420177698135,0.9778410792350768,0.0022083804306818,0.020760249673146,0.0525652734155508,0.6934998631477356,0.1759732961654663,-0.116032600402832,156,126,13388,14973
5.7,1788426393677,4.788732528686523,5.408450603485107,-0.0011265214998275,-0.0010425155051052,0.0580674819648265,0.998311460018158,0.1836972473557022,0.0018153550254104,-7.2161255299164e-05,0.0087045133113861,0.0140866041183471,0.094600610435009,-0.0007664952427148,-0.0007446995005011,0.214500144124031,0.9767233729362488,0.0186109444869567,0.027340224836302,0.0740904297841603,-0.3451445698738098,-0.0099143981933593,0.2459564208984375,102,68,13622,12542
5.8,1788426393777,4.02816915512085,4.2253522872924805,-0.0011893032351508,-0.0012460765428841,0.059780653566122,0.9982100129127502,0.1676778597684017,-0.0005508008692132,-3.667262198851196e-05,-0.0344141572713851,0.0107362046837806,-0.0004707968619186,-0.0009992877021431,-0.0018755681812763,0.2149087488651275,0.9766318202018738,-0.0201802603160158,-0.0457879601130896,-0.0212314873857435,0.0422421097755432,-0.2243042588233947,-0.8141136169433594,16,31,8505,8739
5.9,1788426393877,1.7183098793029783,1.6619718074798584,-0.0019599446095526,-0.0028066595550626,0.0599578917026519,0.9981950521469116,0.1035502945146477,0.0009073201338147,6.900985982351915e-05,-0.0200540944933891,-0.0326152145862579,0.0123531380668282,-0.0016685966402292,-0.0033569075167179,0.2152015566825866,0.9765625,-0.0150895098929841,-0.0155693801538461,-0.0042531328142926,-0.813334584236145,0.1518731117248535,0.0165157318115234,97,45,612,1828
6.0,1788426393977,0.0,0.0,-0.0023250333033502,-0.0031304485164582,0.0599179230630397,0.9981957077980042,0.0096237625175754,0.0010021279780151,5.13577427910408e-06,-0.0061877369880676,-0.002630160190165,0.000977964606136,-0.0017706463113427,-0.0034460918977856,0.2155158221721649,0.9764926433563232,0.0024229422064389,0.0047613269464927,0.0123657556859189,0.2577082514762878,0.0521541833877563,-0.1055202484130859,3,0,0,0
6.1,1788426394077,0.0,0.0,-0.0022906593512743,-0.0031154155731201,0.0602307021617889,0.9981769919395448,-0.0002145527843492,0.0002021539755481,2.2755795394606583e-06,-6.6386491859304905e-09,9.65621715920406e-09,6.179978981890599e-07,-0.0017675347626209,-0.003487548790872,0.2155435979366302,0.9764864444732666,0.0006380159490789,0.0028013793031367,0.0055570734759506,-0.0071481466293334,0.0179360508918762,-0.0230665206909179,0,0,0,0
6.2,1788426394177,0.0,0.0,-0.0022909983526915,-0.0031683598645031,0.0602433010935783,0.998176097869873,-0.0002011588280263,-0.0002104574692184,1.7394294913087896e-07,-8.278500551739398e-09,-2.9566074033482437e-09,4.5413491989165777e-07,-0.0017502317205071,-0.0034576132893562,0.2156027555465698,0.9764734506607056,0.0009905398403571,-0.0002147456757913,0.0048199485025861,-0.0138427019119262,0.0245613455772399,0.0182552337646484,0,0,0,0
6.3,1788426394277,0.0,0.0,-0.0022909983526915,-0.0031683596316725,0.0602433234453201,0.998176097869873,0.0,0.0,0.0,1.1614830208728222e-09,-5.807415104364111e-10,4.4600949422601843e-07,-0.0017502214759588,-0.0034400513395667,0.2156101316213607,0.9764719605445862,0.0001066147588889,-3.6462005692761743e-05,0.0044848093004441,-0.0170894265174865,-0.0059729814529418,-0.0105657577514648,0,0,0,0
6.4,1788426394377,0.0,0.0,-0.0022909981198608,-0.0031683596316725,0.0602433457970619,0.998176097869873,0.0,0.0,0.0,1.9897573366733923e-08,5.852227591418567e-10,4.494510790209461e-07,-0.0017450889572501,-0.0034891795367002,0.2155516892671585,0.9764846563339232,0.0001087733770312,0.0017494808525623,0.0014699749985337,0.0017077922821044,-0.0130104422569274,-0.0267343521118164,0,0,0,0
6.5,1788426394477,0.0,0.0,-0.0022909981198608,-0.0031683598645031,0.060243371874094,0.998176097869873,0.0,0.0,0.0,-8.277333485295912e-09,-6.5036194207834805e-09,4.5407085735860164e-07,-0.0017392942681908,-0.0035300059244036,0.2155532091856002,0.9764841794967652,-0.0010695284403234,-0.0023604397926014,-0.0033310060514749,0.0134679079055786,0.0121415853500366,-0.0051078796386718,0,0,0,0
6.6,1788426394577,0.0,0.0,-0.0022742443252354,-0.0031629709992557,0.0602485612034797,0.9981757998466492,0.0,0.0,0.0,0.0,1.7760196646676716e-09,0.0,-0.0017457026988267,-0.003459271043539,0.2155997604131698,0.976474106311798,-0.000600658228909,-0.0001974523839729,-0.0019193729608205,-0.0198140144348144,0.0094495415687561,0.0031585693359375,0,0,0,0
6.7,1788426394677,0.0,0.0,-0.0022742443252354,-0.0031629709992557,0.0602485612034797,0.9981757998466492,0.0,0.0,0.0,0.0,1.7786336847791515e-09,0.0,-0.0017286920920014,-0.0034403037279844,0.2156458050012588,0.9764640927314758,0.0008142653766035,-0.001097001473913,0.0039380980596308,-0.0176233053207397,0.0160464644432067,-0.0044670104980468,0,0,0,0
6.8,1788426394777,0.0,0.0,-0.0022742443252354,-0.0031629709992557,0.0602485612034797,0.9981757998466492,0.0,0.0,0.0,0.0,1.4465499909022126e-09,0.0,-0.0017231348901987,-0.0034293122589588,0.2155665457248687,0.976481556892395,0.0001180029821809,0.0019110109795996,-0.0009253765101245,0.00095134973526,-0.0389419198036193,0.0180950164794921,206,203,6288,6236
6.9,1788426394877,2.7887322902679443,3.2957746982574463,-0.0020225439220666,-0.003063638927415,0.0611088015139102,0.998124361038208,0.0709750903051843,0.000333087080218,-5.264063409650018e-06,0.0105676501989364,0.0033296565525233,0.0350261628627777,-0.001124252565205,-0.00247697904706,0.2176019251346588,0.9760338068008424,0.0367865727484951,0.0499259875105736,0.0771053833544422,1.3835688829421997,-0.0181716680526733,-0.0785169601440429,258,228,13762,11714
7.0,1788426394977,5.436619758605957,5.323943614959717,-0.0008200362208299,-0.0022464271169155,0.0625666677951812,0.9980378746986388,0.1760565864690363,-0.0010829921351297,-7.379193254976014e-05,0.028848698362708,0.0017803417285904,0.0114034470170736,-0.0006328793242573,-0.0011482266709208,0.2178866863250732,0.9759732484817504,0.0106592680428834,0.0699320586987241,0.0103323203643374,0.0452232956886291,0.3276506662368774,0.6798114776611328,180,124,14647,14181
7.1,1788426395077,4.816901206970215,5.070422649383545,-0.0005942620337009,-0.0012719987425953,0.0622970014810562,0.9980566501617432,0.1873263278337391,0.0004730858463581,5.275428167505916e-05,0.0021324313711375,0.0018755318596959,-0.0062714577652513,-0.0001251427456736,-0.0017722034826874,0.2177070677280426,0.9760125279426576,0.0115006737913466,-0.0384307231473529,0.0119303982947846,-0.4442906975746155,0.1257229447364807,-1.0881614685058594,77,65,13914,12818
7.2,1788426395177,4.816901206970215,5.042253494262695,-0.0011423649266362,-0.001531942281872,0.0615110546350479,0.9981045722961426,0.1646075318690621,0.0009204417661024,5.629536996884235e-05,-0.0224844273179769,-0.0089572723954916,-0.031357679516077,-0.0005519464612007,-0.0022577447816729,0.2164794355630874,0.9762845039367676,0.0150736031608858,-0.0258143189436569,-0.0048533111192256,0.1313396692276001,-0.0180646777153015,0.8388843536376953,49,97,13825,12870
7.3,1788426395277,4.8450703620910645,5.154929637908936,-0.0008825688855722,-0.0023190504871308,0.0613703988492488,0.99811190366745,0.1734079968174261,0.0061461858424688,5.622344219470251e-05,0.0057827965356409,-0.01780023612082,0.0015369204338639,-0.0005873292684555,-0.0022367900237441,0.2165152579545974,0.9762765765190125,-0.012870918212993,0.0459962724954266,-0.0117772161075138,0.0337196588516235,0.1293677687644958,-1.109539031982422,71,87,14022,12429
7.4,1788426395377,4.929577350616455,5.126760482788086,-0.00072158529656,-0.0024443757720291,0.0607593804597854,0.9981492161750792,0.168479087893092,0.0018682473623724,-9.86203323986176e-05,0.0008366297697648,0.0148455556482076,-7.085779361659661e-05,-6.431806832551956e-05,-0.002267301082611,0.2164947688579559,0.9762811660766602,0.0251276090856529,-0.0153778826704908,0.0250974662434965,-0.0502921342849731,-0.104533314704895,0.1112079620361328,47,77,13630,12702
7.5,1788426395477,5.436619758605957,4.873239517211914,-0.0004473949084058,-0.0024399189278483,0.0613266490399837,0.9981145858764648,0.1722054918847614,-0.0009179695259455,-6.316147248172323e-07,0.0,5.2318979010257394e-11,0.0,0.000175911001861,-0.0033500222489237,0.2159043699502945,0.9764087200164796,0.006371934338787,-0.0304398303323013,-0.0239522745878396,-0.0830739736557006,0.0172415375709533,0.943227767944336,61,69,12957,12385
7.6,1788426395577,5.464788913726807,4.788732528686523,-0.0004903029184788,-0.0036992360837757,0.0590388774871826,0.9982486963272096,0.1690958905339147,0.0010287804562453,-3.219731131908327e-07,-0.0056771282106637,-0.0051343622617423,-0.0598801337182521,-7.092952728271484e-06,-0.0034051286056637,0.2136527448892593,0.9769037365913392,-0.00223366435878,0.0324646016700119,-0.0549312847026915,-0.1320881843566894,-0.1191375851631164,1.5984373092651367,44,96,12748,12730
7.7,1788426395677,5.126760482788086,4.873239517211914,-0.0006946235080249,-0.0036190445534884,0.0571807622909545,0.9983569979667664,0.1710061082653048,-0.0043080348113092,2.1208417311576235e-06,-0.0031628233846277,-0.0003492778050713,-0.0193016044795513,-6.354134529829025e-05,-0.0033431509509682,0.212038442492485,0.977255642414093,0.0082655141672487,0.0324837312286433,-0.0199649168501003,-0.0064508914947509,0.1750404834747314,0.6167488098144531,38,53,13664,12374
7.8,1788426395777,4.901408672332764,4.8450703620910645,-0.0007506041438318,-0.0016800090670585,0.054563395678997,0.998508632183075,0.1726466425404869,-0.0015814280270195,-0.0001406578379599,-0.003629429033026,0.0634738355875015,-0.0608812533318996,-0.0014145458117127,0.0031231958419084,0.2083622813224792,0.9780457615852356,0.0107403863974278,0.3108347213250803,-0.0909805125270082,0.0566975474357605,0.0318523645401001,-2.3635754585266118,69,82,14673,12484
7.9,1788426395877,5.577464580535889,4.788732528686523,-0.0011319495970383,0.0004709440108854,0.051967579871416,0.9986480474472046,0.1767097079332786,-0.0010323410890782,0.0005737907914501,-0.0166416000574827,-0.0856340900063514,-0.0259038284420967,-0.0014647440984845,0.000780832953751,0.2071907669305801,0.9782991409301758,-0.0098126180793354,0.0968142599992785,-0.0304653518356417,0.4800419211387634,-0.464762806892395,-2.3370361328125,106,67,12316,12643
8.0,1788426395977,5.239436626434326,5.014084339141846,-0.0011373637244105,-0.0004146627325098,0.0494563095271587,0.9987755417823792,0.17324276582478,-0.000466024068469,0.0001374854381948,-0.0006470163352787,-0.0305044446140527,-0.0594133995473384,-0.0010419292375445,-0.0007449332624673,0.2045202851295471,0.9788615107536316,-0.0037200776381474,-0.0307605072788658,-0.085177418552573,0.1057431697845459,0.2039372324943542,-0.6834259033203125,101,125,12461,13114
8.1,1788426396077,5.239436626434326,4.957746505737305,-0.0011541012208908,-0.0005968222976662,0.0486733503639698,0.9988139271736144,0.1800999283200058,-0.0008010556489188,9.50074651097506e-05,-0.003032851498574,-0.0276691298931837,0.0087249502539634,-0.0007793325930833,-0.0009834012016654,0.2032258361577987,0.9791311621665956,0.017369885652536,-0.0141114990042012,-0.0458643068078853,-0.2938005328178406,-0.1006317734718322,0.8658962249755859,48,84,13401,12098
8.2,1788426396177,5.408450603485107,4.873239517211914,-0.0005374891334213,-0.0006600572960451,0.0458896644413471,0.9989461302757264,0.1691710619495614,-0.0025456863028802,3.035114965128951e-07,0.009161346592009,-0.0044260844588279,-0.0571880415081977,-0.0002953642979264,-0.0005252873525023,0.2008446604013443,0.9796229004859924,0.0123147840907362,0.018515363198686,-0.054541899117713,0.1085777282714843,-0.1186484098434448,-1.2207212448120115,57,95,12969,12550
8.3,1788426396277,5.464788913726807,4.901408672332764,-0.0001681771100265,-0.0006603741785511,0.0432353802025318,0.9990646839141846,0.1714622575761182,0.0006043206435735,3.2725247048789244e-06,0.0052311024628579,-0.0071745212189853,-0.0569758526980876,4.568509757518768e-05,-0.0007029008120298,0.1985264271497726,0.9800952672958374,0.0125487698383939,-0.0249313050925063,-0.0431361555926995,-0.3178625106811523,0.0399397611618042,0.0229597091674804,57,73,12695,12457
8.4,1788426396377,5.464788913726807,4.929577350616455,-9.171685815090314e-05,-0.0014505514409393,0.0412863679230213,0.999146282672882,0.1672412609781895,0.0016874308262924,2.818656385898489e-05,0.0016236213268712,-0.0314149186015129,-0.0773476734757423,0.0001281984150409,-0.0015192963182926,0.1961105018854141,0.9805806279182434,-0.0051921443935053,-0.0112144954353642,-0.0634827431878795,-0.0042614340782165,-0.1513648033142089,-0.5164728164672852,39,88,12576,12249
8.5,1788426396477,5.211267471313477,5.070422649383545,0.0002321893698535,-0.0033331636805087,0.0393548235297203,0.9992197155952454,0.1660769809103094,-0.0028641591806533,0.0001328687903463,-0.0252687782049179,-0.0032619347330182,-0.031136255711317,0.000476948916912,-0.0040294043719768,0.1934479475021362,0.981102168560028,-0.0212939904389314,-0.0569773507258229,-0.0977052246914775,0.4331892132759094,-0.3200304508209228,-1.769454002380371,56,72,12286,12862
8.6,1788426396577,4.8450703620910645,5.577464580535889,-0.0011932222405448,-0.0052024950273334,0.0381123311817646,0.9992592334747314,0.1595301940342872,0.0022695388011324,0.0002307202449959,-0.0289544202387332,-0.0273347683250904,0.0405361615121364,-4.641152918338776e-05,-0.0058085368946194,0.1961929202079773,0.9805481433868408,0.0174087295867692,-0.0277478704565344,0.2061346042895164,-0.1868286728858947,0.0933007597923278,-0.0691871643066406,50,146,9891,14842
8.7,1788426396677,4.2253522872924805,5.605633735656738,-0.0009156309533864,-0.005505655426532,0.0498204864561557,0.9987425804138184,0.1640644571332651,0.0039095960120084,2.592741412649598e-05,0.003302896162495,0.0033174941781908,0.2195518314838409,-9.849295020103456e-05,-0.0054815374314785,0.2058777511119842,0.9785624146461488,-0.0091897339878665,0.0429846478218341,0.1966281173441805,0.078745424747467,-0.234618604183197,-0.7704906463623047,133,90,13044,14049
8.8,1788426396777,4.676056385040283,5.549295902252197,-0.0007984021212905,-0.0061225234530866,0.0564752072095871,0.998384952545166,0.1678589335220095,0.0040051441498744,-5.895856494224048e-05,-0.000300607731333,-0.0169935207813978,0.1578895151615142,-0.0002671405673027,-0.0054722065106034,0.2150584161281585,0.976585865020752,-0.0134633288452222,0.0391051330364857,0.1412520604081293,-0.3033382892608642,0.0984852910041809,1.2526273727416992,133,97,11886,14371
8.9,1788426396877,5.070422649383545,5.211267471313477,-0.0014543524011969,-0.0062697073444724,0.0636558979749679,0.9979511499404908,0.1770065493203134,0.0028831812821756,2.8959636491004157e-05,-0.0109666073694825,-0.0209746118634939,0.1181945949792862,-0.0006466154009103,-0.0064090210944414,0.2197049260139465,0.9755451679229736,-0.0144555267870738,0.0092492419841886,0.0601010881162165,0.0475226640701293,-0.078852891921997,-0.6585588455200195,144,78,12443,13085
9.0,1788426396977,4.563380241394043,5.211267471313477,-0.0018573373090475,-0.0060504875145852,0.0657391548156738,0.9978167414665222,0.1760084686033121,0.001232213299032,8.150997908045899e-07,-0.0033163139596581,-0.0005655453423969,0.03706019744277,-0.0010756431147456,-0.0061443177983164,0.2213492840528488,0.9751746654510498,-0.0114324797845329,0.0083819106403112,0.0445102121251249,-0.241854190826416,0.1061311364173889,-0.6259212493896484,73,86,13759,13088
9.1,1788426397077,5.183098793029785,5.323943614959717,-0.0024428938049823,-0.0058381515555083,0.0670062452554702,0.9977325201034546,0.1716381100792568,0.0019529918711474,-7.488274442179691e-06,-0.0118455253541469,0.0034433722030371,0.0312905944883823,-0.001527028158307,-0.0068081486970186,0.2239413559436798,0.9745777249336244,-0.0128222160228613,-0.0312152432666422,0.0613160107342031,-0.1525599360466003,-0.1661955714225769,1.643843650817871,78,95,11956,13173
9.2,1788426397177,5.239436626434326,5.098591327667236,-0.0024258515331894,-0.006426022388041,0.0700940042734146,0.9975167512893676,0.1665433087902298,0.0032719692067823,-4.270533682086825e-06,0.0065114251337945,0.0023415351752191,0.0461584515869617,-0.0015575280413031,-0.0063371965661644,0.2255791574716568,0.9742030501365662,-0.0068170164676827,0.0271051385351161,0.0159449098196549,-0.3528448939323425,0.3009998798370361,-0.36138916015625,169,101,13135,12740
9.3,1788426397277,5.154929637908936,5.098591327667236,-0.0025623969268053,-0.0056630931794643,0.0704912021756172,0.9974930286407472,0.1762929140067482,0.0002748646359417,-0.0001546453106558,-0.0005507760797627,0.0300698075443506,1.061033890437102e-05,-0.0016782050952315,-0.0058902325108647,0.225622609257698,0.9741955995559692,-0.001490927102798,0.006171194425371,0.003961256741884,0.07318776845932,-0.041338562965393,-1.2189664840698242,143,99,12912,12620
9.4,1788426397377,5.380281925201416,5.014084339141846,-0.0029925720300525,-0.0053719570860266,0.0693115517497062,0.9975760579109192,0.1744835766356677,0.0003205608719392,8.645664593139518e-06,-0.0179478991776704,0.0095260282978415,-0.0549864098429679,-0.0021446542814373,-0.0052210390567779,0.224304661154747,0.9745027422904968,0.003653196771471,0.0529728013902301,-0.0305268599632574,-0.2343106269836425,-0.0056663155555725,1.1715011596679688,108,110,12073,12955
9.5,1788426397477,5.070422649383545,5.183098793029785,-0.0025061301421374,-0.0019463611533865,0.0694969668984413,0.9975771307945251,0.1629937035281873,0.0019805220637948,-0.0002962782618255,0.011268607340753,0.0664089024066925,0.0054246275685727,-0.0018229214474558,-0.0023886989802122,0.2248029559850692,0.9743996858596802,0.0358665067765533,-0.0342892899039896,0.0283396080151217,0.3036323189735412,-0.1115479469299316,-5.467384338378906,160,128,14043,13219
9.6,1788426397577,5.943662166595459,4.478873252868652,-0.0022814953699707,-0.0025001757312566,0.0705137774348259,0.9975050687789916,0.1602239728991044,0.0025283914236873,9.262711433115776e-05,0.0120657887309789,0.0186072662472724,0.0224118698388338,-0.0017558569088578,-0.0026802970096468,0.2252369076013565,0.9742987751960754,0.0065165836844495,-0.004217618324401,-0.0279448597108812,0.4133976101875305,-0.0596364140510559,-1.85524320602417,112,74,13967,11660
9.7,1788426397677,5.88732385635376,4.478873252868652,-0.0023817459587007,-0.0016007784288376,0.0644566640257835,0.9979164004325868,0.1810993381131597,0.0034969393875584,6.797121509925662e-05,-0.0034441377501934,0.00123310694471,-0.1587488502264022,-0.001905808225274,-0.0013093901798129,0.2172790914773941,0.9761067628860474,0.0185626000584601,0.0323214665872402,-0.128158779996485,0.1164464950561523,0.0309987068176269,-1.370256423950195,117,87,13312,11674
9.8,1788426397777,5.77464771270752,4.535211086273193,-0.0015441424911841,-0.0011298020835965,0.0578725673258304,0.9983221292495728,0.1698416062670482,0.000515536640328,7.334050434527306e-05,0.020209452137351,-0.0110231339931488,-0.1370820105075836,-0.0014886213466525,-0.0014210185036063,0.2115865796804428,0.9773571491241456,-0.0026385249358169,0.0089517880291804,-0.1502426339932438,0.3458265662193298,0.190419852733612,-1.3751697540283203,65,77,13790,11463
9.9,1788426397877,5.380281925201416,4.563380241394043,-0.0015188597608357,0.0001030971397995,0.0488397441804409,0.9988055229187012,0.1614075313813345,-0.0007467088678836,-5.896456792453591e-05,0.0027297132182866,0.0286678858101367,-0.1974814236164093,-0.0013858899474143,0.0001213299110531,0.2026054114103317,0.9792595505714417,0.011036257394246,0.0367110837341472,-0.2041271721012377,0.0171995162963867,-0.1723887324333191,-1.1050186157226562,80,95,15140,11740
10.0,1788426397977,5.690140724182129,4.507042407989502,-0.0009850614005699,0.0007746559567749,0.0395797900855541,0.9992155432701112,0.1616074426650511,-0.0019852574781977,-6.449900770715515e-05,0.0117714721709489,0.0102375280112028,-0.1594605892896652,-0.0009683156386017,0.0006496394053101,0.1923974603414535,0.9813163876533508,0.007672744856193,0.0058066694592784,-0.1695010559915992,-0.048337697982788,0.1572120189666748,-0.4306526184082031,153,75,13929,11912
10.1,1788426398077,5.746479034423828,4.507042407989502,-0.0009602677309885,0.0011333635775372,0.0311161763966083,0.9995146989822388,0.159002401929314,-0.006115886923944,-2.692162681888133e-05,-0.0069126612506806,0.0088743362575769,-0.1790351122617721,-0.0011771768331527,0.0005492903292179,0.1844715327024459,0.9828370809555054,-0.0056919551573063,-0.0120281990343996,-0.177372591682002,-0.2260454297065735,-0.2508642673492431,0.7824087142944336,57,106,13427,11906
10.2,1788426398177,5.6619720458984375,4.563380241394043,-0.0028002252802252,0.0011661160970106,0.0216481182724237,0.9997609853744508,0.1701807780784925,0.0003386685482636,-0.0003585808858186,-0.0606741346418857,0.0541870854794979,-0.2025795876979828,-0.0031168852001428,-0.0001614298671483,0.1759008020162582,0.9844029545783995,-0.018914185622276,-0.094432009728513,-0.1783386119813608,-0.1040677428245544,-0.1526758670806884,1.2102270126342771,125,73,13729,12062
10.3,1788426398277,5.7183098793029785,4.591549396514893,-0.0024778516963124,0.0013041964266449,0.013258658349514,0.9999081492424012,0.167155330633421,-1.9983153336299304e-05,3.291573553103742e-05,0.0021784701384603,0.0023379914928227,-0.1429398953914642,-0.0026512667536735,0.0009008115157485,0.16940638422966,0.985542356967926,-0.0059540419788666,0.023918642910458,-0.1520042077540493,0.0350411534309387,-0.1419931054115295,0.5798559188842773,43,61,13693,11763
10.4,1788426398377,5.77464771270752,4.647887229919434,-0.002768444828689,0.0010000283364206,0.0058428794145584,0.9999786019325256,0.1517312786152767,-0.0046569406304079,1.463283245120008e-05,-0.0017469972372055,0.0071880416944622,-0.152195543050766,-0.0028096074238419,1.0418705642223358e-05,0.1602581888437271,0.98707115650177,0.0004715490911869,-0.0561846328979447,-0.1481106876508349,-0.0307100415229797,-0.2173593044281005,0.8328857421875,70,93,13238,11491
10.5,1788426398477,4.901408672332764,4.816901206970215,-0.002900322433561,0.0004207117890473,-7.503839151468128e-05,0.9999957084655762,0.1687236430760879,-0.0010527963339925,7.979705008706409e-06,-0.0028730302583426,-0.0011578603880479,-0.0971267372369766,-0.002991328947246,-0.0001100962981581,0.1559009850025177,0.9877682328224182,-0.006477433118562,-0.0004690097654248,-0.0374812484643526,-0.0917693376541137,0.1350637078285217,0.104557991027832,54,86,13793,13075
10.6,1788426398577,5.098591327667236,5.014084339141846,-0.0028032569680362,0.0011236470891162,-0.0001495207397965,0.9999954104423524,0.1677674604887794,0.0009311147864415,-2.6130850815001984e-05,0.0145383346825838,0.0177029781043529,0.0236435420811176,-0.0030525177717208,0.001217539422214,0.1564033329486847,0.987687885761261,0.0098017706966404,0.0593881256464779,0.0418782657921538,0.4066150188446045,0.0215793848037719,-0.1954860687255859,53,105,13736,12304
10.7,1788426398677,5.211267471313477,5.126760482788086,-0.0026550095062702,0.0018343556439504,-9.451457299292088e-05,0.9999948143959044,0.1704495406983142,0.0009033954394313,-3.172285736495205e-05,0.0075860237702727,0.0019449425162747,-0.0109643545001745,-0.0027424404397606,0.0017042579129338,0.1564073115587234,0.987687349319458,0.0156848690365817,0.0379854467395066,0.0116677776257059,0.007261037826538,-0.0712485313415527,0.1651763916015625,48,80,12326,12632
10.8,1788426398777,5.295774459838867,5.014084339141846,-0.0020487636793404,0.0023006526753306,0.0006776786176487,0.9999950528144836,0.1664784572433067,0.0017673397392453,-7.363361345482855e-05,0.0169328693300485,0.014611741527915,0.0191456992179155,-0.0025086505338549,0.0015970934182405,0.1570810824632644,0.9875813126564026,-0.011962084228205,-0.0220219764213486,0.0058320913732383,0.2901071906089782,0.2660208344459533,0.0727052688598632,64,79,12116,12886
10.9,1788426398877,5.323943614959717,4.929577350616455,-0.0017973363865166,0.0021965608466416,0.0002356036566197,0.9999960064888,0.1686812522160255,-0.0010660603402313,-1.5281281269093464e-05,0.0176627039909362,0.0027592768892645,-0.0087871961295604,-0.0018803384155035,0.0017550000920891,0.1565043777227401,0.9876739382743835,0.0028135017615055,-0.0239728864547148,-0.0007896160468203,-0.046492576599121,0.003425657749176,0.1958513259887695,118,82,12148,13300
11.0,1788426398977,5.492957592010498,5.042253494262695,-0.0015774660278111,0.0029524061828851,-1.652979881328065e-05,0.9999943971633912,0.168983718641185,-0.0017222126662982,-0.0001559843550523,0.0022109269630163,0.0279729571193456,-0.005108845885843,-0.0023491382598876,0.0047134002670645,0.1562244296073913,0.9877075552940368,-0.0003953542070256,0.1378819393337233,-0.0053149131163974,0.2788037061691284,-0.1249772906303405,-2.2736077308654785,85,118,11481,12900
11.1,1788426399077,5.042253494262695,5.154929637908936,-0.0016083418158814,0.0025430540554225,0.0002691321424208,0.9999954104423524,0.1679362077279787,0.0044828454651344,0.0003884419907276,-0.0017281513428315,-0.0776141658425331,0.0104097686707973,-0.0018354346975684,0.0019370559602975,0.1568184047937393,0.9876238703727722,0.0065532285821481,-0.0183890845973404,0.0159836355808448,-0.245254099369049,-0.2753294706344604,-2.349973678588867,31,70,13138,12537
11.2,1788426399177,5.295774459838867,5.126760482788086,-0.0017753117717802,0.0009681123192422,0.0003264883416704,0.9999979138374328,0.1855284081362071,0.0008758902958033,3.044515891943777e-06,-0.0031255949288606,-0.0007198780076578,0.0148758077993988,-0.0018165996298193,2.3631379008293152e-05,0.1566131711006164,0.987658441066742,0.0070388656175726,-0.0674005425772052,0.0007400973448266,0.0785247683525085,-0.1216850280761718,-0.092782974243164,55,83,12204,12640
11.3,1788426399277,5.183098793029785,5.070422649383545,-0.002070018555969,-1.5262008673744276e-05,-0.0005404778639785,0.9999977350234984,0.1696101972102426,0.0004846972364336,-1.5279067299718953e-05,-0.0113806212320923,-0.0130808092653751,-0.033952061086893,-0.0020602755248546,-0.0008459435775876,0.1556140929460525,0.9878154993057252,-0.0062747728483017,-0.0322709130252071,-0.011649127023949,-0.1787651181221008,0.2303606867790222,-0.7657127380371094,53,105,12458,12791
11.4,1788426399377,5.295774459838867,5.098591327667236,-0.0021920478902757,-0.0008832626626826,-0.0008098852122202,0.9999969005584716,0.1746039098014511,0.0024629344409407,2.1119969095431044e-06,6.930574170116444e-12,1.062688048669713e-09,7.096907950199238e-09,-0.0023614428937435,-0.0008936040103435,0.1560506224632263,0.9877458810806274,-0.0080189622253342,0.0279110432460715,0.0184087410927875,0.0457668304443359,-0.1474248170852661,-0.0355949401855468,61,111,12101,12890
11.5,1788426399477,5.323943614959717,5.098591327667236,-0.002338744001463,-0.0006895594415254,-0.0005308532854542,0.9999969005584716,0.1727298048977135,0.0008495614078386,3.237740908322888e-06,-5.6721597904707536e-12,-7.305741567265044e-10,-6.969949950530463e-09,-0.0025708256289362,-0.0018153237178921,0.1558490842580795,0.9877759218215942,-0.0098375022783194,-0.0461306570904141,-0.0040285333589995,0.1015055775642395,-0.1633965373039245,0.3090286254882812,99,101,12015,12646
11.6,1788426399577,4.873239517211914,4.901408672332764,-0.0027537648566067,-0.0021980300080031,-0.0006529477541334,0.9999935030937196,0.1711882849576566,0.0011402489108957,0.0002249917481712,-0.0027655970770865,-0.050450213253498,-0.0078448867425322,-0.0025063958019018,-0.002980563789606,0.1557736843824386,0.9877851605415344,-0.0110625698680789,-0.0062212537582987,0.00436098606233,-0.0077680349349975,0.1924899220466613,-0.0031089782714843,122,84,13475,13266
11.7,1788426399677,4.816901206970215,5.098591327667236,-0.0029337254818528,-0.0031651370227336,-0.0003079705929849,0.9999906420707704,0.1766995504733854,-6.183330401664269e-05,4.579183643508238e-05,-9.862424121820368e-06,-0.013634824194014,0.0064533315598964,-0.0019866628572344,-0.0050893696025013,0.1563034951686859,0.987693965435028,0.0118117195234805,-0.0793572070643987,0.00747208490055,0.3409308791160583,-0.0800675749778747,-0.8265562057495117,92,71,13780,12710
11.8,1788426399777,4.8450703620910645,5.014084339141846,-0.0020972313359379,-0.0058279032818973,0.0012777968076989,0.9999799728393556,0.1681150973433967,-0.0003348393047995,-0.000340851993774,-0.0035262994933873,0.0242343172430992,0.037118125706911,-0.0011234665289521,-0.0062611112371087,0.1576147079467773,0.9874802231788636,-0.0027801303527007,-0.0823137881148452,0.0167256951218092,-0.0161464810371398,0.1883991360664367,-0.3260107040405273,106,83,13635,12804
11.9,1788426399877,5.352112770080566,5.098591327667236,-0.0018922963645309,-0.0043577649630606,0.0002264269714942,0.9999887347221376,0.1765712531953709,0.0001213415319318,-2.694374169673203e-05,0.0010195771465077,0.017181821167469,-0.027725301682949,-0.0011218236759305,-0.004643615335226,0.1563923805952072,0.9876835346221924,0.0056696860419483,0.0134363778882882,-0.0165107613763629,-0.0312770009040832,0.1598714590072631,-0.6063108444213867,75,87,12162,12834
12.0,1788426399977,5.098591327667236,5.042253494262695,-0.0014627056661993,-0.0040487213991582,0.00049566332018,0.9999906420707704,0.175136963516597,0.0017364339024551,1.326938510736208e-06,0.0287801660597324,0.0206042826175689,0.017899103462696,-0.0003631589934229,-0.0040987338870763,0.1568372249603271,0.9876159429550172,0.023374333402391,0.0276629672308574,0.0008090152083451,-0.1428046822547912,-0.1419324278831482,1.7743606567382812,143,82,13138,12897
12.1,1788426400077,5.267605781555176,4.957746505737305,-0.0009232694283127,-0.0041423323564231,0.0005473514902405,0.9999908208847046,0.1745058918597872,0.0045079944689975,1.4352518723387748e-06,2.7716740361172217e-11,4.478563297993787e-09,7.0954855324600885e-09,-6.820075213909149e-06,-0.00451579131186,0.1567437499761581,0.9876289963722228,0.0195406810221599,-0.0028649576489746,0.0074878340168779,0.0560551881790161,-0.1009180545806884,-1.4901609420776367,114,110,12347,13079
12.2,1788426400177,5.014084339141846,4.957746505737305,-0.0005828348803333,-0.0047696139663457,0.0003813789808191,0.9999883770942688,0.1633785665439014,0.0023521971382802,0.0001189104511192,0.0137929366901516,-0.0254938453435897,-0.006825755815953,-2.396758645772934e-05,-0.0042123105376958,0.1564557254314422,0.9876760244369508,-0.0078271415336503,0.043019069110178,-0.0158493589425471,-0.1445790529251098,0.0864084362983703,1.0840253829956057,145,96,13306,13163
12.3,1788426400277,4.676056385040283,5.098591327667236,-0.0004145996645092,-0.0049156178720295,-0.0001245239400304,0.9999878406524658,0.1742202926135331,0.0015521931069268,1.2627065484001472e-05,0.0048154485411942,-0.004234732594341,-0.0147220697253942,0.0003687432035803,-0.0044489819556474,0.1562133729457855,0.9877132773399352,0.0034397618652004,0.0565565405502933,0.004556302038428,-0.1232574582099914,0.0692485570907592,1.127756118774414,120,91,14434,12733
12.4,1788426400377,4.704225540161133,4.929577350616455,-0.0004145996645092,-0.0049156178720295,-0.0001245238672709,0.9999878406524658,0.1769543357280541,0.0018709674362277,-1.942100265730753e-06,7.665535740886131e-12,4.102019612872709e-09,1.9623771496668496e-09,0.0004406198859214,-0.0042628953233361,0.155975729227066,0.987751603126526,0.0050208867635079,0.0419142619010155,-0.0185194855813051,0.1528221368789672,-0.2747916579246521,-2.015812873840332,78,105,14182,13166
12.5,1788426400477,5.014084339141846,5.042253494262695,-0.0001369207748211,-0.0038660084828734,-0.0001379202731186,0.9999925494194032,0.174517034156756,-0.0015601521039853,-9.652588820173748e-05,0.00456730928272,0.0192553661763668,0.0078049707226455,0.0003789132460951,-0.0039500100538134,0.1560388356447219,0.9877429604530334,-0.0111781634428668,-0.0001017569881675,-0.0131151231869343,-0.0339813828468322,0.2997491359710693,1.041208267211914,41,121,13311,12924
12.6,1788426400577,4.8450703620910645,5.183098793029785,-0.0004339873848948,-0.0042443508282303,-0.0006753177731297,0.9999906420707704,0.1723576722950208,0.0037987519740012,-1.2953830202649076e-07,-0.011930976063013,-0.0150912906974554,-0.02139338478446,3.4700147807598114e-05,-0.0041242716833949,0.1553897708654403,0.9878445863723756,-0.0099253435556403,0.0133859103314027,-0.0145008123364986,-0.1384727358818054,0.2964746356010437,0.9972200393676758,50,79,13612,12374
12.7,1788426400677,4.957746505737305,5.098591327667236,-0.0005467922892421,-0.0042761382646858,-0.0008416345808655,0.9999904036521912,0.1738684689652614,0.0001036480101019,3.832066377027873e-06,6.569244453968892e-11,-5.206126196810601e-09,1.4414798243933546e-08,-0.0003215987235307,-0.0038212975487113,0.1555916368961334,0.9878140687942504,-0.0122294338846335,0.0225512708686373,0.008269197402,0.0063579082489013,-0.1071603894233703,-2.4889283180236816,129,78,13347,12837
12.8,1788426400777,4.788732528686523,4.957746505737305,-0.000872251112014,-0.0046691498719155,-0.0003521062608342,0.9999886751174928,0.1688745048218871,-0.0005529441665821,0.0001730280180392,0.0002188546932302,-0.034598022699356,0.0151179023087024,-0.0002770153805613,-0.00397106166929,0.156076043844223,0.987736999988556,0.0017016263684394,0.0154650224736422,-0.0024162745367954,-0.0711960792541503,0.1506292223930359,1.2944135665893557,94,82,13996,13136
12.9,1788426400877,4.816901206970215,4.985915660858154,-0.0008282614871859,-0.003133681602776,-0.0003732853219844,0.999994695186615,0.1723427209239095,-0.0019418611529284,-0.0002399774222212,0.002162141026929,0.0464125983417034,-0.0027644897345453,-0.0003602281212806,-0.0027326168492436,0.1555824875831604,0.9878191351890564,0.002960666490429,0.0404252997286247,0.0033396267582712,-0.2137025594711303,0.0453132390975952,0.9974260330200196,119,100,13881,13276
13.0,1788426400977,5.267605781555176,4.507042407989502,-0.0008282614871859,-0.003133681602776,-0.0003732853219844,0.999994695186615,0.1684921006114672,0.0021300481886079,1.319166754576166e-06,0.0,8.454835720428376e-10,0.0,-0.0006017154082655,-0.0028063151985406,0.1555436551570892,0.9878249168395996,-0.0072625311321296,0.0135954484069335,-0.0155372094965626,0.4202316403388977,0.1088525056838989,-1.017806053161621,173,66,15783,11323
13.1,1788426401077,5.746479034423828,4.450704097747803,-0.0011986568570137,-0.0023102576378732,-0.0057644573971629,0.9999800324440002,0.1730452040765677,0.0014174941096103,-7.730626831822413e-05,0.0009785402799025,0.0164626985788345,-0.1260819882154464,-0.0008585937321186,-0.0024362336844205,0.1502168327569961,0.9886497259140016,-0.0021952764023086,0.014219142500636,-0.0995348019969845,0.0740026831626892,0.0909342765808105,-0.3229141235351562,135,78,13956,11667
13.2,1788426401177,5.521126747131348,4.8450703620910645,-0.0010504977544769,-0.0023160218261182,-0.0126979881897568,0.9999160766601562,0.1640861637787758,0.0011354500451485,-2.229095402255142e-05,0.0022626193240284,0.0071765962056815,-0.1541595757007599,-0.0005930569022893,-0.0023618293926119,0.1418878585100174,0.9898797273635864,0.0060225164279197,0.0053054339395201,-0.1273065832680334,-0.0209770798683166,0.1313240528106689,0.6093330383300781,62,107,12355,12741
13.3,1788426401277,5.464788913726807,4.788732528686523,-0.0008270223042927,-0.0021886662580072,-0.0157268941402435,0.9998736381530762,0.1664707978138445,-0.0010872568599942,2.36416517781047e-06,-0.0030319234356284,-0.0145074054598808,-0.0274028852581977,-0.0005075503140687,-0.0017417073249816,0.14007368683815,0.9901394844055176,0.003981999314358,0.0509940674183539,-0.0574283857370304,-0.0194038152694702,-0.4188063144683838,-1.245682716369629,57,95,12405,12918
13.4,1788426401377,5.014084339141846,4.788732528686523,-0.0018008140614256,-0.0029936572536826,-0.0188677310943603,0.999815821647644,0.1691173987343966,-0.0014913254809129,0.0001691474099166,-0.0453376360237598,-0.0594294182956218,-0.0907907634973526,-0.0020215334370732,-0.0023713344708085,0.1361006200313568,0.9906901717185974,-0.0758936288635122,0.0109133231891912,-0.1622679339010235,-0.413948118686676,0.072607398033142,-0.800872802734375,37,90,13922,12801
13.5,1788426401477,5.690140724182129,4.957746505737305,-0.0037688314914703,-0.0002658749581314,-0.0222385488450527,0.999745547771454,0.1760210549887735,0.0054422908367708,-0.0001006196437825,-0.0172711815685033,0.01900390163064,0.0051301373168826,-0.0033578919246792,-0.0014175437390804,0.1340037137269973,0.9909741282463074,0.000287974946148,-0.0236723176840871,-0.0183901296268455,-0.1033260822296142,0.286010205745697,0.7498025894165039,84,70,11715,12548
13.6,1788426401577,5.464788913726807,4.957746505737305,-0.0033170308452099,-0.0013249127659946,-0.023758815601468,0.999711275100708,0.1695202010420683,0.0016641376130849,-1.0874271630745552e-05,0.0098329875618219,-0.0185917858034372,-0.055911760777235,-0.0029104761779308,-0.0020172642543911,0.1316957771778106,0.9912838935852052,0.0079758476278645,0.0090030955190693,-0.0593220248168495,-0.0759857296943664,-0.1853396892547607,-1.7748937606811523,88,97,12522,12281
13.7,1788426401677,5.380281925201416,4.816901206970215,-0.0027973814867436,-0.0017682712059468,-0.0263991337269544,0.9996460676193236,0.1647926187504161,-0.0001786459405131,-0.0001021775444903,0.0061311046592891,0.0114996051415801,-0.0550452060997486,-0.0024742931127548,-0.0019807191565632,0.1297815442085266,0.9915375709533693,0.0065234783839796,-0.0124507102015532,-0.0522017333363086,0.1023662090301513,-0.1065399050712585,0.5728330612182617,58,99,12993,12778
13.8,1788426401777,5.295774459838867,4.929577350616455,-0.0030155824497342,-0.0017336054006591,-0.0289460588246583,0.9995748400688172,0.1698514200972807,-5.171409713298884e-05,-6.109855404340491e-05,-0.0113151455298066,0.0098858810961246,-0.0487785674631595,-0.0026901410892605,-0.0024762386456131,0.1265370547771453,0.9919552206993104,0.0017362941080837,-0.0167278514518792,-0.067136379688331,-0.1081246137619018,-0.1250253915786743,0.7523822784423828,39,86,13145,12255
13.9,1788426401877,5.267605781555176,5.014084339141846,-0.0030692047439515,-0.0024587581865489,-0.031897522509098,0.9994834065437316,0.171531370561662,-0.000542703371609,3.532917016458745e-05,-0.0011251432588323,-0.0050570545718073,-0.049550499767065,-0.0027562230825424,-0.002814226783812,0.1243777647614479,0.9922271370887756,-0.0101604347721155,0.0252308133172898,-0.0476511241477983,-0.0460692644119262,0.1150506138801574,-0.3371782302856445,45,129,12103,13191
14.0,1788426401977,5.436619758605957,4.873239517211914,-0.0033924230374395,-0.0027445745654404,-0.0328829139471054,0.9994497299194336,0.165206074135924,0.0020844306478351,2.3820979715322543e-06,-0.010446504689753,-0.0096732750535011,-0.0325495935976505,-0.0030114278197288,-0.0032192468643188,0.1232912614941597,0.992360770702362,-0.0083077035083555,-0.0028714208908174,-0.0425701558800278,0.2588213682174682,-0.0539864301681518,0.4752912521362304,71,107,12605,12566
14.1,1788426402077,5.436619758605957,4.901408672332764,-0.0032758910674601,-0.0029584784060716,-0.0354022569954395,0.9993634223937988,0.168032130301805,0.0009735719114117,-6.953992890197104e-06,0.0023086045403033,-0.0071186958812177,-0.0538185238838195,-0.0026818923652172,-0.0033518429845571,0.120846576988697,0.992661952972412,0.0104598342481571,-0.0125328811291878,-0.0476183811511213,0.1857193112373352,-0.0590634942054748,1.3611431121826172,68,80,12759,12467
14.2,1788426402177,4.873239517211914,5.070422649383545,-0.0035935258492827,-0.0026685912162065,-0.0378055684268474,0.9992750883102416,0.172852633439396,0.0023288760988578,-0.0001020352184934,-0.0104213487356901,-0.0025644532870501,-0.0518659837543964,-0.0031548822298645,-0.0033310102298855,0.1187536120414733,0.9929131269454956,-0.0163428792458905,-0.0587277099175663,-0.0487950150479339,0.4092485308647156,-0.0170074105262756,-0.8263568878173828,29,84,13435,12926
14.3,1788426402277,4.873239517211914,5.070422649383545,-0.0028788407798856,0.0033929629717022,-0.0377048142254352,0.9992790222167968,0.1781747617857846,-0.0003283870188311,-0.0012169381909892,0.0183307453989982,0.1198887825012207,0.0217462964355945,-0.0035188132897019,0.0016684466972947,0.1191397979855537,0.9928699135780334,-0.0184648773002437,-0.1736618670467053,0.0255509516566625,-0.0884625315666198,-0.1746927499771118,1.7336349487304688,39,87,12213,12537
14.4,1788426402377,4.760563373565674,5.014084339141846,-0.0029610027559101,0.0027578510344028,-0.0369227826595306,0.9993098974227904,0.1611347856771209,0.0011026341909021,-0.000213907243003,0.0040223440155386,0.0037757277023047,0.0223668366670608,-0.0035159466788172,0.0026517985388636,0.1204341202974319,0.99271160364151,0.0008852497362251,0.0126387132275088,0.0489051663433617,0.1199334859848022,-0.4549267292022705,2.9828596115112305,76,103,14187,13167
14.5,1788426402477,4.619718074798584,5.126760482788086,-0.0028972902800887,0.0026027981657534,-0.03561732172966,0.9993578791618348,0.1790409965956769,0.0022344529896913,2.849587885997795e-06,8.76745009925628e-10,1.4027920158810048e-08,-4.488934450819216e-07,-0.0032994402572512,0.0013833818957209,0.1210917085409164,0.992634892463684,-0.0143190398792093,-0.0165530873232496,-0.0021477481074082,-0.2567822933197021,-0.0600805282592773,0.9918279647827148,61,118,13359,13659
14.6,1788426402577,5.042253494262695,5.098591327667236,-0.0027430313639342,0.0020425133407115,-0.0336178950965404,0.999428927898407,0.1837505846883065,-0.0004015940320237,-3.4168072702059585e-05,0.0085489423945546,0.013389422558248,0.086470328271389,-0.0031563276425004,0.0018447823822498,0.123360238969326,0.9923552870750428,-0.0063534773501152,0.0178445524605129,0.0220502953137385,0.0322581529617309,0.0268133878707885,-0.4582672119140625,39,91,13072,12664
14.7,1788426402677,5.436619758605957,5.154929637908936,-0.0026974079664796,0.0028452447149902,-0.0333176627755165,0.9994370937347412,0.1727737494867103,-0.0040476787175622,-8.163499796428083e-05,0.000743045064155,0.033109325915575,0.0124784782528877,-0.0029414137825369,0.0017707394436001,0.123308390378952,0.9923624992370604,0.0086853626120363,-0.0655122475788368,-0.0019068263797691,-0.1721318960189819,-0.0253411531448364,0.2499475479125976,87,84,11785,12459
14.8,1788426402777,4.929577350616455,5.239436626434326,-0.0027616349980235,0.0024826952721923,-0.0332280583679676,0.9994409084320068,0.1733362662787355,0.0012860448064873,-2.984156090855756e-05,-0.0048725716769695,0.0051003638654947,0.0042164749465882,-0.0032937843352556,0.0023496923968195,0.1235729530453682,0.9923272728919984,-0.0048792001380418,-0.0075843412808634,0.012840573506103,0.2569774985313415,0.0728694796562194,-0.942631721496582,123,98,12408,13491
14.9,1788426402877,4.901408672332764,5.267605781555176,-0.0033631324768066,0.0017435437766835,-0.0319206975400447,0.9994832277297974,0.1770743481184108,0.0006124196501202,5.97236397176813e-05,-0.0173947270959615,-0.042358998209238,0.0386710427701473,-0.0042965449392795,0.0004256069660186,0.1246030703186988,0.9921972751617432,-0.0811611410024393,-0.0744811333228822,-0.0068563594637787,0.3156349658966064,0.4194614887237549,-0.4889650344848633,98,66,13442,11950
15.0,1788426402977,5.126760482788086,5.323943614959717,-0.0026463069953024,-0.0033559254370629,-0.031776126474142,0.9994858503341676,0.1762854937298548,-0.0032443595437129,0.0001302957745803,0.1096881031990051,-0.1156758889555931,0.0631306990981102,-0.0011325236409902,-0.0045494325459003,0.1254238933324813,0.9920921325683594,0.1593284498621135,-0.1993622392759033,0.0989109600372128,-0.0042669177055358,1.0303629636764526,0.3208847045898437,140,32,12335,10943
15.1,1788426403077,5.323943614959717,4.929577350616455,-0.0020790160633623,-0.0042641768231987,-0.0314118638634681,0.999495267868042,0.1583604934902154,0.0044991150359269,8.266578344211982e-05,-0.0081053264439105,-0.0196371898055076,-0.0363575033843517,-0.0012025879696011,-0.0042890282347798,0.1242604702711105,0.9922397136688232,0.0043460748761302,0.0255546854255105,-0.0329460437377096,0.2950285673141479,0.0995459556579589,-2.031282424926758,89,97,12484,13331
15.2,1788426403177,5.549295902252197,5.098591327667236,-0.0019574721809476,-0.0039445157162845,-0.0332812294363975,0.9994363188743592,0.1774491994071911,0.002372100374107,2.1452231278992608e-05,-0.0049299611710011,0.0034167028497904,-0.0278411954641342,-0.0011523989960551,-0.0044897170737385,0.1233154460787773,0.9923567175865172,0.0083678281461039,-0.0200704117768227,-0.0033442232936439,-0.1425438523292541,0.0233426094055175,1.272125244140625,81,101,11263,12831
15.3,1788426403277,5.408450603485107,4.901408672332764,-0.0016069656703621,-0.0040352386422455,-0.0324863158166408,0.9994627833366394,0.1676724984978737,0.0014478405840192,-2.1523737628883928e-05,0.0120751103386282,0.0055018234997987,0.0249557141214609,-0.00072967633605,-0.0042969938367605,0.1242904663085937,0.992236316204071,0.007792948732444,-0.0070197092282712,-0.0005153433749289,0.1186516284942627,0.0211020708084106,-0.1652021408081054,79,71,11854,13224
15.4,1788426403377,5.042253494262695,4.929577350616455,-0.0014511942863464,-0.0043654623441398,-0.0321214385330677,0.9994733929634094,0.1725101030574475,0.0007331046435341,1.198008456632584e-06,-0.0050392099656164,-0.0111616933718323,0.0117187052965164,-0.0010627582669258,-0.0042034974321722,0.1246858537197113,0.9921868443489076,-0.0177260095272082,0.0246569115025518,0.0114485569850889,-0.0606074929237365,-0.1317179203033447,-0.004338264465332,141,88,13116,13362
15.5,1788426403477,4.8450703620910645,5.070422649383545,-0.0021067559719085,-0.0038588840980082,-0.0320077501237392,0.9994779825210572,0.1781000882759508,-0.0013266529240073,-7.670762847963727e-06,-0.0164854284375906,0.0046532331034541,-0.0022543512750416,-0.001828771084547,-0.004217910580337,0.1242570057511329,0.992239475250244,-0.0132555204923627,0.0070384773677835,-0.018615661868571,-0.1153284907341003,-0.2714458703994751,-0.1302947998046875,108,80,13615,12903
15.6,1788426403577,4.788732528686523,5.098591327667236,-0.0022301522549241,-0.0029027375858277,-0.0318111553788185,0.9994872212409972,0.1670226842373922,0.0012150359734739,-5.754180962983124e-05,0.004888713825494,0.0311114508658647,0.0182072464376688,-0.001459333114326,-0.0031738299876451,0.1252431273460388,0.9921199679374696,0.0121704354692786,0.0213534700840413,0.0267662089417731,0.0839901566505432,-0.0238540172576904,-1.1803808212280271,62,87,13980,12759
15.7,1788426403677,4.985915660858154,5.070422649383545,-0.0018526801140978,-0.0031054376158863,-0.0310309939086437,0.9995118379592896,0.1703526040537392,0.0018082513736409,4.57645565531143e-05,0.0036869179457426,-0.0078708250075578,0.0143423965200781,-0.0011380556970834,-0.002408099360764,0.1256316602230072,0.9920733571052552,0.014847445460249,0.0468176177262537,-0.0046276514042719,-0.0176283121109008,-0.0491891503334045,0.5367660522460938,46,107,13330,12731
15.8,1788426403777,4.8450703620910645,4.957746505737305,-0.001667613745667,-0.002281476277858,-0.0314600765705108,0.9995009899139404,0.1770136715462853,0.0017353033647366,6.423391537816847e-07,-0.0130030289292335,-0.0058655277825891,-0.0184511803090572,-0.0012550391256809,-0.0021551400423049,0.1251189708709716,0.9921386241912842,0.0022982436376075,0.0399767498928321,-0.0135400890812562,-0.0104262828826904,-0.0848805904388427,-1.1171045303344729,51,102,13650,13201
15.9,1788426403877,4.760563373565674,4.929577350616455,-0.0016645101131871,-0.0019324694294482,-0.031334925442934,0.9995056390762328,0.1800789368102139,0.0024453477539793,-1.0166262966478127e-05,-0.0031965982634574,0.0030871389899402,0.0031872137915343,-0.0013419529423117,-0.0021689152345061,0.1252979934215545,0.9921159148216248,0.002297171013919,0.0016238673478012,0.0005695825350651,0.0524287819862365,-0.0331849455833435,-1.777268409729004,30,83,12865,12881
16.0,1788426403977,4.873239517211914,5.098591327667236,-0.0018690980505198,-0.0023491394240409,-0.0305192414671182,0.9995296597480774,0.1823427449181087,0.0045884535039335,0.0004001353157413,-0.0060951369814574,-0.0766268745064735,0.025565605610609,-0.0015837866812944,-0.0027299113571643,0.1269838213920593,0.991899847984314,-0.0053935602273615,0.0225692676470425,0.0716786267804386,0.2442473769187927,0.061628520488739,-4.295573711395264,100,103,13923,13007
16.1,1788426404077,4.816901206970215,5.014084339141846,-0.0021016970276832,-0.0025825931224972,-0.0295109990984201,0.9995588660240172,0.1730583681582584,0.0053775750071315,-1.1088662143042717e-05,0.0004470329149626,-0.0337824076414108,-0.0049912557005882,-0.001646677032113,-0.0025452254340052,0.1270969957113266,0.9918857216835022,0.0028492538410298,0.0086429817269749,-0.0041550087414869,-0.452753484249115,0.1334437727928161,1.5929183959960938,82,88,13759,12812
16.2,1788426404177,4.8450703620910645,5.042253494262695,-0.0015576551668345,-0.0019341366132721,-0.0287233088165521,0.9995843172073364,0.1759383363059931,0.0021105726200039,-0.0001091264636457,0.0016764139290899,0.0342839993536472,0.0089576607570052,-0.0012468937784433,-0.0024388479068875,0.1277545094490051,0.9918020367622375,0.0006555340382355,-0.0238154457111548,-0.0223914780916941,0.0214084386825561,-0.1278760433197021,-0.5350351333618164,48,91,13767,12709
16.3,1788426404277,5.239436626434326,5.154929637908936,-0.0023343719076365,-0.0019627430010586,-0.0299867969006299,0.9995456337928772,0.1721666607289846,0.001362719567322,-3.586098904295128e-06,-0.0185302440077066,-0.0009555906290188,-0.0221103746443986,-0.0020538317039608,-0.0023431684821844,0.1264563798904419,0.9919672608375548,-0.0084090914505496,-0.0189590043794911,-0.0212421755281429,-0.1277920603752136,-0.1544831395149231,0.4358119964599609,48,86,12309,12447
16.4,1788426404377,5.408450603485107,4.985915660858154,-0.0025873752310872,-0.0015170726692304,-0.0303006861358881,0.9995363354682922,0.1667359527165859,0.0012806632967144,6.087930799529873e-06,-0.0056916386820375,0.0130220232531428,-0.0037778734695166,-0.002486502751708,-0.001937985420227,0.1262212842702865,0.9919971227645874,-0.0114338580506146,-0.0008895640089088,-0.0069255360287746,0.0768347382545471,0.0860364437103271,0.5863037109375,56,91,11909,13068
16.5,1788426404477,5.408450603485107,5.098591327667236,-0.0028940611518919,-0.0012817668030038,-0.0302462056279182,0.999537467956543,0.1728876706218095,0.001800104898665,-3.861321735384746e-06,-0.0041997991502285,0.0189942866563797,0.0016734717646613,-0.0026162695139646,-0.0020417841151356,0.1263391971588134,0.9919815063476562,-0.0048032844581029,-0.0233020873895023,-0.0088544852884139,-0.0506045222282409,-0.0993666648864746,0.4463882446289062,99,73,11919,12774
16.6,1788426404577,5.380281925201416,5.098591327667236,-0.0024113000836223,-0.002541902475059,-0.0295107848942279,0.9995583295822144,0.1756304961179816,0.0011661443254684,7.825941960046463e-05,0.0133225657045841,-0.0215470679104328,0.0278103202581405,-0.0009941020980477,-0.0018477337434887,0.1283205598592758,0.991730570793152,0.0719754899840328,0.0579953790821707,0.0786235904358952,0.0393168330192565,0.0402776002883911,-0.6104021072387695,111,83,11862,12460
16.7,1788426404677,4.929577350616455,4.929577350616455,-0.00100971350912,-0.0009795919759199,-0.0279877409338951,0.999607264995575,0.1714089751106766,-0.0024881385280302,-0.0001283116606421,-0.0020622895099222,0.0288771130144596,0.0012601818889379,-0.0011371793225407,-0.0009699799120426,0.1276317685842514,0.9918205738067628,-0.0155501526876727,0.0066259997845551,-0.0671064301773163,0.1755685210227966,-0.0361362099647522,-1.4092798233032229,51,119,13537,13449
16.8,1788426404777,5.408450603485107,5.098591327667236,-0.0014684890629723,-0.0006582774221897,-0.0293561890721321,0.999567687511444,0.1689217901543634,0.0006616670520186,-1.002420181921823e-06,0.0,-2.4201321502381745e-10,0.0,-0.0011754520237445,-0.0003984486684203,0.1273136883974075,0.9918617606163024,-0.0137490098843283,0.0102931581011137,0.0043240513789365,-0.043045699596405,0.1478075981140136,-1.941878318786621,62,86,12083,12967
16.9,1788426404877,5.211267471313477,5.183098793029785,-0.0012232880108058,-0.0002097972028423,-0.0293045993894338,0.9995697736740112,0.177441653508265,0.0021357997386021,-4.268107718799758e-06,3.703992668135925e-11,-4.444791201763109e-10,2.2757330953027122e-07,-0.0012028748169541,-0.0002452312037348,0.1275065094232559,0.9918370246887208,0.0068056576259561,0.0327106267952244,0.0029782237501968,-0.1682705283164978,-0.1656855940818786,0.6223230361938477,52,83,12363,12302
17.0,1788426404977,5.380281925201416,5.070422649383545,-0.0009522041073068,-4.595357677317224e-05,-0.0291729494929313,0.9995738863945008,0.1698980688040684,-0.0002518994182954,0.0001298842840359,0.008908019401133,0.0028410658705979,-0.0029972572810947,-0.0008941171690821,-0.0009744511917233,0.1274115592241287,0.9918490648269652,0.0063443232577823,-0.0440540137262758,-0.0044101035239615,0.1679893136024475,-0.0606161952018737,3.5955076217651367,69,83,11875,12686
17.1,1788426405077,5.380281925201416,5.126760482788086,-0.0007029828848317,-0.0005416767089627,-0.0290252584964036,0.999578297138214,0.1755981049604438,0.0016926292615595,-0.000172087517331,0.0113755976781249,0.0215010195970535,0.0065666390582919,-0.0003785472363233,-0.0011090869084,0.1278377622365951,0.9917944669723512,0.0055792960411248,-0.0549374568209071,0.001314931537595,0.0056291818618774,-0.0822832584381103,-0.8604230880737305,109,83,11944,12602
17.2,1788426405177,4.873239517211914,5.042253494262695,-0.0006137299351394,-0.0004244257579557,-0.0290594603866338,0.9995774030685424,0.1629633025799572,-0.0008027169232158,3.82780193787123e-06,0.003470225026831,0.0048464071005582,-0.0013826743233948,-0.0003620088100433,-0.0008571213111281,0.127116397023201,0.9918874502182008,-0.0048724127113873,0.0127835243677327,-0.0109971708087156,-0.056656002998352,0.2770388126373291,1.5671930313110352,109,73,13641,12868
17.3,1788426405277,4.8450703620910645,5.098591327667236,-0.0006667679990641,-0.0005296234739944,-0.0293423142284154,0.9995689988136292,0.1783795338273883,0.0024734157110101,0.0002060025648656,-0.0016595602501183,-0.0024061969015747,0.0082814469933509,-0.0004477761685848,-0.0009681778028607,0.1273987144231796,0.9918510317802428,-0.0052520583175507,-0.0031974005226119,0.0110600699579911,0.0007283091545104,-0.1675352454185485,1.2987070083618164,113,101,13835,12927
17.4,1788426405377,4.957746505737305,5.014084339141846,-0.0006241252995096,-0.001265353988856,-0.0291939862072467,0.99957275390625,0.1679759158508939,0.0003073577094837,-3.361621029988017e-06,0.0,1.521406334248354e-09,0.0,-0.0004199780523777,-0.0012973146513104,0.1277098059654235,0.9918106198310852,-0.0065071417962394,0.0323825797540984,0.0155552723238691,-0.3017696142196655,0.2505086660385132,0.2007093429565429,104,84,13181,12800
17.5,1788426405477,5.267605781555176,5.070422649383545,-0.0009405986056663,-0.0011184369213879,-0.0296698343008756,0.9995586276054382,0.1722664530693936,0.0017757556066235,-1.0069706163028334e-05,-0.0133155286312103,0.0057158125564455,-0.0197124760597944,-0.0006794547662138,-0.0009059440344572,0.1274287402629852,0.9918471574783324,0.0101750719817934,0.0177504462717657,0.0338773348507381,-0.1431710720062255,0.1401745676994323,2.142385482788086,85,82,12150,12784
17.6,1788426405577,5.098591327667236,5.070422649383545,-0.000917718920391,0.0010218846146017,-0.029448376968503,0.9995653033256532,0.1637454843196036,0.0011389328875641,-8.168701037176622e-05,-0.001191398827359,0.0567740127444267,-0.008024601265788,-0.0012913290411233,0.0029745399951934,0.1270303428173065,0.9918935298919678,0.0026573780768943,0.1998562935746914,-0.0077973103890006,-1.336928367614746,-0.1291016340255737,5.112483024597168,147,79,12951,12923
17.7,1788426405677,5.436619758605957,5.042253494262695,-0.0008863644907251,0.0003776165831368,-0.0296763833612203,0.9995590448379515,0.1742905257536629,0.0035305777843435,0.0004941153422551,-0.0044162920676171,-0.0583006031811237,-0.0026157172396779,-0.0009936671704053,0.0005738558247685,0.1269064545631408,0.9919140338897704,0.0017149976628459,0.1146795553082231,-0.0056587999300254,0.0641441941261291,0.1002315878868103,-3.0424318313598637,113,99,11922,12997
17.8,1788426405777,4.985915660858154,4.901408672332764,-0.0010062491055577,-0.0003684703551698,-0.0288485791534185,0.9995832443237304,0.1706116097184315,0.0026851275281138,1.2249796549993064e-06,-0.0039013985078781,-0.0298655293881893,0.0329468585550785,-0.0008799945935606,-8.451007306575775e-05,0.1283707022666931,0.9917259216308594,0.0080968391541169,0.0330916050605182,0.0353812263740129,0.4499964714050293,-0.1559165716171264,-1.1551284790039062,152,94,14455,12145
17.9,1788426405877,5.239436626434326,4.8450703620910645,-0.0008574053645133,0.0005753851146437,-0.0293637830764055,0.9995682239532472,0.1850082936054589,-0.0012296810090326,-7.868357449820924e-05,-0.0003463416942395,0.0236248206347227,-0.0329513698816299,-0.001099762506783,0.0002346727997064,0.1257915049791336,0.992056131362915,-0.0096613503339691,-0.0162543657059841,-0.084516868511903,-0.1010249853134155,-0.0270856022834777,1.82295036315918,120,81,13559,12341
18.0,1788426405977,5.154929637908936,4.985915660858154,-0.0014109666226431,0.0015672276495024,-0.0328443013131618,0.9994582533836364,0.1682867895317267,0.0009743712112539,-2.166355918070249e-05,-0.0143550606444478,0.028672706335783,-0.0553594045341014,-0.0017245030030608,0.0013807378709316,0.1231754347681999,0.9923825263977052,-0.0123844970647602,0.0094330620628865,-0.0572612552274732,-0.2185154557228088,-0.2512663602828979,-0.261087417602539,111,77,13713,12106
18.1,1788426406077,4.985915660858154,4.788732528686523,-0.0012387314345687,0.0017825192771852,-0.0358813516795635,0.9993537068367004,0.1672060924893635,0.0006724719784804,1.4074904412965027e-05,-0.0064253276214003,-0.0045935893431305,-0.0755397155880928,-0.001556827686727,0.0015121884644031,0.1198514103889465,0.9927895069122314,-0.0034229224309623,-0.0025447447143771,-0.0547789453910771,0.1208401918411254,0.1158477067947387,0.921788215637207,132,95,14406,12809
18.2,1788426406177,5.549295902252197,4.957746505737305,-0.0014008582802489,0.0011197502026334,-0.0379736311733722,0.999277114868164,0.1715344483344747,-0.0003350120078251,-2.0138069025946264e-06,-0.0028650818858295,-0.0092161670327186,-0.0344900004565715,-0.0014257226139307,0.0002695620059967,0.1182600259780883,0.9929816126823424,0.005150151552717,-0.0510145767754163,-0.0370874833518237,0.1042730212211608,-0.1343120336532592,-1.5575084686279297,82,74,12200,12185
18.3,1788426406277,4.732394218444824,5.070422649383545,-0.002023787703365,-0.0005311592831276,-0.0406082347035408,0.9991729259490968,0.1854862756064252,0.0019528315316863,0.0002668847951896,-0.0103365741670131,-0.0235629901289939,-0.0536498203873634,-0.001523083075881,-0.000443959608674,0.1158831641077995,0.9932615756988524,0.0417212574745965,0.0655082723840027,-0.0233034032520641,-0.0708734393119812,0.1692822575569152,-2.30755615234375,86,87,14506,11885
18.4,1788426406377,4.929577350616455,4.760563373565674,-0.0001899416965898,-0.0007104638498276,-0.039491593837738,0.9992196559906006,0.1635859089099909,-0.0006962560264282,0.0001108101825477,0.0150837795808911,0.0055686715058982,0.0335626415908336,-0.0003324067220091,0.0003244364634156,0.1148720160126686,0.9933802485466005,-0.0089973878656329,0.0515283461265242,-0.1290271512707327,0.3279215693473816,-0.0843452811241149,2.171401023864746,98,116,14744,12646
18.5,1788426406477,5.352112770080566,4.8450703620910645,-0.0003690658486448,0.0009171951096504,-0.0448506101965904,0.9989932179450988,0.1625789049498232,-0.0038756229896171,1.259146956365829e-05,-0.0025789644569158,0.0077184960246086,-0.0745461210608482,-0.0006384951993823,0.0007754117250442,0.1108076274394989,0.9938413500785828,-0.0194201706496726,-0.0043012546700042,-0.0803319050976268,0.0511122345924377,-8.463859558105469e-05,-1.4493999481201172,123,96,13047,12884
18.6,1788426406577,4.957746505737305,5.042253494262695,-0.0009065043414011,0.0004083945823367,-0.0474881902337074,0.9988713264465332,0.1767744421979785,0.0005579185965489,5.067560620804238e-05,-0.0096668237820267,-0.014244551770389,-0.0387176722288131,-0.0007515102624893,-0.000251474790275,0.1084462255239486,0.9941020607948304,0.0120460165086929,-0.0304384388447846,-0.0417108198771907,0.2247607111930847,0.0700063109397888,-0.6657733917236328,108,96,13149,13173
18.7,1788426406677,4.788732528686523,4.985915660858154,-0.0005328161641955,-0.0004518387140706,-0.0485986694693565,0.9988181591033936,0.1789972691078042,0.0033335550207655,0.0001076018004955,0.0117352185770869,-0.017854930832982,-0.0210449155420064,-0.0001421347260475,-0.0011801943182945,0.1078706234693527,0.9941642880439758,0.0319846206905096,-0.0398848512609305,-0.0092952070142808,0.017456829547882,0.0203070044517517,-0.59527587890625,114,71,13734,12955
18.8,1788426406777,4.816901206970215,5.070422649383545,-5.322412835084833e-05,-0.001086633419618,-0.0475909523665905,0.998866319656372,0.1659323544556136,0.0015409368957037,-0.0001145396995161,0.010308489203453,-0.0011845844564959,0.0379987359046936,8.40555876493454e-05,-0.0009072283282876,0.1093815937638282,0.9939994215965272,0.0047984066727453,0.0187069470792071,0.0451510796253026,-0.2006272673606872,0.2293893098831176,-1.1963224411010742,33,77,13713,12649
18.9,1788426406877,5.042253494262695,5.154929637908936,0.0002673043636605,-0.0007043129880912,-0.0465177372097969,0.9989171624183656,0.1678585003887178,4.172829458033719e-05,-7.012383960376937e-05,0.0036496985703706,0.0312080960720777,0.002760924398899,0.0004081297665834,-0.0012587495148181,0.1100466176867485,0.9939255714416504,-0.0021274030438278,-0.0391504295549745,-0.0106124921179162,0.007749855518341,-0.2281112074851989,0.1170501708984375,38,98,11931,13645
19.0,1788426406977,5.070422649383545,5.042253494262695,-0.0001135954153141,-0.0016313977539539,-0.0456170998513698,0.9989576935768129,0.174052872573212,-0.0002870752102568,5.185719298870544e-05,-0.006653044372797,-0.0107923354953527,0.0199869628995656,-0.000250075943768,-0.0020903311669826,0.1109670251607894,0.993821918964386,-0.0027245072629534,-0.0023077589143147,-0.0088576354711751,-0.116981565952301,-0.3477583527565002,2.11270809173584,30,91,12854,12914
19.1,1788426407077,4.732394218444824,4.929577350616455,-0.0005610097432509,-0.0019709938205778,-0.045716069638729,0.9989523887634276,0.1727827751643779,0.0023980909679219,-2.1899167592684954e-07,0.0,-2.222916295480104e-09,0.0,4.1319988667964935e-05,-0.0019330102950334,0.1114290282130241,0.9937704801559448,0.0097880786666596,-0.0013098109786487,0.0115735464028665,0.1535152196884155,0.2217843532562255,-0.4364709854125976,77,95,12008,12848
19.2,1788426407177,4.8450703620910645,5.070422649383545,-0.0005189498187974,-0.0007289882050827,-0.0454810820519924,0.998964786529541,0.1688291244073525,0.0012164538456139,-2.119719026821507e-06,-0.0090070003643631,0.0474526211619377,-0.0026662533637136,-0.0005710488185286,-0.0002415236085653,0.1111976131796836,0.9937981963157654,-0.0110478563705583,0.0553952167806855,-0.0043611796456537,-0.0736012458801269,-0.0949457287788391,1.9721832275390625,34,82,13800,12860
19.3,1788426407277,4.760563373565674,5.014084339141846,-0.0001766591158229,0.001907895784825,-0.0452118180692195,0.9989755749702454,0.1717683111733952,0.0006000318259869,-0.0002448726352506,0.0134110311046242,0.0579840317368507,0.0101635381579399,-0.0003174822777509,0.0014307545498013,0.1117702275514602,0.9937329888343812,-0.0037431727774289,-0.0960331653530746,0.0139348439007403,-0.292287528514862,0.4038009643554687,2.292262077331543,74,89,14112,12916
19.4,1788426407377,4.957746505737305,5.098591327667236,-0.0002163926255889,0.001580219483003,-0.044973824173212,0.998986840248108,0.1811426178649577,0.002291724109328,-0.0001116896608662,0.000580478052143,0.0152927991002798,0.0028611875604838,-0.0005087163299322,0.0011868486180901,0.1120719984173774,0.993699312210083,0.0042518918682766,-0.0443609213330886,0.0191427050662505,0.0991227030754089,-0.1871029734611511,-1.0674352645874023,41,73,13342,12696
19.5,1788426407477,5.267605781555176,5.126760482788086,-0.0001983940601348,0.0009611403802409,-0.0446719042956829,0.9990012049674988,0.1786948651891933,0.0014833914401074,0.0001272712857803,0.0018154721474274,-0.024729935452342,0.012095421552658,-4.866998642683029e-05,0.0008364506065845,0.1127318367362022,0.9936251640319824,0.0137636613019909,0.0033334590044046,0.016852871590439,-0.2093501091003418,-0.3246175050735473,0.3077344894409179,54,73,12159,12421
19.6,1788426407577,5.295774459838867,5.042253494262695,0.0004580499662552,0.0014867096906527,-0.0436253771185874,0.999046802520752,0.1629988140942962,-0.0005837497890556,-2.458145192425003e-07,0.0136150745674967,0.019590375944972,0.0116911754012107,0.0002884054556488,0.0014635547995567,0.1132549345493316,0.9935648441314696,-0.0015398459444389,-0.0134149043869907,0.0065641006767633,0.1813087463378906,0.2525907754898071,1.0844688415527344,113,99,12287,12782
19.7,1788426407677,5.042253494262695,5.098591327667236,0.0008141663856804,0.0027669516857713,-0.0438621714711189,0.9990334510803224,0.1675913803384946,-0.0016828535936271,2.577985545696921e-07,0.0074840136803686,0.0198682639747858,-0.0119970981031656,0.0005605090409517,0.0027431529015302,0.1127120852470398,0.9936238527297974,0.0128993011248147,0.0062733883725641,-0.0263648177550226,-0.0163010954856872,-0.4155288338661194,-1.4696626663208008,135,80,13290,12708
19.8,1788426407777,5.042253494262695,5.070422649383545,0.0002855838974937,0.0035391803830862,-0.0440035052597522,0.9990250468254088,0.1760994413722884,0.0027499370200097,-2.3372328326906143e-06,-0.0156610142439603,0.0137853166088461,0.0103602362796664,-0.0004793023690581,0.0036030299961566,0.1128888726234436,0.9936010241508484,-0.0250554092537092,0.0141043128191666,0.0343968973893276,-0.2642747759819031,0.1788080334663391,0.8114089965820312,128,95,13046,12847
19.9,1788426407877,5.183098793029785,5.014084339141846,-0.0003875327529385,0.0031844789627939,-0.0436805784702301,0.999040424823761,0.1820944520449124,0.0020307360213846,2.1361383471666347e-06,-0.013658377341926,-0.0012507628416642,0.004725910257548,-0.0012793745845556,0.0016308035701513,0.1130575910210609,0.9935863614082336,-0.0347105327193628,-0.0721060778166524,-0.0003114399519618,-0.590611457824707,-0.106849730014801,1.4682931900024414,34,69,12098,12684
20.0,1788426407977,5.408450603485107,5.211267471313477,4.966969572706148e-05,0.0015289186267182,-0.0427048057317733,0.9990865588188172,0.1524246780312869,-0.0005382391888807,0.0001326064769285,0.0286115240305662,-0.0243902932852506,0.0296691283583641,-2.297759056091309e-05,0.0011686300858855,0.1138097941875457,0.9935019612312316,0.0071214479833871,-0.008892380538383,-0.0146675967929255,0.3784661293029785,-0.160170316696167,-0.9268007278442384,101,87,12004,12244
20.1,1788426408077,5.352112770080566,4.8450703620910645,0.000533357320819,6.0725251387339085e-06,-0.0427684970200061,0.9990848898887634,0.1742411653211529,0.0008634292628855,-7.904715301507648e-05,-0.0229905899614095,0.028140340000391,0.0015736608766019,-3.640167415142059e-05,0.0004709940403699,0.113522969186306,0.9935352802276612,-0.0238977223232946,0.021984753329942,-0.0224624827855978,0.1276164650917053,-0.2530458569526672,-0.4396476745605469,97,128,11976,13785
20.2,1788426408177,4.619718074798584,5.154929637908936,-0.0006486677448265,0.0003498859878163,-0.0434638001024723,0.9990546703338624,0.1730641395967649,0.0038848705182669,1.8086672357523457e-05,-0.0376224145293235,-0.0020854792091995,-0.0191431995481252,-0.0011186823248863,0.0007090913131833,0.1136310920119285,0.9935221672058104,-0.0244867230831991,0.0339322330429687,0.0257083365566409,0.0371943712234497,-0.2676701545715332,0.6336603164672852,115,124,13285,14079
20.3,1788426408277,4.788732528686523,5.154929637908936,-0.0009232237935066,0.0007176452782005,-0.0412467308342456,0.9991482496261596,0.1719288043783996,0.0025271670633361,2.465714552196616e-05,0.0021012243814766,-0.004164142999798,0.0475940480828285,-0.000841949135065,0.00030601862818,0.1159360706806182,0.9932562708854676,0.0122195327303603,-0.0265646258661618,0.0426433279744686,0.0434193611145019,0.1753433942794799,-0.2262086868286132,99,75,13755,12479
20.4,1788426408377,5.070422649383545,5.154929637908936,-0.0003658923378679,-0.0001170582982013,-0.039942942559719,0.9992018938064576,0.1664740056149822,0.0003402622167827,6.436996716873836e-05,0.0111516853794455,-0.0195502210408449,0.0301166381686925,-0.0002938713878393,-0.000553561374545,0.1175206825137138,0.9930703043937684,0.0035260558120377,-0.0089800102568321,0.0279714123222678,0.1944298148155212,0.1066547632217407,-0.0080022811889648,49,93,12954,12477
20.5,1788426408477,5.492957592010498,5.070422649383545,-0.0003767938469536,-0.0005008164444006,-0.0391656048595905,0.9992325901985168,0.1807036897003893,-0.0001416139697985,-2.803772589858504e-06,0.0,0.0,0.0,-0.0005848295986652,-0.0009588208049535,0.1176726520061492,0.9930518865585328,0.008825105944045,-0.0356761761150198,0.004430810394712,0.5176106691360474,-0.316971480846405,0.3257427215576172,66,84,11483,12756
20.6,1788426408577,5.323943614959717,5.070422649383545,-0.0008915206999517,0.0002462685806676,-0.0391989238560199,0.999230980873108,0.1748761168673357,0.0008579094985436,6.236291434434843e-07,-0.0207034163177013,-0.0105341300368309,-0.0117466170340776,-0.0008910335600376,0.0003006914630532,0.1173052936792373,0.9930954575538636,0.0003814419870559,0.0318830696179086,-0.0201410098844161,0.0746631622314453,0.0476948022842407,-2.0292224884033203,74,109,12228,12760
20.7,1788426408677,4.8450703620910645,5.239436626434326,-0.0009640326607041,0.0002545147435739,-0.0389383770525455,0.9992411136627196,0.1639350512411127,0.0009173719050818,2.43412380446006e-06,0.0023695863783359,-0.0006140518817119,0.0191297363489866,-0.0008522663265466,-0.0002109576016664,0.1194954141974449,0.992834448814392,0.0124565708284246,-0.0025668786276943,0.0696143558811108,-0.2394779324531555,-0.1399608850479126,-0.1270055770874023,118,83,11869,13283
20.8,1788426408777,5.211267471313477,5.267605781555176,-0.0011215629056096,-0.0006519381422549,-0.03585896641016,0.9993560314178468,0.1754362748032477,0.0020096328364157,-1.371669191750701e-05,-0.0082818064838647,-0.0168423634022474,0.0383865609765052,-0.0008611883968114,-0.0006160186603665,0.1216528862714767,0.9925721287727356,0.0116231631009401,0.0126055137393796,0.0587261712592188,0.0277615785598754,0.0575283765792846,-1.0879497528076172,72,81,11342,13216
20.9,1788426408877,5.267605781555176,4.985915660858154,-0.0007627472514286,-0.0007797786383889,-0.0334460325539112,0.9994399547576904,0.1759247116263091,0.004223113495497,5.597710621727884e-06,-0.0012098097940906,-0.001152980257757,0.0163455922156572,-0.0006174808368086,1.6716308891773224e-05,0.1231734380125999,0.9923850297927856,0.0043622681659921,0.0413389745650307,-0.0068057516598119,0.2454999685287475,-0.0084819793701171,0.5008916854858398,73,97,12362,13012
21.0,1788426408977,5.521126747131348,4.8450703620910645,-0.0006115848082117,0.001204012427479,-0.0337384715676307,0.9994297027587892,0.1722737501819151,0.0024532336840286,-0.0002550749762797,-0.0051996372640132,0.0332645215094089,-0.0089634405449032,-0.0006923684850335,-0.001073008403182,0.1226750090718269,0.9924461245536804,-0.0110756161783841,-0.1439737544439016,-0.0159705498232882,0.2326356172561645,-0.118912935256958,-2.4992308616638184,90,77,12701,12393
21.1,1788426409077,5.633802890777588,4.8450703620910645,-0.0011862637475132,-0.0002132382505806,-0.036646693944931,0.999327540397644,0.1812297572528106,-4.5577142701515786e-05,-0.0001462527311223,-0.010774316266179,-0.0092161512002348,-0.0894015058875083,-0.0011869417503476,0.0002847267314791,0.1190850883722305,0.9928832650184632,-0.0029391323237899,0.0512578177384807,-0.0628517228370507,-0.2063207030296325,0.5256702303886414,0.8804807662963867,72,95,11962,12616
21.2,1788426409177,5.633802890777588,4.957746505737305,-0.0011656099231913,-0.0004372257972136,-0.039034653455019,0.9992371201515198,0.1701288703867448,-0.0013734311647371,1.1947025014829662e-05,-0.0055101802572607,-0.0096516525372862,-0.0407796986401081,-0.0010763332247734,-0.0008436851203441,0.1169996410608291,0.9931310415267944,0.0002822829478457,-0.040145378254829,-0.0746413679765906,-0.012740135192871,-0.2034454941749572,-0.3410663604736328,62,86,11940,12097
21.3,1788426409277,5.549295902252197,4.957746505737305,-0.0015592175768688,-0.0009346667211502,-0.0419328361749649,0.9991188049316406,0.1618617106049962,0.0024659733407966,3.952826352705393e-05,-0.0093671763315796,-0.0004966824781149,-0.0491168014705181,-0.0015273559838533,-0.0012376895174384,0.113549992442131,0.9935303926467896,-0.0059915503729351,-0.0065078242398697,-0.0664032878537005,-0.0140516757965087,-0.3671369552612304,-0.6076202392578125,96,81,12196,12121
21.4,1788426409377,5.154929637908936,4.8450703620910645,-0.0017520919209346,-0.0002609298098832,-0.0447111465036869,0.9989984035491944,0.1717895146082963,-0.002334388292262,-6.718853548341357e-05,-0.0016406977083534,0.0289889983832836,-0.0536837242543697,-0.0018712347373366,-0.0006552478298544,0.1111250668764114,0.9938044548034668,-0.0129708960669481,-0.0067498536820724,-0.0591806034005759,0.0652375221252441,0.2540880441665649,2.391119956970215,45,83,13546,12449
21.5,1788426409477,5.295774459838867,4.873239517211914,-0.0024683496449142,0.0003361946437507,-0.0471559166908264,0.998884379863739,0.1640959822579239,-0.0021716296614276,3.041029946861841e-05,-0.0168801881372928,0.0094303824007511,-0.0498906821012496,-0.0025061601772904,-0.000438654795289,0.1089329048991203,0.9940458536148072,-0.0042000884336385,-0.0266482283384768,-0.0437558951983684,-0.0108082294464111,-0.1293615102767944,-0.9977579116821288,36,87,13603,12226
21.6,1788426409577,5.183098793029785,4.8450703620910645,-0.0028784379828721,0.0006479111616499,-0.049451645463705,0.998772144317627,0.1816149362238674,0.005179605078348,3.947587275242979e-06,-0.0080653112381696,0.020761452615261,-0.0357780866324901,-0.0018688673153519,0.0010234387591481,0.1082614734768867,0.994120180606842,0.0601131048536743,0.0319403259361597,0.0661455877995453,0.3537276983261108,0.312347948551178,0.1182699203491211,148,83,13480,12668
21.7,1788426409677,5.577464580535889,4.8450703620910645,-0.001640283386223,0.000763272983022,-0.0493337884545326,0.9987806677818298,0.1798805015134892,0.0041278991739953,-7.516683407705447e-05,0.0028548550326377,-0.0210012421011924,-0.0337736383080482,-0.0021089101210236,0.0005165692418813,0.106485441327095,0.9943118691444396,-0.0219849736014463,-0.0035286769141458,-0.0576750409399229,-0.1476858854293823,0.124095618724823,-0.5220499038696289,78,93,12223,12463
21.8,1788426409777,5.492957592010498,4.985915660858154,-0.0019534290768206,0.0019675840158015,-0.0521093942224979,0.998637557029724,0.168701111859619,0.0003039393497082,1.7949376096126092e-05,0.0107412636280059,0.0108765866607427,-0.0421867407858371,-0.0021575633436441,0.0013973359018564,0.1039973944425582,0.994574248790741,0.0006442910188722,-0.0141424491960949,-0.0615898682948885,-0.2249110341072082,0.2745575308799743,2.9140024185180664,95,93,12640,12199
21.9,1788426409877,5.352112770080566,5.211267471313477,-0.0018852183129638,0.0024740237277001,-0.0540118589997291,0.998535454273224,0.1722009001446928,-0.0025687143730918,2.1127783069608607e-05,-0.0044237305410206,0.0126299895346164,-0.0312759056687355,-0.0023053288459777,0.0019329749047756,0.1030662059783935,0.994670033454895,-0.0065639577865657,-0.069740721999945,0.0150294424113147,-0.0387399792671203,0.3626238107681274,-1.2923040390014648,94,83,11788,12631
22.0,1788426409977,4.901408672332764,4.985915660858154,-0.0021628146059811,0.002270410535857,-0.0537283904850482,0.9985505938529968,0.1741237109573299,-0.0004560311298079,-0.0001816323734772,-0.006325289607048,-0.000309957715217,-0.0012418689439073,-0.0024603074416518,0.0029204953461885,0.1025839447975158,0.9947170615196228,0.0093013989695682,0.0827543697728643,-0.0163340555499327,0.0133461356163024,-0.1616462469100952,-1.6456327438354492,117,87,13290,12989
22.1,1788426410077,4.816901206970215,4.957746505737305,-0.0017595895333215,0.0029649066273123,-0.0531374439597129,0.9985812306404114,0.171644094911847,-2.978720246037404e-06,-1.0421431796064555e-05,0.009229939430952,-0.0088445525616407,0.0366436019539833,-0.0021606106311082,0.0025853123515844,0.1037808582186698,0.9945945739746094,0.0037390882311721,-0.0313627589370451,0.0193533121988179,0.1332367658615112,0.0868644118309021,0.2821216583251953,90,80,13493,13178
22.2,1788426410177,4.647887229919434,5.070422649383545,-0.0016027654055505,0.0031533639412373,-0.0525140985846519,0.9986138939857484,0.174726189650489,0.0031318729350836,5.695013148701088e-05,7.140816887840629e-05,0.001979642547667,0.0059087979607284,-0.001962898299098,0.0028771944344043,0.1042231544852256,0.9945478439331056,2.9657171142168397e-05,0.0329620158083264,-0.0059102473686193,0.0101494193077087,-0.1960765123367309,-2.5277323722839355,106,105,14346,12725
22.3,1788426410277,5.014084339141846,5.126760482788086,-0.0015268892748281,0.0033696498721837,-0.0523713044822216,0.9986208081245422,0.1694087194463178,0.001971776430924,-0.0001663201272108,-0.0044152014888823,0.0293573774397373,0.0024066376499831,-0.0020963037386536,0.003126323223114,0.1058439537882804,0.9943756461143494,-0.0001614105916142,-0.012679341429573,0.0565834145505019,0.0680699944496154,-0.0336775779724121,1.4491643905639648,43,103,12941,12684
22.4,1788426410377,5.070422649383545,5.098591327667236,-0.0011932025663554,0.0036061098799109,-0.0498375743627548,0.99875009059906,0.1796722950860255,0.0007895499746811,-2.432911019870052e-05,0.009548439644277,-0.0034107086248695,0.0265507195144891,-0.0013993214815855,0.0026464667171239,0.1072005107998848,0.9942329525947572,0.0174611317580106,-0.0508107243372898,0.0198530021169677,-0.0605553388595581,0.077780544757843,-0.7653179168701172,114,82,12874,12424
22.5,1788426410477,5.295774459838867,5.126760482788086,-0.0010298938723281,0.0026231366209685,-0.049595434218645,0.9987654089927672,0.1753765687277757,0.0016791565451095,7.01436374536978e-05,0.0001192181152873,-0.0123312091454863,-0.001433530007489,-0.0016126660630106,0.0026061404496431,0.1069503203034401,0.9942595958709716,-0.005762331032686,0.0084454236370562,-0.0146176823128878,0.1079976558685302,0.0223192572593688,-0.6073837280273438,128,71,12212,12344
22.6,1788426410577,4.704225540161133,4.985915660858154,-0.0012352047488093,0.0028342807199805,-0.0502329841256141,0.9987327456474304,0.177740772505444,0.004449418057014,-7.139654950503858e-05,-0.0045051835477352,0.0194987989962101,-0.0088319117203354,-0.001708747819066,0.0029253931716084,0.1063869148492813,0.9943190217018129,-0.0034925455465935,0.0445023483803081,-0.0130137950268039,0.6232645511627197,0.2036146521568298,-2.2016091346740723,153,88,14375,12864
22.7,1788426410677,4.873239517211914,5.042253494262695,-0.0012338454835116,0.0044607673771679,-0.0505627393722534,0.9987100958824158,0.1689813604581301,-0.0001881408636501,-0.0003270649543116,-0.004288955591619,0.0112188095226883,-0.0005618634168058,-0.0020465906709432,0.0027203625068068,0.1065836399793624,0.994297981262207,-0.0201206447892589,-0.1023741185090372,0.0163230434766421,0.5474367737770081,0.0493256449699401,-0.2299423217773437,58,72,13540,12818
22.8,1788426410777,4.957746505737305,5.014084339141846,-0.001671127276495,0.0036146698985248,-0.0500412695109844,0.9987391829490662,0.1736661195012355,-0.0002650173876574,0.0001253044717294,-0.0012269662693142,-0.0252785868942737,0.0039040220435708,-0.0022295136004686,0.0037110103294253,0.1068039834499359,0.9942706823349,0.0041493841758598,0.0726000716256149,-0.000121619526277,0.2104461789131164,0.3022170066833496,-2.336101055145264,45,87,13351,12753
22.9,1788426410877,5.239436626434326,4.957746505737305,-0.001680807210505,0.002719557378441,-0.0505242869257926,0.9987176656723022,0.1783105189481806,0.0026695892609714,0.0001600858298279,0.0014685993082821,-0.035627044737339,-0.0193374454975128,-0.0023521343246102,0.0021929256618022,0.1058574691414833,0.9943761229515076,-0.015562505307507,0.0045882654464272,-0.0136636264403104,0.0007736682891845,0.1997208595275879,-0.0735006332397461,57,109,12331,13117
23.0,1788426410977,4.901408672332764,5.070422649383545,-0.002055917866528,0.0016941307112574,-0.0507695972919464,0.998706877231598,0.1766560643032627,0.0005253119315994,-4.644139271968369e-07,-0.0024095016997307,-0.0349934324622154,0.0034433084074407,-0.0021315440535545,0.0013879565522074,0.1062841713428497,0.9943326115608216,0.0209744574247278,-0.0035425722238798,0.028716342201427,0.0260889530181884,0.0527002215385437,-0.506779670715332,55,78,13337,12737
23.1,1788426411077,4.591549396514893,5.183098793029785,-0.0018166218651458,0.0005071982741355,-0.0505005121231079,0.9987223148345948,0.1686155242219308,0.0022155001770985,5.644147515618255e-05,0.0048126685433089,-0.0345178321003913,-0.0065188249573111,-0.0018053082749247,-0.0003913016989827,0.1063222736120224,0.9943300485610962,-0.0042315438897708,-0.0516999898625017,0.0055943861192158,0.0513285398483276,0.2705740332603454,1.0707263946533203,80,109,14123,12834
23.2,1788426411177,4.816901206970215,5.098591327667236,-0.001835060189478,3.987076343037188e-05,-0.0496679618954658,0.9987640976905824,0.1791703866012697,0.0024967422510461,8.217205134051459e-05,0.0001616455556359,-0.015673017129302,0.0278171431273221,-0.0015868721529841,-0.0009990623220801,0.1076225340366363,0.9941900968551636,0.0057335781932613,-0.0382287630798397,0.0024198321852743,0.3165745139122009,-0.1382496953010559,-1.762782096862793,32,79,13704,12623
23.3,1788426411277,4.647887229919434,5.323943614959717,-0.002680679783225,-0.0013838207814842,-0.049914464354515,0.9987489581108092,0.1806769370197754,0.0067656099715862,0.0001499993949577,-0.0367351211607456,-0.0306512415409088,-0.0302071869373321,-0.001807976514101,-0.0012001292780041,0.1068360805511474,0.9942743182182312,0.0478048144041674,0.0662245797966826,0.0218804538503247,-0.3486551642417907,-0.0104923248291015,0.7301902770996094,46,96,13079,13087
23.4,1788426411377,5.098591327667236,5.380281925201416,0.0002041476836893,-0.0030182423070073,-0.0451853685081005,0.9989740252494812,0.1789931733587563,0.0074313258507776,7.691112362493335e-05,0.0664757117629051,-0.047383788973093,0.1074108406901359,0.0007894076406955,-0.0029885610565543,0.1135224923491478,0.9935306906700134,0.0015637604260642,0.0015680976547112,0.1254003077940517,0.0532653331756591,0.5838825702667236,-0.5630512237548828,89,79,11911,12600
23.5,1788426411477,4.985915660858154,4.957746505737305,0.0002986675535794,-0.0034567697439342,-0.0426585413515567,0.999083697795868,0.1682420005395151,0.0026681073520731,7.248500270821794e-05,-0.0003114337450824,-0.0145158898085355,0.0257178042083978,0.0006059734150767,-0.0037451181560754,0.1139722168445587,0.9934766888618468,0.0018379689300573,-0.0566798924830841,-0.0171560503104384,0.1918208003044128,-0.1224022507667541,-1.1539230346679688,139,111,13446,12788
23.6,1788426411577,4.760563373565674,5.070422649383545,-0.0002664332569111,-0.0038664701860398,-0.0434596762061119,0.9990476965904236,0.1672840942095023,0.0041546892085247,2.4804659847127897e-05,-0.0180781856179237,-0.0142621248960495,-0.026297453790903,0.0003887573257088,-0.0034772818908095,0.1135066822171211,0.9935311079025269,0.008303902878213,0.0362388362188496,0.0230454749213086,-0.0702930688858032,0.1366122364997863,-0.5858774185180664,99,83,13975,12812
23.7,1788426411677,4.8450703620910645,5.070422649383545,-4.477930633584037e-05,-0.0029781758785247,-0.042641669511795,0.9990860223770142,0.1714589654024046,0.0025791049482878,4.988439129896962e-05,-0.0040187686681747,0.023192698135972,0.0091631459072232,0.0003703031688928,-0.003626799210906,0.1136967912316322,0.9935088157653807,-0.0077389482770358,-0.0516707174640929,-0.0227123640425613,-0.0537905693054199,-0.2319936752319336,0.5554924011230469,56,110,13909,12617
23.8,1788426411777,4.732394218444824,5.042253494262695,-0.0004030129639431,-0.0039116037078201,-0.0430257283151149,0.9990662336349488,0.1670682279478942,-0.0017095633644273,6.449368421456355e-05,-0.0123059879988431,-0.0198689866811037,-0.0059553533792495,-0.0002965526655316,-0.0033117113634943,0.113022431731224,0.9935868978500366,-0.0171297491381094,0.0403427038872512,-0.036609974024734,0.1486088037490844,-0.0048203468322753,-2.030320167541504,118,99,14177,12902
23.9,1788426411877,4.929577350616455,5.154929637908936,-0.0007295976975001,-0.0033512802328914,-0.0433800891041755,0.9990527629852296,0.177379236064567,0.0016421529416406,2.2720634865395385e-06,-6.049806766661446e-10,1.814941974487283e-09,4.646251454687445e-07,-0.000510879792273,-0.0037057884037494,0.1134151443839073,0.9935407042503356,-0.010612786007679,-0.0203233215733111,0.0243494544844617,-0.0644510388374328,-0.1556801795959472,1.3854484558105469,37,99,12560,13356
24.0,1788426411977,4.676056385040283,5.295774459838867,-0.0015407685423269,-0.0036413939669728,-0.0419145002961158,0.999113380908966,0.1736983066437466,0.0014505524746068,4.283996571225089e-05,-0.0187514033168554,-0.0143346078693866,0.0416980348527431,-0.001190397888422,-0.0036373743787407,0.1164780259132385,0.9931858777999878,-0.0070846664818826,0.0131601406683697,0.0631640219801794,0.0840400457382202,-0.0968816876411438,1.1432008743286133,45,103,12994,13254
24.1,1788426412077,4.816901206970215,5.183098793029785,-0.0017569813644513,-0.0028958111070096,-0.0386499874293804,0.9992470145225524,0.1740561339485918,0.0044279178628291,-5.327851582737704e-05,-0.0041321627795696,0.0164644718170166,0.0428415201604366,-0.00117963925004,-0.0036649834364652,0.1191516742110252,0.9928686022758484,0.0035342226939459,-0.0483737935779528,0.0591541613495067,0.2066661119461059,0.1717795729637146,-2.092510223388672,36,76,12655,13465
24.2,1788426412177,5.126760482788086,5.295774459838867,-0.00220423261635,-0.0018541911849752,-0.0351522751152515,0.9993778467178344,0.1767262307636875,0.0014553433365942,-2.809815871598724e-05,-0.0077063185162842,0.0148185985162854,0.0715020224452018,-0.0020320704206824,-0.0019863918423652,0.1220265552401542,0.9925228357315063,-0.0127087252386036,0.0493838145980208,0.0723705846076487,0.0362464189529418,-0.0004540681838989,-0.6902885437011719,80,87,11651,13179
24.3,1788426412277,4.816901206970215,5.098591327667236,-0.0021391443442553,-0.0010403970954939,-0.0322437360882759,0.9994772672653198,0.175091725378283,0.0001359029879556,-0.0001558906013684,0.0111282495781779,0.0431933403015136,0.0727279558777809,-0.0019804015755653,-0.0009803669527173,0.1247989386320114,0.9921795725822448,0.0191148703355239,0.0444013338369078,0.0787040553055841,0.2806978225708008,0.241905927658081,-1.980891227722168,159,99,14055,12615
24.4,1788426412377,4.929577350616455,5.154929637908936,-0.0021698817145079,-0.0042601046152412,-0.0313288122415542,0.999497652053833,0.1672633327301273,0.0023826492485229,0.0001298724425143,0.0057575819082558,-0.0144271440804004,-0.0056664934381842,-0.0014425916597247,-0.0054289372637867,0.1258318573236465,0.9920356869697572,-0.0136134651050511,-0.1160446537387814,0.0298320073458428,-0.4466880559921264,0.2755571603775024,4.059866905212402,73,69,13694,12689
24.5,1788426412477,4.957746505737305,5.070422649383545,-0.0022711302153766,-0.0047213067300617,-0.0302735418081283,0.9995279312133788,0.1709851817756294,0.0003371403006344,-4.002449923367512e-07,2.3487223277385283e-09,7.046167205260191e-09,4.509547011366522e-07,-0.0016550933942198,-0.004584340378642,0.1262768059968948,0.9919830560684204,-0.0101900291748503,0.038162411130485,-0.0223665907225312,0.0640212893486023,-0.0539080500602722,-1.1764240264892578,50,73,13435,12610
24.6,1788426412577,4.732394218444824,5.014084339141846,-0.0026578982360661,-0.0030695698224008,-0.0312263891100883,0.9995040893554688,0.1668078561550819,-0.0001838969761265,-1.92498356191186e-06,-0.004621472209692,0.0419100113213062,0.0046796035021543,-0.0022056056186556,-0.0034819962456822,0.1256038844585418,0.9920719265937804,-0.0031314764833622,-0.0118419785717355,0.0122985643672657,0.1381885409355163,-0.1085703372955322,0.8387184143066406,76,111,14112,13154
24.7,1788426412677,5.042253494262695,5.070422649383545,-0.0027483494486659,-0.0020452779717743,-0.0310120228677988,0.9995131492614746,0.1739230419732698,-0.0001429077554302,-0.0002132878428217,-0.0048759877681732,0.0408805795013904,0.0087153008207678,-0.0024428889155387,-0.0016537811607122,0.125865563750267,0.9920429587364196,-0.0052496935256148,0.0581622797498979,0.0058447566992074,-0.1921777129173278,0.1871232390403747,1.1464614868164062,35,79,13043,12608
24.8,1788426412777,4.619718074798584,5.183098793029785,-0.0026501547545194,-0.0003951520775444,-0.031274065375328,0.9995072484016418,0.1695752405906996,-0.0010825184724265,2.2329020743950882e-07,-0.0009012230439111,0.0173999574035406,-0.0130633292719721,-0.0023823641240596,-0.0011047227308154,0.1253239214420318,0.9921124577522278,0.007927465676891,-0.0206649862224655,0.0006521934226649,0.2513429522514343,-0.040205180644989,0.5498342514038086,82,98,13291,13528
24.9,1788426412877,4.619718074798584,5.267605781555176,-0.0022853473201394,-0.000264746195171,-0.0294848680496215,0.9995626211166382,0.1756104615572547,0.0016626560351526,9.110210819324556e-05,0.011638288386166,0.0049042622558772,0.0540108457207679,-0.0023767901584506,-0.000262371264398,0.1274944245815277,0.991836428642273,-0.0134092354789877,0.0770334790548243,0.0447376961661783,-0.2779414057731628,0.0819682478904724,-0.3281879425048828,84,96,13245,13061
25.0,1788426412977,5.098591327667236,5.098591327667236,-0.0015964033082127,0.0010225013829767,-0.0260797664523124,0.9996581077575684,0.1680852072842705,0.0028655001235827,-5.6836824395968994e-05,0.0356067903339862,0.0433068871498107,0.0959088653326034,-0.0011219810694456,0.0001838905736804,0.1323387026786804,0.9912039041519164,0.0238132776882877,-0.0574615329942894,0.0982154804883404,0.1653909087181091,0.313912570476532,1.5244665145874023,105,85,13140,12637
25.1,1788426413077,5.549295902252197,5.183098793029785,-0.0027984394691884,0.0029933927580714,-0.0269026663154363,0.9996297359466552,0.1685307849637722,0.0033026026817865,-0.0005330302198628,-0.041009746491909,0.058019820600748,-0.06837048381567,-0.0032840333878993,0.0026358906179666,0.1297110617160797,0.9915428757667542,0.004078390951169,-0.0020985647669561,-0.0003875265257385,-0.1866215467453003,0.2683849930763244,-1.0923166275024414,84,73,11251,12815
25.2,1788426413177,4.929577350616455,5.126760482788086,-0.0031686946749687,0.0038844479713588,-0.0267049930989742,0.9996308088302612,0.1683225952079427,0.0027147884206442,-0.00011389110192,-0.0130960149690508,0.0292066000401973,0.0066037736833095,-0.0037894677370786,0.0040359059348702,0.1303555816411972,0.991451859474182,0.007316782655588,0.0415682000962202,0.0352502462973198,-0.1749704480171203,0.2903581261634826,1.1837692260742188,115,105,13304,12737
25.3,1788426413277,4.647887229919434,5.267605781555176,-0.0031184523832052,0.0042002024129033,-0.0254628416150808,0.9996621012687684,0.1732659136511587,0.002324574683407,1.31735191139749e-06,0.0039947642944753,-0.0062528364360332,0.0133661814033985,-0.0034321257844567,0.0036611044779419,0.1315251141786575,0.9913001656532288,0.0179862842530884,0.0003653519468149,0.020476255508629,0.2613841295242309,0.2804451584815979,-1.5496711730957031,99,82,12960,13064
25.4,1788426413377,4.760563373565674,5.098591327667236,-0.0027044210582971,0.0045258281752467,-0.0234472844749689,0.9997111558914183,0.1679625931648412,0.0002933711077112,-4.938206416726212e-05,0.0001490849681431,0.0229978989809751,0.0553421899676322,-0.003514876589179,0.0043772608041763,0.1333774924278259,0.9910494685173036,-0.0061159511471917,0.0228506460308605,0.0172892203107522,-0.0324997305870056,-0.256127655506134,1.6336030960083008,107,107,13938,12600
25.5,1788426413477,5.323943614959717,5.070422649383545,-0.0027856708038598,0.004593975841999,-0.0226386971771717,0.9997292757034302,0.1736044745307095,0.0008407378933082,2.0046060275998854e-05,-0.0025143073871731,-0.008239877410233,0.0208527296781539,-0.0037578595802187,0.0052863964810967,0.1339873373508453,0.9909618496894836,-0.0028851466878268,0.0959107409430859,7.044305027800451e-05,-0.1662396192550659,-0.0189279913902282,-0.3411951065063476,39,69,13586,12896
25.6,1788426413577,4.676056385040283,5.211267471313477,-0.0026043648831546,0.005281503777951,-0.0220031160861253,0.9997405409812928,0.1755951100769245,0.0012631060245019,5.529930658635264e-05,-0.0068633882328867,-0.0307422261685132,3.458373976172879e-05,-0.0033649466931819,0.0054094810038805,0.1347790509462356,0.9908552169799804,0.0135702146118945,0.0377898556457337,0.0196985853651857,0.040271520614624,-0.031142234802246,-1.5264225006103516,113,95,13177,13277
25.7,1788426413677,5.070422649383545,5.126760482788086,-0.0024629903491586,0.0055529964156448,-0.0207831282168626,0.9997655153274536,0.1720193787338557,0.0026042311322832,-4.365145316086438e-06,0.000639007310383,-0.0126439118757843,0.0393000170588493,-0.0032992344349622,0.0052171535789966,0.1359587013721466,0.9906952381134032,-0.0013807668513851,0.009342299950187,0.0121195156791438,-0.0541996359825134,0.1662593483924865,1.0120134353637695,134,103,12927,12423
25.8,1788426413777,4.929577350616455,5.014084339141846,-0.0023658550344407,0.0048143668100237,-0.0201677810400724,0.9997822046279908,0.1804296129180299,0.0031919303629441,6.260625912707642e-05,-0.006538241636008,-0.0255333203822374,0.0073262872174382,-0.003059908747673,0.0045559601858258,0.1364098936319351,0.9906373023986816,0.0057305103135469,0.0147333062197707,-0.000987692940727,-0.0017889738082885,-0.4122201800346374,-2.913911819458008,110,83,13246,12727
25.9,1788426413877,4.8450703620910645,5.098591327667236,-0.0020135941449552,0.0056277699768543,-0.0198631547391414,0.9997848272323608,0.1728160328464735,-0.0007340004153486,-0.0001381012680611,0.0133596789091825,0.0327517688274383,0.0123172188177704,-0.0028920117765665,0.0056458702310919,0.1367037892341613,0.9905916452407836,0.0142656407562467,-0.012256296658913,0.0064302388069837,0.1003745198249816,-0.2013590335845947,0.7171421051025391,60,105,13515,12417
26.0,1788426413977,4.985915660858154,5.014084339141846,-0.0020218777935951,0.0107688987627625,-0.0205892343074083,0.9997279644012452,0.1654407591236878,0.0023148349013037,-0.0004204142254481,-0.0012311326572671,0.1419762670993805,-0.0249017421156168,-0.0030739735811948,0.0104577681049704,0.1357790529727935,0.990679144859314,0.0470651686321036,0.0157516687582058,-0.0104585867405693,-0.8106739521026611,0.2254149913787841,-1.9079656600952148,45,85,13110,12730
26.1,1788426414077,5.492957592010498,5.042253494262695,-0.0019050926202908,0.0070052272640168,-0.020095283165574,0.9997717142105104,0.1687164983188643,0.0061525874088717,0.000114941998874,-0.001083034207113,-0.0541992373764514,0.0124744577333331,-0.0026840977370738,0.0055903419852256,0.136495292186737,0.9906213879585266,0.020806388729544,-0.1353316769809263,-0.0065747768064829,-0.0903609991073608,-0.2990819811820984,2.3104248046875,65,90,11578,12658
26.2,1788426414177,5.239436626434326,5.070422649383545,-0.001436247723177,0.0043865139596164,-0.0200748257339,0.9997878670692444,0.1740233746188581,-0.0001048443913324,0.0001055686725522,0.0080677531659603,-0.0496901646256446,-0.017211640253663,-0.0021570548415184,0.0040537314489483,0.1363257616758346,0.9906535148620604,-0.0009260182499361,-0.0123527828898831,-0.0176673605742505,-0.0520521402359008,0.1869729161262512,-1.94157075881958,55,87,12323,12504
26.3,1788426414277,4.788732528686523,5.126760482788086,-0.0017401047516614,0.0033451567869633,-0.0211739707738161,0.9997686743736268,0.1729426402471957,-0.0003153319721339,3.0469008207974345e-05,-0.0112291388213634,-0.0112605802714824,-0.0237962491810321,-0.0025549801066517,0.0029042521491646,0.1345262080430984,0.9909024834632874,-0.0107417117101779,-0.006240850872959,-0.0240767892013706,-0.0364415645599365,0.0248337984085083,0.4326162338256836,56,88,11769,12797
26.4,1788426414377,4.591549396514893,5.380281925201416,-0.0025424470659345,0.0035335388965904,-0.0223824102431535,0.9997400045394896,0.1639420369885559,0.0017722858187255,-1.8851028515207891e-06,-0.0227311570197343,0.001551398425363,-0.0224643759429454,-0.0034038182348012,0.0040479786694049,0.134274885058403,0.9909300208091736,-0.0139045405568244,0.0659257852054188,0.0067610505741068,-0.0371148586273193,-0.0098395347595214,0.3090314865112304,36,107,13234,12885
26.5,1788426414477,4.647887229919434,5.380281925201416,-0.0030231191776692,0.0038382324855774,-0.0215756446123123,0.9997552633285522,0.1828020132989784,0.0029290213762593,4.0946840703461474e-05,-0.0054393359459936,-0.0147750182077288,0.0169999618083238,-0.0034937541931867,0.0029235165566205,0.1358093321323394,0.9907245635986328,0.011250916668087,-0.0240840015257802,0.0376294388648278,-0.1576514840126037,0.0917862653732299,1.0044631958007812,24,116,12924,12644
26.6,1788426414577,5.183098793029785,5.211267471313477,-0.002276609186083,0.0022806536871939,-0.0183741971850395,0.9998260140419006,0.1758612000523658,-0.0010021210098388,0.0001015773292801,0.0283903181552886,-0.0501467138528823,0.0834335833787918,-0.0024400241672992,0.0013902923092246,0.1390991955995559,0.9902744889259338,0.0060021471720562,-0.0347704761956576,0.0632731329122712,0.1068506240844726,-0.2326059937477111,-0.8193225860595703,61,66,11246,13104
26.7,1788426414677,4.957746505737305,5.126760482788086,-0.0019339558202773,-0.0008813510066829,-0.0156144024804234,0.9998758435249328,0.1925552178619744,0.003803724243567,0.0003410874400298,0.0115764988586306,-0.0947729721665382,0.0602782927453517,-0.0016813185065984,-0.000688299536705,0.1429379880428314,0.9897300601005554,0.0162364619307911,0.0401792539613976,0.1506277379619442,-0.4094985127449035,0.3699842691421509,-1.1931962966918943,125,71,12947,12134
