time_s,timestamp_ms,wheel_vels__velocity_left,wheel_vels__velocity_right,odom__orient_x,odom__orient_y,odom__orient_z,odom__orient_w,odom__lin_x,odom__lin_y,odom__lin_z,odom__ang_x,odom__ang_y,odom__ang_z,imu__orient_x,imu__orient_y,imu__orient_z,imu__orient_w,imu__angvel_x,imu__angvel_y,imu__angvel_z,imu__acc_x,imu__acc_y,imu__acc_z,wheel_status__current_ma_left,wheel_status__current_ma_right,wheel_status__pwm_left,wheel_status__pwm_right
0.0,1788349879950,0.0,0.0,0.0027320198714733,-0.0053862715139985,0.9894697070121764,0.1446138322353363,8.636298911920757e-05,-9.89329348501007e-05,1.9332900835741778e-07,0.000562313303817,0.0001934430911205,0.0009962499607354,0.0033630160614848,-0.0050092739984393,0.9998421669006348,0.0167137403041124,-0.0006497761314493,-2.068341056463416e-05,-0.0008176209233772,-0.0084437727928161,-0.0143256783485412,-0.0031375885009765,0,0,0,0
0.1,1788349880050,0.0,0.0,0.0026650486979633,-0.0053762677125632,0.9894667267799376,0.1446359455585479,0.0001258856336557,-0.0001440253413049,-4.379244541376233e-09,0.0009371417690999,0.0016057825414463,0.0014624086907133,0.0033322600647807,-0.0049987081438302,0.9998421669006348,0.016718303784728,-0.0002925369252083,0.0005197409216261,-0.0024177135670292,0.0083524584770202,-0.0108762979507446,-0.0264644622802734,0,0,0,0
0.2,1788349880150,0.0,0.0,0.002616663929075,-0.0053836945444345,0.989460825920105,0.1446773111820221,-5.0056313343521645e-06,4.151547626740031e-06,7.520286657486516e-08,-1.2363446330709849e-05,0.0015935129486024,-3.186687536071986e-05,0.0033279797062277,-0.0050031142309308,0.9998422265052797,0.016711426898837,-0.0006480883762191,-0.0012502834969696,-0.0008182301168474,0.0174288749694824,-0.0341575741767883,-0.0193185806274414,0,0,0,0
0.3,1788349880250,0.0,0.0,0.0026709963567554,-0.0053856270387768,0.9894599318504332,0.1446822434663772,-9.731262403917192e-05,0.0001112656310049,3.021329031635253e-07,0.0004360385937616,-0.0010549740400165,-0.0011261095060035,0.0032942229881882,-0.0049973390996456,0.999842643737793,0.0167003348469734,-0.0001279352736569,0.0012881008498352,0.0028996675785941,-0.0016509294509887,0.0375675559043884,-0.0083532333374023,0,0,0,0
0.4,1788349880350,0.0,0.0,0.0026924621779471,-0.0053740008734166,0.989462435245514,0.1446651965379715,4.58313519454432e-05,-5.309932357030223e-05,-2.365659074777107e-07,0.0003888762439601,-0.0022664105053991,0.0005089819314889,0.0033480916172266,-0.0050061866641044,0.999841809272766,0.0167345162481069,-0.0001195989651769,0.000342677369713,-0.0004638865953272,-0.0188749432563781,0.0089088678359985,0.0257186889648437,0,0,0,0
0.5,1788349880450,0.0,0.0,0.002700897399336,-0.0053760153241455,0.9894648194313048,0.144648477435112,0.0001632435409712,-0.0001852394327902,8.618080063433126e-08,0.0010671220952644,-0.0009740784880705,0.0018575002904981,0.0033650556579232,-0.0049827964976429,0.9998423457145692,0.016709879040718,0.0003912537904398,0.000500164493146,-0.0012963599029539,0.040096640586853,0.0282928347587585,-0.004734992980957,0,0,0,0
0.6,1788349880550,0.0,0.0,0.0026641155127435,-0.0053748846985399,0.989464282989502,0.1446526795625686,-1.1831324079570961e-07,4.016364610500482e-07,4.283570914068272e-07,-0.0002938156249001,0.0009699833462946,7.2004550020210445e-06,0.0033097565174102,-0.0049749137833714,0.9998430013656616,0.0166851170361042,0.0009390310479302,0.0014074705190023,0.0011424141941065,-0.0162793397903442,0.0102071166038513,-0.002995491027832,0,0,0,0
0.7,1788349880650,0.0,0.0,0.0026710908859968,-0.0053486214019358,0.9894624948501588,0.1446657180786132,-6.292105344769641e-05,7.227686749083497e-05,-3.283967490366678e-07,0.0005637139547616,-0.0010541740339249,-0.0007361597381532,0.0033241668716073,-0.0049479929730296,0.9998427033424376,0.0167048312723636,0.0006432689856413,-0.0006047977626134,0.001457237017438,0.0103993415832519,0.0168618559837341,0.0024385452270507,0,0,0,0
0.8,1788349880750,0.0,0.0,0.0026403851807117,-0.0053392173722386,0.9894624948501588,0.1446667611598968,-4.056186650455338e-06,5.11070193139988e-06,7.786778992029179e-08,0.0001976010826183,0.0012908063363283,-3.635087341535837e-05,0.0033375928178429,-0.0049501368775963,0.9998427033424376,0.0167037639766931,-0.0001278839045195,-0.000898848845425,6.726929652798637e-05,-0.0096164941787719,0.0258928537368774,-0.0011281967163085,0,0,0,0
0.9,1788349880850,0.0,0.0,0.0026403851807117,-0.0053392173722386,0.9894624948501588,0.1446667611598968,-4.056186650455338e-06,5.11070193139988e-06,7.786778992029179e-08,0.0001976010826183,0.0012908063363283,-3.635087341535837e-05,0.0033375928178429,-0.0049501368775963,0.9998427033424376,0.0167037639766931,-0.0001278839045195,-0.000898848845425,6.726929652798637e-05,-0.0096164941787719,0.0258928537368774,-0.0011281967163085,0,0,0,0
1.0,1788349880950,0.0,0.0,0.0026403851807117,-0.0053392173722386,0.9894624948501588,0.1446667611598968,-4.056186650455338e-06,5.11070193139988e-06,7.786778992029179e-08,0.0001976010826183,0.0012908063363283,-3.635087341535837e-05,0.0033375928178429,-0.0049501368775963,0.9998427033424376,0.0167037639766931,-0.0001278839045195,-0.000898848845425,6.726929652798637e-05,-0.0096164941787719,0.0258928537368774,-0.0011281967163085,0,0,0,0
1.1,1788349881050,0.0,0.0,0.0026903795078396,-0.0053346110507845,0.9894602298736572,0.1446810811758041,0.0,0.0,0.0,0.0,0.0,0.0,0.0033444687724113,-0.0049363058060407,0.9998419284820556,0.0167552419006824,-0.0006640174973867,0.0003485601633894,0.0009599290106332,0.0387718081474304,0.0112817883491516,0.0006952285766601,0,0,0,0
1.2,1788349881150,0.0,0.0,0.0026903795078396,-0.0053346110507845,0.9894602298736572,0.1446810811758041,0.0,0.0,0.0,0.0,0.0,0.0,0.0033100945875048,-0.0049436790868639,0.999841570854187,0.0167751871049404,0.0014731430189102,0.0010603315462388,0.0022205675642022,-0.0054699778556823,0.0168107151985168,0.0078964233398437,0,0,0,0
1.3,1788349881250,0.0,0.0,0.0026903795078396,-0.0053346110507845,0.9894602298736572,0.1446810811758041,0.0,0.0,0.0,0.0,0.0,0.0,0.0033657392486929,-0.0049824463203549,0.9998407363891602,0.0168040934950113,-0.0008427133599238,0.0005311634602956,-0.0013542935110615,0.0113811492919921,-0.011192500591278,0.0096521377563476,0,0,0,0
1.4,1788349881350,0.0,0.0,0.0026974643114954,-0.0053703682497143,0.9894536137580872,0.1447253674268722,-0.0001110983791381,0.0001272228778086,-1.276336106409688e-07,-0.0009887224296107,-0.0003428022027947,-0.0012812073109671,0.003406154923141,-0.0049732318148016,0.9998408555984496,0.0167874507606029,0.0002023977345285,-0.0019341390567977,-0.0009099199660257,0.0141856670379638,0.0173568129539489,0.0079498291015625,0,0,0,0
1.5,1788349881450,0.0,0.0,0.0027431943453848,-0.0053722863085567,0.9894506335258484,0.1447446495294571,0.0,0.0,0.0,0.0,0.0,0.0,0.0033982740715146,-0.0049865450710058,0.999841332435608,0.0167565923184156,-0.0008431110038632,-0.0001844800067487,6.938241795169716e-05,-0.0197863578796386,-0.0344069004058837,-0.0137233734130859,0,0,0,0
1.6,1788349881550,0.0,0.0,0.0027431943453848,-0.0053722863085567,0.9894506335258484,0.1447446495294571,0.0,0.0,0.0,0.0,0.0,0.0,0.0034202430397272,-0.0049715917557477,0.9998411536216736,0.0167720317840576,0.0009252655801146,0.0006937433354527,0.0020173798660323,0.0013405084609985,-0.0365006923675537,-0.013702392578125,0,0,0,0
1.7,1788349881650,0.0,0.0,0.0027431943453848,-0.0053722863085567,0.9894506335258484,0.1447446495294571,0.0,0.0,0.0,0.0,0.0,0.0,0.0034371279180049,-0.0049432767555117,0.9998408555984496,0.0167900994420051,0.0004445965074874,0.0001931430912862,-0.0015204005160585,-0.0079714059829711,-0.0479134321212768,0.016815185546875,0,0,0,0
1.8,1788349881750,0.0,0.0,0.0027431943453848,-0.0053722863085567,0.9894506335258484,0.1447446495294571,0.0,0.0,0.0,0.0,0.0,0.0,0.0034157130867242,-0.0049677742645144,0.9998411536216736,0.0167764034122228,-0.0015592394903211,-0.000184969025115,-0.0004651608776791,0.0032307505607604,0.024490475654602,-0.008127212524414,0,0,0,0
1.9,1788349881850,0.0,0.0,0.0027431943453848,-0.0053722863085567,0.9894506335258484,0.1447446495294571,0.0,0.0,0.0,0.0,0.0,0.0,0.003357358276844,-0.0049756271764636,0.9998409748077391,0.0167974699288606,0.0003816689111175,0.0001607692508862,0.0012801825857245,0.0133516788482666,0.0282291173934936,0.0026721954345703,0,0,0,0
2.0,1788349881950,0.0,0.0,0.0027431943453848,-0.0053722863085567,0.9894506335258484,0.1447446495294571,0.0,0.0,0.0,0.0,0.0,0.0,0.003357358276844,-0.0049756271764636,0.9998409748077391,0.0167974699288606,0.0003816689111175,0.0001607692508862,0.0012801825857245,0.0133516788482666,0.0282291173934936,0.0026721954345703,0,0,0,0
2.1,1788349882050,0.0,0.0,0.0027431943453848,-0.0053722863085567,0.9894506335258484,0.1447446495294571,0.0,0.0,0.0,0.0,0.0,0.0,0.003357358276844,-0.0049756271764636,0.9998409748077391,0.0167974699288606,0.0003816689111175,0.0001607692508862,0.0012801825857245,0.0133516788482666,0.0282291173934936,0.0026721954345703,0,0,0,0
2.2,1788349882150,0.0,0.0,0.0027431943453848,-0.0053722863085567,0.9894506335258484,0.1447446495294571,0.0,0.0,0.0,0.0,0.0,0.0,0.0033549461513757,-0.0049785040318965,0.9998410940170288,0.0167825873941183,0.0007216233560227,0.0005019120534964,0.0019590622215205,-0.0350967049598693,-0.0148662328720092,0.0223207473754882,0,0,0,0
2.3,1788349882250,0.0,0.0,0.0027431943453848,-0.0053722863085567,0.9894506335258484,0.1447446495294571,0.0,0.0,0.0,0.0,0.0,0.0,0.0034367553889751,-0.0049128085374832,0.9998419284820556,0.016734205186367,0.000751801277508,-0.0017764462851106,0.0009539512966337,-0.0061151981353759,-0.0035630464553833,0.0044374465942382,0,0,0,0
2.4,1788349882350,0.0,0.0,0.0027431943453848,-0.0053722863085567,0.9894506335258484,0.1447446495294571,0.0,0.0,0.0,0.0,0.0,0.0,0.0033597834408283,-0.004901522770524,0.9998418688774108,0.0167632345110178,0.0005378994416205,0.0031507782407831,0.0002410711789821,-0.0099912881851196,-0.0055959820747375,0.0187950134277343,0,0,0,0
2.5,1788349882450,0.0,0.0,0.0027431943453848,-0.0053722863085567,0.9894506335258484,0.1447446495294571,0.0,0.0,0.0,0.0,0.0,0.0,0.0033362498506903,-0.0048904558643698,0.9998409748077391,0.016820503398776,0.0009911617102793,0.0007587644020428,-0.0012574137129932,-0.007721722126007,-0.0129660367965698,0.0044097900390625,0,0,0,0
2.6,1788349882550,0.0,0.0,0.0027090888470411,-0.0052594188600778,0.9894525408744812,0.1447369456291198,2.489742181291481e-05,-2.92267256291394e-05,1.3404390468412728e-07,0.0042663505300879,0.0019997553899884,0.0003102123737335,0.0033897021785378,-0.0048841433599591,0.9998409152030944,0.0168145187199115,-0.0010208339424755,0.0001819692813031,-0.0020627214707663,0.0145844221115112,0.0299553871154785,0.0207023620605468,0,0,0,0
2.7,1788349882650,0.0,0.0,0.0027223881334066,-0.0052794977091252,0.989447832107544,0.1447674930095672,-0.0001239485950382,0.0001419171882752,-2.139792698098025e-07,-0.000764716649428,0.0006591951241716,-0.0014143778244033,0.0033845687285065,-0.004866175353527,0.9998414516448976,0.0167872607707977,0.0012068768592447,-0.0013584238995327,0.0014311682379807,0.0093174576759338,0.0206850171089172,-0.0026798248291015,0,0,0,0
2.8,1788349882750,0.0,0.0,0.0027584913186728,-0.0052902554161846,0.989449679851532,0.144754096865654,-8.409440135357475e-05,9.653116359647712e-05,8.312916469666435e-08,-0.0008631601813249,-0.001276750350371,-0.000978295924142,0.0034082820639014,-0.0048798834905028,0.9998412728309632,0.0167937222868204,0.0009126771048735,-2.347417132129455e-06,0.001810784518592,-0.0198824405670166,-0.0041821599006652,-0.0117225646972656,0,0,0,0
2.9,1788349882850,0.0,0.0,0.0027191224507987,-0.0053012603893876,0.9894468784332277,0.1447735726833343,-0.0001063635905498,0.0001225759093546,1.353703929187077e-07,-0.0012006417382508,0.001283862045966,-0.0012141903862357,0.0033545969054102,-0.004906247369945,0.9998407363891602,0.0168281961232423,0.0007021326930107,0.000827464183185,6.765545492251713e-05,0.0045050382614135,-0.0234578251838684,0.0043983459472656,0,0,0,0
3.0,1788349882950,0.0,0.0,0.0027243657968938,-0.0052834800444543,0.9894535541534424,0.1447283625602722,0.000160286580106,-0.0001832222287125,9.045207819207774e-08,0.0006842085858806,-0.0006255488842725,0.0018320287344977,0.0034107277169823,-0.0048921555280685,0.9998416304588318,0.0167714040726423,4.4186898589066654e-05,-0.0019592890647019,-0.0002919083904216,0.0088116526603698,-0.0111352205276489,-0.0153179168701171,0,0,0,0
3.1,1788349883050,0.0,0.0,0.00272784428671,-0.005277972202748,0.9894548654556274,0.1447191387414932,1.29131123468173e-06,-2.2585004734867766e-07,-1.1147825359613693e-08,0.0002092284703394,0.0003147129609715,8.207912287616637e-06,0.0034161899238824,-0.0048735914751887,0.9998421669006348,0.0167430620640516,5.047715938161808e-05,-0.0009072170084569,-0.0004762416472307,0.0302522778511047,0.0009726285934448,0.0224390029907226,0,0,0,0
3.2,1788349883150,0.0,0.0,0.0027492474764585,-0.0052782869897782,0.9894545078277588,0.1447217017412185,-0.000155563463435,0.0001785308426434,-1.184213326126205e-07,-0.0006200023926794,0.0003966448712162,-0.0017845764523372,0.0033950759097933,-0.0048604449257254,0.9998419880867004,0.0167586244642734,0.0005803050692447,-0.0007177404433897,0.0018564604184981,0.0019394159317016,-0.0153791308403015,-0.0045547485351562,0,0,0,0
3.3,1788349883250,0.0,0.0,0.0027502551674842,-0.005270907189697,0.9894551634788512,0.1447170823812484,-5.840548532392986e-05,6.721373844960601e-05,-1.3115368346347332e-07,-0.0004485466633923,1.859538770077052e-06,-0.0006726164720021,0.0034107025712728,-0.0048825973644852,0.9998417496681212,0.0167635194957256,-0.0004868155907065,-0.0005332533020149,0.000246823238709,-0.0343000292778015,-0.0221651196479797,0.0062017440795898,0,0,0,0
3.4,1788349883350,0.0,0.0,0.0027648592367768,-0.0052623888477683,0.989462912082672,0.1446640193462371,0.0001724220557857,-0.0001974561000838,-1.571852238551831e-07,0.0007146873394958,-0.000216858490603,0.0019774762913584,0.0034291511401534,-0.0048907808959484,0.9998419284820556,0.0167512912303209,-0.000925545213509,0.0003955107959196,-0.001686161147446,0.0192242264747619,-0.0255622863769531,-0.008148193359375,0,0,0,0
3.5,1788349883450,0.0,0.0,0.0027630156837403,-0.0052746934816241,0.9894603490829468,0.1446814090013504,-1.8472910371578732e-05,2.08199613198584e-05,3.299828441183957e-07,-0.0002057659003185,0.0003188014088664,-0.0002030878968071,0.0034291539341211,-0.0048807524144649,0.9998425245285034,0.0167187135666608,-0.000661441823875,0.0008918170134412,-0.0001062962689095,0.0138380527496337,-0.0383451581001281,0.0008058547973632,0,0,0,0
3.6,1788349883550,0.0,0.0,0.0027905728202313,-0.0052700024098157,0.989463210105896,0.1446618139743805,0.0,0.0,0.0,0.0,0.0,0.0,0.0034212814643979,-0.0048759430646896,0.9998422861099244,0.0167289115488529,0.0007296968587763,-2.6533646222621724e-06,0.0011014926672239,0.0121945738792419,0.0100387334823608,0.0099134445190429,0,0,0,0
3.7,1788349883650,0.0,0.0,0.0027909348718822,-0.005267328582704,0.9894632697105408,0.1446615606546402,0.000101532591299,-0.000116583698154,1.59436848146767e-07,0.0007135359919629,-0.0007171393372118,0.0011630466906353,0.0034378692507743,-0.0048415940254926,0.9998423457145692,0.0167325567454099,0.0018254913482099,-0.0012501580728065,0.0007825702402885,-0.0024856925010681,-0.0247297286987304,-0.0027437210083007,0,0,0,0
3.8,1788349883750,0.0,0.0,0.0027903208974748,-0.0052348803728818,0.9894614815711976,0.14467453956604,-4.542758810754529e-05,5.263498450546154e-05,2.3344088125857594e-07,0.0012720189988613,0.0002134451497113,-0.0005246737855486,0.0034703779965639,-0.004808154888451,0.999842405319214,0.0167345274239778,0.0007587466976594,6.191696495777693e-06,-0.0020746225666498,0.007662296295166,0.0356672406196594,0.0010137557983398,0,0,0,0
3.9,1788349883850,0.0,0.0,0.0028258187230676,-0.0052131214179098,0.9894600510597228,0.1446847468614578,0.0,0.0,0.0,0.0,0.0,0.0,0.0034758625552058,-0.004795697517693,0.9998427629470824,0.0167152844369411,-0.0006118295777959,0.0001631485821441,6.444344650606317e-05,-0.0193721055984497,-0.0093969106674194,-0.0296363830566406,0,0,0,0
4.0,1788349883950,0.0,0.0,0.0028306862805038,-0.0051977979019284,0.9894635677337646,0.1446607708930969,0.0,0.0,0.0,0.0,0.0,0.0,0.0034912321716547,-0.004830764606595,0.9998427629470824,0.016700480133295,-0.0012016089416301,-0.000714870856336,0.0016701890917468,6.091594696044922e-05,0.0073871612548828,-0.0008344650268554,0,0,0,0
4.1,1788349884050,0.0,0.0,0.0028436302673071,-0.0052563692443072,0.9894636869430542,0.1446580737829208,0.0001321893756514,-0.0001517731578786,2.330818241581798e-08,-0.0009717980865389,-0.000541151035577,0.0015136743895709,0.0034642741084098,-0.0048495782539248,0.9998422861099244,0.0167295280843973,0.0008784466076811,0.0005027130544723,0.0004048369467934,-0.0102042555809021,-0.0407593846321105,0.0134162902832031,0,0,0,0
4.2,1788349884150,0.0,0.0,0.002834944287315,-0.0052417395636439,0.9894649386405944,0.1446499675512313,2.829217123294116e-05,-3.245615717378489e-05,8.07040298454027e-08,0.0005279973265714,0.0004252817016094,0.0003266115963924,0.0034431852400302,-0.0048394929617643,0.999842405319214,0.0167264007031917,-0.0013880774458459,0.0023141403483653,-0.001530575884078,0.0045811533927917,0.0111486315727233,0.0117559432983398,0,0,0,0
4.3,1788349884250,0.0,0.0,0.0027754982002079,-0.0052439575083553,0.9894612431526184,0.1446764022111892,0.0,0.0,0.0,0.0,-1.0639582548321869e-08,0.0,0.0033895606175065,-0.0048577617853879,0.999843180179596,0.016690345481038,-0.0001423666317823,0.0005333680890874,-0.0015308147414578,0.0182065367698669,-0.013582170009613,0.0027217864990234,0,0,0,0
4.4,1788349884350,0.0,0.0,0.0027474218513816,-0.0052510723471641,0.989469826221466,0.1446182876825332,0.0,0.0,0.0,0.0,0.0,0.0,0.003413837403059,-0.0048353048041462,0.9998438954353333,0.0166469831019639,0.0004277767707303,-0.0009823870434559,0.0028079438078362,-0.0235649943351745,0.0255024433135986,0.0010194778442382,0,0,0,0
4.5,1788349884450,0.0,0.0,0.0028017172589898,-0.0052300621755421,0.989472508430481,0.1445993185043335,0.0001724731896577,-0.0001966573694014,1.2470635750647332e-07,0.000558539351914,-0.0022999113425612,0.0019509519916027,0.0034616170451045,-0.004850385710597,0.9998434782028198,0.0166624635457992,-0.0010280873985648,-0.0005310254480996,-0.0002877341234799,-0.013719618320465,-0.024443507194519,-0.0224390029907226,0,0,0,0
4.6,1788349884550,0.0,0.0,0.0028396917041391,-0.0052462257444858,0.9894744157791138,0.1445847600698471,5.3679031186931874e-05,-6.206478055214987e-05,-3.473456386034719e-07,-0.000437358423369,-0.0016731629148125,0.0006073599797673,0.0035014282912015,-0.0048575801774859,0.9998437166213988,0.0166378766298294,-0.0011745042589935,-0.0008620698820898,-0.0002803344435299,0.0142359733581542,0.0007767677307128,0.0009927749633789,0,0,0,0
4.7,1788349884650,0.0,0.0,0.002799623645842,-0.0052621611393988,0.9894713759422302,0.1446060240268707,-1.7737781589193844e-05,2.070122431681583e-05,3.251047380697126e-07,0.0002743924851529,0.0009933320106938,-0.0001951543090399,0.003431562334299,-0.0048781763762235,0.9998438358306884,0.016633927822113,-0.0012063185471241,0.0003601425665957,-0.0006417697395079,0.0030306577682495,-0.0293389558792114,0.008096694946289,0,0,0,0
4.8,1788349884750,0.0,0.0,0.0027726090047508,-0.0052801123820245,0.989472508430481,0.1445980668067932,-7.848049112573715e-05,9.050456671669904e-05,2.48181876078973e-07,-0.0006079942686483,0.0003193950688,-0.0009032973903231,0.0034422418102622,-0.0048636067658662,0.9998444318771362,0.0166040025651454,0.0012749518100903,-0.0028430420099684,0.0025537272708144,0.0046300888061523,-0.0009059906005859,0.017155647277832,0,0,0,0
4.9,1788349884850,0.0,0.0,0.0028007761575281,-0.0052883420139551,0.9894741773605348,0.1445855796337127,-0.0001063298389416,0.0001211223069295,1.1239378049281833e-07,-0.0008961873827502,-0.0005301826167851,-0.0012203785590827,0.0034149251878261,-0.0048929611220955,0.9998437762260436,0.0166400615125894,0.0010344714678376,0.0005992385873522,0.0016794738515175,0.0015673637390136,-0.0182879567146301,0.0207042694091796,0,0,0,0
5.0,1788349884950,0.0,0.0,0.0027774949558079,-0.0052984040230512,0.9894758462905884,0.1445739716291427,0.0001285115293449,-0.0001458783916401,1.8750468442222454e-07,0.0004273219092283,-0.000333124451572,0.0014630244113504,0.0034440327435731,-0.0048999516293406,0.999843180179596,0.0166635867208242,3.351051558388832e-05,-0.0003470178851404,-0.0011771208193294,-0.0223430395126342,0.0124361515045166,-0.0043582916259765,0,0,0,0
5.1,1788349885050,0.0,0.0,0.0027603879570961,-0.0052855648100376,0.989473283290863,0.1445923596620559,9.03953543628376e-05,-0.0001031034088604,-2.429500115423986e-07,0.0005214698612689,0.0013714644592255,0.0010501648066565,0.0034336149692535,-0.0048691472038626,0.999843955039978,0.0166309718042612,2.9554663417857012e-05,-0.0011796091348531,-0.0004456780996933,0.0066120624542236,-0.0025661587715148,0.0099830627441406,0,0,0,0
5.2,1788349885150,0.0,0.0,0.0027918750420212,-0.00527183432132,0.9894726276397704,0.1445974111557006,-6.7736620201901e-05,7.780387475832178e-05,7.107197833929739e-08,-8.557061664760113e-05,-0.0007178783998824,-0.0007865582010708,0.0034194774925708,-0.0049021337181329,0.9998438358306884,0.0166279692202806,-0.0001450283854377,-0.0001755043803801,0.0018421359144694,-0.0182669758796691,0.0088213086128234,0.0261764526367187,0,0,0,0
5.3,1788349885250,0.0,0.0,0.0027818139642477,-0.005301437806338,0.9894707798957824,0.1446089148521423,-0.0001580643040104,0.0001818720322687,-1.9000727005329914e-07,-4.970691225025803e-05,-0.0008085498702712,-0.0018299791263416,0.0033846823498606,-0.0048888213932514,0.9998437166213988,0.0166505295783281,0.0005242898454188,0.0012040926387263,0.0014072674947424,-0.012175440788269,-0.0146731734275817,-0.0151901245117187,0,0,0,0
5.4,1788349885350,0.0,0.0,0.0027393009513616,-0.005276346579194,0.9894707798957824,0.1446104496717453,4.888477295912892e-05,-5.580842709723332e-05,2.0002826947992037e-09,0.0003805262967944,8.620641892775893e-05,0.0005573207745328,0.0033975522965192,-0.0049035111442208,0.9998430609703064,0.0166821405291557,-0.0013357645280342,0.0002078017896194,-0.0012984670633671,0.0199019908905029,-0.0467048287391662,-0.0224342346191406,0,0,0,0
5.5,1788349885450,0.0,0.0,0.0027422490529716,-0.0052907043136656,0.9894715547561646,0.1446050703525543,0.0001240876685316,-0.0001426268954667,-1.5273839485890194e-07,0.0002731052227318,-0.0002470645995344,0.0014254272682592,0.0034079626202583,-0.0048830145969986,0.9998433589935304,0.0166698228567838,-0.0006762555191469,0.0016076826543658,-0.0018805242587006,0.0071308612823486,0.0300757884979248,-0.0024805068969726,0,0,0,0
5.6,1788349885550,0.0,1.7183098793029783,0.0027543271426111,-0.0052793668583035,0.9894692301750184,0.1446207612752914,-9.833907102587188e-05,0.0001120297189339,1.0412489344489153e-08,-0.0004002125351689,0.0009517074795439,-0.0011178166605532,0.0034475000575184,-0.0049047283828258,0.9998425245285034,0.0167071260511875,-0.0023067569464104,-0.0054168906385591,-0.003015848056399,1.1809648275375366,0.0967406630516052,-0.0419607162475585,308,85,7043,7113
5.7,1788349885650,2.11267614364624,4.14084529876709,0.0029227680061012,-0.0053087249398231,0.9897604584693908,0.1426095962524414,0.0450608825512995,-0.0005662741974427,1.3273791862287684e-05,-0.0007187917944975,-0.0102571500465273,0.1040289625525474,0.0032136952504515,-0.004909748211503,0.9999393224716188,0.0093205729499459,0.0048324967767578,0.0014696543660105,0.2581438265601321,0.6581355333328247,0.1597378253936767,0.1609630584716797,79,229,7322,15343
5.8,1788349885750,3.239436626434326,6.563380241394043,0.0022258085664361,-0.0051668565720319,0.9920440316200256,0.1257655322551727,0.115899900377901,0.0002374359906369,-1.0524314944010212e-05,0.0042766146361827,0.0066019315272569,0.3774142265319824,-0.0027638105675578,0.0046973619610071,-0.9998507499694824,0.0163956005126237,0.0082622728277784,0.0037146725321845,0.4938184974591577,0.1322620511054992,0.201369822025299,0.3871212005615234,70,224,9951,20693
5.9,1788349885850,3.014084577560425,7.126760482788086,0.0020193103700876,-0.005008724052459,0.9946544766426086,0.1031181439757347,0.1708319895461805,0.0005418409914838,6.38986925583666e-05,0.007609961554408,-0.0023071873001754,0.5553533434867859,-0.0021029477939009,0.0047398963943123,-0.9990572333335876,0.0431023575365543,0.0019498167772664,0.0225346253848833,0.6215995541925412,-0.5797910094261169,-0.0834897756576538,0.7525129318237305,80,98,10636,19220
6.0,1788349885950,3.070422649383545,6.929577350616455,0.0016218507662415,-0.004846598021686,0.9972721338272096,0.073636420071125,0.1794819066300662,0.0018464984671596,6.564873533621815e-05,0.0084066102281212,-0.0027321008965373,0.5819883942604065,-0.0022687697783112,0.0044347178190946,-0.997602880001068,0.0690203234553337,0.009946432926945,0.0050516398997058,0.5706365128847046,-0.2126371264457702,0.0816868543624877,0.2986068725585937,106,114,10230,19293
6.1,1788349886050,3.014084577560425,6.985915660858154,0.001208301866427,-0.0044066775590181,0.9990997314453124,0.0421770587563514,0.1719800469996732,-0.003693578570877,-3.220704423821567e-05,0.0116221522912383,0.0143087729811668,0.5710965991020203,-0.0014184638857841,0.004316359758377,-0.9955559968948364,0.0940618589520454,-0.0027784371295075,0.0274970379824384,0.5025298449294534,-0.2783764004707336,0.0628682374954223,0.1853055953979492,106,131,10593,18866
6.2,1788349886150,3.126760482788086,6.901408672332764,0.0009738316875882,-0.0044573307968676,0.9994033575057985,0.0342350304126739,0.1716587323909915,0.0019007174770386,-5.505691724464471e-05,-0.0033152466639876,0.0132102109491825,0.5316938757896423,-0.0015566293150186,0.0041800970211625,-0.9947651028633118,0.102090910077095,0.0080679215978417,-0.0116957185209773,0.5040194389224816,0.003155767917633,-0.0775312185287475,0.1365346908569336,111,87,10765,18623
6.3,1788349886250,3.126760482788086,6.901408672332764,0.0009738316875882,-0.0044573307968676,0.9994033575057985,0.0342350304126739,0.1716587323909915,0.0019007174770386,-5.505691724464471e-05,-0.0033152466639876,0.0132102109491825,0.5316938757896423,-0.0015566293150186,0.0041800970211625,-0.9947651028633118,0.102090910077095,0.0080679215978417,-0.0116957185209773,0.5040194389224816,0.003155767917633,-0.0775312185287475,0.1365346908569336,111,87,10765,18623
6.4,1788349886350,3.2957746982574463,6.704225540161133,-0.0008800157811492,0.0035912112798541,-0.9994994401931764,0.0314177498221397,0.1721194173532292,-0.0016933458063104,-1.6893880278723333e-05,0.0052909771911799,0.0139523735269904,0.4661291837692261,-0.0017819358035922,0.003669437021017,-0.9852660298347472,0.1709802001714706,-0.0087701747582256,-0.0062641543873684,0.4670645211556232,-0.4874541759490967,-0.0056948661804199,0.6106882095336914,95,112,11192,17940
6.5,1788349886450,3.7183098793029785,6.676056385040283,-0.0014147573383525,0.003491178387776,-0.998312771320343,0.0579432919621467,0.1676871831961052,-0.0044939973095906,1.3116498674010588e-05,0.013320923782885,-0.0045236865989863,0.4895193874835968,-0.0015816688537597,0.0032844571396708,-0.9813339114189148,0.1922773122787475,0.003375186567551,0.0213113051157554,0.4553327113709033,-0.077224314212799,-0.0617168545722961,-0.1634912490844726,81,111,9978,18071
6.6,1788349886550,3.6619718074798575,6.507042407989502,-0.0013717688852921,0.0033389520831406,-0.9966968297958374,0.0811315476894378,0.171944417228716,0.0021543168032349,4.630991009502391e-06,0.0037159982603043,-0.0066575366072356,0.4690956473350525,-0.0016286298632621,0.0028880201280117,-0.9759748578071594,0.2178579121828079,0.0152526617218416,-0.0036517418348171,0.3599395942519309,0.0852060317993164,-0.1926888823509216,0.5851726531982422,147,75,12654,16211
6.7,1788349886650,3.633802890777588,6.366197109222412,-0.0011456647189334,0.0030745053663849,-0.9952743649482728,0.0970471501350402,0.1726129256013111,-0.0012267204997706,-6.1855553601353884e-06,0.0010648504830896,0.0036425667349249,0.3050749599933624,-0.001291531138122,0.0027354247868061,-0.9726334810256958,0.2323253601789474,0.0053052112998817,0.0170613473600223,0.370203125202613,-0.0570247769355773,0.0525147914886474,-0.0105810165405273,127,116,12452,17162
6.8,1788349886750,4.0,6.197183132171631,-0.0008648785296827,0.0028122363146394,-0.993461847305298,0.1141266673803329,0.1688993768966322,0.0072824805312862,4.939057513973731e-05,0.0016948358388617,0.0063894763588905,0.3381212055683136,-0.0018736086785793,0.0023826668038964,-0.9688751101493835,0.2475313991308212,-0.0079754939299897,-0.0455028825330134,0.3583868016511475,0.4432389140129089,0.4871517419815063,-0.7492952346801758,46,109,11102,17666
6.9,1788349886850,4.02816915512085,6.422535419464111,-0.0011889371089637,0.0026213470846414,-0.9913164973258972,0.1314657926559448,0.1687585376016769,0.0030114540047159,7.090205165275183e-05,0.0038334119599312,0.0016718405531719,0.3539934456348419,-0.0013102088123559,0.0020840931683778,-0.9633970260620116,0.2680674195289612,0.0068365621419784,0.0384717809174226,0.3512211833336404,-0.6320162415504456,-0.4457679390907287,1.3044805526733398,118,117,11086,16885
7.0,1788349886950,4.535211086273193,6.0,-0.0012343999696895,0.002050383714959,-0.9885231852531432,0.1510503888130188,0.1734812817004621,0.0009390772735148,-4.6206670849198025e-06,0.007673630490899,0.003958020824939,0.3578324615955353,-0.001449042931199,0.0019011478871107,-0.9589651823043824,0.2835138440132141,-0.0013931122278565,0.0153904430430963,0.331917522970532,0.0140224695205688,-0.2068420052528381,-0.3848342895507812,113,82,11590,16057
7.1,1788349887050,4.394366264343262,5.88732385635376,-0.0016403816407546,0.0017134074587374,-0.9862060546875,0.1655055284500122,0.1667148560834941,0.0032551458646426,0.0001027317051109,0.0071981367655098,-0.0262672193348407,0.2853704392910003,-0.0022639455273747,0.0014201365411281,-0.9555020332336426,0.2949725091457367,-0.0013985384539179,-0.0446381372391738,0.2218142403640449,0.3340437412261963,0.0754081606864929,0.0183525085449218,120,113,13473,16263
7.2,1788349887150,4.422535419464111,5.97183084487915,-0.0017926029395312,0.0018105668714269,-0.9842243194580078,0.1769070327281952,0.1813648409849377,-0.0028012175950537,-4.7076877694499376e-05,-0.0022906349040567,0.0060821515507996,0.2408585101366043,-0.0019098212942481,0.0015094326809048,-0.9510743021965028,0.308952659368515,0.0040031829165736,-0.0112694603813289,0.2444490827815402,0.0042692422866821,0.2563485503196716,-0.4985923767089844,74,120,11652,16423
7.3,1788349887250,4.2253522872924805,6.169013977050781,-0.0017488186713308,0.0016888733953237,-0.9819279909133912,0.1892395913600921,0.1799484538867492,-0.0010640682790759,-1.219421719638025e-05,0.0021000322885811,-0.0026542653795331,0.2509905099868774,-0.0022599827498197,0.0012158146128058,-0.9470564126968384,0.3210570812225342,0.0056676661172598,-0.0164614459406203,0.2860529946692682,-0.0666317343711853,0.0129503607749938,0.1330146789550781,16,172,9883,18040
7.4,1788349887350,3.8309860229492183,6.366197109222412,-0.0018988524097949,0.0017648515058681,-0.978779435157776,0.2048998922109604,0.1679635548502396,0.0074943102585039,3.237361495938389e-06,-0.0083355968818068,0.0079218065366148,0.3330053985118866,-0.0019218875095248,0.0013880310580134,-0.9415947794914246,0.3367398083209991,0.0100267272244924,0.016150132343823,0.3890147615733896,-0.0747385025024414,0.1191686391830444,-0.0768871307373046,160,129,11411,17413
7.5,1788349887450,3.859154939651489,6.366197109222412,-0.0017405033577233,0.001499522710219,-0.974980354309082,0.2222788482904434,0.1646915979079725,0.003209105557611,1.7136523502930353e-05,0.004844264127314,0.002930536866188,0.3733633756637573,-0.001847406849265,0.00124226603657,-0.9356387257575988,0.3529523909091949,-0.0029250161726013,0.0034048052232152,0.3999661356618395,-0.0503093600273132,0.2336353063583374,-0.2580013275146484,153,121,11703,17210
7.6,1788349887550,3.88732385635376,5.943662166595459,-0.0014154086820781,0.0015758003573864,-0.9707070589065552,0.2402569353580474,0.1712039534923681,0.0021944188000177,4.864893382467648e-05,0.0001696525578154,0.0047006397508084,0.3565856218338012,-0.0019910670816898,0.0013335570693016,-0.928560197353363,0.3711742460727691,-0.0113476964714048,0.0026364317325299,0.2361605569577342,-0.1361229419708252,-0.1864369511604309,0.2078971862792968,167,94,13757,16081
7.7,1788349887650,3.802816867828369,6.0,-0.0018459615530446,0.0014834430767223,-0.9673742651939392,0.2533406317234039,0.1731011543666363,0.0003918886609413,2.8198051694256904e-05,0.0006776105728931,-0.003437154693529,0.2332549393177032,-0.0018228571861982,0.0010005803778767,-0.924312174320221,0.3816317319869995,0.0206694779093899,0.0074325720252122,0.2957609675983197,0.1362733840942382,-0.1793153882026672,-0.3990888595581054,147,108,13824,16210
7.8,1788349887750,4.394366264343262,5.85915470123291,-0.0020067819859832,0.0012877704575657,-0.9636944532394408,0.266997218132019,0.1820209356235786,0.0013616102329321,-2.2916951502852768e-05,-0.0011126219760626,-0.0082831662148237,0.257131427526474,-0.0014968169853091,0.0010251384228467,-0.920002818107605,0.3919076323509216,0.0168785497334492,0.0432291350525206,0.2402888303215551,-0.1338801980018615,0.0148478746414184,-0.465153694152832,70,112,11667,16742
7.9,1788349887850,4.422535419464111,5.85915470123291,-0.0015859613195061,0.001489462563768,-0.9607357382774352,0.2774568200111389,0.1686537882314049,0.0006114989244418,-5.2257305194673886e-05,-0.0094568822532892,0.0217318888753652,0.2374453842639923,-0.0018990645185112,0.0011834669858217,-0.914206326007843,0.4052430689334869,0.018174908479494,-0.0147432754345651,0.2245200892874536,-0.2634789943695068,-0.1399610638618469,0.0319480895996093,40,133,11613,16948
8.0,1788349887950,4.535211086273193,5.830986022949219,-0.0013647072482854,0.0015531587414443,-0.9572070240974426,0.2893967628479004,0.1736919162471797,0.0009818762934181,7.255637663620786e-05,0.0073015298694372,-0.0013687789905816,0.2564190030097961,-0.0018740175291895,0.0015404215082526,-0.9095873832702636,0.4155056178569793,-0.0043243279558466,0.045570296478657,0.2423865360962564,-0.5600883960723877,-0.4045840501785278,1.3854398727416992,69,143,11023,17017
8.1,1788349888050,4.394366264343262,5.746479034423828,-0.0016540082870051,0.0018161460757255,-0.9533294439315796,0.3019220530986786,0.162093033073899,0.0049629663335142,4.962019272816317e-05,-0.0054122377187013,0.0039278729818761,0.283965528011322,-0.0019530272111296,0.0016032196581363,-0.904199481010437,0.4271030128002167,-0.010779409963995,-0.0044466987588322,0.2757635133350566,0.4818803668022156,0.004326045513153,-0.4038963317871094,115,38,13976,14863
8.2,1788349888150,4.478873252868652,5.464788913726807,-0.0012400846462696,0.0019556628540158,-0.9495382905006408,0.3136426210403442,0.1728269115780629,0.0015715030678522,-3.187219729317873e-05,0.0006046775961294,0.0156174004077911,0.1928770244121551,-0.0011145286262035,0.002187917008996,-0.900180459022522,0.4355102479457855,-0.0017652533007208,0.0650010247304787,0.1335152655631111,-0.51848304271698,-0.043944239616394,0.8277664184570312,123,129,13631,15903
8.3,1788349888250,4.535211086273193,5.633802890777588,-0.0010618108790367,0.0025160002987831,-0.9476379156112672,0.3193351924419403,0.1775062219089965,6.603218451020897e-05,5.3789848885662685e-06,-0.011694454587996,-6.972379196668044e-05,0.1417692452669143,-0.0014340803027153,0.0024752207100391,-0.8972302079200745,0.441553920507431,-0.0064472671231512,-0.0060907287380398,0.1650071699527595,-0.0594291090965271,0.1205101013183593,-0.0247936248779296,54,124,13137,15506
8.4,1788349888350,4.11267614364624,5.7183098793029785,-0.0012770090252161,0.0027902820147573,-0.9454213976860046,0.3258357048034668,0.1765266829512862,0.0016782874337587,1.862720175772732e-05,-0.0093811806291341,-0.0057796477340161,0.1434030383825302,-0.0017824647948145,0.0025026081129908,-0.8938673138618469,0.448320984840393,-0.0042370810141606,-0.0240473512342999,0.2046919979164739,0.1541231870651245,0.3690872192382812,0.3908224105834961,76,139,12281,17702
8.5,1788349888450,3.9718310832977295,6.056337833404541,-0.0013136864872649,0.0030868181493133,-0.9416549205780028,0.3365632593631744,0.1661101975274956,0.0060234145972673,4.142746091286455e-06,-0.0066541461274027,-0.0129919797182083,0.2717370688915252,-0.0018593464046716,0.002937021665275,-0.8878235220909119,0.4601710736751556,-0.0046205669886755,-0.0082450308630112,0.2597781076698943,-0.0399757027626037,-0.0689729452133178,0.0771541595458984,65,98,13003,16268
8.6,1788349888550,4.450704097747803,6.02816915512085,-0.0014912521000951,0.0031925938092172,-0.936696708202362,0.3501239120960235,0.1632659366304165,0.0073019531439598,1.575545584923659e-05,-0.0014779295306652,-0.0011708403471857,0.26327645778656,-0.0017256056889891,0.0032706102356314,-0.8803319334983826,0.4743437469005584,-0.0021533842072774,0.010702333832989,0.2988144075793199,-0.1107672452926635,0.0231673717498779,0.2605867385864258,106,110,11604,16340
8.7,1788349888650,4.8450703620910645,5.521126747131348,-0.0015567945083603,0.0033014023210853,-0.9318674802780152,0.3627806007862091,0.1697684739791032,0.0095903366077397,1.2258615405064909e-05,0.0020455291960388,-0.0114584667608141,0.2702902853488922,-0.0021598944440484,0.0028991848230361,-0.8754696846008301,0.4832594394683838,0.0017646014122524,-0.0135464409130061,0.1445735981510059,-0.0400547981262207,-0.037382960319519,-0.1292991638183593,60,103,12501,15346
8.8,1788349888750,4.3380279541015625,5.549295902252197,-0.0019270660122856,0.0030216919258236,-0.9292608499526978,0.3694068789482116,0.1704470611996583,-0.000418906639464,2.8641444424576166e-05,0.0031854591798037,-0.009907734580338,0.1208552494645118,-0.0026488257572054,0.002556693740189,-0.8724492192268372,0.4886910319328308,-0.0014529409364125,-0.0362491434931384,0.151853934213126,0.3330556154251098,-0.1035453677177429,0.0233316421508789,139,114,13908,15652
8.9,1788349888850,4.929577350616455,5.605633735656738,-0.0025385236367583,0.0025371266528964,-0.9258936047554016,0.377767264842987,0.1647321385644617,0.0051341145563385,4.092932337658939e-05,0.0131120225414633,-0.0201213005930185,0.1613351553678512,-0.0028878767043352,0.0016783354803919,-0.8677930235862732,0.4969147443771362,0.0180150502802476,-0.038442546794487,0.1474176415097419,0.1488206386566162,0.0882585644721984,-0.4737691879272461,84,93,12008,15259
9.0,1788349888950,4.3380279541015625,5.549295902252197,-0.0026043131947517,0.0017789819976314,-0.923118531703949,0.3845023512840271,0.1663223672909195,0.0021908878119955,-0.0001238323985424,0.0114953247830271,-0.0051911734044551,0.1368296593427658,-0.0022188620641827,0.0012529492378234,-0.8646559715270996,0.5023579597473145,0.0272870421432442,0.0269281424065189,0.1435935736130519,-0.0714907050132751,-0.1493298411369323,-1.3833236694335938,58,95,13990,15559
9.1,1788349889050,4.732394218444824,5.633802890777588,-0.0024101056624203,0.0011643331963568,-0.920551300048828,0.3906124830245971,0.1777618716220618,0.0022233510490144,6.177962498219697e-05,0.0059088412672281,-0.0027685430832207,0.1498465836048126,-0.002824536524713,0.0001474423334002,-0.8610897064208984,0.5084452033042908,0.0124505151745517,-0.0188661123587988,0.1640228781404761,0.5180073380470276,0.0679979920387268,-0.6263618469238281,144,123,12637,15218
9.2,1788349889150,4.478873252868652,5.492957592010498,-0.0023678224533796,0.0002151050139218,-0.9175549745559692,0.3976017534732818,0.1704418453328976,0.0015541845282634,4.741427584151423e-05,0.0182678569108247,0.0060020429082214,0.146445631980896,-0.0022606393322348,-0.0002468349412083,-0.8567833304405212,0.5156716108322144,0.007304723038904,0.0604152958567832,0.1334167360418044,-0.2829920649528503,-0.0523176193237304,0.323185920715332,59,105,13383,15712
9.3,1788349889250,4.169013977050781,5.521126747131348,-0.0028928874526172,-0.0002299530315212,-0.9144451022148132,0.4046994745731354,0.1794621850568389,0.0032810600922284,7.116686429924334e-05,0.0009734854102134,-0.0207876786589622,0.1511182337999344,-0.002971151843667,-0.0007785204797983,-0.8530046939849854,0.5218943357467651,-0.0005584117338882,-0.0367730493998887,0.1665757276842454,0.4758049845695495,0.2198978066444397,0.1122684478759765,129,124,14453,15718
9.4,1788349889350,4.253520965576172,5.549295902252197,-0.002691704314202,-0.0005359491915442,-0.9110159873962402,0.4123619496822357,0.164582381824776,0.003270682624731,-6.290004759460058e-05,0.0093491962179541,0.0066306702792644,0.1607542484998703,-0.0030486397445201,-0.0008864058181643,-0.8494004607200623,0.5277392864227295,-0.0156696667860237,-0.0236295857742937,0.1336910611568031,-0.1549460887908935,0.0015141367912292,-0.4147233963012695,101,95,12322,15301
9.5,1788349889450,5.154929637908936,5.211267471313477,-0.0033457833342254,-0.0008547840989194,-0.908366560935974,0.4181605279445648,0.166948805173632,0.000532720318139,-1.55951531045306e-05,0.0130554996430873,-0.0113034890964627,0.1528826206922531,-0.0033020516857504,-0.001479310914874,-0.8446690440177917,0.5352766513824463,-0.0084518321986817,-0.0238466711324436,0.162955592247196,0.2584398984909057,0.0217917561531066,0.3075685501098633,120,58,13326,14419
9.6,1788349889550,4.478873252868652,5.521126747131348,-0.00325338402763,-0.0008697930607013,-0.9057811498641968,0.4237324893474579,0.1705590124587216,0.0037534488569936,-3.854929322037062e-05,-0.0071800709702074,0.0064023616723716,0.0944266617298126,-0.0033411020413041,-0.0013890359550714,-0.8421569466590881,0.5392203330993652,0.0052365658183921,-0.0058176581011279,0.1486010376595327,0.0002365112304687,0.1988545656204223,0.0672540664672851,85,126,13009,15882
9.7,1788349889650,4.901408672332764,5.352112770080566,-0.0036914688535034,-0.0010243919678032,-0.9027664661407472,0.4301139116287231,0.1651006320415003,0.0079612462273687,1.4548100528103116e-06,0.0006535816937685,-0.006830436643213,0.1637549251317978,-0.0035448390990495,-0.0013883393257856,-0.8382359743118286,0.5452945232391357,-0.0059818992750196,0.0004836966577211,0.1521219329937308,0.0795753598213195,0.0755573511123657,0.1711587905883789,240,56,14213,14149
9.8,1788349889750,4.732394218444824,5.154929637908936,-0.0039372113533318,-0.0007834244170226,-0.9004601836204529,0.4349199831485748,0.1704760032460322,0.0033364326186151,2.548600193051284e-05,-0.0084800403565168,-0.0053615593351423,0.0849699899554252,-0.0039307177066802,-0.0013234345242381,-0.8372887372970581,0.5467453598976135,-0.0013470623768787,-0.0076235558095896,-0.0079819415770506,-0.0194229483604431,0.1905184388160705,0.1427240371704101,92,141,14748,14642
9.9,1788349889850,4.563380241394043,5.183098793029785,-0.0040986337698996,-0.0008181337616406,-0.9005144834518433,0.4348060488700866,0.1765200529942536,0.0016816668266309,-1.8864886316272894e-07,0.0,0.0,0.0,-0.0045346263796091,-0.0011004311963915,-0.8361687660217285,0.5484524965286255,-0.0137706950702902,-0.0005090817331045,0.0635164232267509,-0.1256977319717407,0.049699068069458,0.2429800033569336,154,99,16066,13971
10.0,1788349889950,4.704225540161133,5.295774459838867,-0.0047597037628293,-0.0005494186189025,-0.8995527029037476,0.4367859065532684,0.1766111815772406,0.0006879737556378,3.0211470519612465e-05,-0.0049396809190511,-0.0057789026759564,0.0181625951081514,-0.0054071098566055,-0.0013599349185824,-0.8357817530632019,0.5490334630012512,0.0119496783214684,-0.0293868694034737,0.047935940818558,-0.1158189177513122,-0.1426677703857422,0.2408742904663086,55,112,15215,13657
10.1,1788349890050,5.014084339141846,4.788732528686523,-0.0058135772123932,-0.0006821181159466,-0.899407148361206,0.4370727241039276,0.1733634044983627,0.0001894112873395,5.429297639810072e-06,-0.0039654150605201,-0.0116709107533097,-0.0200383402407169,-0.0059700990095734,-0.0012673148885369,-0.8367139101028442,0.5476062893867493,-0.0180297325330071,-0.0007283417225245,-0.06767534438819,0.03401380777359,0.2730447053909302,-0.0003919601440429,47,110,15565,13937
10.2,1788349890150,5.211267471313477,5.098591327667236,-0.0063737533055245,-0.0002449029125273,-0.9005935192108154,0.4346154332160949,0.1595869822987543,-0.0034070651744874,4.771083557766496e-05,-0.0155821917578578,-0.0042225895449519,-0.0425580628216266,-0.0063814092427492,-0.0015817275270819,-0.8381071090698242,0.5454661846160889,0.0114956615734324,-0.0022623866289656,-0.0236844368943102,-0.2690342664718628,0.4062331914901733,0.183176040649414,87,105,13592,14019
10.3,1788349890250,5.352112770080566,5.098591327667236,-0.0065015568397939,-0.0007821769686415,-0.9012224674224854,0.4333073198795318,0.1627003042362094,0.0007047940974999,-1.2323599726867338e-05,0.002180550713092,0.0061862068250775,-0.0218825172632932,-0.0065451543778181,-0.0020136721432209,-0.8383655548095703,0.5450655221939087,0.0033430767680142,-0.0154668828374915,-0.008095455414808,-0.1040155887603759,-0.1673885583877563,0.4386987686157226,97,100,13367,14038
10.4,1788349890350,4.901408672332764,5.126760482788086,-0.0068544931709766,-0.0012287168065086,-0.9012600779533386,0.4332224726676941,0.1690123421853002,-0.0009261048213197,7.124114086776022e-05,0.0048687611706554,-0.0130104627460241,-0.000740458490327,-0.0067233983427286,-0.0021163551136851,-0.8380904197692871,0.5454857349395752,-0.0018880422632997,0.0063488395840753,0.0159039788690643,-0.1421014666557312,0.0272510647773742,0.2901630401611328,139,141,13723,15020
10.5,1788349890450,4.591549396514893,5.042253494262695,-0.0066240569576621,-0.0013151447055861,-0.90082448720932,0.4341308772563934,0.1756684269535046,0.0037378518097863,-1.6736307218079966e-05,0.006839504931122,0.0080975871533155,0.0185680910944938,-0.0060880817472934,-0.002203251235187,-0.8374072909355164,0.5465410351753235,0.0099778163278687,0.0492485813797631,-0.0034497958709784,-0.1251459121704101,-0.0382402539253234,-0.4357547760009765,100,132,14949,15204
10.6,1788349890550,4.985915660858154,5.183098793029785,-0.0064619719050824,-0.0013459598412737,-0.9001336097717285,0.4355638921260834,0.1751855369256661,0.0014298847710336,-7.169451625519301e-05,0.0024029747582972,0.0119264042004942,0.0248064901679754,-0.0062539614737033,-0.0022847196087241,-0.8359358310699463,0.5487868189811707,0.0025909927328177,-0.0190816695332984,0.0746852673707022,0.1746940612792968,0.1083359718322753,0.1484880447387695,75,85,13416,14944
10.7,1788349890650,4.957746505737305,5.577464580535889,-0.0060694706626236,-0.0014948812313377,-0.898944079875946,0.4380188286304474,0.1723953423274227,0.0017998119017518,-6.289346892662642e-05,0.0103619396686553,0.0173851158469915,0.0447620712220668,-0.0060888864099979,-0.0020766593515872,-0.8340656757354736,0.5516276359558105,-0.0059535237449902,0.0116267635694054,0.0985566431985237,-0.3536452054977417,-0.1209128499031066,-0.008584976196289,54,149,11307,15794
10.8,1788349890750,4.535211086273193,5.577464580535889,-0.0058215949684381,-0.0011833074968308,-0.8957293033599854,0.4445600509643554,0.1648715596838139,0.0005421983472603,-2.4959597062915933e-05,0.0038271471858024,0.0190281774848699,0.1808545887470245,-0.0052176704630255,-0.0015532411634922,-0.8282634019851685,0.5603124499320984,0.0020333151268108,0.0219981299579551,0.1545287882189272,-0.2491182684898376,0.2141891121864318,0.3728342056274414,61,116,13183,15689
10.9,1788349890850,4.394366264343262,5.633802890777588,-0.0052077076397836,-0.0008669719099998,-0.8917587399482727,0.452480286359787,0.1664806535341814,0.001613207181789,-6.379266339714561e-05,0.0048275268636643,0.0109609253704547,0.1510423272848129,-0.0046833679080009,-0.0012498991563916,-0.824582576751709,0.5657209753990173,-0.0030883909801304,0.03680511557546,0.1438409749342806,-0.1344650387763977,-0.1735922694206237,0.1634130477905273,104,116,13542,15228
11.0,1788349890950,4.197183132171631,5.549295902252197,-0.004415959585458,-0.0002484883880242,-0.888567328453064,0.4587249159812927,0.169755819588982,0.0049839898136269,-0.0001001894425936,-0.0054709827527403,0.0257763490080833,0.1505798399448394,-0.0042351456359028,-0.0007685692980885,-0.8205137848854065,0.5716105103492737,0.0028839560452471,-0.0006871591350467,0.1897180198704832,0.2017651796340942,0.2185607552528381,-0.1660737991333007,112,118,14248,15523
11.1,1788349891050,4.929577350616455,5.239436626434326,-0.0038409235421568,7.838290184736252e-05,-0.8851161003112793,0.4653544425964355,0.1665770998611242,0.0062962900576476,-2.2097376069768875e-05,-0.000607373251114,0.0128293214365839,0.1518413573503494,-0.0029043797403573,6.12214207649231e-05,-0.8167553544044495,0.5769768953323364,0.0024251579119863,0.0341023366291934,0.0284979423150564,-0.0385597944259643,-0.063165545463562,-0.059305191040039,89,99,14110,14258
11.2,1788349891150,5.126760482788086,5.211267471313477,-0.0026191715151071,0.00055058428552,-0.8836881518363953,0.4680685698986053,0.1644809203993462,0.0013279370347945,-0.0001049774008271,0.0021284616086632,0.0322336927056312,0.0395363867282867,-0.0023110806941986,0.0004800939932465,-0.8155209422111511,0.5787228941917419,0.0056538487565669,0.0068073906281133,0.0593069965897731,0.0870675444602966,-0.0651994347572326,0.0592098236083984,136,95,12997,14643
11.3,1788349891250,4.8450703620910645,5.183098793029785,-0.0019254063954576,0.0009952965192496,-0.8822067975997925,0.4708571135997772,0.1725551532006123,0.0011927253369998,-6.853843302879908e-05,-0.0016627034638077,0.0166530665010213,0.0769359245896339,-0.0015007192268967,0.0014012390747666,-0.8141545057296753,0.5806447267532349,-0.0173895861505893,0.0560728912865478,0.032363529107701,-0.0509572029113769,-0.0101135373115539,-0.350250244140625,154,75,15157,13670
11.4,1788349891350,4.760563373565674,5.267605781555176,-0.0009088642545975,0.0020842943340539,-0.881787121295929,0.4716422259807586,0.1742279763841462,0.0007562117540354,5.281010394641009e-05,-0.0114827984943985,0.0251653678715229,-0.0012688232818618,-0.0008331937715411,0.0021651219576597,-0.813524603843689,0.5815258026123047,-0.0071551612303053,0.0510119518503089,0.0589053438102883,-0.1895883083343505,0.2533586025238037,-0.450200080871582,41,117,14016,14523
11.5,1788349891450,4.619718074798584,5.352112770080566,-0.0007144404225982,0.0021558983717113,-0.8808037042617798,0.473476231098175,0.1703321877151698,0.003621375063925,2.136374349147608e-05,-0.0035489115398377,-0.0026503135450184,0.0700751617550849,-0.0003261948004364,0.0024585397914052,-0.8118668794631958,0.5838374495506287,0.0102117996988769,0.0052602995587253,0.0643677614975227,0.3498814105987549,-0.2356046438217163,-0.0345659255981445,47,94,14597,14080
11.6,1788349891550,4.732394218444824,5.492957592010498,0.0007607492152601,0.0028941691853106,-0.8797245025634766,0.4754742681980133,0.1693872369444888,-0.0012648792151143,-0.0001050791549258,0.0013363047037273,0.0394086837768554,0.0455521270632743,0.0008116587996482,0.0035669468343257,-0.8102506399154663,0.5860722064971924,-0.0149701432375055,0.0428863444824223,0.10731551143909,-0.0286026000976562,0.3713918924331665,-0.3635034561157226,132,108,13080,14998
11.7,1788349891650,4.647887229919434,5.295774459838867,0.0014327720273286,0.0034200409427285,-0.8771442770957947,0.4802124798297882,0.1884316351489034,0.0030588227247342,7.861324556800031e-06,0.0036908942274749,0.0059249559417366,0.1379075795412063,0.0009725671261548,0.0037067653611302,-0.808329164981842,0.5887183547019958,-0.006742467564063,0.0047699772665873,-0.0021513227330258,-0.3744709491729736,-0.2117330431938171,-0.5303096771240234,63,66,15142,13457
11.8,1788349891750,5.154929637908936,5.070422649383545,0.001793140778318,0.0037008128128945,-0.8775925636291504,0.4793895184993744,0.1747359914244901,0.0005215731040196,-1.4265341293231511e-05,-0.0020389482378959,0.0131020424887537,-0.0270745921880006,0.0010537160560488,0.0036726053804159,-0.8085944056510925,0.5883539915084839,0.0012568908873822,-0.0124736028125633,0.0388957111557752,0.0410743951797485,-0.0012440681457519,0.1762237548828125,118,91,13858,13995
11.9,1788349891850,5.042253494262695,5.352112770080566,0.001427607377991,0.0033118138089776,-0.8768860101699829,0.4806847870349884,0.1715113713956158,0.002327251448892,1.736632966667774e-05,0.0053123198449611,-0.0208115205168724,0.0313329100608825,0.0007345993071794,0.0031031928956508,-0.8070358633995056,0.5904937386512756,-0.0021221942471648,-0.0216432777417589,0.0762425639832239,0.0673524737358093,0.1645300388336181,-0.0658884048461914,151,79,13192,14153
12.0,1788349891950,4.591549396514893,5.267605781555176,0.0012754520867019,0.0031218840740621,-0.8759064674377441,0.4824690222740173,0.1767827925316606,0.0036694940015202,1.2681693097728718e-05,-0.0004911665455438,0.000150264284457,0.0532515197992324,0.0002067787572741,0.0032318336889147,-0.8058251142501831,0.5921448469161987,-0.0086630973904911,-0.0155606477197558,0.0235998194607781,-0.2574255466461181,-0.1408134698867797,0.2816610336303711,78,118,14694,14346
12.1,1788349892050,4.8450703620910645,5.239436626434326,0.0006849931087344,0.0030324170365929,-0.8744530081748962,0.4851002991199493,0.1793636209957575,7.999816135367589e-05,5.711781550279813e-05,-0.0044234506785869,-0.0132051268592476,0.07150649279356,-1.8157996237277985e-05,0.0028847632929682,-0.8043091893196106,0.5942040085792542,-0.0086752176465303,-0.0134637458132128,0.0534923993935984,-0.0045275688171386,0.031671404838562,0.5084562301635742,52,102,13851,14470
12.2,1788349892150,5.183098793029785,5.267605781555176,0.0004882166394963,0.0030135051347315,-0.8730010986328125,0.4877087771892547,0.1814447586220179,0.0020367215096792,1.7621461490522085e-07,-0.0064153657294809,0.0017648743232712,0.0638476833701133,1.946650445461273e-05,0.0029367422685027,-0.8027741312980652,0.5962759256362915,0.0028787888128077,-0.008840747459491,0.0573490085402445,-0.2760470509529114,0.0548813939094543,-0.0285978317260742,129,101,12769,14254
12.3,1788349892250,4.394366264343262,5.436619758605957,0.0002055343938991,0.0026863079983741,-0.8720318675041199,0.4894415736198425,0.1763524220986031,0.0014151312824654,2.027944172697536e-05,0.0014573350781574,-0.0116337537765502,0.027115324512124,-0.0008255587890744,0.002177145332098,-0.8001176714897156,0.5998384952545166,-0.0039924871937382,-0.0216795482181236,0.1482856841441352,0.0252537727355957,0.43158620595932,0.0262870788574218,136,70,15098,14098
12.4,1788349892350,4.8450703620910645,5.154929637908936,-0.0007289331406354,0.0020370020065456,-0.8691554069519043,0.494534283876419,0.1763505885873097,0.0074879688648767,4.696372327794247e-05,0.0021472938824445,-0.016933225095272,0.1347875595092773,-0.000974940136075,0.0016428306698799,-0.7978302836418152,0.6028791666030884,0.0092888684732973,-0.0014910669315821,0.0294066411087081,0.0077537298202514,-0.0782524943351745,0.1417150497436523,58,93,14144,14450
12.5,1788349892450,5.211267471313477,5.239436626434326,-0.0010418890742585,0.001450654817745,-0.8682458400726318,0.4961310625076294,0.1773919679454762,-0.0020453513985565,8.951694218128057e-05,0.0104403598234057,-0.0168114881962537,0.0386333130300045,-0.0015527205541729,0.0008890200406312,-0.7966921329498291,0.6043826937675476,0.0030265182594026,-0.0253042730334887,0.0568234107509225,0.1443681120872497,0.1038658022880554,0.0398540496826171,89,101,12634,14331
12.6,1788349892550,4.619718074798584,5.239436626434326,-0.0016213663620874,0.0013258972903713,-0.8667182326316833,0.4987935721874237,0.1810938242771225,-0.0006674803061086,-2.12235330518478e-05,-0.0097586428746581,0.0011179487919434,0.0573672242462635,-0.0020901318639516,0.000394333153963,-0.7952000498771667,0.6063433885574341,0.0113227038712288,-0.0327233878568402,0.0276540658336737,0.2020813226699829,-0.0766671895980835,-0.1042394638061523,103,97,14619,14517
12.7,1788349892650,5.154929637908936,5.295774459838867,-0.0022660011891275,0.0005235611461102,-0.8661041855812073,0.4998581707477569,0.1733246993085117,0.0043212066361811,-1.575207931389589e-07,0.0004564176197163,-0.0152760706841945,0.023863960057497,-0.0022749062627553,0.0002646828070282,-0.7939053773880005,0.6080370545387268,-0.0006319074974756,0.0130000333941668,0.0582468613572672,-0.210123598575592,0.0302239060401916,0.3359584808349609,99,104,13056,14590
12.8,1788349892750,4.873239517211914,5.267605781555176,-0.0025447078514844,0.0006124321371316,-0.8648157715797424,0.5020825266838074,0.1765888565016124,0.0008897141795109,9.594742471654992e-05,-0.0041363504715263,-0.0155153190717101,0.0490257926285266,-0.0025824690237641,0.0003608735278248,-0.7925400137901306,0.6098143458366394,-0.0011102090304736,0.0053049914913916,0.0420925211975828,-0.308963418006897,-0.0245254039764404,0.6195907592773438,183,104,14184,14613
12.9,1788349892850,4.647887229919434,5.154929637908936,-0.0023425037506967,0.0006873874226585,-0.8636317849159241,0.5041173100471497,0.177187304380718,0.0011081237258697,3.988799735259049e-07,0.0065806093625724,-0.0021072826348245,0.0368884801864624,-0.0025706179440021,0.0005085673183202,-0.7911721467971802,0.6115879416465759,-0.0128125012748298,0.0210350804373957,0.0339886739082994,-0.2853178381919861,-0.0146563649177551,0.4400081634521484,82,102,14848,14979
13.0,1788349892950,5.126760482788086,5.380281925201416,-0.0026161347050219,0.0008681427570991,-0.8623196482658386,0.5063568353652954,0.1820465302369761,0.0012279393653828,-4.070381943400892e-05,-0.0088006434962153,0.0060158711858093,0.0713373646140098,-0.0029201572760939,0.0003486666828393,-0.7895576357841492,0.6136693358421326,0.0036302610892735,-0.0147004461095588,0.0551421357010105,-0.0463461279869079,-0.0368695855140686,0.0018129348754882,95,99,13259,14252
13.1,1788349893050,4.901408672332764,5.521126747131348,-0.002739128191024,0.0006139383185654,-0.8613083362579346,0.5080748796463013,0.1728523205563189,0.0013873251169174,1.5971726374811964e-07,0.0074330130591988,-0.00123598636128,0.0281721614301204,-0.0030882665887475,-0.0001060329377651,-0.7879127860069275,0.6157791614532471,-0.0019398158257167,-0.0289837506862815,0.0950352585171677,-0.0992599725723266,0.2866381406784057,0.1175994873046875,146,64,13777,13959
13.2,1788349893150,4.704225540161133,5.183098793029785,-0.0030014063231647,0.0003111697733402,-0.8583858609199524,0.5129957795143127,0.1806064731706104,0.0027250167221315,-2.8861601207432773e-05,-0.0016098248306661,0.0043401392176747,0.1293205618858337,-0.0027992641553282,8.758343756198883e-05,-0.7844727635383606,0.6201569437980652,0.0015288015180509,0.0051077500476546,0.0745274147632882,-0.0008288025856018,0.2113975882530212,0.6436614990234375,127,127,14894,14997
13.3,1788349893250,4.901408672332764,4.957746505737305,-0.0023440569639205,0.0005143762682564,-0.857038140296936,0.5152473449707031,0.1779925342241119,0.0036176658456482,2.512231768751644e-05,0.0073400558903813,0.0141296843066811,0.0506170764565467,-0.002863198518753,0.0003001680597662,-0.783950924873352,0.620816171169281,-0.0173123061736175,-0.0098711478991876,-0.0327953398545533,-0.2360395193099975,-0.2154480218887329,-0.1172475814819336,70,77,14447,15151
13.4,1788349893350,5.380281925201416,4.985915660858154,-0.0025190501473844,0.0006060629966668,-0.8564708828926086,0.5161888003349304,0.1846625136615418,-0.0002492511731079,1.6888859905820977e-07,-0.0049330024048686,-0.0030914125964045,0.0325051508843898,-0.0028195036575198,0.0002129562199115,-0.7828366160392761,0.6222209930419922,-0.0043743269708225,-0.0141069854503239,0.0327701752807448,-0.0479018688201904,-0.1787782907485962,0.2942085266113281,146,101,13517,14399
13.5,1788349893450,4.253520965576172,5.605633735656738,-0.0029349774122238,0.0004891108255833,-0.8561909794807434,0.5166510343551636,0.1743982227119639,0.000347281408692,1.4925298098112335e-07,0.0,0.0,0.0,-0.0027781343087553,-0.0001728264614939,-0.7809516787528992,0.6245852112770081,0.0105750672680403,-0.0115422948064073,0.1666063575751484,-0.1720898747444152,0.1105040907859802,-0.1038141250610351,81,106,13722,15892
13.6,1788349893550,4.704225540161133,5.6619720458984375,-0.0026308759115636,0.0002559949643909,-0.8528289794921875,0.5221837162971497,0.1748550638266877,0.0067635992688478,3.314189095319298e-05,0.0014691797550767,-0.000692356028594,0.1864828318357467,-0.0026837950572371,-7.996708154678345e-05,-0.7762353420257568,0.6304376125335693,-0.0054868765163842,0.0094090071883781,0.1566065778039658,-0.2429199814796447,0.1343528032302856,-0.0714616775512695,151,96,12689,15293
13.7,1788349893650,4.647887229919434,5.605633735656738,-0.0026077996008098,0.0002035764046013,-0.8487980365753174,0.5287108421325684,0.1731504949347118,0.0052419976946764,8.448823174664737e-05,0.0035197441466152,0.0011614218819886,0.1444708704948425,-0.0025429250672459,-0.0002503925934433,-0.7720386981964111,0.6355703473091125,-0.0004023018933305,-3.4845569667002666e-05,0.1483383551006624,0.1433238387107849,0.1112300157546997,0.363255500793457,110,107,13010,15547
13.8,1788349893750,4.985915660858154,5.211267471313477,-0.0019817554857581,0.0004277490661479,-0.8445836901664734,0.5354195833206177,0.1806258273730178,0.0049220388820275,-7.794964745846112e-05,0.0002009702438954,0.0211335141211748,0.1424019187688827,-0.0019330214709043,-0.0002322858199477,-0.7678714394569397,0.6406011581420898,0.0014262621992275,0.0085925293303913,0.0289107398858285,-0.836922287940979,0.2336926460266113,0.968501091003418,144,101,12987,15653
13.9,1788349893850,4.535211086273193,5.211267471313477,-0.0022706207819283,-0.0002910704351961,-0.8431476354598999,0.5376772284507751,0.1788532735478848,0.0008124275522422,-9.93287842578132e-05,0.006354714743793,-0.0020280762109905,0.0561720393598079,-0.0018203351646661,-0.0006209108978509,-0.7652520537376404,0.6437279582023621,0.0105070300849403,-0.0225645195399185,0.0892279060889523,0.1083752512931823,-0.2845820188522339,0.6801242828369141,83,67,13336,13542
14.0,1788349893950,2.7887322902679443,3.88732385635376,-0.0013002061750739,-1.4829682186245918e-05,-0.8407708406448364,0.5413895845413208,0.1658040523107896,0.003426634430496,-9.747702181353152e-05,0.0010074240854009,0.0236635711044073,0.0548410229384899,-0.0009980518370866,0.0002840887755155,-0.7631233930587769,0.646251916885376,-0.0113734880864547,0.0454992379536555,0.0982130650147248,-1.3419755697250366,0.1639749407768249,-0.6896781921386719,34,65,2773,10061
14.1,1788349894050,0.0,2.676056385040283,-0.0010767492931336,0.0002718542236834,-0.8356157541275024,0.5493132472038269,0.0791108748351953,0.0020517423258849,1.963392365329244e-06,0.0015680387150496,-0.0030174544081091,0.2749042809009552,-0.0011399630457162,0.0001118350774049,-0.752513587474823,0.658575713634491,-0.002185164278371,-0.0014037407465065,0.4178867252018589,-0.4858761429786682,0.0577638745307922,-0.0951642990112304,16,62,-1637,7655
14.2,1788349894150,-1.6619718074798584,1.2957746982574463,-0.0010151828173547,0.0002838858636096,-0.8229218125343323,0.5681535005569458,0.024664010559676,-0.0030107033108824,-3.972832431458831e-07,0.0011877011274918,0.0067977095022797,0.4202418923377991,-0.001222145743668,-2.6924535632133484e-06,-0.7334662079811096,0.6797248125076294,-0.0026181147944171,-0.0054891217213517,0.624809635126809,0.3183236122131347,0.0360164046287536,-0.0662250518798828,85,155,-6368,6366
14.3,1788349894250,-1.6338027715682983,1.4647886753082275,-0.0012134106364101,0.0002116341493092,-0.8090178370475769,0.5877827405929565,-0.0081296469868442,0.0021391749051959,-1.0493879751794021e-07,-0.002166180871427,0.0012869290076196,0.5164052844047546,-0.001274031586945,-2.3301690816879272e-06,-0.718860387802124,0.6951532959938049,-0.0013593198358826,-0.0102807899741747,0.4139110789163628,0.3951467871665954,0.2182475924491882,0.0348443984985351,66,109,-5648,6473
14.4,1788349894350,-1.436619758605957,1.5774648189544678,-0.0012626734096556,0.0002782754017971,-0.7963176965713501,0.6048772931098938,0.0044679744476017,-0.0007674648401967,6.206904848211216e-08,-0.0036348479334264,0.0014349080156534,0.4118790924549103,-0.0012987097725272,0.0001311227679252,-0.7047784328460693,0.7094263434410095,-0.0015843782299631,-0.0008030511224898,0.4545515132943262,0.0952779650688171,0.1705696582794189,0.0076799392700195,86,80,-7065,6128
14.5,1788349894450,-1.6056338548660278,1.5211267471313477,-0.0012936514103785,0.0003178713959641,-0.7818901538848877,0.6234148144721985,0.0009900898188348,0.0002379150791049,3.280666673688231e-08,-0.0006114616990089,-0.00070333405165,0.469694435596466,-0.0014235004782676,0.0001869546249508,-0.6845095157623291,0.7290025949478149,-0.0022173142718374,-0.0017214284868658,0.4751933351129336,0.1614326238632202,-0.2628228068351745,-0.0239343643188476,72,104,-6502,6205
14.6,1788349894550,-1.380281686782837,1.4929577112197876,-0.001446068752557,0.000313971133437,-0.7656633257865906,0.6432397365570068,-0.0017666790613632,-0.0005761527860595,-1.1086501314758183e-07,-0.0005285138613544,-0.0034265131689608,0.4727523922920227,-0.0015217745676636,7.939152419567108e-05,-0.6691363453865051,0.7431380748748779,0.0002375502943362,-0.0029314528052687,0.4564178201213756,0.0441046953201293,-0.0559417009353637,-0.0126628875732421,50,86,-4996,4299
14.7,1788349894650,-1.0140844583511353,1.183098554611206,-0.0014792517758905,0.0002585024922154,-0.7532614469528198,0.6577195525169373,0.0018057450575657,0.0011644693887242,-6.475381186885879e-07,0.0016693894285708,-0.0008203259203583,0.3626500070095062,-0.0014774808660149,2.9830262064933777e-05,-0.6575635671615601,0.7533976435661316,0.0019232440812031,-0.0002573188240648,0.3088803955302833,-0.1281366944313049,0.1656310558319091,0.0417289733886718,156,106,-6402,5228
14.8,1788349894750,-1.1267606019973757,1.2394366264343262,-0.0015216376632452,0.000190540915355,-0.7421598434448242,0.670221209526062,-0.0022519681428502,0.0029471956352793,-7.483607817634714e-07,-0.0005410353769548,-0.0024390933103859,0.3574777841567993,-0.0015213144943118,-3.779586404561997e-05,-0.6411718726158142,0.7673958539962769,0.003120746973973,-0.0048110750836917,0.3524248115583635,-0.0897203683853149,0.1567553877830505,0.0812339782714843,152,117,-6038,5076
14.9,1788349894850,-1.2676056623458862,1.154929518699646,-0.0015808113384991,0.0001287949853576,-0.7305474281311035,0.6828600168228149,0.0008392986716084,-0.0008115319960932,3.905761221297029e-07,-3.5392833524383605e-05,-0.0042576324194669,0.3603374063968658,-0.0015940545126795,-0.000175348483026,-0.6284786462783813,0.7778252363204956,0.0044562724813055,-0.0057601624988592,0.3447472181755124,0.0046552419662475,0.018264889717102,0.0521802902221679,94,147,-5493,5515
15.0,1788349894950,-0.9014084339141846,0.8450704216957092,-0.0016371561214327,-0.0001314103719778,-0.7160918116569519,0.6980042457580566,0.0019620105390863,0.0005847798823643,4.391009992109992e-07,0.0041388785466551,-0.0052294596098363,0.3683724701404571,-0.0015827966853976,-0.0004233820363879,-0.6153981685638428,0.7882146835327148,0.0045396681675548,-0.0029532469023601,0.3820262738349204,0.0875777602195739,0.0606400370597839,-0.0536441802978515,54,53,-4176,3659
15.1,1788349895050,0.0,0.0,-0.001651267404668,-0.0001830245018936,-0.7059944272041321,0.7082154750823975,0.0010944478513142,0.0005483947882811,2.1179279445239401e-07,-0.0021880546119064,0.000448389298981,0.2576297223567962,-0.0016564149409532,-0.000419944524765,-0.607352077960968,0.7944309115409851,-0.0034779776441128,-0.0035371400502035,-0.0022598217836479,0.1947137713432312,0.0961759090423584,-0.0391492843627929,48,148,2970,4702
15.2,1788349895150,1.7183098793029783,2.929577350616455,-0.0016220065299421,-0.0002032740158028,-0.7041017413139343,0.7100971937179565,0.0058208321940516,0.0005734395600086,-4.937568349661266e-09,0.0,0.0,0.0,-0.0017421524971723,-0.0001486046239733,-0.6033408641815186,0.7974815368652344,-0.010182214185424,0.0192810989000787,0.2394865734645407,1.1122738122940063,0.0417314171791076,-0.0964860916137695,265,196,8746,12820
15.3,1788349895250,3.4647886753082275,5.380281925201416,-0.0018309276783838,9.227002738043666e-05,-0.6977739334106445,0.7163156270980835,0.0995110479788709,0.0030514989160925,-1.0986523441797498e-05,-0.0041164713911712,-0.0001241786958416,0.1968172490596771,-0.0017707226797938,-0.0001580556854605,-0.595195472240448,0.8035790324211121,0.0028994884728828,-0.0011679960428496,0.2571062242789269,0.903756022453308,0.3839653134346008,-0.2555341720581054,225,199,11758,18675
15.4,1788349895350,3.859154939651489,6.535211086273193,-0.0018155763391405,-0.0001450291019864,-0.6850274205207825,0.7285149693489075,0.166787716332172,0.0043605789840261,-5.873328245965488e-07,0.0041772052645683,-0.0059364438056945,0.3415824472904205,-0.001701601780951,-0.0004037329927086,-0.5769729018211365,0.8167614340782166,0.0050004694907212,-0.0055966756695808,0.368518359256957,-0.1173417568206787,-0.08943772315979,0.2368764877319336,101,102,12116,17720
15.5,1788349895450,3.88732385635376,5.943662166595459,-0.0016478202305734,-0.0003265473060309,-0.67204749584198,0.7405062913894653,0.1765202146164609,0.0015897148743703,5.714022137870604e-05,0.0089232539758086,-0.013581340201199,0.3783653676509857,-0.0016870182007551,-0.0012690760195255,-0.5648413300514221,0.8251968622207642,0.0100069081441275,0.0059245830958196,0.2450742816681553,-0.2761075496673584,-0.1995232105255127,-0.4441184997558594,137,86,13908,16099
15.6,1788349895550,4.0,5.802816867828369,-0.0018264621030539,-0.001465848297812,-0.6620578765869141,0.7494491338729858,0.1741951229584696,0.0037058701053991,0.0001092681927612,0.0133833447471261,-0.0128172468394041,0.2348664999008178,-0.0017459681257605,-0.0020943945273756,-0.5551566481590271,0.831741452217102,0.0028818163348601,-0.0121186906036062,0.2822378025184183,0.0061652660369873,-0.1938761472702026,0.0122737884521484,121,97,13035,16928
15.7,1788349895650,4.2816901206970215,6.02816915512085,-0.0020348804537206,-0.0020753603894263,-0.6520413756370544,0.7581778168678284,0.1794551611966844,0.0056328294047362,4.441296332323767e-05,0.0062718382105231,-0.007299926597625,0.2703979015350342,-0.0018241852521896,-0.0028712106868624,-0.5428597331047058,0.8398164510726929,0.0101095411156111,-0.0301076836800467,0.2342061355325248,0.0321880578994751,0.1019794940948486,-0.1089973449707031,145,96,12400,16038
15.8,1788349895750,4.253520965576172,5.6619720458984375,-0.0019776890985667,-0.0024906634353101,-0.6423214673995972,0.7664287686347961,0.1777800036435063,0.0042656908294453,-4.269532432760954e-05,0.004971036221832,0.0048930100165307,0.238674908876419,-0.0016824705526232,-0.0028607370331883,-0.5336176156997681,0.8457194566726685,0.010410241379304,0.0024120032732794,0.2427516752908403,-0.1403961181640625,-0.2283535003662109,-0.0542230606079101,77,86,14458,15072
15.9,1788349895850,4.084506988525391,5.802816867828369,-0.002147392835468,-0.0026218409184366,-0.6344852447509766,0.7729275822639465,0.1757107827207917,0.0026234792745563,6.117786238734452e-05,-0.0033397937659174,-0.0032609773334115,0.1825772523880005,-0.0019956845790147,-0.0028590336441993,-0.5277142524719238,0.8494148850440979,-0.0092715631248278,0.0202806292724262,0.1262625832490772,-0.2031948566436767,0.0963750481605529,0.9128923416137696,87,147,12612,17262
16.0,1788349895950,4.591549396514893,5.577464580535889,-0.0022303094156086,-0.0022389139048755,-0.6281629204750061,0.7780753970146179,0.174297403765789,0.0052663797351782,3.616528795830275e-05,-0.005261733662337,0.0176083371043205,0.1960584819316864,-0.002070982940495,-0.0018871985375881,-0.5177779197692871,0.8555105328559875,-0.0064243349582839,0.0592976011793165,0.1181907617205332,-0.6312084794044495,-0.4715014696121216,0.7782840728759766,183,112,13436,15473
16.1,1788349896050,4.507042407989502,5.492957592010498,-0.0026673199608922,-0.0017734868451952,-0.6208665370941162,0.783909797668457,0.1796624614188895,0.0055809003487272,-8.912181169545909e-05,-0.004333883523941,0.0095036625862121,0.1260745674371719,-0.002532091923058,-0.0019640559330582,-0.5121762752532959,0.8588744401931763,-0.0092056567042409,-0.0009217189073862,0.1634909534542778,0.3117081522941589,0.0042585134506225,-0.4954071044921875,58,126,13238,15986
16.2,1788349896150,5.070422649383545,5.352112770080566,-0.0025825197808444,-0.0013680688571184,-0.6148683428764343,0.7886242866516113,0.1744973207926652,0.0057380239059562,-4.271958554481593e-05,-0.0030769584700465,0.0111447824165225,0.1598444581031799,-0.0030432734638452,-0.0019339425489306,-0.5073360204696655,0.8617408275604248,-0.0313636138154624,-0.0500406213055858,0.0654936869166211,0.2800471186637878,-0.0084591507911682,0.3792800903320312,173,65,13852,14005
16.3,1788349896250,4.873239517211914,5.183098793029785,-0.0031512607820332,-0.001431880169548,-0.613304078578949,0.7898392081260681,0.170575327196949,0.0013176917947741,-1.1484058143061096e-05,0.0061556496657431,0.0059373769909143,0.017554260790348,-0.0030790092423558,-0.0017389180138707,-0.505780816078186,0.8626548647880554,-0.0242586042786741,-0.005051957434961,0.0386196723622734,0.0874520540237426,0.0369350910186767,-0.1846570968627929,141,119,14208,14921
16.4,1788349896350,4.732394218444824,5.267605781555176,-0.0032457485795021,-0.0010485394159331,-0.6116323471069336,0.7911348342895508,0.1758284815252972,0.0008988328117708,1.6255647362742015e-05,-0.0201152563095092,0.0064726034179329,0.0477110370993614,-0.0031986935064196,-0.0010397573933005,-0.5038815140724182,0.8637663125991821,5.697659836123749e-05,0.0107223789880275,0.0464884333472196,-0.2576044201850891,-0.000213623046875,0.3305692672729492,69,113,13517,15870
16.5,1788349896450,4.507042407989502,5.633802890777588,-0.0034784926101565,-0.0004752964014187,-0.6087489128112793,0.7933551669120789,0.1764838963594381,0.0023618549497736,-4.312402343379431e-05,-0.0076358201913535,0.0045302757062017,0.0938806608319282,-0.0033962596207857,-0.0005806619301438,-0.4983071088790893,0.86699378490448,-0.0119968234742164,0.0171227790522123,0.1841492702247537,0.2479403018951416,-0.1423118114471435,0.0878849029541015,170,120,13565,15375
16.6,1788349896550,4.873239517211914,4.929577350616455,-0.003640403971076,0.0002072566421702,-0.6038088202476501,0.7971208095550537,0.184051769151023,0.0037857954113952,3.585002700857646e-06,-0.0122440317645668,0.0061110770329833,0.0732749849557876,-0.0037114610895514,-0.0002681016921997,-0.4974368810653686,0.8674922585487366,-0.0041740652753043,-0.0027177140409204,-0.0556433648468111,0.1568666100502014,0.2704942226409912,-0.0044765472412109,125,140,15055,14495
16.7,1788349896650,5.042253494262695,5.014084339141846,-0.0037063758354634,0.0003264024853706,-0.6045992970466614,0.7965211272239685,0.17976630380387,-0.0001369482509286,8.705562641528332e-06,-0.003567004809156,-0.0041284374892711,0.0041566295549273,-0.0040722312405705,-0.0001932568848133,-0.4974313378334045,0.8674938678741455,-0.0115925200486027,-0.0132986310046242,0.0120735362346301,0.1671964526176452,0.3204779028892517,-0.0096988677978515,54,99,14308,14476
16.8,1788349896750,5.549295902252197,4.957746505737305,-0.004251379519701,0.000385807827115,-0.6044515371322632,0.7966305017471313,0.1735982463513123,0.0021489702797147,1.1210575133276123e-06,-0.0125968009233474,-0.0070260004140436,0.0038255667313933,-0.0041472958400845,0.00010556448251,-0.4970865845680237,0.8676910400390625,0.0022997871012919,0.0130268692627577,0.0109303519715916,-0.1409513354301452,-0.1100147366523742,0.0070734024047851,107,93,13837,13497
16.9,1788349896850,5.295774459838867,4.985915660858154,-0.0041693267412483,0.0007172357290983,-0.6049798727035522,0.7962296009063721,0.1796652797625989,-0.0014050212775449,1.29589775825402e-05,-0.0035485248081386,0.0008775148307904,-0.0345252007246017,-0.004309288226068,6.95912167429924e-05,-0.4988265633583069,0.8666910529136658,-5.156063043786861e-05,-0.0123754462636218,-0.0585735993112059,0.0974224209785461,-0.0355570316314697,-0.1075897216796875,42,166,11566,16680
17.0,1788349896950,4.309859275817871,5.746479034423828,-0.0044333972036838,0.0008712742710486,-0.6054921746253967,0.795838475227356,0.1775933376476263,0.0037747331571264,8.264894998674033e-05,-0.0026127600576728,-0.0139137739315629,0.0398080386221408,-0.0043166652321815,-9.690597653388976e-05,-0.4939493238925934,0.8694799542427063,0.0252733684037183,-0.0549376414765797,0.2250135099897149,0.824078381061554,0.0129642486572265,0.0939292907714843,119,111,13376,15336
17.1,1788349897050,5.380281925201416,4.816901206970215,-0.0039803958497941,0.0006557856686413,-0.5983030796051025,0.8012596368789673,0.1715958600006715,0.0077102043753936,-0.0001206806230001,0.0068042357452213,0.0163425281643867,0.1819005161523819,-0.0037934212014079,0.0001722685992717,-0.4886770248413086,0.8724565505981445,0.0027324268658271,0.037592932248245,0.0398880030196765,-0.1572949886322021,-0.1546850800514221,0.0518121719360351,132,71,15141,13525
17.2,1788349897150,5.183098793029785,4.816901206970215,-0.0038353903219103,0.0008147470653057,-0.5982693433761597,0.8012855052947998,0.1703799528410159,-0.0021994140069492,5.271834099480217e-05,-0.0054100379347801,-0.0003853821253869,-0.0926192179322242,-0.0038573751226067,0.0002596983686089,-0.4932990074157715,0.8698511719703674,-0.0045648752242253,0.0075050507024785,-0.0815113163839591,0.2059506773948669,-0.0799683928489685,0.3197431564331054,71,85,16631,12543
17.3,1788349897250,4.929577350616455,4.816901206970215,-0.003475981298834,0.0008451805915683,-0.6030807495117188,0.7976721525192261,0.1774568655081383,-0.002078541183613,1.289217320179712e-05,0.0069414051249623,0.0057954820804297,-0.1296852380037307,-0.0031207790598273,0.0006101876497268,-0.4977996051311493,0.8672863245010376,0.0170701364887171,0.0483133286592485,-0.046304548839491,-0.3826393485069275,0.0084439516067504,-0.6609640121459961,87,150,16105,13794
17.4,1788349897350,5.633802890777588,4.535211086273193,-0.0035891216248273,0.0007044683443382,-0.6070295572280884,0.7946708798408508,0.1781966850075606,3.288481840867912e-05,-3.6589525754088274e-05,-0.0035291041713207,-0.0015602462226524,-0.0909187495708465,-0.0039193108677864,-0.0001014787703752,-0.503175675868988,0.8641752600669861,-0.0020799648507772,-0.0374939947646767,-0.1598734806694761,0.2885189652442932,0.0522133111953735,-0.5312271118164062,148,117,15576,12933
17.5,1788349897450,5.521126747131348,4.901408672332764,-0.0039697927422821,0.0004717301344498,-0.6128663420677185,0.7901764512062073,0.1777702881487833,-0.0027760116840944,-2.402216085676134e-05,-0.008180184289813,-0.0100856097415089,-0.1505797207355499,-0.0038536852225661,-0.0002461122348904,-0.5097169876098633,0.8603335618972778,0.013748321105977,-0.0118248641738081,-0.1328679625747176,0.0792933702468872,0.0605138540267944,0.7313804626464844,85,141,13778,14030
17.6,1788349897550,5.549295902252197,4.957746505737305,-0.0038947518914937,9.734707418829204e-05,-0.6175885200500488,0.7864917516708374,0.1719197018297446,-0.0030050217903324,-6.376134534931503e-06,0.0033573070541024,-0.0077268346212804,-0.0905350893735885,-0.0037089884281158,0.0002056835219264,-0.5122191905975342,0.8588466644287109,-0.0132838114619439,0.0588627239168584,-0.0317898227202013,-0.1772732138633728,-0.1212449669837951,-0.4725732803344726,115,107,13777,13953
17.7,1788349897650,5.380281925201416,5.042253494262695,-0.0039839129894971,0.0006378174293786,-0.6186820268630981,0.7856311798095703,0.1797223261924558,-0.0022400171835516,-7.049532888506449e-06,-0.0116531271487474,0.0031000562012195,-0.0386930331587791,-0.0037024887278676,0.0004098312929272,-0.5145255923271179,0.857466995716095,-0.0006560985406927,0.0374155753102019,-0.0534157167637424,-0.3213241696357727,-0.2620437145233154,-0.171238899230957,84,114,13259,14542
17.8,1788349897750,5.436619758605957,5.014084339141846,-0.0038462253287434,0.0007055557798594,-0.6203086972236633,0.7843480706214905,0.1766821446285833,4.5754781287998025e-05,-1.077816943613962e-05,-0.0019731258507817,0.0020473946351557,-0.0219292175024747,-0.0039343452081084,0.0007128305733203,-0.5153963565826416,0.8569426536560059,-0.0042656248592546,0.012926110191048,-0.0384919191910754,-0.056448221206665,0.0499496459960937,-0.0661659240722656,116,140,13259,14505
17.9,1788349897850,5.464788913726807,4.929577350616455,-0.003728084731847,0.0013067270629107,-0.6212442517280579,0.783607006072998,0.1738582921640217,0.0018887756405678,-5.97500752114392e-05,-0.0014575331006199,0.0111325671896338,-0.0341268219053745,-0.0037408377975225,0.0007687462493777,-0.5167920589447021,0.8561024069786072,0.0007966813458155,-0.0097992282384356,-0.0508213164379277,0.1169241666793823,-0.0967460870742797,0.0448532104492187,111,103,14238,13568
18.0,1788349897950,5.323943614959717,4.8450703620910645,-0.0036509060300886,0.0012235831236466,-0.6224289536476135,0.7826666831970215,0.1778337044773441,-0.0046682592500568,3.530844201410176e-05,-9.620346099836752e-05,-0.0069811637513339,-0.0420651026070117,-0.0037090294063091,0.0005976492539048,-0.5184975266456604,0.855070948600769,0.0075416320397754,0.0127168578671957,-0.0325295301158893,-0.4317221641540527,-0.0681323409080505,-0.1133069992065429,69,141,13143,15502
18.1,1788349898050,4.985915660858154,5.352112770080566,-0.0039251437410712,0.0007027171086519,-0.6232486367225647,0.7820135354995728,0.1808518201776296,0.0032287215061924,1.2416636892353737e-07,0.0042505585588514,-0.0160541012883186,-0.0016628112643957,-0.0040881428867578,-0.0001073647290468,-0.516342282295227,0.8563725352287292,0.0125690190883008,-0.0448807600895789,0.085783613002812,0.258620023727417,-0.0079508423805236,-0.0410337448120117,129,109,13446,14320
18.2,1788349898150,4.647887229919434,5.521126747131348,-0.0041148867458105,0.0001157013466581,-0.6203845143318176,0.7842870354652405,0.1845041164124629,-0.0015289195547829,2.2385828328694417e-06,0.0086790034547448,-0.0232476349920034,0.0925423353910446,-0.0038918377831578,0.0001906584948301,-0.5140870213508606,0.8577291965484619,-0.0098417683031472,0.0470475315625686,0.0456660980447616,-0.193818986415863,-0.1161298751831054,-0.6575441360473633,89,136,12641,16164
18.3,1788349898250,4.422535419464111,5.577464580535889,-0.0036325603723526,0.0005403970135375,-0.6170601844787598,0.786907434463501,0.1759468052186262,0.0013097146673724,-4.828597682241652e-05,0.0048902602866292,0.0216226074844598,0.1353545188903808,-0.0033145155757665,-0.0001501217484474,-0.5066151022911072,0.8621659874916077,0.0039445873056307,0.0269198802187156,0.1433699450252041,-0.2436965107917785,-0.006220519542694,-0.1885499954223632,98,101,13609,15471
18.4,1788349898350,4.873239517211914,5.211267471313477,-0.0032226757612079,7.740268483757973e-05,-0.6107606291770935,0.7918086647987366,0.17126510816425,0.0055107301334746,9.555065039252446e-05,0.0104615502059459,-0.0080394009128212,0.1385179162025451,-0.0034310463815927,-0.00057612080127,-0.5009041428565979,0.8654958605766296,-0.0125115222428438,-0.0211062918481645,0.1493906312678507,0.0733857750892639,0.2217009663581848,-0.1860466003417968,193,78,14454,14629
18.5,1788349898450,4.450704097747803,5.605633735656738,-0.0033644270151853,-0.0002606399357318,-0.605770468711853,0.7956323623657227,0.1798506540210517,0.0027666477764522,-3.590628502383798e-05,0.0063407840207219,-0.0015590247930958,0.1004486382007598,-0.0025780368596315,-9.497534483671188e-05,-0.4977189600467682,0.8673345446586609,0.0220567255783923,0.0259684005694063,0.0771499191222453,-0.5226775407791138,-0.0148071646690368,0.7380685806274414,41,97,13393,15694
18.6,1788349898550,5.211267471313477,5.267605781555176,-0.0026685097254812,-0.0002310704439878,-0.6006416082382202,0.7995139360427856,0.1779509389460386,0.0051251526684782,1.4740510927185455e-05,0.0096769547089934,0.0012364358408376,0.1438667923212051,-0.0026277145370841,-0.0005723629146814,-0.4916849136352539,0.8707691431045532,0.0064617480854305,-0.0027837139383564,0.0425962741985067,0.0960693359375,-0.372065007686615,-0.0241680145263671,151,98,13407,14360
18.7,1788349898650,4.394366264343262,5.549295902252197,-0.0026813303120434,-0.0003173273289576,-0.598512589931488,0.8011088371276855,0.1777497947982365,-0.0026286847584067,-4.38116508802741e-05,0.0047257826663553,0.0012728428700938,0.0643756166100502,-0.0024250140413641,-0.0010226145386695,-0.488045871257782,0.8728140592575073,0.0099454406989096,-0.018857361369788,0.1533144687121791,-0.0980840921401977,0.2941210865974426,-0.1338777542114257,159,90,15670,13830
18.8,1788349898750,5.88732385635376,4.535211086273193,-0.0028571600560098,-0.0008504466386511,-0.5946954488754272,0.8039454817771912,0.187973611564294,0.0037968570020005,9.192811154967648e-05,-0.0069977156817913,-0.0157254468649625,0.0677414983510971,-0.0025019934400916,-0.0009990520775318,-0.4891509711742401,0.8721950054168701,-0.00643586852452,0.02451824978584,-0.1473159809289555,-0.3517922759056091,-0.0840421319007873,0.1327028274536132,175,83,15416,12318
18.9,1788349898850,5.521126747131348,4.985915660858154,-0.0029622970614582,-0.0005428883014246,-0.6025381088256836,0.7980843782424927,0.1613068287031972,-0.0005209208281933,1.6702524267716676e-05,-0.0125117376446723,-0.0055437302216887,-0.2422068268060684,-0.002879861742258,-0.0008730506524443,-0.4975801408290863,0.8674128651618958,0.0022188428060464,-0.0072076067461407,-0.0280964774217385,-0.1471148133277893,-0.0930356979370117,0.1650896072387695,74,134,13514,14064
19.0,1788349898950,5.549295902252197,4.816901206970215,-0.0029817102476954,-0.0005720773478969,-0.605051577091217,0.7961804866790771,0.1750504726489145,0.0022783762449472,-6.365063050230224e-05,0.0012742603430524,-0.0003724186972249,-0.026005869731307,-0.0028762007132172,-0.0006070248782634,-0.4988915026187897,0.8666595220565796,-0.01315946159433,0.0095042194390491,-0.0468365461816662,0.0997846722602844,0.0633674263954162,0.3756933212280273,137,110,13823,14128
19.1,1788349899050,5.492957592010498,4.957746505737305,-0.0030718129128217,-4.86194621771574e-05,-0.6069521307945251,0.794732391834259,0.1684222634883852,0.0011112238429385,-1.89661646415062e-05,-0.0083060674369335,0.0076606152579188,-0.0591416582465171,-0.0030141221359372,-0.0004684133455157,-0.5010322332382202,0.8654232621192932,0.0031016985950044,-0.0019887570195714,-0.0539471565854683,0.0540867447853088,0.0876153111457824,0.0273008346557617,148,105,14045,13711
19.2,1788349899150,5.464788913726807,4.873239517211914,-0.0032504708506166,-0.0002710003172978,-0.6088827848434448,0.793253481388092,0.1798067055698894,0.0003264301998693,3.3030513676880404e-05,-0.0016648063901811,-0.0110847754403948,-0.0622339136898517,-0.0034036990255117,-0.000864079222083,-0.503279447555542,0.8641166090965271,-0.0044942205307305,-0.0119863971428404,-0.0466759382929582,-0.0571219325065612,0.0456119179725647,-0.0913257598876953,139,99,14046,13810
19.3,1788349899250,5.436619758605957,4.901408672332764,-0.0036020393017679,-0.0004035293823108,-0.6108500361442566,0.7917380332946777,0.1815534328429638,0.000280920426033,7.174566661387603e-06,-0.0038015895988792,-0.0024630560074001,-0.0456120185554027,-0.0034958180040121,-0.0006434973329305,-0.5051493048667908,0.8630245923995972,-0.0066905309574269,0.0145145445909642,-0.0419950374917119,-0.0094723105430603,0.0531201362609863,-0.2008571624755859,153,87,14121,13789
19.4,1788349899350,5.464788913726807,4.901408672332764,-0.0036769572179764,-0.0003808912588283,-0.6128736734390259,0.7901722192764282,0.1818796222816908,0.0002586171252867,4.615738719028925e-05,-8.425588021054864e-05,-0.0057497667148709,-0.0509702265262603,-0.0037203067913651,-0.0009406143799424,-0.5076360106468201,0.8615631461143494,-0.0180765551852179,0.0149185244703859,-0.0463980460986832,-0.1121430397033691,0.0657888650894165,0.0380630493164062,157,97,14106,13717
19.5,1788349899450,5.436619758605957,4.957746505737305,-0.0039051810745149,-0.0006256356136873,-0.614389955997467,0.7889926433563232,0.1756558800723246,-0.0001175479304412,1.7748204414634657e-05,0.0001735116675263,-0.0096853543072938,-0.0424176789820194,-0.0035862186923623,-0.0009676087647676,-0.5094349980354309,0.8605011105537415,0.0084174829903771,-0.0069650351721645,-0.0501018855466357,-0.1635740995407104,0.1107013225555419,0.408146858215332,90,98,14208,13682
19.6,1788349899550,5.436619758605957,4.8450703620910645,-0.0033929410856217,-0.0003431286895647,-0.6160052418708801,0.7877346873283386,0.1744739849079089,0.0001607046169158,2.3448567240877502e-05,0.0100086173042654,0.0080675324425101,-0.0422684475779533,-0.0031941933557391,-0.001001295633614,-0.5109652280807495,0.8595949411392212,0.0084890360005541,-0.0049206078232029,-0.0432369858315833,0.0535874962806701,-0.1680560111999511,-0.0972318649291992,81,100,14204,13896
19.7,1788349899650,5.239436626434326,4.8450703620910645,-0.0032092006877064,-0.0003318693488836,-0.6180735230445862,0.7861136794090271,0.1786081881918939,-0.0038257691765288,1.96991669805701e-05,-0.0009076311253011,0.0032531667966395,-0.0476323924958705,-0.0029134070500731,-0.0009391587227582,-0.5136535167694092,0.8579921722412109,0.0211193493486055,-0.0076414557903786,-0.0454658038709731,0.1638272404670715,-0.2428474426269531,-0.4142980575561523,78,79,14856,13915
19.8,1788349899750,5.577464580535889,4.901408672332764,-0.0031063854694366,-0.0005223875632509,-0.6204463839530945,0.7842426300048828,0.1759057323054082,-0.0038433458632682,-9.829050747995995e-06,0.00289534823969,-0.0012740644160658,-0.0555467084050178,-0.0029487777501344,-0.0010939221829175,-0.5158432722091675,0.8566771745681763,-0.0008002130341493,-0.0216968643291783,-0.0440881762752544,0.2420970201492309,0.2864341139793396,0.0037879943847656,112,103,13781,13759
19.9,1788349899850,5.605633735656738,4.873239517211914,-0.0028635705821216,-0.0005049887113273,-0.6220223307609558,0.7829940319061279,0.1803218361132733,-0.0037806342365244,-2.4411226517805185e-05,0.0006003906601108,0.0134652284905314,-0.0370676852762699,-0.0024891626089811,-0.000506960786879,-0.5180667042732239,0.8553364276885986,0.0091033949601449,0.0538935302534613,-0.0670513994439911,-0.2260264754295349,-0.1051496267318725,-1.2151670455932615,95,89,13568,13909
20.0,1788349899950,5.549295902252197,4.985915660858154,-0.0028871945105493,-0.0001824640203267,-0.6245406270027161,0.7809869647026062,0.1791829034130326,-8.22180366336732e-05,8.616353652966078e-05,-0.0106157073751091,-0.0052216248586773,-0.0647490993142128,-0.0025945398956537,-0.0006761802360415,-0.5204359292984009,0.85389643907547,0.0063063620057242,0.0142040808044718,-0.044581370856167,0.1186633110046386,-0.0684210658073425,-0.6111536026000977,114,105,13825,13432
20.1,1788349900050,5.577464580535889,4.873239517211914,-0.0026760571636259,-0.0003350047627463,-0.6264060735702515,0.7794922590255737,0.1793921237469317,-0.0005911700434351,4.703626690168208e-06,0.0009110316168516,0.0004403397906571,-0.0583676137030124,-0.0026542767882347,-0.0002655228599905,-0.5227751731872559,0.8524664640426636,-0.0213289022970665,0.0185975865071805,-0.0652329104687289,-0.2540284395217895,0.2018176913261413,-0.1130599975585937,102,128,13673,13991
20.2,1788349900150,5.577464580535889,4.8450703620910645,-0.0025904653593897,0.0004821362090297,-0.6285427808761597,0.7777705788612366,0.1753508030969308,-0.0008585104467896,-9.43741581457042e-05,-0.0123861553147435,0.0179732609540224,-0.0568428188562393,-0.0026666820049285,0.0002345712855458,-0.5241233706474304,0.8516381978988647,-0.0040566444479866,0.0002900764413129,-0.0264172534820287,0.0495306253433227,-0.0076321959495544,0.2545814514160156,124,95,13620,14169
20.3,1788349900250,5.070422649383545,4.8450703620910645,-0.0027082515880465,0.0006640992942266,-0.6295122504234314,0.7769855260848999,0.1761994464444512,-0.0046206092740388,-5.359635483096824e-07,-0.0025639401283115,0.000529141514562,-0.0280517842620611,-0.0027527976781129,0.0006229747086763,-0.5265060067176819,0.8501666784286499,-0.0004363596008304,-0.0014087805355584,-0.0505976106276141,0.0126116871833801,-0.0101866722106933,-0.2082939147949218,58,96,13368,13550
20.4,1788349900350,3.126760482788086,4.2253522872924805,-0.002606478286907,0.0010545043041929,-0.6310582756996155,0.7757302522659302,0.1767150977984055,-0.002946164990294,-1.437873354881988e-05,-0.0010468208929523,0.0028814622201025,-0.0307180136442184,-0.002656084485352,0.0009994991123676,-0.52483069896698,0.8512019515037537,-0.0011080272032771,0.0105188519402988,0.1461539746577667,-1.2857972383499146,0.2486937642097473,-0.1074705123901367,91,89,3631,11727
20.5,1788349900450,0.0,3.521126747131348,-0.0025139963254332,0.0012198634212836,-0.6246565580368042,0.7808945775032043,0.0982480386191176,0.005205491522749,2.383140343569034e-06,0.0027944121975451,-0.0030708094127476,0.2988278865814209,-0.0027434341609477,0.0006921906024217,-0.5091727375984192,0.8606597781181335,0.0026358798531385,-0.0128017914258182,0.515319997473741,-0.5652296543121338,0.0874568223953247,-0.1166315078735351,3,102,0,11045
20.6,1788349900550,-2.760563373565674,2.8450703620910645,-0.002622471190989,0.0011184643954038,-0.5994320511817932,0.8004205822944641,0.045062479576139,0.0020365614452491,1.7844270698842804e-06,-0.0022368812933564,0.0031706918962299,0.6352209448814392,-0.0027905525639653,0.0006395354866981,-0.4840686619281769,0.8750253319740295,0.0022276116068684,-0.0088395851807288,0.6659273049881212,-0.5398964881896973,-0.0321951508522033,-0.0953712463378906,190,84,-12499,9300
20.7,1788349900650,-2.873239517211914,2.901408433914185,-0.0025887601077556,0.0009824662702158,-0.569838285446167,0.8217521905899048,-0.0047518868936956,0.0020247137702056,-3.541116666846136e-07,0.002715726615861,-0.0002510001068003,0.8768265247344971,-0.002670207992196,0.0004975907504558,-0.4365391731262207,0.8996812105178833,0.0082429552481176,-0.0104486532374565,0.933888067449726,0.32187020778656,-0.2879909873008728,-0.1101293563842773,72,108,-10482,9549
20.8,1788349900750,-2.873239517211914,2.5915493965148926,-0.0024750414304435,0.0008218713919632,-0.5316087603569031,0.8469860553741455,0.0040141939401402,-0.0033776014976843,-2.0124416790960758e-07,0.0056361109018325,-0.0005776345496997,0.8869603276252747,-0.0027208849787712,0.0004135947674512,-0.4014971852302551,0.915856122970581,-0.0040341369571841,-0.0134871618703462,0.7996537510685975,0.2949320673942566,-0.3363935947418213,0.1501760482788086,60,92,-7837,8147
20.9,1788349900850,-2.1408450603485107,2.366197109222412,-0.0025456515140831,0.0006395905511453,-0.4990577101707458,0.8665648698806763,-0.001357520995542,0.0001785845457849,-2.789452597682105e-07,0.005835501011461,-0.0025182282552123,0.7504766583442688,-0.0026339599862694,0.0004970449954271,-0.3596836626529693,0.9330705404281616,0.0014916453449228,0.0004217211854028,0.7539572585894216,0.3103164434432983,-0.2246553897857666,-0.1656579971313476,83,70,-8507,7134
21.0,1788349900950,-1.887323975563049,2.2253520488739014,-0.0023636582773178,0.0007950927829369,-0.4629468321800232,0.8863825798034668,0.0033770265228654,-0.0016753833186769,-6.355238834474531e-07,0.0060298987664282,-4.804421405424364e-05,0.7112561464309692,-0.0023355418816208,0.0005774870514869,-0.3317770063877105,0.9433548450469972,0.0017285859009549,0.0029922291333873,0.6334427513990225,-0.2128125429153442,0.1994901299476623,-0.0138883590698242,124,124,-9386,7648
21.1,1788349901050,-2.197183132171631,2.281690120697021,-0.0023311155382543,0.0008329666452482,-0.4370233714580536,0.8994466662406921,-0.0061573080518433,0.0026997572295135,-1.7871649708029594e-07,-0.0027314017061144,-0.005079573020339,0.6683080792427063,-0.0023411717265844,0.0002329312264919,-0.3025711178779602,0.953123927116394,0.0090397830351864,-0.0089760892907235,0.6515312022335169,0.2042289972305297,-0.1850345134735107,0.0391492843627929,90,32,-6492,5308
21.2,1788349901150,-1.8309859037399288,1.7183098793029783,-0.0023336946032941,0.0001870351261459,-0.4072869122028351,0.9132972359657288,0.0030754886169527,-0.0018094248502723,1.7011490676855014e-07,0.0044549913145601,-0.0127519983798265,0.6049100160598755,-0.0024626217782497,-0.0002623023465275,-0.2722858190536499,0.9622132778167723,-0.0003656055559633,-0.0090023133436476,0.5495453622490252,0.1759711503982544,0.0093207359313964,-0.1381645202636718,117,105,-7464,7021
21.3,1788349901250,-1.7183098793029783,1.8309859037399288,-0.0024010171182453,-7.731752702966332e-05,-0.3830142319202423,0.9237393736839294,0.0008387770246763,-0.0009519412116534,-5.215704870779776e-07,0.005415535531938,-0.0058584362268447,0.5576257109642029,-0.0022909212857484,-0.0005382988601922,-0.2481139749288559,0.968728005886078,0.0044772947892639,-0.0055327649494633,0.5563997579351369,-0.1793373823165893,0.1613938808441162,-0.1289091110229492,99,132,-8066,6853
21.4,1788349901350,-1.3521126508712769,1.436619758605957,-0.0025070020928978,-0.0003516828292049,-0.3539979755878448,0.935242772102356,-0.0040658668923885,0.0023766574387136,-9.819994427681966e-07,-0.0023575781378895,-0.0069436621852219,0.5784940123558044,-0.0024360381066799,-0.0006929254159331,-0.2235642373561859,0.9746858477592468,0.0013496259559292,-0.002668704090605,0.5428001226206082,0.2688764929771423,-0.3465111255645752,0.0423803329467773,128,68,-6815,5885
21.5,1788349901450,-1.6056338548660278,1.5492957830429075,-0.0023810530547052,-0.0005331201828084,-0.3342300951480865,0.9424883723258972,0.0020300967710686,-0.0005888491137481,6.144018630760817e-07,0.0062037981115281,-0.0032747213263064,0.4089879989624023,-0.0022671818733215,-0.000864777714014,-0.1979780346155166,0.9802035093307496,0.0004567685626018,-0.0011591576565035,0.4578107706643086,-0.1528764963150024,-0.137617290019989,-0.0578069686889648,77,120,-6535,5921
21.6,1788349901550,-1.4647886753082275,1.7183098793029783,-0.0024104975163936,-0.0005799940554425,-0.3125160038471222,0.9499093294143676,-0.002150124279861,-0.0001653137884125,1.933418712943934e-07,-0.0010746597545221,-0.0022886407095938,0.46394944190979,-0.0023478949442505,-0.0010159211233258,-0.1767883449792862,0.9842456579208374,0.0016071279810843,-0.0083162257126897,0.490555387911158,0.1339354515075683,-0.1435218453407287,0.0572261810302734,78,87,-6740,5388
21.7,1788349901650,-1.2394366264343262,1.154929518699646,-0.0024203665088862,-0.0008970461203716,-0.2900713682174682,0.957001566886902,0.0018842094133595,-0.0008856610142676,-1.40374844882096e-07,0.0044365543872118,-0.0078363940119743,0.4769505858421325,-0.002384596504271,-0.0013980949297547,-0.1525640785694122,0.988289713859558,-0.0042687144188669,-0.0058612757899002,0.3412170019944071,-0.1042351126670837,0.0040211677551269,0.0467748641967773,77,96,-4913,4686
21.8,1788349901750,-1.211267590522766,1.2676056623458862,-0.0025806580670177,-0.0010758663993328,-0.2718480229377746,0.9623361825942992,-0.0006284882316778,-0.0001393928552051,2.1560784797144598e-07,-0.0022321862634271,-0.0027865769807249,0.314879447221756,-0.0024106577038764,-0.0012804418802261,-0.1378943175077438,0.990443229675293,0.0028058275807282,0.0012389434459028,0.3457142507099468,-0.0457009673118591,-0.0088977813720703,-0.0017433166503906,106,103,-5592,5162
21.9,1788349901850,-1.1267606019973757,1.154929518699646,-0.0024675335735082,-0.0009194019366987,-0.2565670311450958,0.9665228724479676,0.0014477801020619,0.0002607723995336,-4.111166389521891e-09,0.0039632888510823,0.0021902772132307,0.3423415422439575,-0.0021279603242874,-0.0012616356834769,-0.1221756115555763,0.9925053715705872,0.0111169070864117,-0.0021375610807885,0.346753020567051,-0.1822633147239685,-0.0228176712989807,-0.0108137130737304,97,76,-6259,5326
22.0,1788349901950,-1.2394366264343262,1.183098554611206,-0.0021303156390786,-0.0009742329129949,-0.2390109300613403,0.9710140228271484,0.0021015620298212,-0.0011858232739504,-2.1069913118674607e-07,0.0053874836303293,0.0003918279835488,0.3495222926139831,-0.0019884333014488,-0.0013770284131169,-0.1002808511257171,0.9949563145637512,-0.0014877965751957,-0.0043081902867854,0.3713510873664804,0.1201218962669372,-0.0720666646957397,0.0861434936523437,93,74,-5700,5132
22.1,1788349902050,-1.183098554611206,1.2676056623458862,-0.0021846736781299,-0.0010488718980923,-0.2215671986341476,0.9751420617103576,-0.0020134433762166,0.0007406179049346,-1.1042724494379769e-07,-0.0025842140894383,-0.0008212969405576,0.3662072420120239,-0.0020198766142129,-0.0014005191624164,-0.0841861739754676,0.9964470863342284,-0.0002439909528289,-0.0038802389085764,0.3454926520696758,0.0358136892318725,-0.0455979704856872,-0.0143957138061523,64,66,-4905,4237
22.2,1788349902150,-0.8450704216957092,0.591549277305603,-0.0021912751253694,-0.0011134004453197,-0.2049582600593567,0.9787676334381104,0.0017402680159513,-0.001935906840027,-2.6806030241434385e-08,-0.0002505980955902,-0.0006277428474277,0.2497241050004959,-0.0019874880090355,-0.0014333948493003,-0.0741340890526771,0.9972453117370604,0.0028630114195598,-0.0030144609597985,0.2046034411685602,0.1810961365699768,0.1679131984710693,-0.0730772018432617,23,5,0,0
22.3,1788349902250,0.0,1.436619758605957,-0.0021544259507209,-0.0011941433185711,-0.1973193883895874,0.9803361296653748,0.0017280499900086,0.0008867075590936,-5.582197048902555e-07,0.0010004711803048,-0.0030575366690754,0.1475838124752044,-0.0020437892526388,-0.0016595870256423,-0.0691067948937416,0.997605800628662,-0.0010341258872275,-0.0072421553395207,0.0688641179423717,0.905930757522583,0.2527580261230469,0.1321382522583007,177,304,4847,10239
22.4,1788349902350,1.042253494262695,4.478873252868652,-0.0021493316162377,-0.0012743128463625,-0.1921021193265915,0.9813717603683472,0.0366653585781338,0.0019376134253227,3.6991294971711634e-06,0.0023562582209706,0.0003228668647352,0.2156021744012832,-0.0021327640861272,-0.0014451304450631,-0.0522091314196586,0.9986329078674316,-0.0034923587606572,0.0065909182991995,0.4587443189500394,0.5047520399093628,-0.1040070652961731,0.1706047058105468,121,216,5734,15028
22.5,1788349902450,1.6901408433914185,6.760563373565674,-0.0021279326174408,-0.0011563361622393,-0.1688058376312255,0.9856463670730592,0.1064908648539411,0.0014824634477949,4.150912384626977e-06,0.0085780788213014,-0.0003153203288093,0.5461111068725586,-0.0017868056893348,-0.0013360669836401,-0.0251524746417999,0.9996811747550964,0.013581432318577,0.0013776258251433,0.6775310818723478,0.4022035002708435,0.2475948333740234,0.1337308883666992,133,210,6320,21603
22.6,1788349902550,1.8028168678283687,8.563380241394043,-0.0016853982815518,-0.0011569262715056,-0.1291325241327285,0.991625189781189,0.1628448049410888,0.0048610984248956,-1.6940866155683296e-05,0.0086716776713728,0.0002151561639038,0.8042696714401245,-0.0019033215939998,-0.0011878143996,0.0284052807837724,0.99959397315979,-0.0060558042120601,-0.0267390024913502,1.010699531285642,-0.0995463132858276,0.2432027459144592,0.4514617919921875,112,107,8588,21746
22.7,1788349902650,1.94366192817688,7.88732385635376,-0.0021454556845128,-0.0007426447700709,-0.0857673436403274,0.9963126182556152,0.1888583818552196,0.0015087701905312,-8.413104513299662e-06,-0.0049075689166784,-7.225916306197178e-06,0.9449938535690308,-0.0019679870456457,-0.0010365648195147,0.0697543248534202,0.9975617527961732,0.0037522248027548,0.019836956881242,1.0208640939763238,0.2734683156013489,0.2663643360137939,-0.1231222152709961,159,101,9757,20396
22.8,1788349902750,2.5915493965148926,7.295774459838867,-0.0019773070234805,-0.0005353505839593,-0.0421435236930847,0.9991094470024108,0.1788586056969936,0.0021458339509145,2.9291633080942177e-05,0.0053261071443557,0.0072488812729716,0.8264748454093933,-0.0016323635354638,-0.0006441157311201,0.1037839353084564,0.9945982694625854,0.0091936998153053,0.0139708302047328,0.6778300145440247,0.1344713568687439,-0.1072706580162048,0.0608625411987304,95,94,9407,20309
22.9,1788349902850,3.4084506034851074,7.154929637908936,-0.0017800620989874,-0.0004595773352775,-0.0082149039953947,0.9999645948410034,0.1846498019619871,0.0050867410505637,2.286835150781295e-05,-0.0028497888706624,-0.0024040704593062,0.6589289903640747,-0.0017390651628375,-0.0003222310915589,0.1354197412729263,0.9907867312431335,0.0051225167234149,0.0258767124483143,0.7780650452410345,-0.9518008828163148,-0.3486338853836059,0.2125701904296875,133,43,8694,18392
23.0,1788349902950,2.6478872299194336,7.154929637908936,-0.0020849674474447,0.0001213804280268,0.031120290979743,0.9995135068893432,0.1692967390577093,0.004161677036432,8.515408160912317e-07,-0.0074992193840444,0.008058295585215,0.6801009178161621,-0.0022668819874525,0.0003293687477707,0.1760669350624084,0.984375536441803,-0.0020992759814302,0.0009894460604091,0.6812577906489744,-0.1617981195449829,-0.1712726354598999,-0.005838394165039,120,122,9490,20529
23.1,1788349903050,3.323943614959717,6.535211086273193,-0.0019824537448585,0.0005008893203921,0.0618681423366069,0.9980822801589966,0.1743218488777235,0.0028101952028338,6.072482290052618e-05,0.0103510683402419,-0.0071894950233399,0.6736341118812561,-0.0020802021026611,0.0003710966557264,0.203968659043312,0.9789751768112184,-0.0046566125634279,0.0064306129898851,0.5605330251875222,-0.2377532124519348,-0.2166098952293396,-0.0616626739501953,106,91,11501,17901
23.2,1788349903150,3.94366192817688,6.253520965576172,-0.0018406676826998,0.0003729852323886,0.0891650468111038,0.9960151314735411,0.1791428949427693,-0.0009688264947439,1.399373439140454e-05,0.006206969730556,-0.0081743849441409,0.4956879317760467,-0.0022106012329459,4.725437611341477e-05,0.2243257910013198,0.9745116829872132,-0.0199742559400829,0.0145966205502777,0.4543786769039527,-0.1708186864852905,0.0250914096832275,0.238922119140625,153,89,11416,17088
23.3,1788349903250,3.91549301147461,5.97183084487915,-0.0017997515387833,-9.354390203952788e-05,0.1096956133842468,0.9939635992050172,0.1788815569423329,-0.0015281357549799,8.039408043047924e-05,0.0111398845911026,-0.0119120264425873,0.4065630733966827,-0.0017749750986695,-0.0003197127953171,0.2453517019748687,0.9694324731826782,0.0047819723223461,-0.0061468724639734,0.3180155151638134,0.3365909457206726,-0.0132374763488769,-0.0573835372924804,197,67,14695,15040
23.4,1788349903350,4.957746505737305,5.380281925201416,-0.0018529501976445,-1.8700375221669677e-05,0.1241299659013748,0.9922642707824708,0.1809679057437568,0.004149804585754,-3.130978807739302e-06,0.0001381279580527,-0.0010738831479102,0.2393494844436645,-0.001717634499073,-0.0005801124498248,0.2518792748451233,0.967756986618042,0.0020268174832688,-0.0219960854725919,0.0733995660469919,0.1969503164291381,0.1956996321678161,-0.2185440063476562,85,139,11967,15667
23.5,1788349903450,4.2253522872924805,5.577464580535889,-0.0017689542146399,-0.0006836932152509,0.1289507746696472,0.9916492104530334,0.1733058393194099,0.0047111264022243,-4.437779744177814e-06,-0.0016285383608192,-0.0058757183142006,0.134186789393425,-0.0020717466250061,-0.000586949288845,0.2578910589218139,0.9661716222763062,-0.0156908700513243,0.0412265485506339,0.1437842293855172,-0.2934080958366394,0.0345249772071838,0.1329355239868164,120,103,14284,15645
23.6,1788349903550,4.8450703620910645,5.549295902252197,-0.0020861404482275,-0.0006326994625851,0.1362357139587402,0.9906740188598632,0.1772599369162728,0.0019990230413659,3.068947073030071e-05,-1.296287609875435e-05,-0.0075771808624267,0.1466208100318908,-0.0019107731059193,-0.0013081282377243,0.266264408826828,0.9638972282409668,0.0086508716170753,-0.0238663261295984,0.1463639514016469,0.1020677685737609,0.2315582633018493,-0.0765657424926757,87,114,12038,15707
23.7,1788349903650,4.309859275817871,5.577464580535889,-0.0021605510264635,-0.0009242320666089,0.1439111679792404,0.9895877838134766,0.1775837037981062,0.003719915242998,5.93839289807743e-05,-0.0008377412450499,-0.0057924059219658,0.1701775342226028,-0.0019236737862229,-0.0016788067296147,0.273788571357727,0.9617865085601808,0.0008018822990842,0.0007160264107864,0.1975727646391591,-0.2799071073532104,-0.1056326031684875,-0.0469903945922851,51,121,14521,14933
23.8,1788349903750,4.732394218444824,5.211267471313477,-0.0020013058092445,-0.0016446120571345,0.1501626670360565,0.9886578917503356,0.1817183127815509,0.0039365410015203,4.6536250856524216e-05,0.0030239834450185,-0.0065007065422832,0.0852117240428924,-0.0015297196805477,-0.002023871988058,0.2763978838920593,0.961039900779724,0.0100029014085372,-0.0128825550881739,0.0310497628507985,0.1103289723396301,0.061420738697052,-0.0949220657348632,115,106,14633,14643
23.9,1788349903850,4.535211086273193,5.408450603485107,-0.0017361277714371,-0.0022601222153753,0.1519680768251419,0.9883812069892884,0.1796446146788101,0.0033974990810488,0.0001016969241732,-0.0007394531858153,-0.0231124926358461,0.0518853552639484,-0.0014752009883522,-0.0028970427811145,0.2784227430820465,0.9604531526565552,-0.0110037033920457,-0.0027695305016423,0.0024909607948167,-0.1686905026435852,0.0156007409095764,0.3485851287841797,30,178,12877,16310
24.0,1788349903950,4.901408672332764,5.408450603485107,-0.0015230597928166,-0.0032573868520557,0.1545193046331405,0.987983226776123,0.181661508785084,0.0011089469575644,5.053018429087732e-05,0.0004075127362739,-0.0374667085707187,0.0708644911646843,-0.000828756019473,-0.0034555662423372,0.2839004397392273,0.958847165107727,0.0186004815716409,-0.0418116869297942,0.1645836750206064,-0.1484705209732055,-0.1229912638664245,0.5440816879272461,196,89,14109,14086
24.1,1788349904050,4.704225540161133,5.492957592010498,-0.0012648224364966,-0.0032753103878349,0.1607588827610016,0.9869874715805054,0.1797990059666115,0.0016998888274313,-1.7438410872743195e-05,0.000898752361536,-0.0008258176967501,0.0753176510334014,-0.0010850736871361,-0.0032220361754298,0.2875824570655823,0.957749843597412,-0.0172428087035272,0.0200572938305028,0.1069539148959076,-0.2070093750953674,0.4621440172195434,0.0444068908691406,92,59,14576,13990
24.2,1788349904150,5.211267471313477,5.183098793029785,-0.0010044159134849,-0.0033882886637002,0.1659298241138458,0.986131191253662,0.1776962841253433,0.003546673815264,4.191300516666078e-05,0.0025735136587172,-0.0051264585927128,0.0816476568579673,-0.0004208646714687,-0.0036668516695499,0.2921286821365356,0.9563719034194946,-0.0151936873354436,0.0185421748837848,0.043732558868018,0.3147656321525574,0.2626901865005493,-0.8898372650146484,103,117,13050,14727
24.3,1788349904250,5.126760482788086,5.211267471313477,-0.0007920259959064,-0.0040761926211416,0.1677995324134826,0.9858123660087584,0.1737480675795155,0.002968565993854,6.018274902483082e-05,-0.0125473784282803,-0.0224793683737516,0.0518671572208404,5.605537444353104e-05,-0.0042315041646361,0.2945807874202728,0.9556171894073486,0.0214331664518625,-0.0298240149867904,0.0774350781191953,0.2618326544761657,-0.0386936664581298,-0.3696498870849609,153,92,13382,14800
24.4,1788349904350,5.070422649383545,4.985915660858154,-0.0004804059281013,-0.0042627165094017,0.1707806140184402,0.9852997660636902,0.1809031409740094,0.0014599870245083,-9.619463458201655e-05,0.0015587650705128,-0.0021831102203577,0.0626773238182067,0.0001072706654667,-0.0037281271070241,0.2958396077156067,0.9552304148674012,0.0081010783545523,0.033373385933868,-0.0053582165963718,0.0105194449424743,-0.0643297433853149,-0.2477331161499023,175,78,15985,13251
24.5,1788349904450,5.211267471313477,4.873239517211914,-0.0003312800545245,-0.0037247107829898,0.1688637733459472,0.985632300376892,0.1750977753927165,-0.0020923442515769,1.657553651431941e-05,0.0020745184738188,0.0066585703752934,-0.0950047373771667,1.637730747461319e-05,-0.0039182202890515,0.2917150855064392,0.9564972519874572,-0.0063353666520095,0.003370516651902,-0.0672829933734753,-0.0611243247985839,0.040194034576416,0.5931072235107422,162,114,15067,13896
24.6,1788349904550,4.873239517211914,4.8450703620910645,-0.0005882034893147,-0.0038039959035813,0.1654259264469146,0.9862146973609924,0.1775841903870715,-0.0005298775860727,6.54114690145496e-05,-0.0070443958975374,0.0007663449505344,-0.0857164785265922,2.169981598854065e-05,-0.0038548083975911,0.2894730567932129,0.9571784734725952,0.0035451766526837,0.0018455474116473,-0.0424478124229847,-0.0868600606918335,-0.0781899094581604,0.2820644378662109,129,111,16164,13990
24.7,1788349904650,4.760563373565674,5.126760482788086,-0.0003590936539694,-0.0041464651003479,0.1635631024837494,0.9865241050720216,0.1771216554462075,-0.0019170743807126,1.750212000164557e-05,0.0037311085034161,-0.0119978059083223,-0.0617545172572135,-0.0001470297574996,-0.0040416149422526,0.2877320647239685,0.9577023983001708,-0.0150973950461825,0.0224260841655627,-0.0152834505693334,-0.0192809700965881,-0.0245935320854187,-0.116490364074707,74,95,15272,14429
24.8,1788349904750,5.014084339141846,5.126760482788086,-0.0008020210079848,-0.0042784693650901,0.1630984991788864,0.9866002202033995,0.1786862309764931,0.0003904251328281,-1.2166088760814163e-09,-0.0127976648509502,-0.001418549567461,0.0103539517149329,-0.0002813823521137,-0.0043384376913309,0.2882534563541412,0.957544207572937,0.0027442596879772,-0.0028508591077316,-0.0004811289579388,-0.0977137684822082,-0.2107024788856506,-0.1313142776489257,62,121,14588,14165
24.9,1788349904850,5.408450603485107,4.873239517211914,-0.0008020210079848,-0.0042784693650901,0.1630984991788864,0.9866002202033995,0.1782738075624648,-0.0012848247037614,2.2172972880191694e-07,0.0,-1.1778715780508262e-09,0.0,-0.0006864527240395,-0.0043208329007029,0.2881061136722564,0.9575884938240052,-0.0073693461294578,0.0060856471636098,-0.0001008149010941,0.0377553105354309,0.2148331403732299,0.0440139770507812,103,110,14392,14120
25.0,1788349904950,5.408450603485107,4.929577350616455,-0.0014036768116056,-0.0043250145390629,0.1628285050392151,0.9866438508033752,0.1789150989420657,-0.0003241187744786,-3.571143497314636e-05,-0.0180544331669807,0.0015770361060276,-0.0081222560256719,-0.0007998598739504,-0.0042485380545258,0.2869672179222107,0.957930624485016,0.0075460592912551,0.0079115089536295,-0.0318167348720404,-0.0393431782722473,-0.3243306279182434,0.1108589172363281,111,117,14468,13761
25.1,1788349905050,5.042253494262695,4.816901206970215,-0.0011894317576661,-0.0039424644783139,0.1604385077953338,0.9870373010635376,0.1780872887761587,0.0006409692367648,-1.0112023902135004e-05,0.0062572928145527,0.0077672572806477,-0.0498851016163826,-0.0008344855159521,-0.0040393453091382,0.284192681312561,0.9587582945823668,-0.002384925201916,0.0041866548768987,-0.0556408635602389,-0.062196135520935,-0.2472109198570251,-0.1332540512084961,74,94,15580,14157
25.2,1788349905150,5.042253494262695,5.014084339141846,-0.0014530167682096,-0.0039486396126449,0.1586193442344665,0.9873307943344116,0.1741552804541355,-0.0034916086486492,4.497024363815014e-06,-0.0053128185681998,-0.0022689341567456,-0.0313154272735118,-0.0009575802832841,-0.0040802657604217,0.2820672392845154,0.9593855142593384,0.0029494384340009,-0.012022166215738,-0.0467066251666747,0.0762719511985778,0.1731929183006286,0.0489931106567382,56,108,15566,13625
25.3,1788349905250,4.985915660858154,4.957746505737305,-0.0013428919482976,-0.0036495483946055,0.1558582186698913,0.9877718091011048,0.1750008072667463,-0.0014132734158833,-3.162753851156983e-05,0.0073443436995148,0.0043516517616808,-0.0576044544577598,-0.001063585281372,-0.0031626475974917,0.2804693579673767,0.9598572254180908,0.0011476378631455,0.0626996904322366,-0.0231366028469119,-0.3123310804367065,-0.1855456233024597,-0.6419095993041992,48,135,14609,14965
25.4,1788349905350,4.647887229919434,5.492957592010498,-0.0016770380316302,-0.0030645583756268,0.1552619040012359,0.9878671765327454,0.1749150125674479,-0.0005909774816827,1.793024173171073e-06,-0.0089182071387767,-0.0011912154732272,0.0032395536545664,-0.0009327055886387,-0.003115932457149,0.2815110087394714,0.959552526473999,0.0059694246485803,0.0551488302430287,0.054114820904449,-0.344208300113678,0.0898746252059936,-0.554692268371582,145,123,12699,16291
25.5,1788349905450,5.014084339141846,5.154929637908936,-0.0012114194687455,-0.0037735328078269,0.1589798182249069,0.9872738718986512,0.1775488260694022,0.0039487517939109,5.002466056396031e-05,0.0015181647613644,-0.0269080456346273,0.1216708049178123,-0.0005753608420491,-0.00402492005378,0.2885373830795288,0.9574599862098694,0.0161083359172005,-0.0296417649450184,0.1968899893404645,0.5925115942955017,0.0511687397956848,-0.6280088424682617,162,48,14823,13815
25.6,1788349905550,5.014084339141846,5.464788913726807,-0.0010909892152994,-0.0033105264883488,0.1651129275560379,0.9862684607505798,0.1771794322287229,0.0038934747205802,-0.000127292284476,0.0045738439075648,0.0238879788666963,0.0842470973730087,-0.0007647685706615,-0.0036185458302497,0.2900803089141845,0.9569951891899108,-0.0120659434491344,0.0060233034275861,-0.0186066178636102,0.0120108723640441,0.0999176502227783,-0.1934757232666015,76,184,11429,16152
25.7,1788349905650,4.478873252868652,5.633802890777588,-0.001125352922827,-0.0034520104527473,0.1672275513410568,0.9859116077423096,0.1799267691850736,0.0018045463909652,-6.11008805115398e-06,-0.0022646116558462,-0.0061423378065228,0.095896877348423,-0.0006182957440614,-0.0034534940496087,0.2980043590068817,0.9545581340789796,-0.0014231708303885,-0.0080847782555159,0.1719777161134741,0.0177531242370605,0.0128934383392333,0.9952993392944336,68,104,13393,15649
25.8,1788349905750,4.2253522872924805,5.549295902252197,-0.0010325761977583,-0.0033379469532519,0.1767601668834686,0.9842477440834044,0.1796471723162366,0.0048641788940504,1.305630557747022e-05,0.0019924973603338,-0.0029679015278816,0.1636167615652084,-0.0006981510668992,-0.0035077976062893,0.3046334087848663,0.952462911605835,-0.0058812997325043,0.0061125262288581,0.149229753501467,-0.3199740052223205,0.121345043182373,0.1926202774047851,111,108,14235,15687
25.9,1788349905850,4.676056385040283,5.464788913726807,-0.001031398307532,-0.0033914723899215,0.1830577999353408,0.9830958247184752,0.1739926496994941,0.0033279931414055,3.298154754767036e-05,0.0051377862691879,-0.0011841000523418,0.1315482854843139,-0.0005976725369691,-0.0035460125654935,0.310694932937622,0.950502872467041,-0.0092569492615372,-0.0041864580032383,0.1414811353823735,0.0830762386322021,-0.0735894441604614,0.0773067474365234,91,130,12796,16018
26.0,1788349905950,4.253520965576172,5.605633735656738,-0.0012383853318169,-0.0033616293221712,0.1901110708713531,0.981756031513214,0.1753350248262744,0.0054881209975791,-1.0217697334977457e-05,-0.0056193429045379,-0.0008419808582402,0.1402614861726761,-0.0007663881406188,-0.0035209525376558,0.3195735216140747,0.947554647922516,0.0021431522146673,0.0041894249705215,0.166629168769884,-0.1736934185028076,-0.1200284957885742,-0.037851333618164,137,106,14121,15526
26.1,1788349906050,4.8450703620910645,5.577464580535889,-0.0012272497406229,-0.003825232386589,0.1978069543838501,0.980232834815979,0.1753642451944294,0.0020867115329636,1.9753280943485695e-05,-0.0035064762923866,-0.0166280828416347,0.1578508466482162,-0.0009267413988709,-0.0036380030214786,0.3259610831737518,0.9453758001327516,-0.0018487814108487,-0.0080697481499389,0.1359021660263712,0.2025867104530334,-0.2182829976081848,-0.0361757278442382,136,122,12884,15098
26.2,1788349906150,5.098591327667236,5.323943614959717,-0.0014068029122427,-0.0034587015397846,0.2039115130901336,0.978982150554657,0.1750164376302312,0.0032129957886299,-2.3224955798566327e-05,-0.0003819981357082,0.0001968127762665,0.0830482318997383,-0.0007613841444253,-0.0039207730442285,0.3291719853878021,0.9442616105079652,0.0069324868717947,-0.0223073922105903,0.0998220184943401,-0.1449242234230041,0.3960072994232178,0.2562837600708008,48,141,13207,16129
26.3,1788349906250,5.267605781555176,5.014084339141846,-0.0013327782507985,-0.0039691771380603,0.2088584303855896,0.9779369235038756,0.176063694934475,0.0060069429022552,3.2898710343287727e-06,-0.0053530419245362,-0.0124600389972329,0.1155319958925247,-0.0007744235917925,-0.0038197776302695,0.3331515192985534,0.942865252494812,0.0058001978834691,-0.0094775286256095,-0.0012174566736201,0.3171392679214477,0.0755565166473388,-0.2095880508422851,173,121,14072,14179
26.4,1788349906350,5.267605781555176,4.873239517211914,-0.0013715408276766,-0.0035691461525857,0.2096249163150787,0.977774441242218,0.1778642593581098,-0.0007118020073719,1.0513876669844829e-07,9.171317927325616e-09,1.2610562372117329e-08,-5.869643473488395e-07,-0.0010264972224831,-0.0032237255945801,0.332265168428421,0.943179965019226,-0.0059877718583554,0.0250440908524279,-0.0266680594915113,-0.1480107307434082,0.0851444005966186,-0.1666822433471679,193,91,15075,13720
26.5,1788349906450,4.957746505737305,4.873239517211914,-0.0013931224821135,-0.0031138802878558,0.2079527825117111,0.9781328439712524,0.1813359692176137,-0.0006520247171158,-8.425563075451818e-06,-0.0014614136889576,0.0169450286775827,-0.0500901825726032,-0.0010501574724912,-0.0034849159419536,0.3306161165237427,0.9437583088874816,0.0082338157011567,-0.0203749800221944,-0.0099477032786869,0.4867244362831116,-0.2390986680984497,-0.4061546325683594,181,84,15815,14075
