time_s,timestamp_ms,wheel_vels__velocity_left,wheel_vels__velocity_right,odom__orient_x,odom__orient_y,odom__orient_z,odom__orient_w,odom__lin_x,odom__lin_y,odom__lin_z,odom__ang_x,odom__ang_y,odom__ang_z,imu__orient_x,imu__orient_y,imu__orient_z,imu__orient_w,imu__angvel_x,imu__angvel_y,imu__angvel_z,imu__acc_x,imu__acc_y,imu__acc_z,wheel_status__current_ma_left,wheel_status__current_ma_right,wheel_status__pwm_left,wheel_status__pwm_right
0.0,1788518671278,0.0,0.0,-0.0024619980249553,-5.900865653529763e-05,0.3589909970760345,0.9333376884460448,0.0,0.0,0.0,0.0,0.0,0.0,-0.0006739953532814,0.0024300757795572,-0.8073945045471191,0.5900065898895264,0.000361773294941,-0.0007116038875224,0.0026451891721553,-0.0065250992774963,-0.0086137652397155,-0.0088357925415039,0,0,0,0
0.1,1788518671378,0.0,0.0,-0.0024619980249553,-5.900865653529763e-05,0.3589909970760345,0.9333376884460448,0.0,0.0,0.0,0.0,0.0,0.0,-0.0006739953532814,0.0024300757795572,-0.8073945045471191,0.5900065898895264,0.000361773294941,-0.0007116038875224,0.0026451891721553,-0.0065250992774963,-0.0086137652397155,-0.0088357925415039,0,0,0,0
0.2,1788518671478,0.0,0.0,-0.0024619980249553,-5.900865653529763e-05,0.3589909970760345,0.9333376884460448,0.0,0.0,0.0,0.0,0.0,0.0,-0.0006739953532814,0.0024300757795572,-0.8073945045471191,0.5900065898895264,0.000361773294941,-0.0007116038875224,0.0026451891721553,-0.0065250992774963,-0.0086137652397155,-0.0088357925415039,0,0,0,0
0.3,1788518671578,0.0,0.0,-0.0024619980249553,-5.900865653529763e-05,0.3589909970760345,0.9333376884460448,0.0,0.0,0.0,0.0,0.0,0.0,-0.0006739953532814,0.0024300757795572,-0.8073945045471191,0.5900065898895264,0.000361773294941,-0.0007116038875224,0.0026451891721553,-0.0065250992774963,-0.0086137652397155,-0.0088357925415039,0,0,0,0
0.4,1788518671678,0.0,0.0,-0.0024619980249553,-5.900865653529763e-05,0.3589909970760345,0.9333376884460448,0.0,0.0,0.0,0.0,0.0,0.0,-0.0006739953532814,0.0024300757795572,-0.8073945045471191,0.5900065898895264,0.000361773294941,-0.0007116038875224,0.0026451891721553,-0.0065250992774963,-0.0086137652397155,-0.0088357925415039,0,0,0,0
0.5,1788518671778,0.0,0.0,-0.0024619980249553,-5.900865653529763e-05,0.3589909970760345,0.9333376884460448,0.0,0.0,0.0,0.0,0.0,0.0,-0.0006739953532814,0.0024300757795572,-0.8073945045471191,0.5900065898895264,0.000361773294941,-0.0007116038875224,0.0026451891721553,-0.0065250992774963,-0.0086137652397155,-0.0088357925415039,0,0,0,0
0.6,1788518671878,0.0,0.0,-0.0024619980249553,-5.900865653529763e-05,0.3589909970760345,0.9333376884460448,0.0,0.0,0.0,0.0,0.0,0.0,-0.0006739953532814,0.0024300757795572,-0.8073945045471191,0.5900065898895264,0.000361773294941,-0.0007116038875224,0.0026451891721553,-0.0065250992774963,-0.0086137652397155,-0.0088357925415039,0,0,0,0
0.7,1788518671978,0.0,0.0,-0.0024619980249553,-5.900865653529763e-05,0.3589909970760345,0.9333376884460448,0.0,0.0,0.0,0.0,0.0,0.0,-0.0006739953532814,0.0024300757795572,-0.8073945045471191,0.5900065898895264,0.000361773294941,-0.0007116038875224,0.0026451891721553,-0.0065250992774963,-0.0086137652397155,-0.0088357925415039,0,0,0,0
0.8,1788518672078,0.0,0.0,-0.0024619980249553,-5.900865653529763e-05,0.3589909970760345,0.9333376884460448,0.0,0.0,0.0,0.0,0.0,0.0,-0.0006739953532814,0.0024300757795572,-0.8073945045471191,0.5900065898895264,0.000361773294941,-0.0007116038875224,0.0026451891721553,-0.0065250992774963,-0.0086137652397155,-0.0088357925415039,0,0,0,0
0.9,1788518672178,0.0,0.0,-0.0024619980249553,-5.900865653529763e-05,0.3589909970760345,0.9333376884460448,0.0,0.0,0.0,0.0,0.0,0.0,-0.0006739953532814,0.0024300757795572,-0.8073945045471191,0.5900065898895264,0.000361773294941,-0.0007116038875224,0.0026451891721553,-0.0065250992774963,-0.0086137652397155,-0.0088357925415039,0,0,0,0
1.0,1788518672278,0.0,0.0,-0.0024619980249553,-5.900865653529763e-05,0.3589909970760345,0.9333376884460448,0.0,0.0,0.0,0.0,0.0,0.0,-0.0006768628954887,0.0024357065558433,-0.8073847889900208,0.5900197625160217,-0.0005011209275003,-0.0015968108286178,-0.0007454516715522,-0.0064926147460937,0.0040991306304931,-0.0105752944946289,0,0,0,0
1.1,1788518672378,0.0,0.0,-0.0024619980249553,-5.900865653529763e-05,0.3589909970760345,0.9333376884460448,0.0,0.0,0.0,0.0,0.0,0.0,-0.0006554750725626,0.0024625286459922,-0.8073626160621643,0.5900501012802124,0.0009136380805028,-0.0001628733107556,-0.0018173519225682,0.0084662437438964,0.0024269819259643,0.0038528442382812,0,0,0,0
1.2,1788518672478,0.0,0.0,-0.0024619980249553,-5.900865653529763e-05,0.3589909970760345,0.9333376884460448,0.0,0.0,0.0,0.0,0.0,0.0,-0.0006466042250394,0.0024836203083395,-0.8073686361312866,0.5900418758392334,-0.000470908329001,0.0007844221300459,-0.000404892748032,-0.0089994668960571,-0.0133932828903198,-0.021437644958496,0,0,0,0
1.3,1788518672578,0.0,0.0,-0.0024619980249553,-5.900865653529763e-05,0.3589909970760345,0.9333376884460448,0.0,0.0,0.0,0.0,0.0,0.0,-0.0006885156035423,0.0025083152577281,-0.8073445558547974,0.5900745987892151,1.4176866557146714e-05,0.0001775264719874,0.0008773940164309,-0.0022675991058349,-8.344650268554688e-07,-0.0051727294921875,0,0,0,0
1.4,1788518672678,0.0,0.0,-0.0024619980249553,-5.900865653529763e-05,0.3589909970760345,0.9333376884460448,0.0,0.0,0.0,0.0,0.0,0.0,-0.0006968937814235,0.0025018099695444,-0.8073431253433228,0.5900765657424927,1.997319318900167e-05,-0.000692098712329,0.0001574898216623,-0.032930314540863,-0.0053178071975708,-0.0232868194580078,0,0,0,0
1.5,1788518672778,0.0,0.0,-0.0024619980249553,-5.900865653529763e-05,0.3589909970760345,0.9333376884460448,0.0,0.0,0.0,0.0,0.0,0.0,-0.0006968937814235,0.0025018099695444,-0.8073431253433228,0.5900765657424927,1.997319318900167e-05,-0.000692098712329,0.0001574898216623,-0.032930314540863,-0.0053178071975708,-0.0232868194580078,0,0,0,0
1.6,1788518672878,0.0,0.0,-0.0024619980249553,-5.900865653529763e-05,0.3589909970760345,0.9333376884460448,0.0,0.0,0.0,0.0,0.0,0.0,-0.0006216168403625,0.0025578001514077,-0.8073346018791199,0.5900880098342896,1.4115210852666432e-05,0.001629813720809,0.0011464365805229,-0.0150675177574157,-0.0090376138687133,0.0091161727905273,0,0,0,0
1.7,1788518672978,0.0,0.0,-0.0024619980249553,-5.900865653529763e-05,0.3589909970760345,0.9333376884460448,0.0,0.0,0.0,0.0,0.0,0.0,-0.0006183581426739,0.0025533763691782,-0.8073205351829529,0.5901073813438416,0.0003929961187975,-2.7317033079887368e-06,0.0017213885210416,0.0065335035324096,-0.0126928091049194,-0.0015802383422851,0,0,0,0
1.8,1788518673078,0.0,0.0,-0.0024619980249553,-5.900865653529763e-05,0.3589909970760345,0.9333376884460448,0.0,0.0,0.0,0.0,0.0,0.0,-0.0006322860717773,0.0025800121948122,-0.8072929978370667,0.5901449918746948,-0.0012162925653626,0.0011381406413445,0.0013984871724317,0.0012874007225036,-0.0228340625762939,-0.0142116546630859,0,0,0,0
1.9,1788518673178,0.0,0.0,-0.0024619980249553,-5.900865653529763e-05,0.3589909970760345,0.9333376884460448,0.0,0.0,0.0,0.0,0.0,0.0,-0.0006536021828651,0.0025991555303335,-0.8073387145996094,0.5900823473930359,5.999529381442785e-05,-0.0001767317621952,-0.0019161099390582,-0.0113776326179504,-0.0348042249679565,-0.0232820510864257,0,0,0,0
2.0,1788518673278,0.0,0.0,-0.0024619980249553,-5.900865653529763e-05,0.3589909970760345,0.9333376884460448,0.0,0.0,0.0,0.0,0.0,0.0,-0.0006334260106086,0.0026260307058691,-0.8073801398277283,0.5900255441665649,-0.0009380178467283,0.001394553652334,-0.0001845769332073,0.0143539309501647,-0.0292541980743408,-0.0159511566162109,0,0,0,0
2.1,1788518673378,0.0,0.0,-0.0024619980249553,-5.900865653529763e-05,0.3589909970760345,0.9333376884460448,0.0,0.0,0.0,0.0,0.0,0.0,-0.0006334260106086,0.0026260307058691,-0.8073801398277283,0.5900255441665649,-0.0009380178467283,0.001394553652334,-0.0001845769332073,0.0143539309501647,-0.0292541980743408,-0.0159511566162109,0,0,0,0
2.2,1788518673478,0.0,0.0,-0.0024619980249553,-5.900865653529763e-05,0.3589909970760345,0.9333376884460448,0.0,0.0,0.0,0.0,0.0,0.0,-0.0006334260106086,0.0026260307058691,-0.8073801398277283,0.5900255441665649,-0.0009380178467283,0.001394553652334,-0.0001845769332073,0.0143539309501647,-0.0292541980743408,-0.0159511566162109,0,0,0,0
2.3,1788518673578,0.0,0.0,-0.0024619980249553,-5.900865653529763e-05,0.3589909970760345,0.9333376884460448,0.0,0.0,0.0,0.0,0.0,0.0,-0.0006334260106086,0.0026260307058691,-0.8073801398277283,0.5900255441665649,-0.0009380178467283,0.001394553652334,-0.0001845769332073,0.0143539309501647,-0.0292541980743408,-0.0159511566162109,0,0,0,0
2.4,1788518673678,0.0,0.0,-0.0024619980249553,-5.900865653529763e-05,0.3589909970760345,0.9333376884460448,0.0,0.0,0.0,0.0,0.0,0.0,-0.0005928268656134,0.0026412950828671,-0.8074053525924683,0.5899908542633057,-0.0003016755406958,0.0006207543473675,0.0004809130407475,0.0042944550514221,-0.0169987678527832,0.002054214477539,0,0,0,0
2.5,1788518673778,0.0,0.0,-0.0024619980249553,-5.900865653529763e-05,0.3589909970760345,0.9333376884460448,0.0,0.0,0.0,0.0,0.0,0.0,-0.0005932515487074,0.0026745060458779,-0.8073803782463074,0.5900248885154724,-0.0005576615278646,3.450095313510649e-05,-0.0004937724285287,-0.0062081217765808,0.0103726387023925,0.0236968994140625,0,0,0,0
2.6,1788518673878,0.0,0.0,-0.0024619980249553,-5.900865653529763e-05,0.3589909970760345,0.9333376884460448,0.0,0.0,0.0,0.0,0.0,0.0,-0.0005932515487074,0.0026745060458779,-0.8073803782463074,0.5900248885154724,-0.0005576615278646,3.450095313510649e-05,-0.0004937724285287,-0.0062081217765808,0.0103726387023925,0.0236968994140625,0,0,0,0
2.7,1788518673978,0.0,0.0,-0.0024619980249553,-5.900865653529763e-05,0.3589909970760345,0.9333376884460448,0.0,0.0,0.0,0.0,0.0,0.0,-0.0005212929099798,0.002688443288207,-0.8073744773864746,0.5900329351425171,0.000239783733473,0.0008735577581306,0.000615692171837,0.0077607631683349,0.0152426362037658,-0.0013580322265625,0,0,0,0
2.8,1788518674078,0.0,0.0,-0.0024619980249553,-5.900865653529763e-05,0.3589909970760345,0.9333376884460448,0.0,0.0,0.0,0.0,0.0,0.0,-0.0005187829956412,0.0026818299666047,-0.8073915839195251,0.5900095105171204,0.0002738562481725,-7.205923119360102e-05,-0.0011586013679397,-0.0066205859184265,-0.0046210289001464,-0.0086841583251953,0,0,0,0
2.9,1788518674178,0.0,0.0,-0.0024619980249553,-5.900865653529763e-05,0.3589909970760345,0.9333376884460448,0.0,0.0,0.0,0.0,0.0,0.0,-0.0004790807142853,0.0026764068752527,-0.8073920607566833,0.5900089740753174,-0.0003003366087792,-0.0001850726029718,0.0007445642008634,0.0011523365974426,-0.0231000781059265,-0.017704963684082,0,0,0,0
3.0,1788518674278,0.0,0.0,-0.0024619980249553,-5.900865653529763e-05,0.3589909970760345,0.9333376884460448,0.0,0.0,0.0,0.0,0.0,0.0,-0.0004693325608968,0.0027255015447735,-0.8073703050613403,0.5900387167930603,-0.0007535978614969,0.0008161909460486,0.0008194360130253,0.0215573906898498,0.0259917974472045,-0.0030374526977539,0,0,0,0
3.1,1788518674378,0.0,0.0,-0.0024619980249553,-5.900865653529763e-05,0.3589909970760345,0.9333376884460448,0.0,0.0,0.0,0.0,0.0,0.0,-0.000467512756586,0.0027506984770298,-0.8073812127113342,0.5900235176086426,0.0001062900419999,-0.0001845304112059,-0.0004649592945665,0.0128620266914367,-0.0149593949317932,0.0003509521484375,0,0,0,0
3.2,1788518674478,0.0,0.0,-0.0024619980249553,-5.900865653529763e-05,0.3589909970760345,0.9333376884460448,0.0,0.0,0.0,0.0,0.0,0.0,-0.0004769200459122,0.0027559325098991,-0.8073901534080505,0.5900111794471741,-0.000417000592725,-0.0009872555893981,-0.0010059892562641,0.0110670328140258,-0.0130893588066101,0.007542610168457,0,0,0,0
3.3,1788518674578,0.0,0.0,-0.0024619980249553,-5.900865653529763e-05,0.3589909970760345,0.9333376884460448,0.0,0.0,0.0,0.0,0.0,0.0,-0.0004519075155258,0.0027569029480218,-0.8073777556419373,0.5900282263755798,0.0004596283268468,0.0006825645971435,0.0006962701249997,-0.031647503376007,-0.0185431838035583,-0.021402359008789,0,0,0,0
3.4,1788518674678,0.0,0.0,-0.0024619980249553,-5.900865653529763e-05,0.3589909970760345,0.9333376884460448,0.0,0.0,0.0,0.0,0.0,0.0,-0.0004519075155258,0.0027569029480218,-0.8073777556419373,0.5900282263755798,0.0004596283268468,0.0006825645971435,0.0006962701249997,-0.031647503376007,-0.0185431838035583,-0.021402359008789,0,0,0,0
3.5,1788518674778,0.0,0.0,-0.0024619980249553,-5.900865653529763e-05,0.3589909970760345,0.9333376884460448,0.0,0.0,0.0,0.0,0.0,0.0,-0.0004519075155258,0.0027569029480218,-0.8073777556419373,0.5900282263755798,0.0004596283268468,0.0006825645971435,0.0006962701249997,-0.031647503376007,-0.0185431838035583,-0.021402359008789,0,0,0,0
3.6,1788518674878,0.0,0.0,-0.0024619980249553,-5.900865653529763e-05,0.3589909970760345,0.9333376884460448,0.0,0.0,0.0,0.0,0.0,0.0,-0.0004519075155258,0.0027569029480218,-0.8073777556419373,0.5900282263755798,0.0004596283268468,0.0006825645971435,0.0006962701249997,-0.031647503376007,-0.0185431838035583,-0.021402359008789,0,0,0,0
3.7,1788518674978,0.0,0.0,-0.0024619980249553,-5.900865653529763e-05,0.3589909970760345,0.9333376884460448,0.0,0.0,0.0,0.0,0.0,0.0,-0.0004499377682805,0.0027900943532586,-0.8074612617492676,0.5899139046669006,-0.0004314069482294,0.001174039501875,0.0001747250985452,-0.0026128888130187,-0.0091209411621093,-0.0068378448486328,0,0,0,0
3.8,1788518675078,0.0,0.0,-0.0024619980249553,-5.900865653529763e-05,0.3589909970760345,0.9333376884460448,0.0,0.0,0.0,0.0,0.0,0.0,-0.0004656799137592,0.0027527399361133,-0.8074738383293152,0.5898967981338501,0.0001234672308778,-0.0011367037103077,-6.704301077456687e-05,0.0163909196853637,0.0083732604980468,0.0076913833618164,0,0,0,0
3.9,1788518675178,0.0,0.0,-0.0024619980249553,-5.900865653529763e-05,0.3589909970760345,0.9333376884460448,0.0,0.0,0.0,0.0,0.0,0.0,-0.0004699286073446,0.0027588354423642,-0.8074544668197632,0.5899233222007751,0.00039470778253,-0.0004066850683851,0.0007449999395956,0.0235800147056579,0.0049354434013366,0.004134178161621,0,0,0,0
4.0,1788518675278,0.0,0.0,-0.0024619980249553,-5.900865653529763e-05,0.3589909970760345,0.9333376884460448,0.0,0.0,0.0,0.0,0.0,0.0,-0.0004699286073446,0.0027588354423642,-0.8074544668197632,0.5899233222007751,0.00039470778253,-0.0004066850683851,0.0007449999395956,0.0235800147056579,0.0049354434013366,0.004134178161621,0,0,0,0
4.1,1788518675378,0.0,0.0,-0.0024619980249553,-5.900865653529763e-05,0.3589909970760345,0.9333376884460448,0.0,0.0,0.0,0.0,0.0,0.0,-0.000456940382719,0.0027541704475879,-0.8074398636817932,0.5899432301521301,0.0002143035608976,0.001687782908096,-0.0003901148090827,0.0416898727416992,-0.0150431394577026,0.000554084777832,0,0,0,0
4.2,1788518675478,0.0,0.0,-0.0024619980249553,-5.900865653529763e-05,0.3589909970760345,0.9333376884460448,0.0,0.0,0.0,0.0,0.0,0.0,-0.0004695588722825,0.0026810839772224,-0.8074522614479065,0.5899266004562378,0.0005421625846269,-0.000514421274589,-0.0031929886307007,0.0261842012405395,-0.0197259187698364,0.018442153930664,0,0,0,0
4.3,1788518675578,0.0,0.0,-0.0024619980249553,-5.900865653529763e-05,0.3589909970760345,0.9333376884460448,0.0,0.0,0.0,0.0,0.0,0.0,-0.0004695588722825,0.0026810839772224,-0.8074522614479065,0.5899266004562378,0.0005421625846269,-0.000514421274589,-0.0031929886307007,0.0261842012405395,-0.0197259187698364,0.018442153930664,0,0,0,0
4.4,1788518675678,0.0,0.0,-0.0024619980249553,-5.900865653529763e-05,0.3589909970760345,0.9333376884460448,0.0,0.0,0.0,0.0,0.0,0.0,-0.000466669909656,0.0026956936344504,-0.8074610829353333,0.5899143815040588,0.0002417076896889,-0.0004703226744749,7.454875359960273e-05,-0.0022993087768554,0.0038608312606811,0.0076475143432617,0,0,0,0
4.5,1788518675778,0.0,0.0,-0.0024619980249553,-5.900865653529763e-05,0.3589909970760345,0.9333376884460448,0.0,0.0,0.0,0.0,0.0,0.0,-0.000466669909656,0.0026956936344504,-0.8074610829353333,0.5899143815040588,0.0002417076896889,-0.0004703226744749,7.454875359960273e-05,-0.0022993087768554,0.0038608312606811,0.0076475143432617,0,0,0,0
4.6,1788518675878,0.0,0.0,-0.0024619980249553,-5.900865653529763e-05,0.3589909970760345,0.9333376884460448,0.0,0.0,0.0,0.0,0.0,0.0,-0.000466669909656,0.0026956936344504,-0.8074610829353333,0.5899143815040588,0.0002417076896889,-0.0004703226744749,7.454875359960273e-05,-0.0022993087768554,0.0038608312606811,0.0076475143432617,0,0,0,0
4.7,1788518675978,0.0,0.0,-0.0024619980249553,-5.900865653529763e-05,0.3589909970760345,0.9333376884460448,0.0,0.0,0.0,0.0,0.0,0.0,-0.0004659844562411,0.002672541886568,-0.8074827790260315,0.5898850560188293,-0.001187069339033,0.0003196464473048,-0.0011259013944662,0.0154345035552978,-8.589029312133789e-05,-0.0066251754760742,0,0,0,0
4.8,1788518676078,0.0,1.436619758605957,-0.0024619980249553,-5.900865653529763e-05,0.3589909970760345,0.9333376884460448,0.0,0.0,0.0,0.0,0.0,0.0,-0.0005138823762536,0.0026696221902966,-0.807304859161377,0.5901283621788025,-0.0018605295184518,-0.0019034206150942,0.0120157983767831,0.2881219387054443,0.1113901138305664,0.0060977935791015,592,212,-18367,10138
4.9,1788518676178,0.0,1.436619758605957,-0.0024619980249553,-5.900865653529763e-05,0.3589909970760345,0.9333376884460448,0.0,0.0,0.0,0.0,0.0,0.0,-0.0004884861409664,0.0026872791349887,-0.7925402522087097,0.6098136305809021,-0.0018207602016493,0.0009564482624989,0.5675694936428743,-0.2961678504943847,-0.2615964412689209,-0.2818155288696289,592,212,-18367,10138
5.0,1788518676278,0.0,1.436619758605957,-0.0028498945757746,0.0003219067584723,0.3941734135150909,0.9190316796302797,0.0686336727382942,-0.0085745632487308,-3.0480526588474824e-06,-0.0039786016568541,0.0063293664716184,0.5869273543357849,-0.0004884861409664,0.0026872791349887,-0.7925402522087097,0.6098136305809021,-0.0018207602016493,0.0009564482624989,0.5675694936428743,-0.2961678504943847,-0.2615964412689209,-0.2818155288696289,592,212,-18367,10138
5.1,1788518676378,0.0,1.436619758605957,-0.0028158542700111,0.0006857310072518,0.4193454384803772,0.9078221321105956,0.0596114399366007,-0.0046713774387885,-6.321603793430006e-06,0.0017412427114322,0.0052327215671539,0.4866330623626709,-8.213892579078674e-05,0.0028810463845729,-0.7693174481391907,0.6388602256774902,0.0032585563808566,0.0084800941564176,0.5193364154766129,-0.009023368358612,0.0552215576171875,-0.3349246978759765,592,212,-18367,10138
5.2,1788518676478,0.0,3.183098554611206,-0.0026188911870121,0.0005649186787195,0.430480808019638,0.9025957584381104,0.0576543131425314,-0.0054221498936251,4.762926516334839e-06,0.0042260447517037,-0.0087899565696716,0.4913565218448639,0.0001253588125109,0.0027022352442145,-0.745173454284668,0.6668652296066284,-0.0002773073251671,0.0082597420590781,0.4955687857422867,0.029577612876892,0.0202674269676208,-0.008009910583496,592,212,-18367,10138
5.3,1788518676578,0.0,0.7323943376541138,-0.0017943419516086,0.0006300288368947,0.4629934132099151,0.886359691619873,0.0537804359053427,-0.0057942521840901,1.5782047943390705e-05,0.0209173932671546,-0.0211086049675941,0.4613961577415466,9.260326623916626e-05,0.0018645524978637,-0.7354549169540405,0.677571177482605,0.0189295286958687,-0.0207060281110698,0.483669668591384,-0.579686164855957,-0.3476382493972778,0.0147476196289062,907,75,-32479,1407
5.4,1788518676678,0.0,0.7323943376541138,-0.0017943419516086,0.0006300288368947,0.4629934132099151,0.886359691619873,0.0537804359053427,-0.0057942521840901,1.5782047943390705e-05,0.0209173932671546,-0.0211086049675941,0.4613961577415466,8.433125913143158e-05,0.0015605837106704,-0.7325394153594971,0.6807228922843933,0.0063526872015677,-0.0064913839987512,0.0028610396327295,1.114229440689087,-0.200502872467041,-0.1352672576904297,0,0,0,0
5.5,1788518676778,0.0,0.7323943376541138,-0.0014858420472592,0.0004390067188069,0.4651486575603485,0.8852312564849854,0.0088625590947246,-0.0033751238511937,-5.952638666064168e-07,0.0044512059539556,-0.0063817128539085,-0.0440991818904876,6.775930523872375e-05,0.0015903273597359,-0.7344998121261597,0.6786070466041565,-0.0003237307081793,0.0030477058665665,-0.0016393026610159,0.0537227392196655,0.0723509192466735,0.0713815689086914,0,0,0,0
5.6,1788518676878,0.0,0.7323943376541138,-0.0014858420472592,0.0004390067188069,0.4651486575603485,0.8852312564849854,0.0088625590947246,-0.0033751238511937,-5.952638666064168e-07,0.0044512059539556,-0.0063817128539085,-0.0440991818904876,6.775930523872375e-05,0.0015903273597359,-0.7344998121261597,0.6786070466041565,-0.0003237307081793,0.0030477058665665,-0.0016393026610159,0.0537227392196655,0.0723509192466735,0.0713815689086914,0,0,0,0
5.7,1788518676978,0.0,0.7323943376541138,-0.0014858420472592,0.0004390067188069,0.4651486575603485,0.8852312564849854,0.0088625590947246,-0.0033751238511937,-5.952638666064168e-07,0.0044512059539556,-0.0063817128539085,-0.0440991818904876,6.238650530576706e-05,0.0015239221975207,-0.7345430850982666,0.6785603761672974,0.0012718226699407,-0.0021132575117886,0.0024587857254375,-0.0009563565254211,0.0536661148071289,0.0333490371704101,0,0,0,0
5.8,1788518677078,0.0,0.7323943376541138,-0.0014858420472592,0.0004390067188069,0.4651486575603485,0.8852312564849854,0.0088625590947246,-0.0033751238511937,-5.952638666064168e-07,0.0044512059539556,-0.0063817128539085,-0.0440991818904876,7.169228047132492e-05,0.0015068547800183,-0.7345605492591858,0.6785414814949036,0.0002029872655119,0.0001579324048882,0.0019111434737404,-0.0028145313262939,-0.0041469931602478,0.0259160995483398,0,0,0,0
5.9,1788518677178,0.0,0.7323943376541138,-0.0016048366669565,0.0006028664647601,0.4638769328594208,0.8858979940414429,0.0,0.0,0.0,0.0,0.0,0.0,7.169228047132492e-05,0.0015068547800183,-0.7345605492591858,0.6785414814949036,0.0002029872655119,0.0001579324048882,0.0019111434737404,-0.0028145313262939,-0.0041469931602478,0.0259160995483398,0,0,0,0
6.0,1788518677278,0.0,0.0,-0.0016048366669565,0.0006028664647601,0.4638769328594208,0.8858979940414429,0.0,0.0,0.0,0.0,0.0,0.0,4.276260733604431e-05,0.0015811109915375,-0.734549880027771,0.6785529255867004,-0.0001077426736209,-0.0001573080388657,-0.000637048091762,0.0013961195945739,-0.0295894742012023,0.0150461196899414,0,0,0,0
6.1,1788518677378,0.0,0.0,-0.0016048366669565,0.0006028664647601,0.4638769328594208,0.8858979940414429,0.0,0.0,0.0,0.0,0.0,0.0,5.334429442882538e-05,0.0015574414283037,-0.7345560789108276,0.6785461902618408,0.0011415880151782,-0.0003844976513962,-0.000423608013449,0.0102138519287109,-0.01749849319458,0.0151376724243164,0,0,0,0
6.2,1788518677478,0.0,0.0,-0.0016048366669565,0.0006028664647601,0.4638769328594208,0.8858979940414429,0.0,0.0,0.0,0.0,0.0,0.0,5.334429442882538e-05,0.0015574414283037,-0.7345560789108276,0.6785461902618408,0.0011415880151782,-0.0003844976513962,-0.000423608013449,0.0102138519287109,-0.01749849319458,0.0151376724243164,0,0,-739,739
6.3,1788518677578,-0.7887324094772339,1.3521126508712769,-0.0016048366669565,0.0006028664647601,0.4638769328594208,0.8858979940414429,0.0,0.0,0.0,0.0,0.0,0.0,5.334429442882538e-05,0.0015574414283037,-0.7345560789108276,0.6785461902618408,0.0011415880151782,-0.0003844976513962,-0.000423608013449,0.0102138519287109,-0.01749849319458,0.0151376724243164,661,226,-16901,11310
6.4,1788518677678,0.0,3.521126747131348,-0.0016048366669565,0.0006028664647601,0.4638769328594208,0.8858979940414429,0.0,0.0,0.0,0.0,0.0,0.0,5.334429442882538e-05,0.0015574414283037,-0.7345560789108276,0.6785461902618408,0.0011415880151782,-0.0003844976513962,-0.000423608013449,0.0102138519287109,-0.01749849319458,0.0151376724243164,661,226,-16901,11310
6.5,1788518677778,0.0,3.211267709732056,-0.0007639634422957,0.0002297316968906,0.511265218257904,0.8594226241111755,0.0617050045843836,-0.0027146370018628,-3.772123161106167e-06,0.0074562458321452,-0.0064674732275307,0.5144159197807312,6.80387020111084e-05,0.0009126719087362,-0.690342903137207,0.7234817743301392,0.0042028552014752,-0.0017436774811194,0.4989910087214804,-0.2023107409477234,0.1264159679412841,-0.3605337142944336,927,62,-32767,9944
6.6,1788518677878,0.0,3.211267709732056,-0.0007639634422957,0.0002297316968906,0.511265218257904,0.8594226241111755,0.0617050045843836,-0.0027146370018628,-3.772123161106167e-06,0.0074562458321452,-0.0064674732275307,0.5144159197807312,-0.0001513278111815,0.0010091997683048,-0.6812242865562439,0.7320740222930908,-0.0077100755882994,-0.0028135290789925,0.4104551427098934,0.1460381150245666,0.2111073732376098,0.1622142791748047,927,62,-32767,9944
6.7,1788518677978,0.0,1.2676056623458862,-0.0010932941222563,0.0001772863033693,0.5389906167984009,0.8423110246658325,0.0604760697399338,-0.002378785762099,1.729860568111251e-05,-0.001061966875568,0.0019536698237061,0.5133195519447327,-0.0001199711114168,0.0010061105713248,-0.6556951999664307,0.7550250887870789,0.0001350425398895,0.0135599514354263,0.4867892568158681,-0.1153687238693237,-0.0863202810287475,-0.2353248596191406,926,93,-31082,0
6.8,1788518678078,0.0,1.2676056623458862,-0.0010932941222563,0.0001772863033693,0.5389906167984009,0.8423110246658325,0.0604760697399338,-0.002378785762099,1.729860568111251e-05,-0.001061966875568,0.0019536698237061,0.5133195519447327,-0.0002001393586397,0.0010722512379288,-0.6522268056869507,0.7580230832099915,0.0009321822536632,-0.0011232039353208,-0.1201059109073056,0.0087783336639404,-0.1828712224960327,0.1312189102172851,0,0,0,0
6.9,1788518678178,0.0,0.0,-0.0009640274220146,1.165972207672894e-05,0.5600429177284241,0.8284630179405212,-0.0082200643902333,0.0003815400060212,1.8374969376795885e-06,0.0030897879041731,-0.0091489050537347,-0.0571308061480522,-0.0001800348982214,0.0010521169751882,-0.6540259718894958,0.7564713954925537,0.0004970793108475,-0.0002449538976621,0.0229650578073568,0.1473333835601806,0.1797323822975158,0.0561122894287109,0,0,0,0
7.0,1788518678278,0.0,0.0,-0.0009640274220146,1.165972207672894e-05,0.5600429177284241,0.8284630179405212,-0.0082200643902333,0.0003815400060212,1.8374969376795885e-06,0.0030897879041731,-0.0091489050537347,-0.0571308061480522,-0.0002098763361573,0.0010491022840142,-0.6541534066200256,0.7563610672950745,-0.0008248851461162,-0.000872298987147,-0.0067889170160153,0.1955072879791259,-0.1646032929420471,0.0297365188598632,0,0,0,0
7.1,1788518678378,0.0,0.0,-0.0009640274220146,1.165972207672894e-05,0.5600429177284241,0.8284630179405212,-0.0082200643902333,0.0003815400060212,1.8374969376795885e-06,0.0030897879041731,-0.0091489050537347,-0.0571308061480522,-0.0001670587807893,0.0010640798136591,-0.6541773676872253,0.7563403248786926,0.0013341106110457,0.0002213601521862,-0.0039412471551848,0.0112823247909545,0.1115531921386718,0.0300865173339843,0,0,0,0
7.2,1788518678478,0.0,0.0,-0.0009640274220146,1.165972207672894e-05,0.5600429177284241,0.8284630179405212,-0.0082200643902333,0.0003815400060212,1.8374969376795885e-06,0.0030897879041731,-0.0091489050537347,-0.0571308061480522,-0.0001382147893309,0.0010775374248623,-0.6541914343833923,0.756328284740448,-0.0012839956786351,0.0022560499568205,-0.0024154681779207,0.0101732015609741,-0.0735841989517211,0.0023603439331054,0,0,0,0
7.3,1788518678578,0.0,0.0,-0.0010906874667853,8.77412676345557e-05,0.5595742464065552,0.8287795186042786,0.0,0.0,0.0,0.0,0.0,0.0,-0.0001382147893309,0.0010775374248623,-0.6541914343833923,0.756328284740448,-0.0012839956786351,0.0022560499568205,-0.0024154681779207,0.0101732015609741,-0.0735841989517211,0.0023603439331054,0,0,0,0
7.4,1788518678678,0.0,0.0,-0.0010906874667853,8.77412676345557e-05,0.5595742464065552,0.8287795186042786,0.0,0.0,0.0,0.0,0.0,0.0,-0.0001382147893309,0.0010775374248623,-0.6541914343833923,0.756328284740448,-0.0012839956786351,0.0022560499568205,-0.0024154681779207,0.0101732015609741,-0.0735841989517211,0.0023603439331054,0,0,0,0
7.5,1788518678778,0.0,0.0,-0.0010906874667853,8.77412676345557e-05,0.5595742464065552,0.8287795186042786,0.0,0.0,0.0,0.0,0.0,0.0,-0.0001382147893309,0.0010775374248623,-0.6541914343833923,0.756328284740448,-0.0012839956786351,0.0022560499568205,-0.0024154681779207,0.0101732015609741,-0.0735841989517211,0.0023603439331054,0,0,0,0
7.6,1788518678878,0.0,0.0,-0.0010906874667853,8.77412676345557e-05,0.5595742464065552,0.8287795186042786,0.0,0.0,0.0,0.0,0.0,0.0,-0.0001149186864495,0.0010944260284304,-0.6543094515800476,0.7562261819839478,-0.0009257849779178,0.0017853033576171,-0.0021423432740116,0.0025655031204223,0.0117338299751281,0.0030975341796875,0,0,-887,887
7.7,1788518678978,-1.0704225301742554,2.2253520488739014,-0.0010906874667853,8.77412676345557e-05,0.5595742464065552,0.8287795186042786,0.0,0.0,0.0,0.0,0.0,0.0,-9.427405893802644e-05,0.0010971492156386,-0.6542960405349731,0.7562376260757446,0.0006907999449121,0.0007775890170591,0.0008820863938555,0.0182095170021057,-0.0254881978034973,0.0025978088378906,0,0,-887,887
7.8,1788518679078,-1.0704225301742554,2.2253520488739014,-0.0012208978878334,0.0002473284839652,0.568094789981842,0.82296222448349,0.0286251154691397,0.000445841229413,-5.345380969664911e-06,0.0002382941602263,0.0075909490697085,0.3922427892684936,-3.1925737857818604e-05,0.0010966388508677,-0.6411118507385254,0.7674466967582703,0.0106725869134186,-0.0038544518416661,0.5681013572785171,1.398453712463379,-0.4525631666183471,0.04815673828125,846,257,-20490,12104
7.9,1788518679178,0.0,3.323943614959717,-0.0012208978878334,0.0002473284839652,0.568094789981842,0.82296222448349,0.0286251154691397,0.000445841229413,-5.345380969664911e-06,0.0002382941602263,0.0075909490697085,0.3922427892684936,0.0025804946199059,0.0047499975189566,-0.6142581701278687,0.789086639881134,-0.01360156042228,-0.0114284517006694,0.5946152757274632,0.4553272128105163,0.1243981719017028,-1.0436487197875977,927,43,-32767,9598
8.0,1788518679278,0.0,3.323943614959717,-0.0036383960396051,0.003465439658612,0.6140042543411255,0.789286732673645,0.0562878143186597,-0.0073781078123178,1.9482669942588693e-05,0.0011782601941376,-0.0177625473588705,0.479100614786148,0.0025804946199059,0.0047499975189566,-0.6142581701278687,0.789086639881134,-0.01360156042228,-0.0114284517006694,0.5946152757274632,0.4553272128105163,0.1243981719017028,-1.0436487197875977,927,43,-32767,9598
8.1,1788518679378,0.0,3.1549296379089355,-0.0036673480644822,0.0031425666529685,0.6221640110015869,0.7828720211982727,0.0507496245676362,-0.0030561715895719,3.4353362892455013e-06,-0.0109190642833709,-0.0097903022542595,0.4155124425888061,0.0019123619422316,0.0040370170027017,-0.5765482187271118,0.8170509934425354,-0.0079537261476659,0.0063057120684289,0.5085244683155806,-0.1606273055076599,-0.1395573019981384,-0.3201131820678711,927,13,-32767,7248
8.2,1788518679478,0.0,1.5211267471313477,-0.0033812513574957,0.0028693845961242,0.6395133137702942,0.7687671780586243,0.0604447749795935,-0.0053829829061229,-3.841504960570559e-06,-0.0080567598342895,0.0009757308289408,0.5078635811805725,0.0016987156122922,0.0035016760230064,-0.5614461302757263,0.8275042176246643,-0.0030911105539287,-0.0057145613628614,0.31517823529948,-0.7478485107421875,-0.5313490629196167,0.0654020309448242,927,13,-32767,7248
8.3,1788518679578,-1.1267606019973757,0.0,-0.0027852344792336,0.0024703457020223,0.6516185402870178,0.7585377097129822,0.0065616381946326,-0.0030988932298802,-6.344262584399882e-07,0.0032942174002528,-0.0006573178688995,-0.0935143902897834,0.0016713086515665,0.003352484665811,-0.5626367330551147,0.8266957998275757,0.0023121024030833,0.001627129307503,-0.0953702394571565,-0.8075946569442749,-0.1296758651733398,-0.0391502380371093,927,13,-32767,7248
8.4,1788518679678,-1.1267606019973757,0.0,-0.0027852344792336,0.0024703457020223,0.6516185402870178,0.7585377097129822,0.0065616381946326,-0.0030988932298802,-6.344262584399882e-07,0.0032942174002528,-0.0006573178688995,-0.0935143902897834,0.0017389310523867,0.0034410543739795,-0.564087986946106,0.8257056474685669,-0.0012174521394455,-0.0016117625009915,-0.0212578451504712,0.1766747832298278,-0.2772905230522156,0.0435743331909179,927,13,-32767,7248
8.5,1788518679778,-1.1267606019973757,0.0,-0.0027969111688435,0.0025090670678764,0.6503278613090515,0.7596443295478821,-0.0001995476261359,-0.0002047508357335,-1.6885014191025187e-06,0.0,0.0,0.0,0.0017389310523867,0.0034410543739795,-0.564087986946106,0.8257056474685669,-0.0012174521394455,-0.0016117625009915,-0.0212578451504712,0.1766747832298278,-0.2772905230522156,0.0435743331909179,0,0,0,0
8.6,1788518679878,0.0,0.0,-0.0027969111688435,0.0025090670678764,0.6503278613090515,0.7596443295478821,0.0,0.0,0.0,0.0,0.0,0.0,0.0017426591366529,0.0033902805298566,-0.5640628933906555,0.8257231116294861,0.0001103967670951,-4.255508586096655e-05,-0.0001933677672826,-0.0448415875434875,-0.1017220616340637,0.002028465270996,0,0,0,0
8.7,1788518679978,0.0,0.0,-0.0027969111688435,0.0025090670678764,0.6503278613090515,0.7596443295478821,0.0,0.0,0.0,0.0,0.0,0.0,0.001730334945023,0.0033909669145941,-0.5640669465065002,0.8257202506065369,-0.0004214130090621,-0.0002550633821578,-0.0002000898859164,0.0214564800262451,-0.0404794216156005,0.0097599029541015,0,0,0,0
8.8,1788518680078,0.0,0.0,-0.0027969111688435,0.0025090670678764,0.6503278613090515,0.7596443295478821,0.0,0.0,0.0,0.0,0.0,0.0,0.0017386693507432,0.0033879866823554,-0.5640479922294617,0.8257332444190979,0.0004094022422815,0.0001076456718517,0.0011126956199062,0.0232180953025817,0.0293225646018981,0.0280218124389648,0,0,0,0
8.9,1788518680178,0.0,0.0,-0.0027969111688435,0.0025090670678764,0.6503278613090515,0.7596443295478821,0.0,0.0,0.0,0.0,0.0,0.0,0.0017301551997661,0.0033561782911419,-0.5640199780464172,0.8257525563240051,2.5638082915120412e-05,-0.0002922579124414,0.0010284137185349,0.0029234290122985,-0.0121353864669799,0.0115919113159179,0,0,0,0
9.0,1788518680278,0.0,0.0,-0.0027969111688435,0.0025090670678764,0.6503278613090515,0.7596443295478821,0.0,0.0,0.0,0.0,0.0,0.0,0.0017301551997661,0.0033561782911419,-0.5640199780464172,0.8257525563240051,2.5638082915120412e-05,-0.0002922579124414,0.0010284137185349,0.0029234290122985,-0.0121353864669799,0.0115919113159179,0,0,0,0
9.1,1788518680378,0.0,0.0,-0.0027969111688435,0.0025090670678764,0.6503278613090515,0.7596443295478821,0.0,0.0,0.0,0.0,0.0,0.0,0.0016299905255436,0.003304592333734,-0.5638248324394226,0.8258862495422363,-0.003913389220012,-0.0022140404218754,0.012867602431182,0.3617898821830749,0.1575271487236023,0.0605640411376953,0,0,0,0
9.2,1788518680478,0.0,0.0,-0.0027969111688435,0.0025090670678764,0.6503278613090515,0.7596443295478821,0.0,0.0,0.0,0.0,0.0,0.0,0.0013975789770483,0.0032107792794704,-0.5600351691246033,0.8284614086151123,-0.0078255035892825,-0.0104915905056392,0.2287293606794635,-0.3989590406417846,0.5455636382102966,0.1899614334106445,0,0,0,0
9.3,1788518680578,0.0,0.0,-0.0018764407141134,0.0017050489550456,0.6705735325813293,0.7418387532234192,0.0647937364413164,-0.0046360632013382,1.5671099456128693e-05,0.0088607324287295,-0.0221273954957723,0.5376285910606384,0.0013975789770483,0.0032107792794704,-0.5600351691246033,0.8284614086151123,-0.0078255035892825,-0.0104915905056392,0.2287293606794635,-0.3989590406417846,0.5455636382102966,0.1899614334106445,0,0,0,0
9.4,1788518680678,0.0,0.0,-0.0014694174751639,0.0016009119572117,0.6870277523994446,0.7266279458999634,0.0544058193662056,-0.0048549852439242,2.6777054335710683e-05,0.0113023575395345,-0.0224001761525869,0.4836309850215912,0.0010077832266688,0.0019724275916814,-0.5145937204360962,0.8574313521385193,-0.0104049735093587,0.0022041175443768,0.3791497765018811,-0.0949888229370117,-0.3249531388282776,-0.097940444946289,0,0,0,0
9.5,1788518680778,0.0,2.5352113246917725,-0.0014694174751639,0.0016009119572117,0.6870277523994446,0.7266279458999634,0.0544058193662056,-0.0048549852439242,2.6777054335710683e-05,0.0113023575395345,-0.0224001761525869,0.4836309850215912,0.0008914377540349,0.0010347003117203,-0.4981016814708709,0.8671176433563232,-0.0020658380157694,-0.0043851846474617,0.3851197563154256,-0.195614755153656,-0.1399232149124145,0.126957893371582,0,0,0,0
9.6,1788518680878,0.0,1.3239436149597168,-0.0014694174751639,0.0016009119572117,0.6870277523994446,0.7266279458999634,0.0544058193662056,-0.0048549852439242,2.6777054335710683e-05,0.0113023575395345,-0.0224001761525869,0.4836309850215912,0.0009333482012152,0.0009537981823086,-0.4795420169830322,0.8775179982185364,-0.0043812421684622,0.0100823211143852,0.2588660221181848,-1.0604993104934692,-0.4957171678543091,-0.3201522827148437,926,48,-31797,1552
9.7,1788518680978,0.0,1.3239436149597168,-0.0014694174751639,0.0016009119572117,0.6870277523994446,0.7266279458999634,0.0544058193662056,-0.0048549852439242,2.6777054335710683e-05,0.0113023575395345,-0.0224001761525869,0.4836309850215912,0.0008850032463669,0.0007411604747176,-0.4819752871990204,0.8761841058731079,0.0020792101173518,-0.0068745957807035,-0.0905763907553467,-0.2546494603157043,0.095852792263031,0.1169366836547851,926,48,-31797,1552
9.8,1788518681078,0.0,1.3239436149597168,-0.0006224781973287,0.0011373320594429,0.7193626165390015,0.6946335434913635,-0.0001768237757029,0.0015930337183322,1.7510317182816362e-06,3.3377283159552462e-09,-4.172160394944058e-09,-8.54458448884543e-07,0.0008222879841923,0.0005433615297079,-0.4829567670822143,0.8756436109542847,0.0017188166287533,-0.0083830178605522,-0.0460480394984363,0.984394907951355,0.0610677599906921,0.0898981094360351,926,48,-31797,1552
9.9,1788518681178,0.0,0.0,-0.0006224781973287,0.0011373320594429,0.7193626165390015,0.6946335434913635,-0.0020076602761437,-0.0020899784265282,6.700372240229188e-07,0.0,0.0,0.0,0.0009228624403476,0.000710679218173,-0.4828405380249023,0.8757075071334839,0.0015708961063372,0.0010929358081038,0.0120015088256753,-0.0299671292304992,-0.1005245447158813,0.041666030883789,926,48,-31797,1552
10.0,1788518681278,0.0,0.0,-0.0006224781973287,0.0011373320594429,0.7193626165390015,0.6946335434913635,-0.0001977969519479,-0.0002028495634703,-3.331713696327376e-07,0.0,0.0,0.0,0.0009228624403476,0.000710679218173,-0.4828405380249023,0.8757075071334839,0.0015708961063372,0.0010929358081038,0.0120015088256753,-0.0299671292304992,-0.1005245447158813,0.041666030883789,926,48,-31797,1552
10.1,1788518681378,0.0,0.0,-0.0006224781973287,0.0011373320594429,0.7193626165390015,0.6946335434913635,0.0,0.0,0.0,0.0,0.0,0.0,0.0009413808584213,0.0006931833922863,-0.4829513132572174,0.8756464123725891,0.0008257908283644,-0.0009451398611999,-5.946695935078663e-05,0.0328737497329711,0.0140401124954223,0.0190744400024414,926,48,-31797,1552
10.2,1788518681478,0.0,0.0,-0.0006224781973287,0.0011373320594429,0.7193626165390015,0.6946335434913635,0.0,0.0,0.0,0.0,0.0,0.0,0.0009413808584213,0.0006931833922863,-0.4829513132572174,0.8756464123725891,0.0008257908283644,-0.0009451398611999,-5.946695935078663e-05,0.0328737497329711,0.0140401124954223,0.0190744400024414,926,48,-31797,1552
10.3,1788518681578,0.0,0.0,-0.0006224781973287,0.0011373320594429,0.7193626165390015,0.6946335434913635,0.0,0.0,0.0,0.0,0.0,0.0,0.0009647095575928,0.0006632097065448,-0.4829542338848114,0.8756448030471802,0.0006043503240178,-0.00086225092923,0.0005211120072575,-0.0121487975120544,-0.0098264217376708,-0.0207319259643554,926,48,-31797,1552
10.4,1788518681678,0.0,0.0,-0.0006224781973287,0.0011373320594429,0.7193626165390015,0.6946335434913635,0.0,0.0,0.0,0.0,0.0,0.0,0.0009818142279982,0.0006572315469384,-0.4830070734024048,0.8756157159805298,0.0007854920657659,0.0007390700245055,-0.0001850750048375,-0.0068813562393188,-0.0139407515525817,0.0205841064453125,926,48,-31797,1552
10.5,1788518681778,0.0,0.0,-0.0006224781973287,0.0011373320594429,0.7193626165390015,0.6946335434913635,0.0,0.0,0.0,0.0,0.0,0.0,0.0010027568787336,0.0006584115326404,-0.4829933047294616,0.8756232857704163,0.0005545319708474,0.0002441680849391,0.0008769655104368,-0.0120512247085571,-0.0142892599105834,0.0205621719360351,0,0,0,0
10.6,1788518681878,0.0,0.0,-0.0006224781973287,0.0011373320594429,0.7193626165390015,0.6946335434913635,0.0,0.0,0.0,0.0,0.0,0.0,0.0010027568787336,0.0006584115326404,-0.4829933047294616,0.8756232857704163,0.0005545319708474,0.0002441680849391,0.0008769655104368,-0.0120512247085571,-0.0142892599105834,0.0205621719360351,0,0,0,0
10.7,1788518681978,0.0,0.0,-0.0005577243282459,0.0009364908328279,0.7224683165550232,0.6914032101631165,0.0112174544677506,-0.0037220384249814,3.478554180448057e-06,-0.0029918551445007,-0.0052508707158267,0.1276330947875976,0.0010027568787336,0.0006584115326404,-0.4829933047294616,0.8756232857704163,0.0005545319708474,0.0002441680849391,0.0008769655104368,-0.0120512247085571,-0.0142892599105834,0.0205621719360351,927,142,-30024,10664
10.8,1788518682078,0.0,2.7042253017425537,-0.0019114230526611,0.0008092281059361,0.7434307336807251,0.668809711933136,0.0549272870069403,-0.0067463515939849,3.675477460914433e-06,-0.0141723901033401,0.0106263337656855,0.4661484658718109,-2.1334737539291385e-05,0.0029202327132225,-0.4358581602573395,0.9000107049942017,0.0003452790770013,-0.0041153275622137,0.4098664066312176,0.0958364605903625,0.124498426914215,-0.0054731369018554,927,142,-30024,10664
10.9,1788518682178,0.0,2.619718313217163,-0.0028490920085459,0.0007461722707375,0.7498477101325989,0.6616038680076599,0.0473389112605097,-0.0052085297982565,-2.181179102990172e-05,-0.0277559701353311,0.0259743388742208,0.3864359259605407,-9.945686906576157e-05,0.0036728624254465,-0.4214287400245666,0.9068541526794434,-0.0194693793659281,0.0276201147169582,0.3727719246071005,-0.2901153564453125,-0.120501160621643,0.0726480484008789,927,78,-32767,8380
11.0,1788518682278,0.0,1.0704225301742554,-0.0037861950695514,0.0008523570140823,0.7687432169914246,0.639545738697052,0.0395844768877481,-0.0036527760481092,-1.0522569067063124e-05,-0.0139170372858643,0.016010720282793,0.3371912837028503,-0.000200699083507,0.0039492892101407,-0.4119726419448852,0.911187708377838,-0.0036613161132142,0.0013224496507423,0.2475259720243501,-0.2888020277023315,-0.1939277052879333,-0.0318212509155273,927,78,-32767,8380
11.1,1788518682378,0.0,1.0704225301742554,-0.0036866692826151,0.0007957083871588,0.7719050645828247,0.6357266306877136,0.008020725347878,-0.0048256304628481,-3.632508299192596e-07,0.0024118297733366,-0.0047512771561741,-0.0159336868673563,-0.0001070629805326,0.0040181642398238,-0.410414844751358,0.9118900895118712,0.0021314358619035,0.0040941851733226,0.0712895790814075,0.4993287920951843,-0.4634385108947754,-0.3043022155761719,69,2,0,0
11.2,1788518682478,0.0,0.0,-0.0035794735886156,0.0007651858031749,0.7697991132736206,0.6382758021354675,-0.0133569437776838,0.0029598938926272,2.110812450080412e-06,0.0022358805872499,-0.0038729324005544,-0.1328251510858535,-0.0001223972067236,0.0038517415523529,-0.4142347872257232,0.9101619720458984,0.0002637263229246,-0.0064112061579457,0.0451169799481554,0.0420114994049072,0.0067487955093383,0.031534194946289,69,2,0,0
11.3,1788518682578,0.0,0.0,-0.003821587190032,0.0009331150213256,0.770152747631073,0.637847363948822,-0.0013297665965055,-0.0030003552016849,1.297700904728778e-06,0.0,0.0,0.0,-0.0001549506559967,0.0038213217630982,-0.4152547717094421,0.90969717502594,0.0005895648211586,-0.0035543837067681,-0.029962616858343,0.1722798943519592,0.1939467787742614,0.0328874588012695,69,2,0,0
11.4,1788518682678,0.0,0.0,-0.003821587190032,0.0009331150213256,0.770152747631073,0.637847363948822,-0.0013297665965055,-0.0030003552016849,1.297700904728778e-06,0.0,0.0,0.0,-0.0001059817150235,0.0038977600634098,-0.415130078792572,0.9097537994384766,-3.954025158854296e-05,0.0006433350868138,-0.0125077651603817,0.0986894965171814,-0.0127853751182556,0.0137414932250976,69,2,0,0
11.5,1788518682778,0.0,0.0,-0.003821587190032,0.0009331150213256,0.770152747631073,0.637847363948822,0.000248084082174,0.0002722154180415,-3.244643655614069e-07,0.0,0.0,0.0,-0.0001094937324523,0.003919824026525,-0.4149691462516784,0.9098269939422609,-0.0010017688728515,0.0014145080769852,0.0136537510325562,-0.0444761514663696,0.0073470473289489,-0.0209236145019531,69,2,0,0
11.6,1788518682878,0.0,0.0,-0.003821587190032,0.0009331150213256,0.770152747631073,0.637847363948822,0.0,0.0,0.0,0.0,0.0,0.0,-0.0001098569482564,0.0038643823936581,-0.4150219261646271,0.9098032116889954,0.0007742446767507,-0.0008411712959699,-0.0008929481621847,-0.0096504092216491,-0.068627119064331,0.0022563934326171,69,2,0,0
11.7,1788518682978,0.0,0.0,-0.003821587190032,0.0009331150213256,0.770152747631073,0.637847363948822,0.0,0.0,0.0,0.0,0.0,0.0,-9.774044156074524e-05,0.0038277814164757,-0.4150809347629547,0.909776508808136,0.0004911529273051,-0.0022619143113652,-0.0058579607790612,0.0131815671920776,0.0009475946426391,-0.0063352584838867,0,0,0,0
11.8,1788518683078,0.0,0.0,-0.003821587190032,0.0009331150213256,0.770152747631073,0.637847363948822,0.0,0.0,0.0,0.0,0.0,0.0,-8.708517998456955e-05,0.0038571693003177,-0.4150160849094391,0.9098058938980104,-0.0010929729237836,0.0004937626343452,0.001554565651343,0.0120348930358886,0.0096170306205749,0.0129604339599609,0,0,0,0
11.9,1788518683178,0.0,0.0,-0.0036983066238462,0.0008927246090024,0.770097553730011,0.6379148364067078,0.0,0.0,0.0,0.0,0.0,0.0,-9.28407534956932e-05,0.003873711451888,-0.4150280356407165,0.9098004102706908,-9.958470476193416e-05,-0.0001457049472166,-0.0007263159498559,0.0080847740173339,-0.0188206434249877,-0.0090322494506835,0,0,0,0
12.0,1788518683278,0.0,0.0,-0.0036983066238462,0.0008927246090024,0.770097553730011,0.6379148364067078,0.0,0.0,0.0,0.0,0.0,0.0,-0.0001494158059358,0.003825644031167,-0.4147162139415741,0.9099428057670592,-0.0012688048423287,-0.0014803209720962,0.0129783377956071,0.2425317168235778,0.1112831830978393,0.0184783935546875,0,0,0,0
12.1,1788518683378,0.0,0.6478873491287231,-0.0036983066238462,0.0008927246090024,0.770097553730011,0.6379148364067078,0.0,0.0,0.0,0.0,0.0,0.0,-0.0001798095181584,0.0039452286437153,-0.4083322584629059,0.912824809551239,-0.0041161527242105,0.003473606913624,0.2864429007740991,-0.1565607786178589,0.4978069067001343,0.1782140731811523,388,270,-11971,9703
12.2,1788518683478,0.0,0.6478873491287231,-0.0038592813070863,0.0008318130858242,0.777490496635437,0.6288822293281555,0.0318814444419608,0.0028056572818824,-8.419305012585323e-06,-0.0042694746516644,0.010273422114551,0.4574875235557556,-0.0002919659018516,0.0039097731932997,-0.3859729468822479,0.922501802444458,-0.0039519165144123,0.0185053043309546,0.3624777070170874,-0.0167130827903747,-0.1644830107688903,0.0808525085449218,388,270,-11971,9703
12.3,1788518683578,0.0,2.253521203994751,-0.0038592813070863,0.0008318130858242,0.777490496635437,0.6288822293281555,0.0318814444419608,0.0028056572818824,-8.419305012585323e-06,-0.0042694746516644,0.010273422114551,0.4574875235557556,-0.0002919659018516,0.0039097731932997,-0.3859729468822479,0.922501802444458,-0.0039519165144123,0.0185053043309546,0.3624777070170874,-0.0167130827903747,-0.1644830107688903,0.0808525085449218,388,270,-11971,9703
12.4,1788518683678,0.0,1.97183096408844,-0.0038592813070863,0.0008318130858242,0.777490496635437,0.6288822293281555,0.0318814444419608,0.0028056572818824,-8.419305012585323e-06,-0.0042694746516644,0.010273422114551,0.4574875235557556,0.0006058393046259,0.0008314028382301,-0.3498516678810119,0.9368045926094056,-0.0096153797775681,-0.0036925219988258,0.2204943815210552,0.0801291465759277,0.1530597805976867,-0.0142803192138671,927,97,-32767,7732
12.5,1788518683778,0.0,0.7605633735656738,-0.0010724527528509,0.0005939608672633,0.8196656107902527,0.5728409886360168,0.0353582239840181,-0.0017514284345712,-7.211046509415114e-06,-0.0080257467925548,0.0088802296668291,0.2968641519546509,0.0003496352583169,0.0013516219332814,-0.3339826166629791,0.9425782561302184,-0.0012075906137373,0.0162901553713623,0.3028330833682598,-0.0556623339653015,-0.0258650779724121,-0.0282468795776367,927,26,-32006,2641
12.6,1788518683878,-1.0140844583511353,0.0,-0.0011929487809538,0.0007021250203251,0.8232911825180054,0.5676175951957703,0.0044078262832074,-0.0054007554267626,3.4703572187631266e-07,0.0016521965153515,-0.0070188683457672,-0.0161111149936914,0.0003557447344064,0.0012099854648113,-0.3349086940288543,0.9422497749328612,0.0030140934882077,-0.01470868068306,-0.1096718212177325,-0.3615487217903137,0.3056167364120483,-0.0802745819091796,0,3,0,0
12.7,1788518683978,0.0,0.0,-0.001160516985692,0.0006915396661497,0.8218845725059509,0.5696524977684021,0.0021304490193573,0.0001356610262926,2.79148711731145e-06,-0.0005917177186347,-0.0029225859325379,0.0200574621558189,0.0003942744806408,0.001286769285798,-0.3353897333145141,0.9420785307884216,0.0021262893384571,-0.0002213664120313,0.0169539733195869,-0.1645072102546692,0.2295999526977539,0.0118694305419921,0,0,0,0
12.8,1788518684078,0.0,0.0,-0.0011358134215697,0.0007108751451596,0.8219732642173767,0.5695245265960693,-0.000734464712811,-8.63292279697221e-06,4.010001247588979e-07,-8.601208537584171e-05,-0.0002389717265032,-0.0039350795559585,0.0004056645557284,0.001287049613893,-0.3355264663696289,0.94202983379364,0.0016731144460154,-0.0011677231862305,-0.0065198669876265,-0.0225768685340881,0.1503278613090515,0.0211391448974609,0,0,0,0
12.9,1788518684178,0.0,0.0,-0.0011633865069597,0.0007360393647104,0.8219702839851379,0.5695287585258484,0.0002974491201967,-0.0003394516797029,7.801837152297493e-07,-0.0005075296503491,0.0004991653258912,0.0033889305777847,0.0003880923613905,0.0013054674491286,-0.3355080783367157,0.9420363306999208,-0.0009834262922293,-0.0010299314192716,-0.0014536573778135,0.0351848602294921,0.0071461796760559,0.0064220428466796,0,0,0,0
13.0,1788518684278,0.0,0.0,-0.0012117834994569,0.0007256502867676,0.821977972984314,0.5695174336433411,0.0001782226205448,-0.0001919738122518,4.595517679486487e-07,-0.0004770720843225,0.0014500925317406,0.0019695390947163,0.0003753788769245,0.0013477178290486,-0.3354405462741852,0.94206041097641,-0.0007009493777437,-0.0007510571926464,0.0017297699201303,0.0159910917282104,-0.0212080478668212,0.036747932434082,0,0,0,0
13.1,1788518684378,0.0,0.0,-0.0011880445526912,0.0007333056419156,0.8219906091690063,0.5694993734359741,-2.1040658781851124e-05,2.2670460894062683e-05,-5.3968250858945444e-08,0.0008841625531204,-1.8739112420007583e-05,-0.0002230457612313,0.0003955326974391,0.001337113790214,-0.3354654312133789,0.9420514702796936,0.0008645496239923,0.0004206618084477,0.0005853518029141,-0.0019229054450988,-0.0430963039398193,0.0114355087280273,0,0,0,0
13.2,1788518684478,0.0,0.0,-0.0011891082394868,0.0007418828899972,0.8219874501228333,0.5695040225982666,-2.5075695950644024e-05,3.4844450269836065e-05,-6.477578424902931e-08,0.0003222302766516,0.0002876213111449,-0.0002783135569188,0.0004160022363066,0.0013176212087273,-0.3354991376399994,0.9420395493507384,0.0007908428979367,3.446203868207641e-05,-0.0016200531406444,-0.0075758099555969,-0.0508233308792114,0.0203609466552734,0,0,0,0
13.3,1788518684578,0.0,0.0,-0.0011702571064233,0.0007577506476081,0.8219618797302246,0.5695408582687378,-0.0002248061248582,0.0002355191576224,-5.972035686992089e-07,0.000276045728242,0.0005367600824683,-9.478727588430048e-05,0.0004238588735461,0.0013218214735388,-0.3355022370815277,0.942038357257843,0.0002346718163284,-0.0011338111891269,-2.04314561636294e-05,-0.0056033730506896,0.0119670629501342,0.0098562240600585,0,0,0,0
13.4,1788518684678,0.0,0.0,-0.0011654545087367,0.0007674674852751,0.8219606280326843,0.5695425868034363,0.0001492937909623,-0.0001557072142641,4.024777636575319e-07,0.0003499302547425,5.1769002311630175e-05,-7.001036283327267e-05,0.00045348983258,0.0013174125924706,-0.3354960680007934,0.9420406222343444,0.0009614499517578,0.000382219979785,0.0001731370903264,0.0039171576499938,0.0013720393180847,0.0172662734985351,0,0,-1035,1035
13.5,1788518684778,-0.8732394576072693,2.0281689167022705,-0.0011744985822588,0.0006730918539687,0.8234027028083801,0.5674558281898499,0.0062112546629482,-0.001491296957358,-2.3149622338734402e-07,-0.0029630211647599,-0.0014217820717021,0.0745163708925247,0.0003710137680172,0.0016649067401885,-0.3294392824172973,0.9441753029823304,-0.0059324322658872,0.0272743116875465,0.3509041265223591,0.2827622294425964,0.2973178029060364,-0.0721254348754882,603,125,-16737,8328
13.6,1788518684878,0.0,2.0281689167022705,-0.0021352479234337,0.0006202920340001,0.8327885866165161,0.5535866022109985,0.0383678261846503,-0.0049800626698103,-1.342086814171892e-05,-0.0124007109552621,0.0135745322331786,0.3380974531173706,3.718212246894837e-05,0.0022091921418905,-0.3145471811294555,0.9492393136024476,0.000706350531326,-0.0079011353398506,0.3239333145487684,0.245344877243042,0.1979086399078369,-0.3367700576782226,926,42,-32767,6565
13.7,1788518684978,0.0,1.6338027715682983,-0.0022179195657372,0.0006318754749372,0.8408877849578857,0.5412044525146484,0.0346964229159982,-0.0024040934222667,-3.7133263819296754e-06,-0.001241891994141,0.0009744460112415,0.2944634854793548,8.557923138141632e-06,0.0023324778303503,-0.3018904030323028,0.9533398151397704,-0.0027837405451321,-0.0024284504457474,0.2663398184420794,0.0232527256011962,-0.0741922855377197,0.0454864501953125,926,90,-32767,6723
13.8,1788518685078,0.0,1.6056338548660278,-0.0022551701404154,0.0004811677499674,0.847156286239624,0.5313389301300049,0.028554239998194,-0.0011372521576275,1.0095365853513995e-06,-0.0017724722856655,-0.0006346445879898,0.2372906357049942,-0.0001102024689316,0.0022370861843228,-0.2901106178760528,0.9569905400276184,0.0024561228466618,-0.004465844043663,0.2245155761519883,-0.0402941107749938,-0.0390928983688354,0.0866632461547851,925,61,-32767,5202
13.9,1788518685178,-1.0140844583511353,0.0,-0.0022310765925794,0.000562528904993,0.8529677987098694,0.5219584703445435,0.0185463998499601,-0.0033456105320259,3.174144763013141e-07,0.0003946250362787,0.0047445269301533,0.1560618728399276,-3.7678517401218414e-05,0.0022650305181741,-0.2818736433982849,0.9594488739967346,0.0047787844162949,0.0002349828927826,-0.0268113678893221,0.4365161061286926,-0.4809726476669311,-0.2777109146118164,0,6,0,0
14.0,1788518685278,0.0,0.0,-0.0019472374115139,0.0004368843510746,0.850312352180481,0.5262744426727295,-0.0097507467817473,0.0003062874611078,-4.001103109143805e-07,0.0023967374581843,-0.0094202049076557,-0.0672465115785598,-4.0558166801929474e-05,0.0021579684689641,-0.2861309349536896,0.9581881165504456,0.0012763783206482,-0.0033865409483166,0.0499867823579417,0.1779418587684631,-0.1683986783027649,0.0529565811157226,0,0,0,0
14.1,1788518685378,0.0,0.0,-0.0021073832176625,0.0005440536770038,0.8505141139030457,0.5259478092193604,0.0032446150454233,-0.0019223982642464,3.580472125753633e-06,0.0007515650358982,-0.0001630959304748,0.0253864210098981,-1.3406388461589812e-05,0.00214325170964,-0.2862496078014374,0.958152711391449,0.0007353833102017,0.0001048817275305,-0.017670224425543,-0.0392570495605468,0.0503797531127929,-0.004551887512207,0,0,0,0
14.2,1788518685478,0.0,0.0,-0.0020720467437058,0.0005358045455068,0.8503212928771973,0.5262596011161804,-0.0011912119491297,0.0006986631153236,-1.7932738183270928e-07,0.0004003561916761,-0.0011089470935985,-0.0119023462757468,-1.3709068298339844e-05,0.0021316288039088,-0.2865864038467407,0.9580520391464232,0.0004667755290928,0.000241718084987,-0.0087602499719894,0.0287144184112548,0.0448920726776123,0.0082969665527343,0,0,0,0
14.3,1788518685578,0.0,0.0,-0.0020830291323363,0.0005647728103213,0.8501886129379272,0.5264737606048584,2.704036184876573e-05,-1.3464487964023489e-05,9.34533310829615e-08,0.0003960359608754,0.0012161887716501,-0.0020238903816789,-1.3709068298339844e-05,0.0021316288039088,-0.2865864038467407,0.9580520391464232,0.0004667755290928,0.000241718084987,-0.0087602499719894,0.0287144184112548,0.0448920726776123,0.0082969665527343,0,0,0,0
14.4,1788518685678,0.0,0.0,-0.0021029980853199,0.0005849651060998,0.8501719832420349,0.5265005230903625,9.423646204243845e-05,-0.0001322632561237,2.281519758840157e-07,0.0011702693300321,-0.000474828411825,0.0011965144658461,1.0685063898563383e-05,0.0021599344909191,-0.2865991294384002,0.9580481648445128,7.538274822062317e-05,-0.0015626081549514,-0.000376445606395,0.0095945596694946,-0.0003380179405212,0.0152082443237304,0,0,0,0
14.5,1788518685778,0.0,0.0,-0.002086114604026,0.0005866647115908,0.8501580357551575,0.526523232460022,0.0001364114823336,-0.0001132563265545,4.2749730989944043e-07,0.0003941152244806,0.0004284234018996,-0.0008933906210586,4.526786506175995e-05,0.0021485704928636,-0.2866101861000061,0.9580448269844056,0.001260551842739,-0.001155201023714,0.0007743411166297,0.0222421288490295,-0.0225135684013366,-0.0063800811767578,0,0,0,0
14.6,1788518685878,0.0,0.0,-0.0020407575648278,0.0006131867412477,0.850153923034668,0.5265297889709473,-0.0001002140670259,8.55767149752821e-05,-3.193925680359695e-07,0.0007914925809018,-0.0012166352244094,-0.0009129056124947,9.182561188936234e-05,0.0021442109718918,-0.286595344543457,0.9580492973327636,0.0007806986236605,0.0012668577030789,0.0007096875707647,-0.0099623799324035,-0.0450178980827331,0.005960464477539,0,0,0,0
14.7,1788518685978,0.0,0.0,-0.0020527474116533,0.0006407615146599,0.8501741886138916,0.5264972448348999,0.0001569192258936,-0.0001719841171697,4.71853891171991e-07,-0.0002785427786875,5.783873712061904e-05,0.0001593343768035,8.953828364610672e-05,0.0021434491500258,-0.2866037487983703,0.9580467939376832,0.0012444994005656,-0.000141590698585,-9.4005059215873e-06,0.0094413161277771,0.0072094798088073,0.0146741867065429,0,0,0,0
14.8,1788518686078,0.0,0.0,-0.002019768115133,0.0006623971275985,0.8501771688461304,0.5264924168586731,5.124262412466664e-05,-8.929495313011619e-05,1.212786916310326e-07,0.0006368308095261,-0.0006836914108134,0.0007721516303718,0.0001042541116476,0.0020935898646712,-0.2866073548793793,0.9580458402633668,0.0002567848924084,-0.0008536019418062,-0.0012672848171383,0.021290898323059,-0.002748429775238,0.0167808532714843,0,0,0,0
14.9,1788518686178,0.0,0.0,-0.0020195306278765,0.0006525841890834,0.8501474261283875,0.5265404582023621,5.309750370504416e-05,-4.849495149688839e-05,1.6768880147788776e-07,-0.0001641247945372,0.0008609112119302,-0.0016569808358326,0.0001033917069435,0.002119829878211,-0.2866385579109192,0.9580365419387816,-0.0004566776587662,0.0014515963857317,-0.0005474551501226,0.0183029174804687,-0.0436500310897827,0.0240497589111328,211,206,-7493,7493
15.0,1788518686278,0.0,1.6901408433914185,-0.0023204507306218,0.0005706016090698,0.8548550605773926,0.5188613533973694,0.0318634862776732,-0.0018433497368656,-1.1247937617737168e-05,-0.0066836643964052,0.0176840014755725,0.3406175673007965,-0.0001444742083549,0.0025024143978953,-0.2737960815429687,0.9617844820022584,-0.0099223610809958,0.0025568956809107,0.3344281588922848,-0.6954346895217896,-0.3494380116462707,0.3213777542114258,928,55,-25485,5621
15.1,1788518686378,0.0,1.436619758605957,-0.002094111405313,0.0003861520672217,0.8629781007766724,0.505236804485321,0.0273302899727383,-0.00201111632784,2.5224416549780176e-06,-0.0013337901327759,-0.0074821896851062,0.2358754128217697,-0.0001510428264737,0.0022192811593413,-0.26044362783432,0.965486466884613,-0.0004381566922412,0.005564828841181,0.2399551311342277,0.1578959226608276,0.2375985383987426,-0.0783462524414062,927,82,-32767,6060
15.2,1788518686478,0.0,1.4929577112197876,-0.0023851348087191,0.0004768297658301,0.8684093356132507,0.4958420693874359,0.027342248336907,-0.0034348724584568,7.939720959773101e-07,-0.0019366380292922,0.0004364750639069,0.2353149950504303,-0.0001973723992705,0.0023237215355038,-0.2468021661043167,0.9690631031990052,0.0004239790277662,-0.0070732507647823,0.2414714560843069,0.0477719902992248,-0.0748065710067749,0.0851020812988281,928,95,-32767,5947
15.3,1788518686578,0.0,1.4647886753082275,-0.0022033762652426,0.0003641164512373,0.8741912245750427,0.4855766594409942,0.0296248661294245,-0.0032062406467619,2.493602221299768e-06,-0.0005495169316418,-0.0046825627796351,0.2444228678941726,-0.0002509132027626,0.0020001679658889,-0.2360588759183883,0.97173672914505,0.001173460655568,-0.0103242384401067,0.2659323764055077,-0.0211173295974731,-0.0073000192642211,0.0347957611083984,926,80,-32525,5012
15.4,1788518686678,-1.0140844583511353,0.0,-0.0020837276242673,0.0003169454284943,0.8789772391319275,0.4768590033054352,0.0197105391920398,-0.0028228230568689,-8.068917159210255e-07,0.0001942393282661,0.0046477485448122,0.1755809187889099,-0.0002113031223416,0.0020148651674389,-0.231789231300354,0.9727638959884644,0.0025509230501617,-0.0063618983634323,-0.0792464909482988,0.0668380260467529,-0.3517521023750305,0.1648578643798828,27,1,0,0
15.5,1788518686778,0.0,0.0,-0.0019617539364844,0.0003106434014625,0.876619279384613,0.4811805486679077,-0.0096130634079249,0.0018141560839456,-1.1222068118983018e-06,0.0009440041030757,-0.001998966326937,-0.0916457772254943,-0.0001990338787436,0.0020066061988472,-0.2359352856874466,0.9717666506767272,-0.0011436336453654,0.0126735246736689,-0.0289064259667231,-0.2577088475227356,0.1624887585639953,0.0057392120361328,0,0,0,0
15.6,1788518686878,0.0,0.0,-0.0019780583679676,0.0003269891603849,0.8771270513534546,0.4802541732788086,0.0021944707783139,-0.0016717496731662,-1.2025175610807004e-06,-0.000620663689915,0.0015730992890894,0.0206282883882522,-0.0001853425055742,0.0019372580572962,-0.2351903915405273,0.9719473719596864,0.0013544457257284,-0.0012782137860841,-0.0173637761297993,-0.02349054813385,0.0327312350273132,-0.0350885391235351,0,0,0,0
15.7,1788518686978,0.0,0.0,-0.0018688514828681,0.0002995358663611,0.8767186999320984,0.4809997677803039,-0.0012481867012345,0.0006054402252351,1.276296750589382e-06,0.0004025815578643,-0.0013880607439205,-0.0144239468500018,-0.0001788334921002,0.0019222563132643,-0.2356495559215545,0.9718362092971802,0.0005746795621358,0.0030308790231212,0.0082805068256017,-0.0166149735450744,-0.0465175509452819,-0.0246143341064453,0,0,0,0
15.8,1788518687078,0.0,0.0,-0.00187170621939,0.0003143038484267,0.876766562461853,0.4809124767780304,-0.0008333044405988,0.0002297994157784,-2.779273637837941e-06,-7.829498645151034e-05,-0.0031402867753058,-0.0057396283373236,-0.0001755999401211,0.0018872618675231,-0.2356789410114288,0.971829116344452,0.0006146420781726,3.659290004405999e-05,-0.0021530418548497,-0.0084673762321472,-0.0199719667434692,0.016845703125,0,0,0,0
15.9,1788518687178,0.0,0.0,-0.0018953699618577,0.0003225310938432,0.8767862319946289,0.480876475572586,-2.34006229595314e-05,-0.0002855387757839,-4.363956574157953e-07,-0.0003636119654402,0.0004457980394363,0.0013504428789019,-0.0001874603331089,0.0019197221845388,-0.2356085330247879,0.9718461632728576,-0.0003495929288753,0.0001040991980727,0.0010680865697352,-0.0080130100250244,-0.0071315765380859,0.0420455932617187,0,0,0,0
16.0,1788518687278,0.0,0.0,-0.0018662315560504,0.0003079182934015,0.8767825365066528,0.4808834195137024,6.220891565521125e-05,-6.229746606010012e-05,1.472713664920289e-07,0.0002131240617018,-0.0013252198696136,0.0006588961114175,-0.0001985365524888,0.0018866369500756,-0.2356321066617965,0.971840500831604,-0.0009311503400513,0.0001971272488517,-0.0008619803041355,0.0057839751243591,-0.0518692135810852,0.0167722702026367,0,0,0,0
16.1,1788518687378,0.0,0.0,-0.0018657828914001,0.0003194686141796,0.8767697215080261,0.4809067547321319,-0.0002258501291067,-0.0001873051003837,-1.03964563342753e-06,0.000384406390367,0.0003068626101594,-0.0002107518812408,-0.0001781079918146,0.0018845377489924,-0.2356413006782531,0.9718382358551024,0.0009635420248885,0.0010942112353322,-0.0010778094687697,0.0040656924247741,-0.0324882864952087,0.0114603042602539,0,0,0,0
16.2,1788518687478,0.0,0.0,-0.0018555979477241,0.0003363879513926,0.876785397529602,0.4808782637119293,0.0002860404815038,0.0001950386207129,1.277506733907318e-06,0.0009388439939357,-0.0011240406893193,0.0004986339481547,-0.0001578284427523,0.001875314861536,-0.2356133013963699,0.9718450903892516,0.0007688425199337,-0.0011964775543128,0.0005110727653247,0.0076289772987365,0.0076001286506652,0.007573127746582,0,0,0,0
16.3,1788518687578,0.0,0.0,-0.0018563196063041,0.0003867692430503,0.8767844438552856,0.4808797240257263,-3.525093199182704e-05,-0.0002778191849453,-4.49791905915413e-07,0.0008142433944158,0.0004458661715034,0.0012775912182405,-0.0001106299459934,0.0018839742988348,-0.2356150448322296,0.9718446731567384,0.0009174880187149,-0.0009928168566183,0.000324974740372,0.0057816505432128,-0.012280523777008,-0.0069589614868164,0,0,0,0
16.4,1788518687678,-0.5070422291755676,1.5211267471313477,-0.0018281898228451,0.0003726535651367,0.8767766356468201,0.4808942079544067,0.0001783242367993,0.0003429744123355,1.026527736864557e-06,5.608022547676228e-05,-0.0014936219668015,-0.000784293632023,-0.0001826304942369,0.0020339852198958,-0.2287582010030746,0.9734811186790466,-0.0025143313247464,0.0078892976844325,0.2555247859950366,0.3598291277885437,0.049619436264038,-0.1734399795532226,599,190,-14947,7785
16.5,1788518687778,0.0,1.6056338548660278,-0.0021450822241604,0.0004307708586566,0.8859742879867554,0.4637293219566345,0.0344097656005487,-0.0052880381285435,-4.993207430178503e-06,0.0030237494502216,-0.0013001314364373,0.3528813123703003,-0.0001295749098062,0.0024676639586687,-0.2125692665576934,0.977142870426178,-0.0037320525889933,0.0186595417171496,0.2805820304746151,-0.5119556188583374,-0.2056700587272644,-0.0777425765991211,926,32,-32597,5227
16.6,1788518687878,0.0,1.436619758605957,-0.0023456474300473,0.0005524041480384,0.892172634601593,0.4516881108283996,0.0257173379586884,-0.0025683749184039,-2.2259044516689204e-06,0.0006220761570148,0.0022234697826206,0.2175027579069137,-8.143018931150436e-05,0.0024080583825707,-0.2027582377195358,0.9792259335517884,-0.0019727440391455,-0.0004468359969325,0.2073341883729151,-0.0731221437454223,-0.2507754564285278,0.0102052688598632,927,4,-32767,3361
16.7,1788518687978,0.0,1.0704225301742554,-0.0023131675552576,0.0004983886028639,0.8957726359367371,0.4445062577724457,0.0193760163637825,-0.0023150581471352,1.225770213154587e-06,-0.0014363729860633,-0.0004222388670314,0.1613511890172958,-0.0001251772046089,0.0023596314713358,-0.194658026099205,0.9808683395385742,-0.0013124519472281,-0.001072604624526,0.1640137769019112,0.0676815509796142,0.0637361407279968,0.0301017761230468,926,81,-32767,5085
16.8,1788518688078,0.0,0.0,-0.0025045990478247,0.0005507443565875,0.8994821906089783,0.4369499981403351,0.0217340033319689,-0.0018696875959626,-6.984774270878041e-07,-0.0008721878402866,0.0036726910620927,0.1815659403800964,-0.0001152995973825,0.0025523193180561,-0.1851092875003814,0.9827146530151368,-0.0004660534215542,-0.0017175269095312,0.1408141433227648,-0.1474889516830444,-0.097744345664978,0.0069303512573242,95,4,0,0
16.9,1788518688178,0.0,0.0,-0.0024758856743574,0.0006189706036821,0.8996955156326294,0.4365105926990509,0.0012048614555119,-0.0015477647108872,-7.030555683913512e-07,0.0002735400921665,0.0017997187096625,-0.0935234501957893,-4.275236278772354e-05,0.0023805536329746,-0.1875415444374084,0.9822537899017334,0.0026128528404923,-0.0111164234424125,-0.0501016095620132,0.5877537727355957,0.0405489206314086,-0.0180063247680664,0,0,0,0
17.0,1788518688278,0.0,0.0,-0.0023180383723229,0.0005859034135937,0.8989210724830627,0.438103973865509,-0.0016106369454089,0.000312002080022,-2.015242784425945e-06,0.0013593173353001,-0.0067597767338156,-0.0103424796834588,-6.007030606269836e-07,0.0024903966113924,-0.1882970780134201,0.9821089506149292,-0.0007122017633663,0.0070586775191637,0.0110745108220548,-0.2199965715408325,0.0276354551315307,-0.0251836776733398,0,0,0,0
17.1,1788518688378,0.0,0.0,-0.0023672694806009,0.000614175805822,0.8989414572715759,0.4380620121955871,-0.0006250644570027,0.0004358437550967,-8.748900159764189e-07,6.681216473225504e-05,-0.0014831179287284,-0.0072006746195256,-1.8860213458538052e-05,0.0024553202092647,-0.1883929371833801,0.982090711593628,0.000219774869883,0.0007059000593744,0.007123351978433,0.0089843273162841,0.034876525402069,0.0153608322143554,0,0,0,0
17.2,1788518688478,0.0,0.0,-0.0023947290610522,0.0006228979909792,0.8989521861076355,0.4380398988723755,-0.0002912348853447,0.0003249562290471,-1.0898156638589646e-06,-0.0003021557058673,0.0007162827532738,-0.0033033757936209,-2.507679164409637e-05,0.0025175753980875,-0.1884460300207138,0.9820802807807922,-0.0007675411311245,0.0025186755710281,0.0011658932917439,-0.0239661931991577,-0.045594036579132,0.0148801803588867,0,0,0,0
17.3,1788518688578,0.0,0.0,-0.0024196621961891,0.0006332634948194,0.8989626169204712,0.4380183219909668,8.596189327201137e-05,-9.148877901844805e-05,-2.058486503287742e-06,-6.651901639997959e-05,0.0010785269550979,0.0009591711568646,-3.1902454793453217e-05,0.0024498635903,-0.1884838193655014,0.9820732474327089,8.385272271724173e-05,-0.0010339042285134,-0.0021771597473867,0.0141870379447937,-0.0349653363227844,0.0222749710083007,0,0,0,0
17.4,1788518688678,0.0,0.0,-0.0023827864788472,0.000609210692346,0.8989335894584656,0.4380780458450317,-0.0002839157781435,-0.0001795372429376,-1.533264516262797e-06,-0.00044895595056,0.0007787666399963,-0.0006397665711119,-5.026720464229584e-05,0.0024492917582392,-0.188497707247734,0.9820705652236938,-0.0009903073834068,-0.000859646785589,0.0012203533945642,0.0141237378120422,-0.0292100310325622,0.0187053680419921,0,0,0,0
17.5,1788518688778,0.0,0.0,-0.0024209555704146,0.000593700853642,0.8989302515983582,0.4380845725536346,7.847949528360606e-05,-8.561965115810313e-05,-2.096800409960747e-06,-0.0001073506937245,0.0006985638174228,0.0008782903896644,-5.462858825922012e-05,0.0024735201150178,-0.1885116994380951,0.9820677638053894,0.0004252126039798,-0.0014064002372815,0.0014180109959853,-0.0088851451873779,-0.0363251566886901,0.0437211990356445,0,0,0,0
17.6,1788518688878,0.0,0.0,-0.0023864184040576,0.0005899692187085,0.8989410400390625,0.4380628168582916,3.329925410308064e-05,-5.023851860381951e-05,-2.272867997712784e-06,-0.0002116854157065,-0.0003641482326202,0.0004454909067135,-6.039906293153763e-05,0.0024541737511754,-0.1884993612766266,0.98207026720047,-0.0004576091009786,-0.0003267518421972,-1.885185198001841e-05,0.0016641020774841,0.012934923171997,-0.0011415481567382,0,0,0,0
17.7,1788518688978,0.0,0.0,-0.0023886982817202,0.0005964691517874,0.898962140083313,0.4380193948745727,0.0003768762398911,4.086987244359676e-06,-3.092566176564823e-06,0.0004772516549564,0.0004023347864858,0.0020024199038743,-5.797669291496277e-05,0.0024716323241591,-0.1884923130273819,0.9820716381072998,-0.0013942341068684,0.0007776884913357,-0.0020688712233404,0.0017469525337219,-0.0176084041595459,0.026580810546875,0,0,0,0
17.8,1788518689078,0.0,0.0,-0.0023914226330816,0.0006140047335065,0.8989436030387878,0.4380574524402618,-0.0001528009861491,-0.000170587450024,-2.815967702149295e-06,0.0006300830864347,0.0003529456153046,8.378989878110588e-05,-8.789170533418655e-05,0.0024423319846391,-0.1882088482379913,0.9821260571479796,-0.0030311013572364,-0.0021832222986691,0.0184179067348322,0.2437512278556823,0.142097532749176,0.0204238891601562,332,226,-9856,10036
17.9,1788518689178,0.0,1.436619758605957,-0.0022965441457927,0.0004099988145753,0.9039404392242432,0.4276519417762756,0.0312569377677665,-0.0011840326883968,2.7963303290956538e-06,-0.0026947194710373,-0.0020832382142543,0.3045417368412018,-0.0001995358616113,0.0022899191826581,-0.1756135374307632,0.9844565391540528,-0.0015270908121801,-0.0083972374064664,0.3171642409359692,0.4443721175193786,-0.5008452534675598,-0.1771736145019531,925,5,-18783,4414
18.0,1788518689278,0.0,1.154929518699646,-0.002444296143949,0.0004847015370614,0.9082537293434144,0.4184124767780304,0.0197340416678483,-0.0032544400390535,2.0301084141950675e-06,-0.0005370191647671,0.0012961250031366,0.1885130703449249,-0.0001612789928913,0.0025047939270734,-0.1665600091218948,0.9860281348228456,-1.966819809734382e-06,0.0097216056747519,0.1466237650848254,-0.4125375747680664,-0.0513867139816284,0.0436830520629882,926,69,-27694,4673
18.1,1788518689378,0.0,1.154929518699646,-0.0024076616391539,0.0004470059066079,0.9113017320632936,0.4117319881916046,0.0207600318732135,0.0009960101423443,-1.5249755026683084e-06,-0.0019600875675678,0.0024477501865476,0.171485036611557,-0.0001922510564327,0.0024459306150674,-0.1569116860628128,0.987609565258026,-0.0002603817820808,0.0002576627430759,0.1988346131240399,-0.0563399791717529,-0.0263887643814086,0.0669012069702148,928,53,-32767,5203
18.2,1788518689478,0.0,1.183098554611206,-0.0023862393572926,0.0003930956008844,0.915686845779419,0.4018852412700653,0.0224431480196511,-0.0021100891695165,-1.863285999235637e-06,-0.0009232734446413,-0.0015150858089327,0.1877231299877166,-0.0002441806718707,0.0023878859356045,-0.1475565433502197,0.9890507459640504,-0.0003167915113249,-0.0041555578144163,0.2005710088112529,0.0160965323448181,-0.0332087278366088,0.074371337890625,927,46,-32767,4719
18.3,1788518689578,0.0,0.0,-0.0023723191116005,0.00040222867392,0.9182496070861816,0.3959946930408478,0.0172223517730387,-0.0041209315319586,-1.0429136657763816e-07,0.0007303935708478,0.0001199273319798,0.1055952608585357,-0.0002607489004731,0.002380397170782,-0.1436995863914489,0.989618480205536,0.0002107984187526,-0.0005294711099642,-0.0712351612634409,-0.3715384006500244,-0.320006787776947,-0.0344982147216796,0,1,0,0
18.4,1788518689678,0.0,0.0,-0.0023775924928486,0.0003870907821692,0.9165655374526978,0.3998771607875824,-0.0045102496878233,0.0022770362418456,1.279474687242944e-06,7.53245985833928e-05,-0.0007973551983013,-0.0481116846203804,-0.0002389531582593,0.0024348739534616,-0.1471377462148666,0.9891129732131958,-0.0032897956329621,0.0169576902015817,-0.0543042602622615,-0.1440139412879943,0.1272394061088562,-0.0639572143554687,0,2,0,0
18.5,1788518689778,0.0,0.0,-0.0023775924928486,0.0003870907821692,0.9165655374526978,0.3998771607875824,0.0,0.0,0.0,0.0,0.0,0.0,-0.0002279477193951,0.0023790169507265,-0.1467660665512085,0.989168345928192,0.0006100815619791,-0.0009745941447025,-0.0058747682516291,0.0199341773986816,0.0206430554389953,-0.0080060958862304,0,0,0,0
18.6,1788518689878,0.0,0.0,-0.0023775924928486,0.0003870907821692,0.9165655374526978,0.3998771607875824,0.0,0.0,0.0,0.0,0.0,0.0,-0.000234498642385,0.0023840945214033,-0.1468091756105423,0.9891619086265564,-0.0001111104300589,0.00241265405325,-0.0010054460124646,-0.0626846551895141,-0.0529261231422424,0.0092859268188476,0,0,0,0
18.7,1788518689978,0.0,0.0,-0.0023775924928486,0.0003870907821692,0.9165655374526978,0.3998771607875824,0.0,0.0,0.0,0.0,0.0,0.0,-0.0002436572685837,0.0023467633873224,-0.1468049883842468,0.9891626238822936,-0.0006367386919523,-0.0003287218939446,0.0005147337358736,-0.0185721516609191,-0.0061967372894287,0.0186538696289062,0,0,0,0
18.8,1788518690078,0.0,0.0,-0.0023775924928486,0.0003870907821692,0.9165655374526978,0.3998771607875824,0.0,0.0,0.0,0.0,0.0,0.0,-0.0002604881301522,0.0023184800520539,-0.1468694657087326,0.9891531467437744,-0.0011330141039169,0.0002126666005054,-0.0028234768999774,-0.0012561678886413,-0.0634688138961792,0.0292644500732421,0,0,0,0
18.9,1788518690178,0.0,0.0,-0.0023401118814945,0.0003551537520252,0.9166425466537476,0.3997009396553039,0.0004988531552781,-0.0005979794574367,-8.597711983711223e-07,-0.0006119579775258,-0.0019620852544903,0.0079853162169456,-0.0002568215131759,0.0023425621911883,-0.1468524485826492,0.989155650138855,0.0008146703657007,-0.0005232292453397,-0.0002012634837562,0.0136529803276062,-0.0077330470085144,0.0151939392089843,0,0,0,0
19.0,1788518690278,0.0,0.0,-0.0023454406764358,0.0003413835656829,0.916637361049652,0.3997129499912262,0.0001764367166594,-0.0001638368748929,6.086827875960311e-07,-0.0005708973039872,-7.347503560595214e-05,8.252383850049227e-05,-0.0002788938581943,0.0023733964189887,-0.1468964219093322,0.98914897441864,-0.0002433362269626,0.0008315168381511,-0.0014747354188526,-0.0198758244514465,-0.0610357522964477,0.0004549026489257,0,0,0,0
19.1,1788518690378,0.0,0.0,-0.0023541799746453,0.0003465510671958,0.9166257381439208,0.3997395932674408,1.6174809705035274e-05,-1.5017815792046472e-05,5.586309518583102e-08,3.350818587932736e-05,-0.0003162612265441,0.0001591005566297,-0.0002817949280142,0.0023857848718762,-0.1468811482191085,0.9891512393951416,-9.620033092320469e-05,0.0003593411065599,-0.0001798210381315,-0.0166243910789489,-0.0095850229263305,-0.0310516357421875,0,0,0,0
19.2,1788518690478,0.0,0.0,-0.0023541799746453,0.0003465510671958,0.9166257381439208,0.3997395932674408,0.0,0.0,0.0,0.0,0.0,0.0,-0.0002672960981726,0.002373450435698,-0.146901398897171,0.9891482591629028,7.266667580101236e-05,-0.0012197414327905,0.0003369977206821,0.0004263520240783,0.0192033052444458,-0.0037117004394531,0,0,0,0
19.3,1788518690578,0.0,0.8450704216957092,-0.00233695958741,0.0002785557298921,0.9169073104858398,0.3990931808948517,0.0032267814344465,-0.0032173279262484,-7.784294146272349e-07,-0.0027732281014323,-0.0021094272378832,0.0342604927718639,-0.0003338390961289,0.0023062331601977,-0.1452992260456085,0.9893850684165956,-0.0021675849577899,-0.0044903000573343,0.1033676375135849,0.4617655873298645,0.288134753704071,0.0183916091918945,408,87,-10585,5045
19.4,1788518690678,0.0,0.9295774698257446,-0.0023499147500842,0.0002752525615505,0.9187012314796448,0.3949460983276367,0.0214837716723823,-0.0021272085987949,2.1456311138416585e-06,-0.0007656699744984,0.0003132256970275,0.1881221681833267,-0.0003891671076416,0.0022040959447622,-0.1362012922763824,0.9906787276268004,0.0004023801227017,-0.0053725179766159,0.1627754234014922,0.1887657642364502,0.0265225768089294,-0.0341920852661132,907,36,-17277,3558
19.5,1788518690778,0.0,0.8732394576072693,-0.0021651508286595,0.0001315549015998,0.923419177532196,0.3837867975234985,0.011983408424509,-0.0005321915212698,4.013076458690512e-06,-0.0004919253406114,-0.0023598328698426,0.1468882113695144,-0.0004646508023142,0.002074115909636,-0.1281278431415558,0.9917554259300232,-0.0026189541893823,0.0003465430654145,0.1334636474943789,-0.1502972245216369,-0.22827810049057,0.0979633331298828,927,89,-23588,4188
19.6,1788518690878,0.0,1.042253494262695,-0.0020712008699774,-1.3387762010097506e-07,0.9259796738624572,0.3775677680969238,0.0151017336187732,-0.001011022299091,7.00349273450097e-07,-0.0023179983254522,-0.0020293288398534,0.1301034390926361,-0.0005419105291366,0.0019781533628702,-0.1220645233988761,0.992520034313202,-0.0014226599526307,-0.0055014311068961,0.136031935946133,0.0293293595314025,0.0710813999176025,0.0568971633911132,927,108,-30287,3791
19.7,1788518690978,0.0,0.591549277305603,-0.001916779554449,-0.0001426910748705,0.9281896352767944,0.3721025288105011,0.0151613725975617,-0.001517005245023,5.749296191882792e-07,-0.0005578458658419,-0.0047568497247993,0.1291845440864563,-0.0006607798859477,0.0018821218982338,-0.1143441423773765,0.993439257144928,-0.0016219179094163,0.0044312627340867,0.1438164400569229,0.0274207592010498,-0.0760775804519653,0.0311203002929687,927,1,-30442,895
19.8,1788518691078,-0.98591548204422,0.0,-0.0020670634694397,-0.0001315010013058,0.930082619190216,0.3673445582389831,0.014153239342607,-0.0011133951514951,3.4876310444647773e-07,-0.0003985502407886,0.0013794272672384,0.0803099125623703,-0.0006813993677496,0.0020674765110015,-0.1134390980005264,0.9935425519943236,-0.00391953427351,0.0088306803074629,-0.10612921079752,-0.9623460173606871,0.0772755742073059,0.0543727874755859,0,0,0,0
19.9,1788518691178,0.0,0.0,-0.0019481596536934,-0.0001225453452207,0.929015576839447,0.3700354099273681,-0.0059214036300003,0.0012108595081654,1.1847601983244013e-07,0.0024628150276839,-0.0062480107881128,-0.0463509000837802,-0.0006208186969161,0.0017835171893239,-0.1150593906641006,0.9933567643165588,0.0010274985063851,-0.0105752228470151,-0.0301430686157909,0.3269810080528259,-0.1456327438354492,0.109379768371582,0,0,0,0
20.0,1788518691278,0.0,0.0,-0.0019531592261046,-0.0001036411849781,0.9288461208343506,0.370460569858551,-0.0003779338641322,0.0008527202617076,2.5098000772419256e-06,-0.0006311978795565,0.0021533195395022,-0.0043623759411275,-0.0006227828562259,0.0018348786979913,-0.1154248565435409,0.9933143258094788,-0.0011480089635392,-0.0022624187972634,-0.0050450535297124,-0.0056352615356445,-0.1252589225769043,0.0020370483398437,0,0,0,0
20.1,1788518691378,0.0,0.0,-0.0019531592261046,-0.0001036411849781,0.9288461208343506,0.370460569858551,0.0,0.0,0.0,0.0,0.0,0.0,-0.0006076954305171,0.0018209470435976,-0.115414947271347,0.9933155179023744,-0.0002827580197706,-0.0003286411951291,0.0006919092132501,0.0173903107643127,-0.0520287156105041,0.0222015380859375,0,0,0,0
20.2,1788518691478,0.0,0.0,-0.0019531592261046,-0.0001036411849781,0.9288461208343506,0.370460569858551,0.0,0.0,0.0,0.0,0.0,0.0,-0.0005653277039527,0.0018334398046135,-0.115442119538784,0.9933123588562012,0.0008652780562259,0.0008142568153475,-0.0007961546299955,0.0034939646720886,-0.0095903277397155,-0.0082130432128906,0,0,0,0
20.3,1788518691578,0.0,0.0,-0.0019531592261046,-0.0001036411849781,0.9288461208343506,0.370460569858551,0.0,0.0,0.0,0.0,0.0,0.0,-0.000562023371458,0.0018318183720111,-0.1154960989952087,0.993306040763855,0.000253975791242,0.0012665399771884,-0.0008993477126096,-0.0074959993362426,-0.0313898921012878,0.0347566604614257,0,0,0,0
20.4,1788518691678,0.0,0.0,-0.0019531592261046,-0.0001036411849781,0.9288461208343506,0.370460569858551,0.0,0.0,0.0,0.0,0.0,0.0,-0.0005329074338078,0.0018550073727965,-0.1155012771487236,0.9933054447174072,0.0004302823655793,0.0002065898301846,-0.0003715861214383,0.0308409929275512,-0.0030696988105773,0.011693000793457,0,0,0,0
20.5,1788518691778,0.0,0.0,-0.0019531592261046,-0.0001036411849781,0.9288461208343506,0.370460569858551,0.0,0.0,0.0,0.0,0.0,0.0,-0.0005454206839203,0.0018474021926522,-0.1154969856142997,0.9933059811592102,0.0004193771388064,0.0005508031488245,0.0014112893697184,0.0001235604286193,-0.0477522611618042,0.0131654739379882,0,0,0,0
20.6,1788518691878,0.0,0.0,-0.0019531592261046,-0.0001036411849781,0.9288461208343506,0.370460569858551,0.0,0.0,0.0,0.0,0.0,0.0,-0.0005194563418626,0.0018565189093351,-0.1155455261468887,0.9933003187179564,0.0002604676953004,0.001454116504381,-0.00215116530878,0.005695641040802,-0.041854441165924,0.0046062469482421,0,0,0,0
20.7,1788518691978,0.0,0.0,-0.0019088460830971,-4.373380215838552e-05,0.928811252117157,0.3705480694770813,-0.0001074996575195,-0.0001877043986939,-6.578085640654281e-07,-0.0005068804020993,-0.0007916077738627,0.0003884744655806,-0.0005438653752207,0.0018257023766636,-0.1155197992920875,0.9933032989501952,-0.0006102715460575,-0.0018283778355281,0.0020028268556909,0.013683795928955,0.0056615471839904,0.0269174575805664,0,43,580,2694
20.8,1788518692078,0.9014084339141846,3.126760482788086,-0.0018625564407557,-9.540491737425329e-05,0.929553210735321,0.368683248758316,0.0091354350837659,-0.0038583476439544,7.634961271742763e-08,-0.0013759232824668,-0.0025478259194642,0.0803483128547668,-0.0006599174812436,0.0018090708181262,-0.1072524785995483,0.9942299723625184,-0.0046029831690365,0.0020026420065401,0.3591672971235903,0.1595795154571533,0.0425661206245422,-0.0935297012329101,143,143,2979,10512
20.9,1788518692178,0.591549277305603,5.126760482788086,-0.0020795534364879,-0.000224269926548,0.9377153515815736,0.3473982810974121,0.0735163975242133,-0.0041236984607673,-1.0363197243049051e-05,-0.0037497917655855,0.0045886067673563,0.5445942282676697,-0.0008870083838701,0.0020541679114103,-0.0822596698999404,0.9966084957122804,-0.0112348541733389,0.0079566877152763,0.6182287673668818,0.1686066389083862,-0.188012957572937,0.5880565643310547,286,191,8414,18007
21.0,1788518692278,1.6619718074798584,7.718309879302978,-0.0020960206165909,-0.0004074806929565,0.9430527687072754,0.3326362669467926,0.1025930992783368,0.0011785284716718,-3.3773167725125783e-06,-0.0086213611066341,-0.0026076110079884,0.6536727547645569,-0.0010940534994006,0.0020741485059261,-0.0482252202928066,0.99883371591568,-0.0113238376631365,0.0100758516358097,0.8155821663282083,0.1565772294998169,0.2832589149475097,1.0767250061035156,180,167,10051,24182
21.1,1788518692378,1.8028168678283687,8.619718551635742,-0.0026930340100079,-0.0001926292316056,0.9637733697891236,0.266708642244339,0.1859766116463528,-0.0009155214218,8.968691097895699e-05,0.0019671011250466,-0.0362918339669704,0.9974587559700012,-0.0007997592911124,0.0032212687656283,0.0117190862074494,0.9999258518218994,0.002673012542383,0.0512790238695333,1.051555934848405,0.1287437677383422,0.1114078164100647,-1.503310203552246,219,45,9919,23276
21.2,1788518692478,1.5492957830429075,8.22535228729248,-0.0032837805338203,-1.900247298181057e-06,0.9762042760849,0.2168280929327011,0.1719369018157967,-0.0061894947071638,-7.408484046331916e-05,-0.0022535955067723,0.0041300859302282,1.00352942943573,-0.0008265143260359,0.0031071184203028,0.0622509866952896,0.998055338859558,0.000267481716723,-0.010555950765389,1.0933041609525025,0.2538076639175415,0.3181725144386291,-0.878636360168457,243,58,9998,23137
21.3,1788518692578,2.197183132171631,8.14084529876709,-0.0038772921543568,0.000448293169029,0.984809160232544,0.1735967099666595,0.1688537139811249,-0.0103599970630474,-4.935155370581565e-05,0.0058848517946898,0.0375998951494693,0.9079639911651612,-0.0007018344476819,0.0040310425683856,0.1036304384469986,0.9946074485778807,-0.014726429304162,0.0014479634069807,0.8981657179607718,0.1047056317329406,0.3687190413475036,0.4177980422973633,234,81,11280,21603
21.4,1788518692678,2.0281689167022705,8.028168678283691,-0.0041541429236531,0.0004272225196473,0.9916051626205444,0.1292354613542556,0.1810094826656569,-0.0047974805460934,-5.620161001190417e-06,-0.007143541239202,0.0050663026049733,0.916478157043457,-0.0006608208641409,0.0040103150531649,0.1398394852876663,0.9901658892631532,-0.007059029358676,-0.0128422248223009,0.8566248691837273,-0.1914123296737671,-0.0707308650016784,0.6876821517944336,259,59,11426,21663
21.5,1788518692778,2.2253520488739014,7.97183084487915,-0.0066182361915707,0.0022339941933751,0.9967467784881592,0.080294094979763,0.1671644339279512,-0.0125315391899054,-0.0001783660534885,0.0391292758285999,0.0705842897295951,0.9014254212379456,0.0005252622067928,0.0071564083918929,0.1837673038244247,0.9829435348510742,0.0635408399791103,0.1060971005583393,0.9233711690657134,0.1388903260231018,0.032547652721405,0.4710321426391601,398,47,14606,20197
21.6,1788518692878,2.5915493965148926,7.605633735656738,-0.0076594739221036,0.0096021322533488,0.9992265105247498,0.0373564809560775,0.1782917937213048,-0.0128147699910738,8.375556648634188e-05,0.1681047677993774,-0.0383482091128826,0.8223862648010254,0.0067689735442399,0.011223692446947,0.2357784062623977,0.9717184901237488,-0.0007175113076286,0.0724087669634902,0.7536981949342684,-0.4665120244026184,-0.0366777777671813,1.2755165100097656,191,58,12678,20216
21.7,1788518692978,2.873239517211914,7.661972045898437,-0.0092879002913832,0.0087620252743363,0.9998819231987,0.0085432445630431,0.174995785876312,-0.0018743108828765,-3.620858869919219e-05,-0.0475190468132495,-0.0034426599740982,0.587766706943512,0.0051282225176692,0.0095558231696486,0.2618243396282196,0.9650546312332152,-0.0984407454785852,-0.0938786797459537,0.603797880300081,0.2432727217674255,0.2110766172409057,-0.6935663223266602,67,100,9107,20281
21.8,1788518693078,2.8450703620910645,7.549295902252197,0.0046642734669148,-0.0040912278927862,-0.9995868802070618,0.02806475199759,0.1737600305451401,-0.0005124732712429,0.0003657990333991,-0.081028327345848,-0.0680031925439834,0.615196704864502,0.0026586949825286,0.0055015999823808,0.2886161506175995,0.9574254155158995,-0.0718545121245481,-0.0418342991736578,0.61633440037076,-0.2889217734336853,-0.0277971029281616,1.532331466674805,109,75,9689,19293
21.9,1788518693178,2.816901445388794,7.408450603485107,0.0034740881528705,-0.0018820529803633,-0.9984299540519714,0.0558753311634063,0.1694194602429756,0.0025561736481203,2.8555456962781373e-05,-0.0527207963168621,-0.0126688312739133,0.638780951499939,0.0011924859136343,0.0033050924539566,0.3257852494716644,0.9454372525215148,0.0084101542571528,-0.0379620454464417,0.7216427715649703,-0.2709662318229675,0.3102285861968994,0.6119203567504883,120,76,9724,20121
22.0,1788518693278,2.8450703620910645,7.211267471313477,0.0040000812150537,-0.0024484116584062,-0.99577659368515,0.0916889756917953,0.1665093237019339,-0.0020771263650737,-0.0001187555527513,0.0058402018621563,0.0221527628600597,0.7104400396347046,0.0014395071193575,0.0041326656937599,0.3591926097869873,0.9332532286643982,-0.0016900412614219,-0.0264027762229396,0.7277531121658682,0.0563381910324096,-0.1696622371673584,0.3456459045410156,187,108,10985,20249
22.1,1788518693378,4.11267614364624,5.88732385635376,0.0038822141941636,-0.0030166290234774,-0.9925748705863952,0.121535912156105,0.1690541206807039,-0.005829538067985,-4.468903627210408e-06,0.0107327885925769,0.0165135040879249,0.6018918752670288,0.0020942697301506,0.0046354932710528,0.3826501369476318,0.923879325389862,0.0090802735539548,0.0009121812622281,0.4217478086798999,0.0699222683906555,-0.5265766382217407,-0.8949222564697266,257,26,17131,15319
22.2,1788518693478,4.2253522872924805,5.85915470123291,0.0049031605012714,-0.0033249864354729,-0.9908982515335084,0.1344826221466064,0.1573438117376878,0.0029652668890217,-0.0001815516345401,-0.0036093888338655,0.0361035615205764,0.1638425141572952,0.0020294729620218,0.0054050805047154,0.3894697427749634,0.9210212230682372,0.0089895920193638,-0.0554829207182493,0.206654283662953,-0.1391981840133667,-0.3110318779945373,-0.4260396957397461,224,87,16199,16287
22.3,1788518693578,3.183098554611206,5.492957592010498,0.0050765769556164,-0.0029048223514109,-0.9880279898643494,0.1541637480258941,0.1378547702727137,0.0037818081072916,4.223984010949218e-06,-0.0208767484873533,-0.0001464486849727,0.3964665532112121,0.0016095908358693,0.0053645716980099,0.4085196852684021,0.9127324223518372,-0.0078559083599978,-0.035321034355172,0.3456665667208868,1.357189416885376,-0.6252487897872925,0.1592693328857422,910,91,31389,16115
22.4,1788518693678,5.014084339141846,5.605633735656738,0.0053469776175916,-0.0027823057025671,-0.987215220928192,0.1592792272567749,0.1721336534996471,-0.0064020120112909,-7.1651578483154e-06,-0.0041262679733335,0.0122233303263783,0.2074967622756958,0.0006001032888889,0.0041684508323669,0.4110013246536255,0.9116249680519104,-0.0399622586125457,-0.020638711694553,-0.0032448009209661,-0.850895881652832,-0.8758587837219238,0.9349384307861328,239,71,18499,15568
22.5,1788518693778,4.704225540161133,5.577464580535889,0.0003093779960181,0.0002715890586841,-0.9867106080055236,0.1624870151281356,0.1775094197947242,0.002881486722458,0.0001968190807928,-0.1060172170400619,-0.1085300147533416,0.0877717956900596,-0.0010302793234586,-0.0024390751495957,0.4149614870548248,0.9098351001739502,-0.1086697509679677,-0.1368324328208452,0.04938323950781,-0.4718010425567627,-0.7820449471473694,-0.0473833084106445,231,72,17680,15515
22.6,1788518693878,4.450704097747803,5.605633735656738,-0.0017836027545854,0.0014973852084949,-0.985625684261322,0.168928325176239,0.1681687736353574,0.0004604020975043,0.0001010910913992,0.0068144244141876,-0.0101922461763024,0.135285809636116,-0.0005581462755799,-0.0022997418418526,0.4228346049785614,0.9062038064002992,0.0199088583675397,-0.0256379370352242,0.185575419996535,0.119537353515625,0.3685705065727234,-0.801513671875,336,68,18500,15866
22.7,1788518693978,4.647887229919434,5.633802890777588,-0.001804974512197,0.0010741304140537,-0.9843497276306152,0.1762135326862335,0.1694978277226576,8.32757645846561e-05,-4.104984818081325e-05,0.0049165859818458,0.0075170490890741,0.156377911567688,-0.0003166971728205,-0.001967865973711,0.4293073117733001,0.903156280517578,0.0149412878895594,-0.0062036233921184,0.1643744888051519,-0.016396939754486,0.3406919240951538,1.2255754470825195,321,79,18397,15659
22.8,1788518694078,3.9718310832977295,5.746479034423828,-0.001162510132417,0.0006145786028355,-0.982746958732605,0.1849502325057983,0.1679916174956478,0.0018948281020672,-2.5420315176331503e-05,0.0081970589235425,0.0019074602751061,0.1907202303409576,0.0002076178789138,-0.0013510845601558,0.4373657703399658,0.899282693862915,0.0362144013157014,-0.0182484812963247,0.2541172686792484,0.1071502566337585,-0.217846930027008,-0.4699783325195312,497,77,21991,15029
22.9,1788518694178,5.014084339141846,5.126760482788086,-0.0003809863992501,0.0014840591466054,-0.9812657833099364,0.1926524639129638,0.1535145268669745,-0.0123703109676699,-4.34407735193866e-05,-0.047365915030241,0.0324200168251991,0.105464331805706,-0.0043490566313266,0.0005915993824601,0.4434460401535034,0.8962903022766113,-0.0665815708033239,0.0832081295992784,0.0952529574810945,0.1889500021934509,-0.5812572836875916,-1.0712957382202148,368,106,21058,16299
23.0,1788518694278,4.450704097747803,5.6619720458984375,0.0041135312058031,0.0037541706115007,-0.9799308776855468,0.1992594450712204,0.1756362000004262,-0.0052110276898732,-0.0007071974108596,0.0190941467881202,0.069975197315216,0.1480813026428222,-0.0043955221772193,0.0025697257369756,0.4497184455394745,0.8931558132171631,0.011396547501462,-0.0404770042297267,0.1617612479777012,0.3118211627006531,0.1714234352111816,-2.145230770111084,397,63,20310,15708
23.1,1788518694378,4.732394218444824,5.633802890777588,0.0032952034380286,0.003282023128122,-0.9787397384643556,0.2050534933805465,0.1699012473752826,0.0011124283452415,4.585784511314512e-05,0.0040085683576762,-0.0201197564601898,0.1095772162079811,-0.0038975598290562,0.0021327147260308,0.4540603458881378,0.8909598588943481,0.0047834799248072,-0.0188740613751215,0.0796640329423964,0.05990731716156,-0.359199047088623,-0.6344747543334961,278,68,18635,15364
23.2,1788518694478,4.732394218444824,5.577464580535889,0.0038353931158781,-0.0013974262401461,-0.9770063757896424,0.2131710350513458,0.1734781408752094,-0.007347331718503,-0.000154211596941,0.1398001015186309,0.0179336536675691,0.1892493218183517,0.0005277739837765,0.0041245613247156,0.460805594921112,0.8874913454055786,0.1403929791241807,-0.010674128886723,0.1916859753103747,0.2423105835914611,0.8965440392494202,-0.3460454940795898,325,63,19043,15569
23.3,1788518694578,5.014084339141846,5.014084339141846,0.0041349055245518,0.0005670530372299,-0.9764487147331238,0.2157091796398162,0.1543842958322515,-0.0074090939019744,1.0486897357090562e-05,-0.0289514362812042,0.0105068832635879,0.0526635013520717,-0.0020306287333369,0.0039960788562893,0.462833970785141,0.8864336609840393,-0.0132622061415778,0.0192718434152929,-0.012763556066453,-0.0392005443572998,-0.1506900191307068,-0.6159248352050781,214,105,17054,16574
23.4,1788518694678,4.507042407989502,5.690140724182129,0.0039837867952883,0.0014901184476912,-0.9753167033195496,0.2207696586847305,0.1610861823609579,0.005651599540652,2.268855043526533e-05,-0.0079359738156199,0.0110841449350118,0.1614933758974075,-0.0027578882873058,0.003769208677113,0.4688323438167572,0.8832748532295227,-0.0112656360655176,0.0487641671430534,0.1807937400688488,-0.0136587023735046,0.1107922792434692,-0.0777139663696289,288,94,17490,15917
23.5,1788518694778,4.647887229919434,5.408450603485107,0.0037991632707417,0.001904024858959,-0.9736778736114502,0.2278890013694763,0.1741232617043474,-0.000501580969596,5.830899165562256e-05,-0.0110122766345739,-0.0130624072626233,0.1434926986694336,-0.0028368206694722,0.0029882518574595,0.474524587392807,0.880232572555542,-0.0102127550864258,-0.0173810947975472,0.1286802380973401,0.1298673748970031,0.0538724660873413,-1.2915763854980469,221,105,16645,16751
23.6,1788518694878,4.647887229919434,5.521126747131348,0.0039700446650385,0.001917989575304,-0.972026228904724,0.2348309457302093,0.1830620087479,-7.68320454116141e-05,3.9446121353863e-05,0.0089190267026424,0.0001367806253256,0.1516884714365005,-0.003030190244317,0.0036108642816543,0.4823922216892242,0.8759426474571228,-0.0008297553471034,0.0227866943707346,0.1533024920924472,-1.0852028131484983,0.1826012134552002,-0.6442995071411133,178,72,15862,16152
23.7,1788518694978,4.647887229919434,5.633802890777588,0.0042785936966538,0.0018450880888849,-0.9700358510017396,0.242917001247406,0.1609509810653223,0.0034368393853986,3.6056005039629774e-06,0.0024522000458091,-0.0077180741354823,0.1839180141687393,-0.0029187640175223,0.0031627779826521,0.489588588476181,0.8719428777694702,-0.0187050758089665,-0.035714383572064,0.149921919720773,0.1744359731674194,0.0267348885536193,1.3685827255249023,254,97,17519,16013
23.8,1788518695078,4.647887229919434,5.295774459838867,0.003353846957907,0.0021720277145504,-0.967927634716034,0.2511974275112152,0.1644906374974173,-0.0016751390185834,5.049864949549419e-05,-0.00407943315804,-0.0245329122990369,0.1880765855312347,-0.0031178155913949,0.0022838087752461,0.4965575933456421,0.8679952025413513,-0.0241262901462515,-0.0252712947600781,0.1695288508297667,-0.1200491189956665,0.3022410869598388,0.4649362564086914,356,25,19424,14579
23.9,1788518695178,4.619718074798584,5.380281925201416,0.0014054372441023,0.0037313301581889,-0.9665678143501282,0.2563802897930145,0.1607101800801915,-0.0024976510348658,0.0001770302950206,-0.0379064083099365,-0.0234820619225502,0.0518996194005012,-0.0041002389043569,0.0003156224265694,0.4998442232608795,0.8661056756973267,-0.0184477020316714,0.0200198022984033,0.0382405861858849,-0.4680191278457641,0.0350884795188903,-0.1286401748657226,249,99,16872,16572
24.0,1788518695278,4.422535419464111,5.6619720458984375,0.0026466881390661,0.0025508680846542,-0.9641634821891784,0.2652835845947265,0.1645396070675976,-0.0055789403353822,-0.0002614804948117,0.0548053979873657,0.0116906845942139,0.2210004925727844,-0.0027631968259811,0.0008646743372082,0.5091121792793274,0.8606953024864197,-0.0296944843981874,-0.1003321300392045,0.1811979577839028,0.4330866932868957,-0.2617846727371216,0.0446596145629882,313,60,18769,15535
24.1,1788518695378,4.957746505737305,5.239436626434326,0.0013082191580906,0.0020964869763702,-0.9622315168380736,0.2722212076187134,0.1664179723267216,-0.0044839161660104,6.62119680343435e-05,0.0079271383583545,-0.0241781212389469,0.1642612516880035,-0.0017418703064322,0.0003009121865034,0.5161886811256409,0.8564730882644653,0.0209889802149095,-0.0521036370215626,0.1091958931772389,-0.1736677885055542,-0.3562891483306885,-0.7899646759033203,315,51,20099,13785
24.2,1788518695478,6.394366264343262,3.492957830429077,0.0008733494905754,0.001791181624867,-0.9630180597305298,0.2694293260574341,0.1617301267833857,-0.0117022514442228,5.1642210954528325e-05,-0.0035986630246043,0.0015140786999836,-0.1558750569820404,-0.0019801994785666,-0.0002891682088375,0.5068833231925964,0.8620123267173767,-0.0336414477249196,-0.0432217289039417,-0.4175387103873297,-0.0303895473480224,-0.1482326984405517,-0.4453954696655273,447,47,25050,10684
24.3,1788518695578,6.422535419464111,3.6619718074798575,-0.0010215762304142,0.0028504231013357,-0.968418836593628,0.249310627579689,0.152115228223628,-0.0112961637481421,0.00010535954888,-0.0359938517212867,-0.0334530286490917,-0.4509013295173645,-0.0024854438379406,-0.0017294799908995,0.4931998550891876,0.869910717010498,-0.0448813541693038,-0.0404037083896506,-0.4191494757196058,0.360035240650177,0.0468010902404785,2.163398742675781,363,105,24307,11778
24.4,1788518695678,6.507042407989502,3.859154939651489,-0.0001980821543838,0.0024039563722908,-0.9728181958198548,0.2315575927495956,0.1649399544168578,-0.0131118905317445,-2.1054165671589933e-05,0.0102432174608111,0.0006077490979805,-0.3794437050819397,-0.0021227495744824,-0.0002354234457015,0.4703263342380523,0.8824899792671204,0.018955291194377,0.0231441878990681,-0.4452436348809339,0.1887328624725341,-0.6941590309143066,-0.2850780487060547,314,57,23268,11473
24.5,1788518695778,6.0,4.2816901206970215,0.0026217899285256,0.0012035603867843,-0.9769207835197448,0.2135826647281646,0.1540120610379164,-0.0138511757254618,-0.0002055717708742,0.0331809669733047,0.0550607107579708,-0.3372823596000671,-0.0019886344671249,0.0021245582029223,0.4570403397083282,0.889441192150116,-0.019710148171027,-0.0036024972668983,-0.3211140190090495,-0.3101947903633117,-0.4222524762153625,0.001260757446289,229,78,20436,12432
24.6,1788518695878,5.7183098793029785,4.2253522872924805,0.0017308623064309,0.0021951287053525,-0.979736328125,0.2002722024917602,0.163273700177528,-0.0115423762368462,1.9438513498047037e-05,-0.029680248349905,-0.0228579230606555,-0.2812261283397674,-0.0025477036833763,0.0013378290459513,0.4462523460388183,0.8949025273323059,0.01076572914989,0.0023868608938811,-0.2588447438778192,0.1686615943908691,-0.383757472038269,0.9554262161254884,288,91,21261,12573
24.7,1788518695978,5.690140724182129,4.535211086273193,0.0027364043053239,0.001611934043467,-0.9822434186935424,0.1875839978456497,0.1645778797098517,-0.009780502823495,-2.516734175394613e-05,0.0081814117729663,-0.0001211840644828,-0.2414068430662155,-0.002592391334474,0.00252943392843,0.4339603781700134,0.9009247422218324,-0.0083362765202846,0.0289582783535141,-0.2080535939713953,0.1988340616226196,0.1588295102119445,-0.7358732223510742,208,101,18988,14003
24.8,1788518696078,5.323943614959717,4.422535419464111,0.0031804521568119,0.0018743791151791,-0.9838589429855348,0.1789075881242752,0.1664723780229266,-0.0076818666292128,3.718486532112531e-07,-0.0002148156927432,-0.001407645875588,-0.1554605811834335,-0.0022707842290401,0.0022066263481974,0.4282169044017792,0.9036704301834106,0.0136986611798328,-0.0433312376400558,-0.1223383169677477,0.1521667838096618,-0.1027285456657409,-0.6509714126586914,266,83,19807,13976
24.9,1788518696178,5.436619758605957,4.704225540161133,0.0025479493197053,0.0020164777524769,-0.9847603440284728,0.1738861948251724,0.1573766794340971,-0.0061680250654458,2.1279289497122e-05,-0.0184052009135484,-0.0147471670061349,-0.1386559158563614,-0.002754190005362,0.0016330992802977,0.4233409762382507,0.9059648513793944,-0.0256877297126109,-0.0168214122955869,-0.1301162923967292,-0.2870116829872131,-0.1948402523994445,0.5860185623168945,293,78,20254,12955
25.0,1788518696278,5.690140724182129,4.591549396514893,0.001260942663066,0.0042311633005738,-0.9861953854560852,0.165526658296585,0.1557475009120719,-0.0096133967333592,2.105764281428844e-05,-0.0559917092323303,-0.0230147708207368,-0.1553025245666504,-0.0044807838276028,-9.612366557121276e-05,0.4152231812477112,0.9097086191177368,-0.0188233496845252,-0.0277953875747858,-0.1559709386049255,-0.1107689142227172,-0.4467083215713501,-0.5008430480957031,227,59,19595,13069
25.1,1788518696378,5.380281925201416,4.704225540161133,0.0012827473692595,0.0045084464363753,-0.9873042106628418,0.15877166390419,0.1671347333936772,-0.0061328873844647,-0.0001077664036146,-0.0052496111020445,0.0028101780917495,-0.1497021317481994,-0.0046174768358469,-0.000158186070621,0.4105546176433563,0.911824345588684,-0.0121379150991112,-0.0455801675267295,-0.1390925218045099,-0.2268896698951721,-0.1933057308197021,-2.7921271324157715,271,60,20715,12691
25.2,1788518696478,5.746479034423828,4.507042407989502,0.0006531963008455,0.00405067903921,-0.9884823560714722,0.1512808799743652,0.1599542390720857,-0.0078746636059166,-7.37171681606368e-05,0.0017463269177824,0.0200221389532089,-0.1643888056278228,-0.0040990775451064,-0.0005056075751781,0.4042932093143463,0.9146201014518738,0.0002079487560235,0.009920821041717,-0.1544984234985509,-0.1478991508483886,0.034722626209259,1.291752815246582,315,65,19905,13293
25.3,1788518696578,5.464788913726807,4.591549396514893,0.0009274482144974,0.0036311785224825,-0.989287257194519,0.1459339261054992,0.1502866636130354,-0.0094367521696434,-3.444090212315786e-05,0.0174901653081178,0.0186212584376335,-0.0978370308876037,-0.0038141198456287,-0.000500613823533,0.4000191390514374,0.9164987802505492,0.0106554425434757,-0.0195494160436615,-0.1140384957736041,0.1406344175338745,-0.0694947838783264,-1.187880516052246,426,66,22503,13060
25.4,1788518696678,5.352112770080566,4.985915660858154,0.0010225891601294,0.0025686267763376,-0.9901732206344604,0.13981893658638,0.163041977693582,-0.0101257292425336,-1.0773184315212844e-05,0.0279270466417074,0.0043556354939937,-0.1267850399017334,-0.0029070656746625,0.0001362198963761,0.3940569162368774,0.919081449508667,0.0294839136587627,0.0037431909082646,-0.1400889303741322,-0.2535539269447326,-0.2207511067390442,1.1482601165771484,360,60,21114,13831
25.5,1788518696778,5.464788913726807,4.929577350616455,0.0026699556037783,0.0027349998708814,-0.9907053709030152,0.13597172498703,0.1760218143067972,-0.0052096303627143,-2.772146633134789e-05,0.0122230341657996,0.0158215388655662,-0.0262411236763,-0.0034073945134878,0.002245033159852,0.3884933292865753,0.9214425683021544,-0.0004248795397445,0.0159547477462532,-0.0502920686650717,-0.5977989435195923,0.1426119208335876,0.663330078125,259,91,19007,15313
25.6,1788518696878,5.605633735656738,5.042253494262695,0.0050001293420791,5.5831216741353273e-05,-0.9908261895179749,0.135049968957901,0.1662480164920319,-0.0098219973079974,-0.000175362829733,0.0965259596705436,0.0552424564957618,0.0207649357616901,-0.0010441355407238,0.0056926133111119,0.3882339000701904,0.921542763710022,0.061395128741206,0.0608569945215569,-0.0476701184709159,-0.0622487068176269,-0.0600212812423706,0.8592300415039062,252,34,19174,13650
25.7,1788518696978,5.211267471313477,5.126760482788086,0.005362058058381,-0.0005646632052958,-0.9911497235298156,0.1326392740011215,0.1648894511756483,-0.000301528166665,1.4085370906167152e-05,0.0018886596662923,-0.0308346655219793,-0.0581828579306602,-0.0010971818119287,0.0042407279834151,0.3857813477516174,0.9225798845291138,-0.043339914883643,-0.0340407126436497,-0.0407180771345127,-0.00239098072052,0.6250436305999756,0.1706380844116211,214,45,17681,14105
25.8,1788518697078,5.211267471313477,5.098591327667236,0.0038534374907612,-0.0016233719652518,-0.9912424087524414,0.1319883465766906,0.1597549814464084,-0.0005878342443153,0.0001852982198447,0.0407724380493164,-0.0217940062284469,0.0013222066918388,0.0010581677779555,0.0042919469997286,0.3858550488948822,0.9225488901138306,0.0698225421099218,0.0039976799449683,-0.014348321228763,-0.2914844155311584,-0.4082323908805847,0.3287286758422851,241,45,18106,14214
25.9,1788518697178,5.126760482788086,5.070422649383545,0.004676719661802,-0.0020955200307071,-0.991324782371521,0.1313347220420837,0.1615671306110138,-0.012325533767884,-4.454482394945961e-05,-0.0054919118992984,0.0251955222338438,-0.0287692211568355,0.0004790220409631,0.00522331148386,0.3846777379512787,0.9230360984802246,-0.0214713468094834,0.0256694310661721,-0.0589186994408753,-0.1060963869094848,-1.3887882232666016e-05,-0.2308864593505859,174,116,16751,15728
26.0,1788518697278,4.929577350616455,4.873239517211914,0.0054499329999089,-0.0016646615695208,-0.99143385887146,0.1304850131273269,0.16378964508634,0.0022034750844457,-1.5266566334018856e-06,-0.0059668538160622,0.0099385734647512,-0.0273969732224941,0.0002309782430529,0.0055451476946473,0.384750485420227,0.923003911972046,0.0003066564780466,-0.0128546691917118,0.0260243515703234,0.3753513097763061,0.1921023726463318,0.2749624252319336,255,82,18198,14474
26.1,1788518697378,4.676056385040283,5.042253494262695,0.0050483169034123,-0.0010326942428946,-0.9914250373840332,0.1305750161409378,0.1682827464303912,-0.0056493451638898,6.747104922715326e-05,-0.0339709930121898,-0.0157754495739936,0.0043801022693514,-0.0008157966658473,0.0040526669472455,0.3846988677978515,0.9230329394340516,-0.0382987988388646,-0.0508469219559877,0.0140008904655145,-0.4658747315406799,-0.6822965741157532,0.978567123413086,294,94,18667,15899
26.2,1788518697478,5.183098793029785,4.8450703620910645,0.0025453807320445,0.0007874342263676,-0.9912046790122986,0.1323108971118927,0.1707635983956372,-0.0050399321106602,0.0001103713248274,-0.0495567061007022,-0.050773911178112,0.0551451034843921,-0.0020228521898388,0.0014792708680033,0.3862885236740112,0.9223745465278624,-0.0034512216223622,0.0498157338798925,-0.0068112581760995,0.1554711461067199,-0.212413489818573,0.2538118362426758,259,41,19166,14149
26.3,1788518697578,5.126760482788086,4.816901206970215,0.0018647734541445,0.0015461618313565,-0.9911899566650392,0.1324255317449569,0.1692314194097496,-0.005147497818759,0.0002280982999395,-0.0337420403957366,-0.0230025704950094,0.0045307194814085,-0.0022538052871823,0.0021538473665714,0.3848583996295929,0.9229702949523926,0.0113826256670747,-0.0053558477885849,-0.0209740613568581,0.0361891388893127,-0.227816641330719,0.7274112701416016,295,60,19362,14044
26.4,1788518697678,4.985915660858154,5.098591327667236,0.0030953744426369,0.0016984896501526,-0.991435408592224,0.130550280213356,0.1611726946825588,-0.0044832673039148,-1.307209845287451e-06,0.0,0.0,0.0,-0.0023177666589617,0.0027788942679762,0.3850420117378235,0.9228920340538024,0.0111843070117986,0.0138130343173328,0.0474391181555141,0.0036732554435729,0.3436979055404663,-0.6371574401855469,295,60,19362,14044
26.5,1788518697778,4.704225540161133,5.183098793029785,0.0031471268739551,0.001309668761678,-0.9910284280776978,0.1336080580949783,0.1606026658275153,-0.0041737551221124,3.808551246618568e-05,0.0010399828897789,-0.0229691006243228,0.0655184015631675,-0.0019618393853306,0.002950794994831,0.3886277079582214,0.9213880896568298,0.0088587134893778,0.012510900892655,0.0602093268029644,-0.0028403401374816,0.3682148456573486,-0.6819639205932617,435,76,20580,14644
26.6,1788518697878,5.070422649383545,4.957746505737305,0.0032041459344327,0.0010258030379191,-0.9906710386276244,0.1362336128950119,0.1653564676696514,-0.0017138660987119,1.3897192068303686e-05,0.0036388945300132,-0.0047422749921679,0.0522975251078605,-0.0014218855649232,0.0026888828724622,0.3902232944965362,0.9207152724266052,0.0203661640813713,-0.0183461695618038,0.0228745846417591,0.2984821200370788,-0.2433701157569885,1.0877742767333984,444,60,21519,14411
26.7,1788518697978,5.014084339141846,5.183098793029785,0.0033167777583003,0.0003281682729721,-0.9906516671180724,0.1363752633333206,0.172245370782246,0.0003527042314769,-1.405507840216891e-06,0.0211230013519525,0.0152995698153972,-0.0073787891305983,-0.0009903367608785,0.0033501498401165,0.3901084363460541,0.9207623600959778,0.019524043121623,0.0156332800645694,0.0169495043680585,0.2567132115364074,0.26229989528656,-1.3475542068481443,371,59,21320,13910
26.8,1788518698078,5.352112770080566,4.985915660858154,0.0050100716762244,-0.000434668152593,-0.9907834529876708,0.1353616714477539,0.160183272647976,-0.0076715051227292,-2.1907708444996803e-07,0.0239234659820795,0.0426179841160774,-0.0207706782966852,-0.0003411564975976,0.0076861791312694,0.3890929520130157,0.9211663603782654,0.0985524955339989,0.1433588693801752,0.0112057870188665,-1.3912829160690308,-0.0225234627723693,5.373104095458984,404,64,21156,14480
26.9,1788518698178,5.295774459838867,4.816901206970215,0.0063578966073691,-0.0031705959700047,-0.9910038709640504,0.1336443275213241,0.1675646781229988,-0.0156426723120931,-3.4485074842243e-05,-0.0126442136242985,-0.0223261583596467,-0.0816531553864479,0.0012541441246867,0.0056443540379405,0.3856949210166931,0.9226082563400269,-0.0473957440210042,-0.0708043780395345,-0.1105765898954148,-0.2303799986839294,-0.6012836694717407,-0.1744976043701172,154,56,18031,14036
27.0,1788518698278,5.042253494262695,4.985915660858154,0.0023330175317823,-0.0013211972545832,-0.9915804266929626,0.1294647008180618,0.1642522781594651,-0.011548599569285,0.000235720978214,-0.0565220341086387,-0.0651325583457946,-0.0691528469324112,0.0009988453239202,0.0022996189072728,0.3833142518997192,0.9236146211624146,0.016420239027147,-0.035431863282998,-0.0348782354394189,-0.0767868757247924,-0.5262836217880249,-0.2008552551269531,285,72,19162,13785
27.1,1788518698378,5.605633735656738,4.507042407989502,0.0022759770508855,-0.0018402450950816,-0.99183589220047,0.1274871528148651,0.161109813207194,-0.0056858885741161,9.72965003068886e-07,0.0114228725433349,0.0074031623080372,-0.0593219473958015,0.0011674249544739,0.0027063302695751,0.3815774321556091,0.9243321418762208,1.7345279127074225e-05,0.0234929779138114,-0.0742191728854409,0.5750136375427246,-0.1957351565361023,-0.7982730865478516,266,57,19835,13235
27.2,1788518698478,5.464788913726807,4.309859275817871,0.0034716534428298,-0.0013560177758336,-0.9929736256599426,0.1182766184210777,0.1682231750525719,0.0010070447506649,-8.859271707182162e-05,-0.0308980289846658,0.0546382889151573,-0.2254102826118469,-0.0002695685252547,0.0038430942222476,0.3707357943058014,0.9287303686141968,-0.051509417248305,0.0521043923190989,-0.2605532259955076,-0.5644432306289673,-0.063844621181488,1.2573518753051758,247,131,19402,14214
27.3,1788518698578,5.211267471313477,4.985915660858154,0.0045117628760635,0.0001039041089825,-0.9938003420829772,0.1110874041914939,0.1649920450964556,-0.0056043263846952,-4.964160516608936e-05,-0.0262964367866516,0.01001085806638,-0.1400332450866699,-0.001986252143979,0.0040378533303737,0.3650543391704559,0.930975377559662,-0.0676087725597448,-0.007066961029576,-0.1519326435138551,-0.3133571147918701,0.3089524507522583,-1.1630487442016602,156,146,17554,15572
27.4,1788518698678,4.901408672332764,5.014084339141846,0.0022301482968032,0.0031567956320941,-0.993941068649292,0.1098466739058494,0.1688621165270433,-0.0048965876524965,0.0002085239934976,-0.0791413709521293,-0.0678656250238418,0.0142706083133816,-0.0038136122748255,0.0006555058062076,0.3652222752571106,0.9309123158454896,-0.0677956191231436,-0.0670005421591819,-0.0112749640092082,0.0046059489250183,-0.571029782295227,-2.0312085151672363,287,105,18954,15273
27.5,1788518698778,5.098591327667236,4.901408672332764,0.0017947633750736,0.0046649142168462,-0.9939134120941162,0.1100506708025932,0.1684944882171516,-0.0023463660653798,7.341006028621718e-07,-0.0060976296663284,0.0273974016308784,-0.0016109438147395,-0.0053025744855403,0.001031881198287,0.3647275865077972,0.9310986399650574,-0.0054463142878601,0.0293059857865748,-0.0476299494310419,-0.7209225296974182,-0.1235916018486023,-0.5200719833374023,293,43,19298,13967
27.6,1788518698878,4.788732528686523,5.183098793029785,0.0009641295764595,0.0045640561729669,-0.9940752983093262,0.108593076467514,0.1673669212244233,-0.0032256524865514,1.6279236997192625e-06,-0.0004209210164844,-0.0154653331264853,-0.0288651119917631,-0.0044273249804973,-0.0001705335453152,0.3649167716503143,0.9310296773910522,0.0142393599633232,-0.0174394123789094,0.0495930704551538,0.380411148071289,0.2567538022994995,-0.4651975631713867,241,106,17581,15009
27.7,1788518698978,4.591549396514893,5.267605781555176,0.0011698723537847,0.0044206581078469,-0.993730366230011,0.1117101907730102,0.1677596338035157,-0.0050948860184464,-1.046501303338128e-06,-0.0062026581726968,0.0075204703025519,0.0768816098570823,-0.0046798856928944,-6.868410855531693e-05,0.3680866658687591,0.9297797679901124,-0.0060474753831167,-0.0050632790280439,0.0722374421723676,-0.1804426312446594,-0.455036997795105,0.13287353515625,350,90,20177,14968
27.8,1788518699078,5.295774459838867,4.873239517211914,0.0009778998792171,0.0046738600358366,-0.9933687448501588,0.1148725673556327,0.1657624933538694,0.0010116757470052,4.774791262868334e-05,-0.0087291356176137,-0.0114115551114082,0.0651320293545723,-0.0050154887139797,-0.0020504919812083,0.3708068430423736,0.928694188594818,-0.0512000260575215,-0.0903741212071017,0.0035369993539365,-0.3751847743988037,0.2609645128250122,1.3009138107299805,354,70,20982,13984
27.9,1788518699178,5.436619758605957,4.816901206970215,0.0005404506227932,0.0045879278331995,-0.9932910203933716,0.1155490204691886,0.1618555633403057,-0.0054312984631548,-0.000112112515338,0.0283294692635536,0.0328882932662963,-0.008507914841175,-0.0044184513390064,-0.0005282219499349,0.370221346616745,0.9289329051971436,0.0497253572593391,0.0379802165609486,-0.0434593141811596,-0.0267754793167114,-0.1346131563186645,0.8892707824707031,361,66,21231,14083
28.0,1788518699278,5.014084339141846,4.957746505737305,0.0011978663969784,0.0038311509415507,-0.9938366413116456,0.1107819676399231,0.1634730244577414,-0.009860913326791,1.5879544630443753e-05,0.0140775144100189,0.0037800150457769,-0.0847854986786842,-0.0032995026558637,0.0014074090868234,0.3652671873569488,0.9308958053588868,0.0667548023047332,0.0506765505256658,-0.0592841622019916,0.3281049728393554,-0.6455891132354736,-0.1926946640014648,424,77,21956,13646
28.1,1788518699378,5.88732385635376,4.563380241394043,0.0042473911307752,0.0007462338544428,-0.9941768050193788,0.1076749488711357,0.1685499715739434,-0.0099346629625617,-0.0001270315717293,0.0610337816178798,0.0454204380512237,-0.0920346975326538,-0.0017583407461643,0.0039887083694338,0.3630809783935547,0.9317473769187928,0.0556478859324841,0.0426690789152433,-0.1131264574865363,0.0777620077133178,0.0775187611579895,-1.2341489791870115,273,20,20173,12368
28.2,1788518699478,5.126760482788086,4.676056385040283,0.0043740440160036,0.0018216917524114,-0.9948998093605042,0.1007558926939964,0.1539661848949472,-0.0057099925654373,6.936389474967751e-05,-0.0256658531725406,0.0016887501114979,-0.1193747296929359,-0.0027370136231184,0.0039157709106802,0.356045514345169,0.9344564080238342,0.0101862305603323,0.0331688648844676,-0.1364887214177416,-0.1232309341430664,-0.6105884909629822,0.7934722900390625,257,70,18926,14502
28.3,1788518699578,6.084506988525391,4.14084529876709,0.0046316045336425,0.0012472586240619,-0.9951506853103638,0.0982453525066375,0.1667376216990833,-0.0027140409230155,-8.037720550253965e-05,0.0072737149894237,0.0098832035437226,-0.0465523973107337,-0.0024368893355131,0.0043014734983444,0.3537654280662536,0.9353210926055908,0.0055031412225829,-0.0029011268275868,-0.0566290118876385,0.9028421640396118,-0.3752380609512329,0.166757583618164,377,18,24355,8572
28.4,1788518699678,7.042253494262695,2.901408433914185,0.0057491296902298,0.0013323659077286,-0.9957700371742249,0.0916912034153938,0.1728911581825055,-0.0109142177346772,-0.000128515639532,0.0022336316760629,0.0447225794196128,-0.2614859938621521,-0.0027871550992131,0.005366837605834,0.3267682492733001,0.9450851678848268,-0.0034364317335243,-0.0013706727354413,-0.6932505502230258,-0.9228296875953674,0.3323859572410583,0.8749217987060547,223,22,22966,7617
28.5,1788518699778,6.957746505737305,3.0422534942626958,0.0045194812119007,0.00189178599976,-0.998847723007202,0.047739889472723,0.1492029767260053,-0.0080772364710177,6.826561063244794e-05,-0.0234412867575883,-0.0379158854484558,-0.6060230731964111,-0.0038651255890727,0.0031385300680994,0.2915170192718506,0.9565526843070984,-0.0413518230661413,-0.0101101814038875,-0.6052127031775002,0.2434226870536804,-0.2078326940536499,0.1195764541625976,257,73,23309,9790
28.6,1788518699878,6.619718074798584,3.3521127700805664,0.0019112206064164,0.0050004511140286,-0.999841332435608,0.0169891007244586,0.1555594882066071,-0.0069793132213994,0.000201299974508,-0.0866142809391021,-0.0816661119461059,-0.6382371783256531,-0.0048430459573864,0.0001103933900594,0.2670781016349792,0.9636627435684204,0.0174953404377696,-0.0601625463590088,-0.4576938967022496,0.1306772828102111,0.2694021463394165,-5.218734264373779,233,123,22090,11489
28.7,1788518699978,6.563380241394043,3.521126747131348,0.000188077421626,-0.0045994198881089,0.9999698400497437,0.0062630297616124,0.1579179109780855,-0.0078598143340081,0.000244641165757,-0.0001757075224304,-0.0473728440701961,-0.4545759856700897,-0.0044930158182978,-0.0017502214759588,0.2449882626533508,0.969514012336731,-0.0128028011466114,0.0022391242522149,-0.4757389487819772,0.2836567163467407,-0.0019128322601318,-1.506460189819336,256,57,22803,10635
28.8,1788518700078,6.2253522872924805,3.7183098793029785,0.0002819397486746,-0.0050019952468574,0.9995656609535216,0.0290396455675363,0.1555997149614397,-0.0097970218542246,9.16106455921914e-05,-0.0047578453086316,-0.0019359132274985,-0.3443057537078857,-0.0046482486650347,-0.001418013125658,0.2287520766258239,0.9734725952148438,0.015026252814962,0.0307120340821976,-0.396963435887312,-0.0230236053466796,-0.1938906908035278,0.4599199295043945,425,85,25321,10790
28.9,1788518700178,6.056337833404541,3.88732385635376,0.0003294971538707,-0.0049685309641063,0.9989340901374816,0.0458901785314083,0.146736974951991,-0.0085325203068474,-1.1036342106050656e-05,-0.0017406883416697,0.0036695736926048,-0.3505930006504059,-0.0048247538506984,-0.0012975176796317,0.2126292288303375,0.9771201610565186,-0.0007856618268247,0.0223013044217064,-0.3547627865243558,0.0054340958595275,-0.3849877119064331,0.8597879409790039,414,61,24621,11635
