time_s,timestamp_ms,wheel_vels__velocity_left,wheel_vels__velocity_right,odom__orient_x,odom__orient_y,odom__orient_z,odom__orient_w,odom__lin_x,odom__lin_y,odom__lin_z,odom__ang_x,odom__ang_y,odom__ang_z,imu__orient_x,imu__orient_y,imu__orient_z,imu__orient_w,imu__angvel_x,imu__angvel_y,imu__angvel_z,imu__acc_x,imu__acc_y,imu__acc_z,wheel_status__current_ma_left,wheel_status__current_ma_right,wheel_status__pwm_left,wheel_status__pwm_right
0.0,1788269529175,0.0,0.0,-0.0055537340231239,-0.0024609048850834,0.686657190322876,0.7269559502601624,0.0,0.0,0.0,0.0,9.205184170468785e-09,0.0,-0.0020628115162253,-0.0057174721732735,0.9999641180038452,0.005915705114603,-3.645126385250052e-05,8.81354361072663e-05,1.3617288140949794e-06,0.0069912672042846,-0.0208950042724609,0.0045928955078125,0,0,0,0
0.1,1788269529275,0.0,0.0,-0.0055537340231239,-0.0024609048850834,0.686657190322876,0.7269559502601624,0.0,0.0,0.0,0.0,9.205184170468785e-09,0.0,-0.0020628115162253,-0.0057174721732735,0.9999641180038452,0.005915705114603,-3.645126385250052e-05,8.81354361072663e-05,1.3617288140949794e-06,0.0069912672042846,-0.0208950042724609,0.0045928955078125,0,0,0,0
0.2,1788269529375,0.0,0.0,-0.0055537340231239,-0.0024609048850834,0.686657190322876,0.7269559502601624,0.0,0.0,0.0,0.0,9.205184170468785e-09,0.0,-0.0020628115162253,-0.0057174721732735,0.9999641180038452,0.005915705114603,-3.645126385250052e-05,8.81354361072663e-05,1.3617288140949794e-06,0.0069912672042846,-0.0208950042724609,0.0045928955078125,0,0,0,0
0.3,1788269529475,0.0,0.0,-0.0055537340231239,-0.0024609048850834,0.686657190322876,0.7269559502601624,0.0,0.0,0.0,0.0,9.205184170468785e-09,0.0,-0.0020628115162253,-0.0057174721732735,0.9999641180038452,0.005915705114603,-3.645126385250052e-05,8.81354361072663e-05,1.3617288140949794e-06,0.0069912672042846,-0.0208950042724609,0.0045928955078125,0,0,0,0
0.4,1788269529575,0.0,0.0,-0.0055537340231239,-0.0024609048850834,0.686657190322876,0.7269559502601624,0.0,0.0,0.0,0.0,9.205184170468785e-09,0.0,-0.0020628115162253,-0.0057174721732735,0.9999641180038452,0.005915705114603,-3.645126385250052e-05,8.81354361072663e-05,1.3617288140949794e-06,0.0069912672042846,-0.0208950042724609,0.0045928955078125,0,0,0,0
0.5,1788269529675,0.0,0.0,-0.0055537340231239,-0.0024609048850834,0.686657190322876,0.7269559502601624,0.0,0.0,0.0,0.0,9.205184170468785e-09,0.0,-0.0020628115162253,-0.0057174721732735,0.9999641180038452,0.005915705114603,-3.645126385250052e-05,8.81354361072663e-05,1.3617288140949794e-06,0.0069912672042846,-0.0208950042724609,0.0045928955078125,0,0,0,0
0.6,1788269529775,0.0,0.0,-0.0055537340231239,-0.0024609048850834,0.686657190322876,0.7269559502601624,0.0,0.0,0.0,0.0,9.205184170468785e-09,0.0,-0.0020628115162253,-0.0057174721732735,0.9999641180038452,0.005915705114603,-3.645126385250052e-05,8.81354361072663e-05,1.3617288140949794e-06,0.0069912672042846,-0.0208950042724609,0.0045928955078125,0,0,0,0
0.7,1788269529875,0.0,0.0,-0.0055537340231239,-0.0024609048850834,0.686657190322876,0.7269559502601624,0.0,0.0,0.0,0.0,9.205184170468785e-09,0.0,-0.0020628115162253,-0.0057174721732735,0.9999641180038452,0.005915705114603,-3.645126385250052e-05,8.81354361072663e-05,1.3617288140949794e-06,0.0069912672042846,-0.0208950042724609,0.0045928955078125,0,0,0,0
0.8,1788269529975,0.0,0.0,-0.0055537340231239,-0.0024609048850834,0.686657190322876,0.7269559502601624,0.0,0.0,0.0,0.0,9.205184170468785e-09,0.0,-0.0020628115162253,-0.0057174721732735,0.9999641180038452,0.005915705114603,-3.645126385250052e-05,8.81354361072663e-05,1.3617288140949794e-06,0.0069912672042846,-0.0208950042724609,0.0045928955078125,0,0,0,0
0.9,1788269530075,0.0,0.0,-0.0055537340231239,-0.0024609048850834,0.686657190322876,0.7269559502601624,0.0,0.0,0.0,0.0,9.205184170468785e-09,0.0,-0.0020628115162253,-0.0057174721732735,0.9999641180038452,0.005915705114603,-3.645126385250052e-05,8.81354361072663e-05,1.3617288140949794e-06,0.0069912672042846,-0.0208950042724609,0.0045928955078125,0,0,0,0
1.0,1788269530175,0.0,0.0,-0.0055537340231239,-0.0024609048850834,0.686657190322876,0.7269559502601624,0.0,0.0,0.0,0.0,9.205184170468785e-09,0.0,-0.0020628115162253,-0.0057174721732735,0.9999641180038452,0.005915705114603,-3.645126385250052e-05,8.81354361072663e-05,1.3617288140949794e-06,0.0069912672042846,-0.0208950042724609,0.0045928955078125,0,0,0,0
1.1,1788269530275,0.0,0.0,-0.0055537340231239,-0.0024609048850834,0.686657190322876,0.7269559502601624,0.0,0.0,0.0,0.0,9.205184170468785e-09,0.0,-0.0020628115162253,-0.0057174721732735,0.9999641180038452,0.005915705114603,-3.645126385250052e-05,8.81354361072663e-05,1.3617288140949794e-06,0.0069912672042846,-0.0208950042724609,0.0045928955078125,0,0,0,0
1.2,1788269530375,0.0,0.0,-0.0055537340231239,-0.0024609048850834,0.686657190322876,0.7269559502601624,0.0,0.0,0.0,0.0,9.205184170468785e-09,0.0,-0.0020628115162253,-0.0057174721732735,0.9999641180038452,0.005915705114603,-3.645126385250052e-05,8.81354361072663e-05,1.3617288140949794e-06,0.0069912672042846,-0.0208950042724609,0.0045928955078125,0,0,0,0
1.3,1788269530475,0.0,0.0,-0.0055537340231239,-0.0024609048850834,0.686657190322876,0.7269559502601624,0.0,0.0,0.0,0.0,9.205184170468785e-09,0.0,-0.0020628115162253,-0.0057174721732735,0.9999641180038452,0.005915705114603,-3.645126385250052e-05,8.81354361072663e-05,1.3617288140949794e-06,0.0069912672042846,-0.0208950042724609,0.0045928955078125,0,0,0,0
1.4,1788269530575,0.0,0.0,-0.0055537340231239,-0.0024609048850834,0.686657190322876,0.7269559502601624,0.0,0.0,0.0,0.0,9.205184170468785e-09,0.0,-0.0020628115162253,-0.0057174721732735,0.9999641180038452,0.005915705114603,-3.645126385250052e-05,8.81354361072663e-05,1.3617288140949794e-06,0.0069912672042846,-0.0208950042724609,0.0045928955078125,0,0,0,0
1.5,1788269530675,0.0,0.0,-0.0055537340231239,-0.0024609048850834,0.686657190322876,0.7269559502601624,0.0,0.0,0.0,0.0,9.205184170468785e-09,0.0,-0.0020628115162253,-0.0057174721732735,0.9999641180038452,0.005915705114603,-3.645126385250052e-05,8.81354361072663e-05,1.3617288140949794e-06,0.0069912672042846,-0.0208950042724609,0.0045928955078125,0,0,0,0
1.6,1788269530775,0.0,0.0,-0.0055537340231239,-0.0024609048850834,0.686657190322876,0.7269559502601624,0.0,0.0,0.0,0.0,9.205184170468785e-09,0.0,-0.0020628115162253,-0.0057174721732735,0.9999641180038452,0.005915705114603,-3.645126385250052e-05,8.81354361072663e-05,1.3617288140949794e-06,0.0069912672042846,-0.0208950042724609,0.0045928955078125,0,0,0,0
1.7,1788269530875,0.0,0.0,-0.0055537340231239,-0.0024609048850834,0.686657190322876,0.7269559502601624,0.0,0.0,0.0,0.0,9.205184170468785e-09,0.0,-0.0020628115162253,-0.0057174721732735,0.9999641180038452,0.005915705114603,-3.645126385250052e-05,8.81354361072663e-05,1.3617288140949794e-06,0.0069912672042846,-0.0208950042724609,0.0045928955078125,0,0,0,0
1.8,1788269530975,0.0,0.0,-0.0055537340231239,-0.0024609048850834,0.686657190322876,0.7269559502601624,0.0,0.0,0.0,0.0,9.205184170468785e-09,0.0,-0.0020628115162253,-0.0057174721732735,0.9999641180038452,0.005915705114603,-3.645126385250052e-05,8.81354361072663e-05,1.3617288140949794e-06,0.0069912672042846,-0.0208950042724609,0.0045928955078125,0,0,0,0
1.9,1788269531075,0.0,0.0,-0.0055537340231239,-0.0024609048850834,0.686657190322876,0.7269559502601624,0.0,0.0,0.0,0.0,9.205184170468785e-09,0.0,-0.0020628115162253,-0.0057174721732735,0.9999641180038452,0.005915705114603,-3.645126385250052e-05,8.81354361072663e-05,1.3617288140949794e-06,0.0069912672042846,-0.0208950042724609,0.0045928955078125,0,0,0,0
2.0,1788269531175,0.0,0.0,-0.0055537340231239,-0.0024609048850834,0.686657190322876,0.7269559502601624,0.0,0.0,0.0,0.0,9.205184170468785e-09,0.0,-0.0020628115162253,-0.0057174721732735,0.9999641180038452,0.005915705114603,-3.645126385250052e-05,8.81354361072663e-05,1.3617288140949794e-06,0.0069912672042846,-0.0208950042724609,0.0045928955078125,0,0,0,0
2.1,1788269531275,0.0,0.0,-0.0055537340231239,-0.0024609048850834,0.686657190322876,0.7269559502601624,0.0,0.0,0.0,0.0,9.205184170468785e-09,0.0,-0.0020628115162253,-0.0057174721732735,0.9999641180038452,0.005915705114603,-3.645126385250052e-05,8.81354361072663e-05,1.3617288140949794e-06,0.0069912672042846,-0.0208950042724609,0.0045928955078125,0,0,0,0
2.2,1788269531375,0.0,0.0,-0.0055537340231239,-0.0024609048850834,0.686657190322876,0.7269559502601624,0.0,0.0,0.0,0.0,9.205184170468785e-09,0.0,-0.0020628115162253,-0.0057174721732735,0.9999641180038452,0.005915705114603,-3.645126385250052e-05,8.81354361072663e-05,1.3617288140949794e-06,0.0069912672042846,-0.0208950042724609,0.0045928955078125,0,0,0,0
2.3,1788269531475,0.0,0.0,-0.0055537340231239,-0.0024609048850834,0.686657190322876,0.7269559502601624,0.0,0.0,0.0,0.0,9.205184170468785e-09,0.0,-0.0020628115162253,-0.0057174721732735,0.9999641180038452,0.005915705114603,-3.645126385250052e-05,8.81354361072663e-05,1.3617288140949794e-06,0.0069912672042846,-0.0208950042724609,0.0045928955078125,0,0,0,0
2.4,1788269531575,0.0,0.0,-0.0055537340231239,-0.0024609048850834,0.686657190322876,0.7269559502601624,0.0,0.0,0.0,0.0,9.205184170468785e-09,0.0,-0.0020628115162253,-0.0057174721732735,0.9999641180038452,0.005915705114603,-3.645126385250052e-05,8.81354361072663e-05,1.3617288140949794e-06,0.0069912672042846,-0.0208950042724609,0.0045928955078125,0,0,0,0
2.5,1788269531675,0.0,0.0,-0.0055537340231239,-0.0024609048850834,0.686657190322876,0.7269559502601624,0.0,0.0,0.0,0.0,9.205184170468785e-09,0.0,-0.0020628115162253,-0.0057174721732735,0.9999641180038452,0.005915705114603,-3.645126385250052e-05,8.81354361072663e-05,1.3617288140949794e-06,0.0069912672042846,-0.0208950042724609,0.0045928955078125,0,0,0,0
2.6,1788269531775,0.0,0.0,-0.0055537340231239,-0.0024609048850834,0.686657190322876,0.7269559502601624,0.0,0.0,0.0,0.0,9.205184170468785e-09,0.0,-0.0020628115162253,-0.0057174721732735,0.9999641180038452,0.005915705114603,-3.645126385250052e-05,8.81354361072663e-05,1.3617288140949794e-06,0.0069912672042846,-0.0208950042724609,0.0045928955078125,0,0,0,0
2.7,1788269531875,0.0,0.0,-0.0055537340231239,-0.0024609048850834,0.686657190322876,0.7269559502601624,0.0,0.0,0.0,0.0,9.205184170468785e-09,0.0,-0.0020628115162253,-0.0057174721732735,0.9999641180038452,0.005915705114603,-3.645126385250052e-05,8.81354361072663e-05,1.3617288140949794e-06,0.0069912672042846,-0.0208950042724609,0.0045928955078125,0,0,0,0
2.8,1788269531975,0.0,0.0,-0.0055537340231239,-0.0024609048850834,0.686657190322876,0.7269559502601624,0.0,0.0,0.0,0.0,9.205184170468785e-09,0.0,-0.0020628115162253,-0.0057174721732735,0.9999641180038452,0.005915705114603,-3.645126385250052e-05,8.81354361072663e-05,1.3617288140949794e-06,0.0069912672042846,-0.0208950042724609,0.0045928955078125,0,0,0,0
2.9,1788269532075,0.0,0.0,-0.0055537340231239,-0.0024609048850834,0.686657190322876,0.7269559502601624,0.0,0.0,0.0,0.0,9.205184170468785e-09,0.0,-0.0020628115162253,-0.0057174721732735,0.9999641180038452,0.005915705114603,-3.645126385250052e-05,8.81354361072663e-05,1.3617288140949794e-06,0.0069912672042846,-0.0208950042724609,0.0045928955078125,0,0,0,0
3.0,1788269532175,0.0,0.0,-0.0055537340231239,-0.0024609048850834,0.686657190322876,0.7269559502601624,0.0,0.0,0.0,0.0,9.205184170468785e-09,0.0,-0.0020628115162253,-0.0057174721732735,0.9999641180038452,0.005915705114603,-3.645126385250052e-05,8.81354361072663e-05,1.3617288140949794e-06,0.0069912672042846,-0.0208950042724609,0.0045928955078125,0,0,0,0
3.1,1788269532275,0.0,0.0,-0.0055537340231239,-0.0024609048850834,0.686657190322876,0.7269559502601624,0.0,0.0,0.0,0.0,9.205184170468785e-09,0.0,-0.0020628115162253,-0.0057174721732735,0.9999641180038452,0.005915705114603,-3.645126385250052e-05,8.81354361072663e-05,1.3617288140949794e-06,0.0069912672042846,-0.0208950042724609,0.0045928955078125,0,0,0,0
3.2,1788269532375,0.0,0.0,-0.0055537340231239,-0.0024609048850834,0.686657190322876,0.7269559502601624,0.0,0.0,0.0,0.0,9.205184170468785e-09,0.0,-0.0020628115162253,-0.0057174721732735,0.9999641180038452,0.005915705114603,-3.645126385250052e-05,8.81354361072663e-05,1.3617288140949794e-06,0.0069912672042846,-0.0208950042724609,0.0045928955078125,0,0,0,0
3.3,1788269532475,0.0,0.0,-0.0055537340231239,-0.0024609048850834,0.686657190322876,0.7269559502601624,0.0,0.0,0.0,0.0,9.205184170468785e-09,0.0,-0.0020628115162253,-0.0057174721732735,0.9999641180038452,0.005915705114603,-3.645126385250052e-05,8.81354361072663e-05,1.3617288140949794e-06,0.0069912672042846,-0.0208950042724609,0.0045928955078125,0,0,0,0
3.4,1788269532575,0.0,0.0,-0.0055537340231239,-0.0024609048850834,0.686657190322876,0.7269559502601624,0.0,0.0,0.0,0.0,9.205184170468785e-09,0.0,-0.0020628115162253,-0.0057174721732735,0.9999641180038452,0.005915705114603,-3.645126385250052e-05,8.81354361072663e-05,1.3617288140949794e-06,0.0069912672042846,-0.0208950042724609,0.0045928955078125,0,0,0,0
3.5,1788269532675,0.0,0.0,-0.0055537340231239,-0.0024609048850834,0.686657190322876,0.7269559502601624,0.0,0.0,0.0,0.0,9.205184170468785e-09,0.0,-0.0020628115162253,-0.0057174721732735,0.9999641180038452,0.005915705114603,-3.645126385250052e-05,8.81354361072663e-05,1.3617288140949794e-06,0.0069912672042846,-0.0208950042724609,0.0045928955078125,0,0,0,0
3.6,1788269532775,0.0,0.0,-0.0055537340231239,-0.0024609048850834,0.686657190322876,0.7269559502601624,0.0,0.0,0.0,0.0,9.205184170468785e-09,0.0,-0.0020628115162253,-0.0057174721732735,0.9999641180038452,0.005915705114603,-3.645126385250052e-05,8.81354361072663e-05,1.3617288140949794e-06,0.0069912672042846,-0.0208950042724609,0.0045928955078125,0,0,0,0
3.7,1788269532875,0.0,0.0,-0.0055537340231239,-0.0024609048850834,0.686657190322876,0.7269559502601624,0.0,0.0,0.0,0.0,9.205184170468785e-09,0.0,-0.0020628115162253,-0.0057174721732735,0.9999641180038452,0.005915705114603,-3.645126385250052e-05,8.81354361072663e-05,1.3617288140949794e-06,0.0069912672042846,-0.0208950042724609,0.0045928955078125,0,0,0,0
3.8,1788269532975,0.0,0.0,-0.0055537340231239,-0.0024609048850834,0.686657190322876,0.7269559502601624,0.0,0.0,0.0,0.0,9.205184170468785e-09,0.0,-0.0020628115162253,-0.0057174721732735,0.9999641180038452,0.005915705114603,-3.645126385250052e-05,8.81354361072663e-05,1.3617288140949794e-06,0.0069912672042846,-0.0208950042724609,0.0045928955078125,0,0,0,0
3.9,1788269533075,0.0,0.0,-0.0055537340231239,-0.0024609048850834,0.686657190322876,0.7269559502601624,0.0,0.0,0.0,0.0,9.205184170468785e-09,0.0,-0.0020628115162253,-0.0057174721732735,0.9999641180038452,0.005915705114603,-3.645126385250052e-05,8.81354361072663e-05,1.3617288140949794e-06,0.0069912672042846,-0.0208950042724609,0.0045928955078125,0,0,0,0
4.0,1788269533175,0.0,0.0,-0.0055537340231239,-0.0024609048850834,0.686657190322876,0.7269559502601624,0.0,0.0,0.0,0.0,9.205184170468785e-09,0.0,-0.0020628115162253,-0.0057174721732735,0.9999641180038452,0.005915705114603,-3.645126385250052e-05,8.81354361072663e-05,1.3617288140949794e-06,0.0069912672042846,-0.0208950042724609,0.0045928955078125,0,0,0,0
4.1,1788269533275,0.0,0.0,-0.0055537340231239,-0.0024609048850834,0.686657190322876,0.7269559502601624,0.0,0.0,0.0,0.0,9.205184170468785e-09,0.0,-0.0020628115162253,-0.0057174721732735,0.9999641180038452,0.005915705114603,-3.645126385250052e-05,8.81354361072663e-05,1.3617288140949794e-06,0.0069912672042846,-0.0208950042724609,0.0045928955078125,0,0,0,0
4.2,1788269533375,0.0,0.0,-0.0055537340231239,-0.0024609048850834,0.686657190322876,0.7269559502601624,0.0,0.0,0.0,0.0,9.205184170468785e-09,0.0,-0.0020628115162253,-0.0057174721732735,0.9999641180038452,0.005915705114603,-3.645126385250052e-05,8.81354361072663e-05,1.3617288140949794e-06,0.0069912672042846,-0.0208950042724609,0.0045928955078125,0,0,0,0
4.3,1788269533475,0.0,0.0,-0.0055537340231239,-0.0024609048850834,0.686657190322876,0.7269559502601624,0.0,0.0,0.0,0.0,9.205184170468785e-09,0.0,-0.0020628115162253,-0.0057174721732735,0.9999641180038452,0.005915705114603,-3.645126385250052e-05,8.81354361072663e-05,1.3617288140949794e-06,0.0069912672042846,-0.0208950042724609,0.0045928955078125,0,0,0,0
4.4,1788269533575,0.0,0.0,-0.0055537340231239,-0.0024609048850834,0.686657190322876,0.7269559502601624,0.0,0.0,0.0,0.0,9.205184170468785e-09,0.0,-0.0020628115162253,-0.0057174721732735,0.9999641180038452,0.005915705114603,-3.645126385250052e-05,8.81354361072663e-05,1.3617288140949794e-06,0.0069912672042846,-0.0208950042724609,0.0045928955078125,0,0,0,0
4.5,1788269533675,0.0,0.0,-0.0055595058947801,-0.0024592967238277,0.6866572499275208,0.7269558906555176,-7.76356396205034e-06,0.0004316682907508,-2.6290560407344644e-07,-3.2204763556364924e-05,3.293795452918857e-05,5.177842467674054e-06,-0.0020633554086089,-0.0057181539013981,0.9999639987945556,0.0059156771749258,4.666010871122453e-07,-1.7855268638638716e-05,3.110673122996249e-07,0.0062916874885559,0.0237541198730468,-0.0020942687988281,0,0,0,0
4.6,1788269533775,0.0,0.0,-0.0055559650063514,-0.0024591777473688,0.6866574287414551,0.726955771446228,0.0,0.0,0.0,7.520021608797833e-05,-6.645340181421489e-05,5.908141247346066e-06,-0.0020593274384737,-0.0057131303474307,0.9999639987945556,0.0059156678617,0.0001635384180305,-0.0001252683976358,-3.426975423033782e-07,0.0055540800094604,-0.0114782452583312,-0.0291109085083007,0,0,0,0
4.7,1788269533875,0.0,0.0,-0.0055470988154411,-0.0024581211619079,0.6866574883460999,0.726955771446228,0.0,0.0,0.0,0.000236827210756,-0.0001756351266521,-2.951980150101008e-06,-0.0020505869761109,-0.0056984722614288,0.9999641180038452,0.0059156604111194,0.0003200512889155,-0.0001579089702775,-6.301073933797218e-08,-0.0021923184394836,0.0172789692878723,0.0027275085449218,0,0,0,0
4.8,1788269533975,0.0,0.0,-0.0055344575084745,-0.0024544610641896,0.6866575479507446,0.726955771446228,0.0,0.0,0.0,0.0,0.0,0.0,-0.0020434288308024,-0.0056823138147592,0.9999642372131348,0.0059156473726034,0.0003740122559483,-0.000147821505118,2.792851647395441e-07,0.0049606561660766,0.0237982273101806,0.0034494400024414,0,0,0,0
4.9,1788269534075,0.0,0.0,-0.0055048838257789,-0.0024431832134723,0.6866577863693237,0.7269558310508728,-7.77094141515272e-06,0.0004320972187765,-2.933497507878938e-07,0.0006417641416192,-0.0002546850882936,5.182987024454633e-06,-0.0020368807017803,-0.0056660408154129,0.9999643564224244,0.005915630608797,0.0002988887221925,-0.0001175685341467,3.37624466130572e-07,0.0033153295516967,-0.0010726451873779,-0.009429931640625,3,0,0,0
5.0,1788269534175,0.0,0.0,-0.0054947389289736,-0.0024377729278057,0.6866578459739685,0.726955771446228,2.0845012765970567e-08,-3.651476562944675e-07,-4.064419870524337e-09,0.0003110894467681,-8.511868509231135e-05,2.5081012609007303e-06,-0.0020341640338301,-0.005650695413351,0.999964475631714,0.005915586836636,0.0002226802296515,3.678735750242866e-06,1.459090915547456e-06,-0.0083803534507751,0.0207889080047607,0.0122499465942382,0,0,0,0
5.1,1788269534275,0.0,0.0,-0.0054887495934963,-0.0024314413312822,0.6866579055786133,0.7269558906555176,0.0,0.0,0.0,0.0002864825946744,1.613479071238544e-05,-9.811178642848972e-07,-0.002037332393229,-0.0056437449529767,0.999964475631714,0.0059155318886041,0.0001104742926512,8.758280361512876e-05,1.9240559143193453e-06,0.003195583820343,0.0073177814483642,-0.0146570205688476,0,0,0,0
5.2,1788269534375,0.0,0.0,-0.005487676244229,-0.0024255849421024,0.6866579651832581,0.7269558310508728,0.0,0.0,0.0,0.0,-9.304109482854985e-09,0.0,-0.0020426912233233,-0.0056431889533996,0.999964475631714,0.0059154788032174,-3.491368222945099e-05,0.000130475908438,1.7704657666826858e-06,0.0017501711845397,0.0424878597259521,-0.0035409927368164,0,0,0,0
5.3,1788269534475,0.0,0.0,-0.0054955398663878,-0.0024215443991124,0.6866582632064819,0.7269555330276489,-7.8067787689336e-06,0.0004328939429443,-3.208745487892756e-07,-0.0001085766998585,0.0001456062163924,2.592876398921362e-06,-0.0020473888143897,-0.0056474274024367,0.999964475631714,0.0059154303744435,-0.0001033427785349,4.707699719082686e-05,5.897475982763668e-07,0.0012487173080444,-0.0106923580169677,-0.0159692764282226,0,0,0,0
5.4,1788269534575,0.0,0.0,-0.0054998486302793,-0.0024232072755694,0.6866582632064819,0.7269555330276489,0.0,0.0,0.0,-0.0001703187881503,6.97195137036033e-05,0.0,-0.0020484933629631,-0.0056521939113736,0.999964475631714,0.0059154108166694,-0.0001175061882448,-2.579319874471552e-06,1.0386929929664375e-07,-0.0136268138885498,-0.0053796172142028,0.0045175552368164,0,0,0,0
5.5,1788269534675,0.0,0.0,-0.0055031520314514,-0.0024264538660645,0.6866582632064819,0.7269554734230042,0.0,0.0,0.0,-0.0001542618410894,-3.071199216719833e-06,9.927108521878836e-07,-0.0020482912659645,-0.0056581096723675,0.999964475631714,0.0059154024347662,-0.0001301192830881,-5.8974938534209655e-06,-9.359954910585049e-08,0.0168730020523071,0.0235317945480346,-0.0001230239868164,0,0,0,0
5.6,1788269534775,0.0,0.0,-0.0055062263272702,-0.0024301900994032,0.6866582036018372,0.7269554138183594,0.0,0.0,0.0,0.0,0.0,0.0,-0.0020460309460759,-0.0056630447506904,0.9999643564224244,0.0059154015034437,-0.0001097040610361,-6.731970608759963e-05,-6.949438808970894e-07,-0.0034382343292236,-0.0122237801551818,-0.0020961761474609,0,0,0,0
5.7,1788269534875,0.0,0.0,-0.0055067231878638,-0.0024422775022685,0.6866582036018372,0.7269554138183594,-7.979470655114756e-06,0.0004424720478664,-3.095277641478512e-07,-0.0001773128606146,-0.0002558212145231,-1.3251230939204106e-06,-0.0020376378670334,-0.0056694587692618,0.9999643564224244,0.0059154322370886,-0.0001139652552782,-0.000178140631033,-1.9881845250973816e-06,-0.0117244124412536,0.0235829949378967,0.0321245193481445,0,0,0,0
5.8,1788269534975,0.0,0.0,-0.0055059408769011,-0.0024503376334905,0.6866582036018372,0.7269554138183594,0.0,0.0,0.0,-0.0001976099010789,-0.0002545331080909,-2.3718005195405567e-06,-0.0020311381667852,-0.0056752245873212,0.9999643564224244,0.0059154573827981,-0.0001317727977307,-0.000131788789575,-1.53496426017767e-06,0.0139145255088806,0.0060946941375732,-0.0075645446777343,0,0,0,0
5.9,1788269535075,0.0,0.0,-0.0055059408769011,-0.0024503376334905,0.6866582036018372,0.7269554138183594,0.0,0.0,0.0,0.0,-7.723015116312126e-09,0.0,-0.002026212401688,-0.0056852484121918,0.9999643564224244,0.0059154750779271,-0.0001704936741418,-5.539804771347839e-05,-8.380465246316033e-07,0.0054008364677429,0.0209166407585144,-0.0098848342895507,0,0,0,0
6.0,1788269535175,0.0,0.0,-0.0055059408769011,-0.0024503376334905,0.6866582036018372,0.7269554138183594,0.0,0.0,0.0,0.0,-9.299276904073396e-09,0.0,-0.0020229900255799,-0.005691347643733,0.9999642372131348,0.0059154815971851,-0.0001291627291598,-7.516619671352831e-05,-8.391791898121385e-07,-0.0056002736091613,0.0296872854232788,-0.00860595703125,0,0,0,0
6.1,1788269535275,0.0,0.0,-0.0055059408769011,-0.0024503376334905,0.6866582036018372,0.7269554138183594,0.0,0.0,0.0,0.0,-9.128124034418761e-09,0.0,-0.0020200787112116,-0.005693326704204,0.9999642372131348,0.0059154797345399,-5.453316570233695e-06,-6.978225298463588e-05,-2.692943602376247e-07,-0.0145978927612304,-0.0144223570823669,-9.441375732421876e-05,0,0,0,0
6.2,1788269535375,0.0,0.0,-0.0055059408769011,-0.0024503376334905,0.6866582036018372,0.7269554138183594,0.0,0.0,0.0,0.0,-9.311318827087687e-09,0.0,-0.0020187320187687,-0.0056893723085522,0.9999642372131348,0.0059154499322175,0.0001151971744487,-8.192901954266754e-06,8.068626198920241e-07,0.0197051763534545,-0.0102252960205078,0.0289974212646484,0,0,0,0
6.3,1788269535475,0.0,0.0,-0.0055059408769011,-0.0024503376334905,0.6866582036018372,0.7269554138183594,0.0,0.0,0.0,0.0,-7.691689951627723e-09,0.0,-0.0020178211852908,-0.005682909861207,0.9999643564224244,0.0059154201298952,0.0001595891369023,-7.15229365160405e-06,9.88509784164412e-07,0.0180688500404357,0.0179829597473144,0.0091514587402343,0,0,0,0
6.4,1788269535575,0.0,0.0,-0.0055059408769011,-0.0024503376334905,0.6866582036018372,0.7269554138183594,0.0,0.0,0.0,0.0,-9.342350892893592e-09,0.0,-0.002017737366259,-0.0056727724149823,0.9999643564224244,0.0059153782203793,0.0002072035998348,3.6995048650059407e-06,1.3678972338150885e-06,-0.028471291065216,0.010619580745697,0.0067653656005859,0,0,0,0
6.5,1788269535675,0.0,0.0,-0.0055059408769011,-0.0024503376334905,0.6866582036018372,0.7269554138183594,0.0,0.0,0.0,0.0,-9.317988158841216e-09,0.0,-0.0020187608897686,-0.0056625241413712,0.999964475631714,0.0059153223410248,0.0001675067975678,-1.627966068169422e-05,1.0008762295294118e-06,-0.0304696559906005,-0.0091395378112792,-0.0023412704467773,0,0,0,0
6.6,1788269535775,0.0,0.0,-0.0055059408769011,-0.0024503376334905,0.6866582036018372,0.7269554138183594,0.0,0.0,0.0,0.0,-9.341121653960728e-09,0.0,-0.0020176181569695,-0.0056555680930614,0.999964475631714,0.005915293470025,0.0001616928522956,-2.2872044991640985e-05,8.019308438922425e-07,0.0180280208587646,-0.0163788199424743,-0.009246826171875,0,0,0,0
6.7,1788269535875,0.0,0.0,-0.0054750591516494,-0.0024448172189295,0.686658501625061,0.7269554138183594,9.731791659953785e-07,-1.083587442622911e-06,-8.429682524094201e-09,0.0008011236786842,-0.0005249199457466,5.459105068439385e-06,-0.0020156987011432,-0.0056471554562449,0.999964475631714,0.0059152636677026,0.0001987653390863,-4.426181886815697e-05,8.411703279176155e-07,-0.018121063709259,0.0065087080001831,-0.0035581588745117,0,0,0,0
6.8,1788269535975,0.0,0.0,-0.005466335453093,-0.0024399983230978,0.6866584420204163,0.7269554734230042,0.0,0.0,0.0,0.0001867810206022,-5.7120581914205104e-05,-1.4544330042554066e-06,-0.0020112860947847,-0.0056332005187869,0.9999645948410034,0.0059152320027351,0.000232543422687,-0.0001039908244607,2.756485644138231e-07,-0.0114297270774841,0.0170214176177978,0.0024671554565429,0,0,0,0
6.9,1788269536075,0.0,0.0,-0.0054582105949521,-0.0024376213550567,0.686658501625061,0.7269555926322937,0.0,0.0,0.0,9.299195517087357e-05,-6.166565435705706e-05,-2.3835734737076564e-06,-0.0020060110837221,-0.0056272977963089,0.9999645948410034,0.0059152282774448,9.394709534990838e-05,-0.0001359549192533,-7.095766872384774e-07,-0.0208542346954345,-0.0270044803619384,0.0003347396850585,0,0,0,0
7.0,1788269536175,0.0,0.0,-0.0054501788690686,-0.0024416586384177,0.6866585612297058,0.7269555330276489,5.747603985352728e-06,-0.000318603433859,-2.306274111540815e-07,-4.718694526673062e-06,-9.836204844759776e-05,-1.908350441226503e-06,-0.002000281587243,-0.0056270724162459,0.999964714050293,0.0059152385219931,-1.559537185443307e-05,-0.0001020748304243,-7.342202276472014e-07,0.011625587940216,-0.0084036588668823,0.0065212249755859,0,0,0,0
7.1,1788269536275,0.0,0.0,-0.0054495641961693,-0.002445547375828,0.6866585612297058,0.7269555330276489,-5.263299399708008e-06,0.0002917557943757,2.115324691595111e-07,-5.485638030222617e-05,-5.3409195970743895e-05,0.0,-0.0019976664334535,-0.0056300964206457,0.999964714050293,0.0059152292087674,-8.056078672507526e-05,5.371759099932289e-06,2.4911851176789624e-07,0.0124973058700561,-0.0005738735198974,0.0007123947143554,0,0,0,0
7.2,1788269536375,0.0,0.0,-0.0054533760994672,-0.0024474652018398,0.6866585612297058,0.7269555330276489,8.55619615844661e-06,-0.0004742856521413,-3.478996151500073e-07,-8.274517313111573e-05,3.171537900925614e-05,0.0,-0.0019997460767626,-0.0056352633982896,0.999964714050293,0.0059152049943804,-0.000130696800313,6.230317331373419e-05,7.145775038141593e-07,-0.0140239596366882,-0.0073499679565429,0.0130290985107421,0,0,0,0
7.3,1788269536475,0.0,0.0,-0.0054601361043751,-0.002449051477015,0.686658501625061,0.7269554138183594,0.0,0.0,0.0,-9.248156857211144e-05,6.111796392360702e-05,1.0841323501153963e-06,-0.00200489256531,-0.0056424550712108,0.9999645948410034,0.0059151668101549,-0.0001688053821717,0.0001401088046108,1.4505293619665207e-06,0.0153765082359313,0.0127542614936828,-0.0064640045166015,0,0,0,0
7.4,1788269536575,0.0,0.0,-0.0054601361043751,-0.002449051477015,0.686658501625061,0.7269554138183594,0.0,0.0,0.0,0.0,-6.6564500578181204e-09,0.0,-0.0020127510651946,-0.0056507708504796,0.9999645948410034,0.0059151099994778,-0.0001580559932382,0.0001418834292813,1.461417725638503e-06,-0.0005162358283996,0.0453196763992309,-0.0053186416625976,0,0,0,0
7.5,1788269536675,0.0,0.0,-0.0054601361043751,-0.002449051477015,0.686658501625061,0.7269554138183594,0.0,0.0,0.0,0.0,-7.537486190756226e-09,0.0,-0.0020202063024044,-0.0056568197906017,0.999964475631714,0.0059150569140911,-0.0001423113047767,0.0001923112276102,2.1583642908677846e-06,-0.0163968801498413,-0.0124216675758361,0.0294141769409179,0,0,0,0
7.6,1788269536775,0.0,0.0,-0.0054601361043751,-0.002449051477015,0.686658501625061,0.7269554138183594,0.0,0.0,0.0,0.0,-9.2922753935909e-09,0.0,-0.0020287735387682,-0.0056627476587891,0.999964475631714,0.0059149982407689,-0.0001251058091008,0.0001753193445432,1.9914062669108422e-06,0.0107895731925964,-0.0013484358787536,-0.0119705200195312,0,0,0,0
7.7,1788269536875,0.0,0.0,-0.0054601361043751,-0.002449051477015,0.686658501625061,0.7269554138183594,0.0,0.0,0.0,0.0,-9.314374160851456e-09,0.0,-0.0020358664914965,-0.0056689549237489,0.9999643564224244,0.0059149470180273,-0.0001484098211889,0.0001527476554181,1.6917258172555155e-06,0.0233341455459594,0.0097283720970153,-0.0082082748413085,0,0,0,0
7.8,1788269536975,0.0,0.0,-0.0054601361043751,-0.002449051477015,0.686658501625061,0.7269554138183594,0.0,0.0,0.0,0.0,-9.43473210668344e-09,0.0,-0.0020420076325535,-0.0056782430037856,0.9999643564224244,0.0059149004518985,-0.0001798729942404,8.319946892666307e-05,7.795277724628008e-07,-0.0218831300735473,-0.0023165941238403,-0.0190162658691406,0,0,0,0
7.9,1788269537075,0.0,0.0,-0.0054601361043751,-0.002449051477015,0.686658501625061,0.7269554138183594,0.0,0.0,0.0,0.0,-1.1236726216168336e-08,0.0,-0.0020457869395613,-0.005685874260962,0.9999642372131348,0.0059148706495761,-0.0001416180812276,6.697438426516095e-05,7.140028616264156e-07,0.0049246549606323,-0.0295051932334899,-0.014923095703125,0,0,0,0
8.0,1788269537175,0.0,0.0,-0.0054601361043751,-0.002449051477015,0.686658501625061,0.7269554138183594,0.0,0.0,0.0,0.0,-9.334586437148572e-09,0.0,-0.0020504370331764,-0.0056902263313531,0.9999642372131348,0.0059148231521248,5.096425376171315e-06,8.813909468863735e-05,1.548287050292647e-06,0.0015599727630615,0.0195755958557128,-0.008528709411621,0,0,0,0
8.1,1788269537275,0.0,0.0,-0.0054601361043751,-0.002449051477015,0.686658501625061,0.7269554138183594,0.0,0.0,0.0,0.0,-9.319950144970336e-09,0.0,-0.0020529180765151,-0.0056870523840188,0.9999642372131348,0.0059147793799638,9.08350096646995e-05,4.122941524739946e-05,1.3340403029071036e-06,-0.0113500952720642,0.0350306034088134,-0.0011587142944335,0,0,0,0
8.2,1788269537375,0.0,0.0,-0.0054601361043751,-0.002449051477015,0.686658501625061,0.7269554138183594,0.0,0.0,0.0,0.0,-6.717013167900632e-09,0.0,-0.0020528035238385,-0.0056782262399792,0.9999642372131348,0.0059147402644157,0.0002305141988514,-2.16300983293367e-05,1.122795296349416e-06,-0.0082846879959106,0.0012723803520202,0.0017919540405273,0,0,0,0
8.3,1788269537475,0.0,0.0,-0.0054601361043751,-0.002449051477015,0.686658501625061,0.7269554138183594,0.0,0.0,0.0,0.0,-1.1646053899028176e-08,0.0,-0.002049908041954,-0.0056562703102827,0.9999643564224244,0.0059146834537386,0.0004302744045612,-8.329845876645609e-05,1.2735672621157312e-06,0.0019384026527404,-0.0166614055633544,0.0002470016479492,0,0,0,0
8.4,1788269537575,0.0,0.0,-0.0054601361043751,-0.002449051477015,0.686658501625061,0.7269554138183594,0.0,0.0,0.0,0.0,-9.304332415638328e-09,0.0,-0.0020459312945604,-0.0056379670277237,0.999964475631714,0.0059146480634808,0.0003840069530391,-7.511062130097283e-05,1.1798334896262948e-06,0.0216062664985656,0.0171887874603271,0.0157632827758789,0,0,0,0
8.5,1788269537675,0.0,0.0,-0.0054601361043751,-0.002449051477015,0.686658501625061,0.7269554138183594,0.0,0.0,0.0,0.0,-9.311446724780126e-09,0.0,-0.0020425748080015,-0.0056212712079286,0.9999645948410034,0.005914612673223,0.0003355343312433,-5.2884995105829366e-05,1.243721024662633e-06,-0.0193689465522766,0.0193914175033569,0.0016326904296875,0,0,0,0
8.6,1788269537775,0.0,0.0,-0.0054601361043751,-0.002449051477015,0.686658501625061,0.7269554138183594,0.0,0.0,0.0,0.0,-9.37312893967146e-09,0.0,-0.0020420085638761,-0.0056014070287346,0.999964714050293,0.0059145465493202,0.0003292212535556,8.277109773794584e-06,1.9567332313587945e-06,0.0007358193397521,-0.0205298662185668,0.0154628753662109,0,0,0,0
8.7,1788269537875,0.0,0.0,-0.0054601361043751,-0.002449051477015,0.686658501625061,0.7269554138183594,0.0,0.0,0.0,0.0,-7.801442158950067e-09,0.0,-0.0020439056679606,-0.0055896006524562,0.9999648332595824,0.0059144897386431,0.0002459082453558,5.75267122645095e-05,2.139963879471534e-06,0.0100799202919006,0.0033389329910278,0.0140857696533203,0,0,0,0
8.8,1788269537975,0.0,1.5492957830429075,-0.0054601361043751,-0.002449051477015,0.686658501625061,0.7269554138183594,0.0,0.0,0.0,0.0,-9.318964266924468e-09,0.0,-0.0020340280607342,-0.0055823875591158,0.9999648332595824,0.0059089316055178,0.0002109506850302,-0.0007462983166305,0.0003660158430454,-0.0104087591171264,0.0315155982971191,0.0409164428710937,53,151,3226,5220
8.9,1788269538075,1.6619718074798584,2.9577465057373047,-0.0052656773477792,-0.0025872455444186,0.687332034111023,0.7263197898864746,0.0045739528749666,-0.0022972638234779,-1.8699424717205734e-07,0.0017897858051583,-0.0095892716199159,0.037073079496622,-0.0017207078635692,-0.0055668177083134,0.999980926513672,0.0020543290302157,-0.0028478725298672,0.0113328663406636,0.1293888643259239,0.5832195281982422,0.1126521229743957,0.4383821487426758,149,243,10761,13543
9.0,1788269538175,4.056337833404541,6.394366264343262,-0.0054745310917496,-0.0024084229953587,0.6981942057609558,0.7158833742141724,0.1318315507870882,0.0050561073453558,-1.6011996035783294e-05,-0.0153574114665389,0.0269677620381116,0.25322425365448,0.0024353908374905,0.0057623134925961,-0.9998950958251952,0.0130704781040549,-0.0142924781131738,0.0532425155521168,0.2694733574465163,0.574365496635437,0.0068575143814086,-1.1753921508789062,118,200,14033,20448
9.1,1788269538275,4.197183132171631,6.422535419464111,-0.0060025979764759,-0.0023275515995919,0.7125769257545471,0.7015644311904907,0.180643883261591,0.0130523136044606,9.059989821383858e-05,-0.0022655122447758,-0.0075250482186675,0.3999692797660827,0.0026578912511467,0.0059269629418849,-0.99951171875,0.0305626988410949,-0.0045765151291978,0.0340864350723699,0.402468374611412,-0.2388944029808044,0.1574416160583496,0.4481849670410156,54,64,11819,17869
9.2,1788269538375,4.197183132171631,5.88732385635376,-0.0059948405250906,-0.002423922996968,0.7259823679924011,0.6876829862594604,0.1746211952636807,0.0189598917317725,5.20122106637231e-05,0.001833327463828,0.001615117304027,0.3727520704269409,0.002230767160654,0.0059357853606343,-0.9985678791999816,0.0531218685209751,0.0072710191891622,-0.0145314430264273,0.3363096247488623,0.1367985606193542,-0.1581556797027588,0.0260820388793945,113,66,14044,16830
9.3,1788269538475,2.901408433914185,3.859154939651489,-0.0059740953147411,-0.0024506745394319,0.734110414981842,0.6789994239807129,0.1536558939834551,5.442162503305829e-06,5.51135038113196e-05,-0.0005485143628902,-0.0070041818544268,0.1743242293596267,0.0022287098690867,0.0060379756614565,-0.9980538487434388,0.0620248839259147,-0.001978017642155,-0.0024375947009473,0.1156499229402712,-0.8525950312614441,-0.3084586858749389,0.1646442413330078,7,53,6526,7196
9.4,1788269538575,1.0985915660858154,1.1267606019973757,-0.0060357451438903,-0.0026347765233367,0.7353286743164062,0.677678644657135,0.114226027003688,-0.0023080058072995,1.655450359552073e-05,-0.0094113983213901,-0.0046697100624442,0.0929084345698356,0.0021918108686804,0.0063666859641671,-0.9978320002555848,0.0654675066471099,-0.0051682354140346,0.0022834444581454,0.062039613756784,-0.8651227951049805,-0.2231962084770202,0.1741857528686523,31,42,2811,3205
9.5,1788269538675,0.0,0.0,-0.0060890037566423,-0.0027760253287851,0.7378807663917542,0.6748979091644287,-0.0112775126226798,0.0005197454700153,-3.5634274623523817e-06,0.0007952252053655,-0.0053816931322216,0.0201631039381027,0.0020415307953953,0.006326325237751,-0.997711181640625,0.0672917366027832,0.000151067414518,-0.0019472843565344,-0.0063177538430546,0.1203442811965942,-0.0635913610458374,0.1129045486450195,4,0,0,0
9.6,1788269538775,0.0,0.0,-0.0060530924238264,-0.0028151399455964,0.7377429008483887,0.6750487685203552,0.000110970918971,3.63062826003483e-05,-1.9080607721916597e-07,-0.0001673182850936,-0.0021126589272171,-0.0083740493282675,0.0020884731784462,0.0063224490731954,-0.9977477192878724,0.0667468756437301,0.0002532484098446,0.0001113814146939,0.0022006502054997,-0.0275726914405822,0.0139024257659912,0.06048583984375,0,0,0,0
9.7,1788269538875,0.0,0.0,-0.0059755882248282,-0.0028437573928385,0.7377059459686279,0.6750897169113159,0.0002097423050326,0.0002251525184478,-3.0832987227717297e-07,0.0012502152239903,-0.0030370021704584,-0.0022164809051901,0.0020658625289797,0.0062640281394124,-0.9977385997772216,0.0668899342417717,0.0012875677442488,-0.0005822084586146,0.0040371428423037,0.0259780883789062,-0.021141231060028,0.0318107604980468,0,0,0,0
9.8,1788269538975,0.0,0.0,-0.0059269228950142,-0.00286001781933,0.737804114818573,0.6749827861785889,0.0002806978724089,-0.0003269684420028,3.28897552407374e-07,2.2273608919931576e-05,-0.0015257697086781,0.0032440642826259,0.0020200833678245,0.0062452023848891,-0.9977387189865112,0.0668911784887313,0.0008151813771557,-0.0001788447639465,-0.004173518390489,0.0160354375839233,-0.0250918865203857,0.0389080047607421,1,0,0,0
9.9,1788269539075,0.0,0.0,-0.0059451726265251,-0.002808355493471,0.7377883195877075,0.6750001311302185,9.666721331979808e-05,-0.0001119746728617,1.0681547980020993e-07,0.0004433957510627,0.0019044411601498,0.0011423076502978,0.0020668013021349,0.0062355305999517,-0.9977330565452576,0.0669746696949005,-8.570221627212404e-05,-0.0009531130043105,0.0036300361850553,0.0026098489761352,0.0034290552139282,0.033639907836914,0,0,0,0
10.0,1788269539175,0.0,0.0,-0.0059777991846203,-0.0027684725355356,0.7377309799194336,0.6750626564025879,-0.0001779458186661,0.0002072897353057,-1.8680284498422176e-07,0.0005836344207637,0.0016983427340164,-0.002048582304269,0.0021290779113769,0.0062342230230569,-0.9977403283119202,0.0668644905090332,0.0011677055460613,0.0018992782128707,0.0018825273872215,-0.012479543685913,-0.0111929178237915,0.0549993515014648,0,0,0,0
10.1,1788269539275,0.0,0.0,-0.0060031479224562,-0.0027676471509039,0.7377384305000305,0.6750542521476746,-0.0002825716235555,0.0003289311964098,-4.227197776155364e-07,-0.0006803910946473,0.0001957364729605,-0.0032826447859406,0.0021520890295505,0.0062528811395168,-0.9977406859397888,0.0668562874197959,-5.432422461300517e-05,0.0011629879215715,-0.0028642374523181,-0.0322040319442749,-0.0135073661804199,0.0048427581787109,0,0,0,0
10.2,1788269539375,0.0,0.0,-0.005992651451379,-0.0027751820161938,0.7377887964248657,0.674999475479126,0.000187108689282,-0.000217148085678,1.3198901226769716e-08,-1.0646785995049868e-05,-0.0005138600827194,0.0021571821998804,0.0021344888955354,0.0062495982274413,-0.9977344870567322,0.0669502690434455,-0.0009338839646066,0.0002512062712435,-0.0005380900897669,-0.0029179453849792,-0.0014052987098693,-0.0110225677490234,0,0,0,0
10.3,1788269539475,1.154929518699646,1.887323975563049,-0.0058959992602467,-0.0028725299052894,0.7385312914848328,0.6741873025894165,0.006128308703041,-0.0023186268741704,7.563376368233262e-07,-0.0002047620655503,-0.0055893887765705,0.0386059507727623,0.0019815266132354,0.0062642749398946,-0.9976657629013062,0.0679702088236808,-0.0013046560909842,-0.0127154592158247,0.066588970336253,1.8542479276657104,0.1525927186012268,0.1103448867797851,105,304,8105,11345
10.4,1788269539575,3.577464818954468,4.8450703620910645,-0.00603814329952,-0.0027688099071383,0.7435951232910156,0.6685971021652222,0.1185573713939122,0.0036168800951464,6.578926937240503e-07,-0.0018829390173777,0.0014217633288353,0.157966136932373,0.0021303808316588,0.0061468463391065,-0.99696284532547,0.0776065737009048,0.0086940928833947,-0.0026468733866186,0.1932641038848339,0.7265729308128357,0.0982125401496887,-0.4948701858520508,143,187,12932,16677
10.5,1788269539675,5.014084339141846,5.802816867828369,-0.0063635716214776,-0.0018033462110906,0.751775324344635,0.659386157989502,0.1905624115549036,-0.0016221780878727,7.053966451465809e-05,-0.0014184112660586,0.0001112158206524,0.2515393197536468,0.0030758623033761,0.0057493951171636,-0.9960058927536012,0.0890488028526306,0.009747914590393,0.0182497947109658,0.2422690313564926,-0.0524120330810546,-0.1772271990776062,0.2116012573242187,134,62,16262,16268
10.6,1788269539775,4.704225540161133,5.746479034423828,-0.0062204310670495,-0.00172158353962,0.757936418056488,0.6522964835166931,0.1794823827392148,0.0049997533202373,3.109182377273181e-05,0.001492096344009,-0.0130893057212233,0.1945134848356247,0.002530007623136,0.0055375574156641,-0.994851529598236,0.1011603102087974,0.0003425411900853,-0.0290124407951224,0.199719673250102,-0.0150523781776428,-0.0832917094230651,-0.1629352569580078,70,38,13916,15715
10.7,1788269539875,4.14084529876709,5.943662166595459,-0.0059797721914947,-0.0015685781836509,0.763719379901886,0.6455188393592834,0.1829475352232615,-0.0008083234339265,-3.859387694407104e-06,-0.0020923528354614,-0.0027094292454421,0.1333267837762832,0.0027739303186535,0.0051568709313869,-0.9941854476928712,0.1075225323438644,0.0204004276519857,-0.01989317197499,0.1395168812900668,-0.1750937104225158,-0.021550178527832,0.3430490493774414,57,63,13408,16876
10.8,1788269539975,4.02816915512085,6.11267614364624,-0.0053679156117141,-0.0017102423589676,0.770912766456604,0.6369158029556274,0.1669172803959052,0.0022086986154961,5.344834829771372e-05,0.0029207123443484,-0.0059351394884288,0.2488462924957275,0.0025068204849958,0.005006430670619,-0.9929784536361694,0.1181628853082656,0.0175929449682432,0.0142263586924091,0.3017716375856024,0.0004846453666687,-0.2208324670791626,-0.3488531112670898,75,92,13113,17089
10.9,1788269540075,4.478873252868652,5.577464580535889,-0.0053507173433899,-0.0011801144573837,0.7787980437278748,0.6272507905960083,0.1774113762866591,-0.0006982769655897,-7.947260993402257e-05,0.0052260067313909,0.0143746770918369,0.2452478110790252,0.0027234423905611,0.0046342816203832,-0.991162359714508,0.1325453370809555,0.0014912255723893,-0.0092054532882543,0.1977705382841423,-0.0109256505966186,-0.0442232489585876,1.1341524124145508,67,68,14760,16061
11.0,1788269540175,4.056337833404541,5.97183084487915,-0.0045915194787085,-0.0012411300558596,0.7852404117584229,0.6191726922988892,0.1731396545961252,0.0027997048102845,6.109400289533391e-05,0.0096317995339632,-0.0157618969678878,0.1876455694437027,0.0019615162163972,0.0040883477777242,-0.9899914264678956,0.1410545110702514,0.0181101646379271,-0.0476983819693906,0.218579910189623,-0.2148348093032837,-0.1855135560035705,0.7852764129638672,40,78,13223,17110
11.1,1788269540275,4.14084529876709,6.0,-0.0050380467437207,-0.0014750270638614,0.7922107577323914,0.6102250218391418,0.1798842863800605,-0.0008564758398528,2.872274161483666e-05,-0.0061575584113597,0.0076941256411373,0.2540446817874908,0.002512096427381,0.0046505844220519,-0.9883331656455994,0.1522155404090881,0.0037874233749756,0.0402729912261982,0.2908610076909101,-0.0769163966178894,0.0374596714973449,-0.5612430572509766,82,96,12556,16925
11.2,1788269540375,4.02816915512085,5.85915470123291,-0.0052390578202903,-0.0011712613049894,0.8009037375450134,0.5987691879272461,0.169848085125734,0.0007971331853013,6.753473428194424e-05,-0.0017966135637834,0.0051013007760047,0.2766459286212921,0.0026180893182754,0.0045329742133617,-0.98628169298172,0.1649880558252334,-0.0086239480735542,0.0129126159722821,0.2775940340245665,0.0256231427192688,0.3147360682487488,-0.1258001327514648,117,62,14932,15678
11.3,1788269540475,4.873239517211914,5.605633735656738,-0.005254088435322,0.0015990079846233,0.8094592690467834,0.5871503353118896,0.1814250883897019,-0.0068711289482726,-0.0002696946361423,0.0486270487308502,0.0439158454537391,0.2613646388053894,0.0053630881011486,0.0034212097525596,-0.9835609793663024,0.1804640442132949,-0.0473317879685625,0.0408893881981544,0.1236148283844449,0.1820028424263,0.5036962032318115,-0.1556806564331054,161,63,15764,15848
11.4,1788269540575,4.11267614364624,5.915493011474609,-0.0057419687509536,-0.0007564327679574,0.813281238079071,0.5818419456481934,0.1826323329157559,-0.0021230730846969,6.660829189141143e-05,-0.0162489600479602,-0.0145938759669661,0.1458646804094314,0.0034206081181764,0.0046735238283872,-0.9825526475906372,0.1858946681022644,-0.0008230390814435,0.0114028898259194,0.2098965617240131,-0.2411521673202514,0.4819597005844116,0.8886604309082031,64,81,12206,17151
11.5,1788269540675,3.9718310832977295,5.915493011474609,-0.0058062565512955,-0.0005544477608054,0.82084721326828,0.5711181163787842,0.1682432951387389,0.0042335693416685,3.526126837401072e-05,0.0046259867958724,-0.0091739194467663,0.3050623536109924,0.0036736391484737,0.004577356390655,-0.9791772961616516,0.2029218971729278,-0.0015476850156516,0.0003354560217511,0.3370336618418921,0.1867676973342895,-0.0920720696449279,-0.3306474685668945,41,81,13063,17467
11.6,1788269540775,4.450704097747803,5.549295902252197,-0.0059777656570076,-0.0004210914485156,0.8288360834121704,0.5594595670700073,0.1650851051939793,0.0065973007700633,-3.22631343498369e-05,0.0004794936685357,-0.0016553681343793,0.258370578289032,0.0037461007013916,0.0045639406889677,-0.9767199158668518,0.2144372016191482,9.012969976123304e-05,-0.022966741894735,0.2275095659943172,0.2480860948562622,-0.1100150942802429,-0.3070545196533203,91,56,14663,15611
11.7,1788269540875,4.563380241394043,5.464788913726807,-0.0056711412034928,-9.32102557271719e-05,0.8334189653396606,0.5526125431060791,0.1732776205237484,0.0005601368265163,-2.86987016544744e-05,0.0120147718116641,-0.0022052559070289,0.1570744663476944,0.003939832560718,0.0041529098525643,-0.975142240524292,0.2215057611465454,0.0123825873172023,-0.0103178435474387,0.162783734598803,-0.1644033193588256,0.2369784712791443,0.607213020324707,65,65,14383,15877
11.8,1788269540975,4.0,5.97183084487915,-0.0054381429217755,-0.0001919451169669,0.838581919670105,0.5447481870651245,0.1797339314260728,0.0012007036092657,-7.223148109240462e-05,-0.0023130988702178,-0.0043159476481378,0.1683051884174347,0.0037828003987669,0.0040793726220726,-0.9726908802986144,0.232037678360939,0.0026760460184076,-0.0024740956111198,0.2171245825875803,-0.0515394806861877,-0.0155516266822814,-1.0050735473632812,32,80,12967,16924
11.9,1788269541075,4.11267614364624,5.97183084487915,-0.0056669120676815,0.0002262601628899,0.8443153500556946,0.535816490650177,0.1682157667545445,0.0028881204872185,-1.056323386477246e-05,0.0065877055749297,0.0199224054813385,0.2765734195709228,0.0034804325550794,0.0035677794367074,-0.969664990901947,0.2443868517875671,0.0133310389639164,-0.0471719384196462,0.3024777449521375,0.1695659756660461,0.2758828997611999,0.1352643966674804,63,84,13674,16970
12.0,1788269541175,4.478873252868652,5.549295902252197,-0.0045803245157003,-0.0003077064175158,0.8518013954162598,0.5238447785377502,0.1790830222796279,-0.0030427708806045,-3.105250407450923e-06,0.0011242660693824,-0.0074691977351903,0.2330707162618637,0.0028408132493495,0.0035231634974479,-0.9670105576515198,0.2546960413455963,-0.0090100675583761,-0.0271092979698366,0.2496684057060733,0.2304351925849914,0.3405009508132934,0.6012639999389648,60,63,15300,15710
12.1,1788269541275,4.507042407989502,5.492957592010498,-0.0036318297497928,-0.0007014111615717,0.8559919595718384,0.5169758796691895,0.173457191195447,0.0019455243924974,0.00013485906759,0.0091401385143399,-0.031150747090578,0.1563746482133865,0.0021536853164434,0.0032917317003011,-0.964593470096588,0.2637118101119995,-0.0094280025500437,0.0125657773277931,0.1467257725478844,-0.0167122483253479,0.2883636355400085,-0.6183767318725586,76,64,14721,15890
12.2,1788269541375,4.563380241394043,5.521126747131348,-0.0041927276179194,-0.0012699408689513,0.8586352467536926,0.5125682950019836,0.1751846960671286,0.0011650077951901,8.217272114019156e-06,-0.0163795612752437,-0.000281354150502,0.0974023342132568,0.0019288277253508,0.0040824115276336,-0.963334619998932,0.2682650685310364,-0.017451749959828,-0.0028921658385847,0.1315561363713942,0.0513147115707397,0.1662132143974304,0.3528699874877929,72,99,14201,16873
12.3,1788269541475,4.253520965576172,5.915493011474609,-0.0050912271253764,-0.001545152394101,0.8637653589248657,0.5038659572601318,0.1798843664397056,0.0005798336923357,-3.5285222652263283e-05,-0.0136768762022256,0.0127441491931676,0.2160791754722595,0.0028326818719506,0.0047919657081365,-0.9604734182357788,0.2783162593841553,-0.0053033119908809,0.0609067132538098,0.2353634537770431,-0.1677750349044799,-0.3845285177230835,0.3476982116699219,38,110,13178,17419
12.4,1788269541575,4.253520965576172,5.88732385635376,-0.0051305582746863,-0.0017833749298006,0.8699774742126465,0.4930614233016968,0.180962547325949,-0.0008453756443446,0.0001055541570305,-0.0032294918783009,-0.0192285887897014,0.2366753220558166,0.0022836728021502,0.00497433450073,-0.9573014378547668,0.2890398204326629,-0.007125887410636,-0.002110143263412,0.2435092921838055,0.0494246482849121,0.2402870655059814,0.1630048751831054,42,126,12402,17619
12.5,1788269541675,4.14084529876709,5.915493011474609,-0.0052510728128254,-0.0023409188725054,0.8758394718170166,0.4825683832168579,0.1812217103442619,-0.0005828402190574,-1.086627422200999e-05,-0.0134593425318598,-0.0088157095015048,0.2525671720504761,0.0016665486618876,0.0056092627346515,-0.9529110789299012,0.3031936883926391,-0.0187487823934679,-0.0142807005192671,0.2435053164575419,-0.0991355180740356,-0.0934510231018066,-0.1258096694946289,47,96,12077,17327
12.6,1788269541775,4.084506988525391,5.97183084487915,-0.005277563817799,-0.0026466317940503,0.881769597530365,0.4716435372829437,0.1709112022436589,0.001143184686542,1.794364342723587e-06,-0.0012639431515708,-0.0005145467002876,0.2825113236904144,0.0017236117273569,0.0055522006005048,-0.9490031003952026,0.3152132034301758,0.0031739913291817,0.0004709572723451,0.3140268956409391,0.0159765481948852,-0.086296796798706,-0.4376125335693359,52,99,12943,17409
12.7,1788269541875,3.802816867828369,5.830986022949219,-0.0056262211874127,-0.0013483006041496,0.8897145986557007,0.456480473279953,0.1611426524795639,0.0079069034342049,-0.0001154749024573,0.0274568833410739,0.0336481779813766,0.3290366530418396,0.0032132770866155,0.0048710405826568,-0.9442952275276184,0.3290477693080902,0.0588220587752297,0.0418415896133515,0.3796106373096493,0.0839338898658752,-0.2125148177146911,0.4151010513305664,120,97,13791,17424
12.8,1788269541975,4.535211086273193,5.97183084487915,-0.0052524264901876,-0.0020553758367896,0.8961113691329956,0.4437934458255768,0.192896143422481,0.0062417871704582,8.353611325729624e-05,-0.0651740282773971,-0.07337237149477,0.2148831486701965,0.0023941956460475,0.0052730785682797,-0.940034031867981,0.341031551361084,-0.0922563386653261,-0.1121942292455235,0.1959098910505135,0.4319777488708496,0.0284106731414794,-0.2475318908691406,48,24,13818,14830
12.9,1788269542075,4.056337833404541,6.0,-0.0049954550340771,-0.0023204535245895,0.9013106226921082,0.4331382215023041,0.1754597954652174,0.0018137004333662,-3.1247388108036575e-05,0.0102941002696752,0.0070004244334995,0.2751780748367309,0.0016563022509217,0.0051520215347409,-0.9349967241287231,0.3546150326728821,0.0038092445476991,-0.0215718722943447,0.2552765413654121,0.0747361779212951,-0.4232044816017151,1.126591682434082,74,77,13570,16801
13.0,1788269542175,4.169013977050781,5.943662166595459,-0.0042450847104191,-0.0022778487764298,0.9072378873825072,0.4205904304981231,0.1611664444432368,0.0089851264176317,7.825817584192393e-05,0.0067009134218096,-0.0175457336008548,0.2456087470054626,0.001187109388411,0.0046107210218906,-0.9310966730117798,0.3647415339946747,0.0089489635476474,-0.0306386046631151,0.2582289379477884,0.1001145839691162,0.0782549381256103,0.0543766021728515,63,67,12825,17081
13.1,1788269542275,4.02816915512085,5.85915470123291,-0.0040397145785391,-0.0018566903891041,0.9117163419723512,0.4107962250709533,0.1700744561824291,-0.0015152850366359,2.6927610111114995e-05,0.0149818053469061,0.0007141032256186,0.2689419686794281,0.0019869431853294,0.0042107524350285,-0.9251881837844848,0.3794800043106079,0.0094766665755942,0.0292405841477208,0.2536444646061618,-0.257463276386261,-0.1700140237808227,0.4061460494995117,84,86,13823,16944
13.2,1788269542375,4.2253522872924805,5.915493011474609,-0.0035584215074777,-0.0012411570642143,0.9174031019210817,0.3979414403438568,0.175085217052193,0.002410885328786,0.0001223087568765,0.0129076903685927,-0.0161364581435918,0.2575303316116333,0.0018797358497977,0.0036675911396741,-0.9208486676216124,0.3898983895778656,-0.0169866931245171,0.0555413996126002,0.2355600225140012,-0.1519384384155273,-0.1587995886802673,-1.0336666107177734,85,70,13777,16651
13.3,1788269542475,4.11267614364624,5.88732385635376,-0.0023134411312639,-0.0017969293985515,0.9216790199279784,0.3879423141479492,0.1651349006756855,0.0064171928959289,6.144154740792084e-05,0.0042979349382221,-0.0400184020400047,0.238854169845581,0.0003925636410713,0.0029439823701977,-0.9167405962944032,0.3994720876216888,0.0110306823479356,-0.0379635882283784,0.2623994360919323,0.3124681711196899,0.1516435146331787,-0.5149698257446289,95,100,13674,17150
13.4,1788269542575,4.3380279541015625,5.85915470123291,-0.0027941048610955,-0.0014680265448987,0.9263532757759094,0.3766425251960754,0.17018056256921,0.0048854479471644,-0.0001059745192764,0.0011462286347523,0.0045507061295211,0.2621588110923767,0.0008998000994324,0.0031728520989418,-0.910521686077118,0.4134482741355896,-0.0093651075526073,0.0206096986089166,0.2459631581382109,0.0959570407867431,-0.0457385182380676,0.403757095336914,89,88,13302,17451
13.5,1788269542675,4.2816901206970215,6.02816915512085,-0.002401189180091,-0.0015589846298098,0.9312836527824402,0.3642838895320892,0.1844897513698215,-0.0014688311762141,6.057077040988277e-05,-0.0050403499044477,-0.0152778206393122,0.2825738191604614,6.722286343574524e-05,0.002565118484199,-0.9053774476051332,0.4246000349521637,0.0074186519265387,-0.0469399104292484,0.2535979642070597,-0.2043903470039367,-0.2071216702461242,0.2554054260253906,59,68,13675,16930
13.6,1788269542775,4.478873252868652,5.97183084487915,-0.0023368599358946,-0.0014590616337954,0.9364030361175536,0.3509155213832855,0.171817821175471,0.0037395592515615,-4.8558929916144056e-06,0.0053124972619116,0.0027643581852316,0.2547397017478943,0.0005846889689564,0.0026513487100601,-0.9003366231918335,0.4351858794689178,0.0180304403209867,0.010818345478464,0.2694091846973852,0.0622473955154418,-0.0903816819190979,-1.459345817565918,116,45,15885,15212
13.7,1788269542875,4.704225540161133,5.577464580535889,-0.0012778958771377,-0.002034445060417,0.940490186214447,0.3398125469684601,0.1607889762623063,0.0074859961494375,3.064253200727733e-05,-0.0037372512742877,-0.0338463261723518,0.1985427737236023,-0.0009123310446739,0.0023310678079724,-0.8945654630661011,0.4469299018383026,-0.01338278298423,-0.0354774699467392,0.1689316851201545,-0.0582730770111084,-0.1749922037124633,-0.1798934936523437,39,57,14652,15790
13.8,1788269542975,4.450704097747803,5.492957592010498,-0.0011726911179721,-0.002143682911992,0.9428544640541076,0.3331958055496216,0.1762818434825992,-0.0012058800901954,1.8311346067535463e-05,5.960998532827944e-05,-0.0024343207478523,0.1529504805803299,-0.0007256641983985,0.0022666500881314,-0.8915799856185913,0.452856957912445,0.0068119271401452,0.0022159413632979,0.1322216664230341,-0.0450379848480224,-0.0358887910842895,-0.6907482147216797,95,67,14557,15855
13.9,1788269543075,4.816901206970215,5.605633735656738,-0.0004077259800396,-0.002404652768746,0.9450700283050536,0.3268589079380035,0.1727107156472448,-0.0006444090500965,3.390365924143949e-05,0.0017034780466929,-0.0115737067535519,0.1210179701447486,-0.0015198420733213,0.0019396692514419,-0.8891274333000183,0.4576531052589416,-0.0067757060953,-0.0201587868622247,0.1401340230578081,0.1600249409675598,0.2924773097038269,-0.1949644088745117,54,84,14476,16132
14.0,1788269543175,5.802816867828369,4.647887229919434,-0.0003697567735798,-0.0030292693991214,0.946114182472229,0.3238188624382019,0.1948979432041684,0.0002191806691099,9.217483272575024e-05,-0.0078356582671403,-0.0037545254454016,0.0040319105610251,-0.0020257867872714,0.002383230254054,-0.8885143995285034,0.4588381350040436,-0.0071047221760707,0.0081282309462449,-0.1386490324468467,-0.4901124238967895,-0.2318964600563049,-1.0107917785644531,88,40,17490,12877
14.1,1788269543275,5.126760482788086,4.760563373565674,-0.0002099425764754,-0.002863350789994,0.9432860016822816,0.3319686949253082,0.1716800576683967,-0.0047245590818569,3.08067045728407e-05,0.0105120111256837,0.0035201758146286,-0.1888741254806518,-0.0014757113531231,0.0018809121102094,-0.8922525644302368,0.4515303373336792,0.0435951728672677,0.0382936311302599,-0.1652075285390698,-0.8484305143356323,-0.0622785091400146,0.2330169677734375,83,68,16364,14186
14.2,1788269543375,5.549295902252197,4.760563373565674,3.331393236294389e-05,-0.002476091729477,0.9421040415763856,0.3353116810321808,0.1855623977659087,-0.0085830282243412,6.283020645454943e-05,-0.041181780397892,-0.05088771879673,-0.0727982297539711,-0.003257917240262,0.0020002191886305,-0.8939670920372009,0.448116272687912,-0.1288890227461118,-0.1286059686338664,-0.1682940610550192,0.4918490052223205,-0.117218792438507,1.108356475830078,46,82,15739,14483
14.3,1788269543475,5.014084339141846,5.098591327667236,0.0009171541314572,-0.0039637037552893,0.940674901008606,0.3392847776412964,0.1795208995512323,-0.0023876055914016,8.535343068484337e-05,0.0039280378259718,-0.011961163021624,-0.006980531848967,-0.0039001749828457,0.0017428323626518,-0.8950876593589783,0.4458698332309723,0.005925846208091,-0.0350211325723744,0.0118204527599211,-0.0242326259613037,0.0818848013877868,-0.4899435043334961,67,101,15014,15183
14.4,1788269543575,5.070422649383545,5.042253494262695,0.0014754196163266,-0.003865853883326,0.9409924149513244,0.3384021818637848,0.1691930445502925,0.0042510949415951,-1.223404650387306e-07,0.0,0.0,0.0,-0.0040427679196,0.0018351841717958,-0.8945499658584595,0.4469460844993591,-0.0010555426185808,-0.0068976695246365,0.0181044313536442,0.2270254492759704,-0.1042229533195495,-0.4268865585327148,63,113,15191,15734
14.5,1788269543675,4.929577350616455,5.211267471313477,0.0011742644710466,-0.0039134207181632,0.941505253314972,0.3369735479354858,0.1803324972056437,-0.0038553937354411,-1.7600256613957362e-05,0.0044791479595005,0.0046033002436161,0.0130826774984598,-0.0037291096523404,0.001693682745099,-0.8941231369972229,0.4478025734424591,0.0078454490694421,-0.0192896963960547,-0.0001797039205725,-0.0222838521003723,0.0500625371932983,1.1515092849731443,84,58,16488,14191
14.6,1788269543775,5.183098793029785,4.901408672332764,0.0011953206267207,-0.0041430192068219,0.9413043856620787,0.3375314474105835,0.1802697208006538,-0.0024122563265605,-1.7291942644268385e-07,-0.0059742354787886,-0.0027030024211853,-0.0168223287910223,-0.0040007773786783,0.0020026946440339,-0.8946250081062317,0.4467955231666565,-0.0085897591442798,-0.0110880515094704,-0.0609720268523021,-0.126779556274414,-0.0449703931808471,-0.062173843383789,103,69,15536,14913
14.7,1788269543875,5.014084339141846,5.126760482788086,0.0008608719799667,-0.0036874322686344,0.9409115314483644,0.3386311531066894,0.1766840101349107,0.000291045743095,-0.0001738659226904,0.0071370997466146,0.0206640250980854,-0.0067195887677371,-0.0032380521297454,0.0018744356930255,-0.8949360847473145,0.4461786448955536,-0.000222302974876,-0.0131107967747756,-0.000850025072452,-0.2863472104072571,-0.2241197228431701,0.1294727325439453,74,77,15604,14378
14.8,1788269543975,4.985915660858154,5.211267471313477,0.0008642558241263,-0.0038334357086569,0.9413816928863524,0.3373205363750458,0.1789200050348487,0.0027997261018337,-1.0909683999449174e-05,-0.0138851683586835,0.0085990335792303,0.0500277578830719,-0.0033292761072516,0.0021361261606216,-0.8940389752388,0.447971910238266,-0.0070057820083581,0.0117866178864579,0.0636349097052013,0.114976167678833,0.0176933407783508,0.7424516677856445,73,99,15233,15797
14.9,1788269544075,4.704225540161133,5.267605781555176,0.0003238891949877,-0.0036199376918375,0.942356526851654,0.3345906138420105,0.1807757105116398,-0.0021848168835949,-4.469064859746233e-05,0.0052754268981516,0.0172828938812017,0.0500686578452587,-0.0027785934507846,0.0023289816454052,-0.8928947448730469,0.450250893831253,-0.0108662981676167,0.0291170226566338,0.0503744872679936,-0.0403904914855957,0.0806842446327209,-2.009857177734375,76,72,14938,15465
15.0,1788269544175,4.985915660858154,5.183098793029785,-0.0001621220726519,-0.0036216641310602,0.9431971311569214,0.3322139084339142,0.1779647910471956,0.0004996730340217,3.700187676785511e-06,-0.0057967929169535,0.0058519104495644,0.0456762500107288,-0.0024649919942021,0.002675007097423,-0.891628623008728,0.4527529776096344,-0.0048388820824564,0.0133389945197549,0.0619679671492129,0.0123509764671325,0.1469898223876953,0.2612037658691406,43,103,15639,15268
15.1,1788269544275,4.901408672332764,5.239436626434326,-0.0003950637183152,-0.003321693977341,0.9439861178398132,0.3299684226512909,0.1820563856184838,-0.0011517121800127,-5.489985364431378e-06,0.0069818384945392,0.0073532313108444,0.0545600466430187,-0.001851093955338,0.0026375250890851,-0.8906906247138977,0.4545986950397491,0.0170967883194699,0.0345972323849839,0.0386681806908754,-0.0888309478759765,-0.1181395053863525,0.3179264068603515,90,66,15465,15222
15.2,1788269544375,4.873239517211914,5.323943614959717,-0.001174071454443,-0.0031881558243185,0.9449795484542848,0.3271117210388183,0.1825142089926546,0.0050192561928632,-3.4147559035087004e-05,-0.0082741966471076,0.0155152436345815,0.0909665748476982,-0.0013989452272653,0.0031187590211629,-0.8890219926834106,0.457851767539978,-0.0054012825663977,0.0164284296347879,0.0994238619709451,-0.0450472235679626,0.1354027986526489,-0.1219549179077148,76,71,14987,15214
15.3,1788269544475,4.957746505737305,5.295774459838867,-0.0020326212979853,-0.0027824372518807,0.9465926289558412,0.3224133551120758,0.1779074508264936,0.0019718175448505,-3.239818291276898e-05,0.0027047037146985,0.0236477367579936,0.1131728887557983,-0.0005602082237601,0.0034182434901595,-0.8870325684547424,0.4616939127445221,0.001263950262038,0.0307982004264422,0.1363639831349781,-0.1521304249763488,-0.082703411579132,-0.6055879592895508,34,91,13380,16629
15.4,1788269544575,4.422535419464111,5.267605781555176,-0.0045973975211381,4.391686525195837e-05,0.9497069120407104,0.3131063878536224,0.1689612890843839,0.0045858521162096,-0.000254298855739,0.0492857918143272,0.0807543918490409,0.2155942767858505,0.0035916399210691,0.0031409552320837,-0.8819551467895508,0.4713092148303985,0.0694029870633833,0.0775811537447426,0.2402601751876219,0.6327725052833557,0.1528788208961486,0.5845127105712891,207,58,18200,14189
15.5,1788269544675,5.154929637908936,5.295774459838867,-0.0041317455470561,-0.0021894802339375,0.9499581456184388,0.3123421967029571,0.19451290090992,0.0041008458315586,0.0002496776593246,-0.0613897740840911,-0.0674627497792244,-0.0646446719765663,0.0015487903729081,0.0046650655567646,-0.8823294639587402,0.4706066846847534,0.0002151648287942,0.0281944039686215,-0.0746704008934466,-0.9111571311950684,-0.2520314455032348,2.016439437866211,31,67,13894,14891
15.6,1788269544775,4.760563373565674,5.070422649383545,-0.0051323599182069,-0.0016738531412556,0.9503560066223145,0.3111177682876587,0.1665065392176697,0.0048025344663589,-0.0001860286296239,-0.0066453143954277,0.0371837019920349,0.0253774207085371,0.0024248827248811,0.0051300469785928,-0.8814863562583923,0.4721755385398865,-0.0110987444370334,0.0041961631517772,0.0037841117360114,-0.1345465183258056,-0.3934729695320129,0.6550016403198242,78,78,14875,14775
15.7,1788269544875,4.929577350616455,5.295774459838867,-0.0066311075352132,-0.0017037733923643,0.951021134853363,0.3090499639511108,0.1784180780363337,0.0009006814720655,-0.0001045057202195,-0.010660720989108,0.0273814760148525,0.0804135277867317,0.003637995570898,0.0062001617625355,-0.8802616000175476,0.4744343757629394,-0.0084256575451885,0.0301048309926526,0.0507906475875633,-0.1124237179756164,-0.1368072032928466,0.6481161117553711,74,71,14996,15002
15.8,1788269544975,4.873239517211914,5.295774459838867,-0.0084024704992771,-0.0015410571359097,0.9515529274940492,0.307366132736206,0.1823174847575815,-0.0019685267889631,-5.499351402598213e-05,-0.0077827670611441,0.0346699878573417,0.0259282607585191,0.0047742752358317,0.0071994336321949,-0.8796401023864746,0.4755614995956421,-0.00381031824438,0.0543279235149448,0.0387716131901536,0.109092116355896,0.0808353424072265,-1.5257511138916016,62,76,15109,15304
15.9,1788269545075,4.591549396514893,5.605633735656738,-0.0083852969110012,-0.0019063116051256,0.952305555343628,0.3050251603126526,0.1867803996527866,0.0035736545344032,4.406667376689895e-05,-0.0143999429419636,-0.0055294469930231,0.0980102494359016,0.004521258175373,0.0074869180098176,-0.8781008720397949,0.4783957004547119,-0.0147121670108191,0.0137870439061359,0.10655420714335,-0.0346889495849609,-0.1362404227256775,0.6739568710327148,53,99,13649,16625
16.0,1788269545175,4.507042407989502,5.521126747131348,-0.0081830220296978,-0.0019069644622504,0.954982340335846,0.2965436279773712,0.1751765696333098,0.0017863459008065,4.138742946826633e-05,-0.0035716383717954,-0.0066291992552578,0.1778379380702972,0.0043363748118281,0.0072714202105998,-0.8731662631034851,0.4873490035533905,-0.0036228595590598,0.0098556300834185,0.1874319900981973,-0.0227611660957336,-0.0558940768241882,-0.2522706985473633,108,49,16642,14322
16.1,1788269545275,5.070422649383545,5.295774459838867,-0.0074489880353212,-0.0021475153043866,0.9572983384132384,0.2889979183673858,0.1872730117834902,0.0030445710651767,0.0001067796374977,-0.0086088832467794,-0.031763482838869,0.114506185054779,0.003568198531866,0.0067631863057613,-0.8700816631317139,0.4928484261035919,0.0034526101068195,-0.0169805954561722,0.0891976588766005,-0.2314606308937072,-0.2105888128280639,0.4906654357910156,59,24,16268,13509
16.2,1788269545375,4.901408672332764,5.211267471313477,-0.0065222112461924,-0.0024053710512816,0.9582450985908508,0.2858633697032928,0.1819158633711518,0.0001250952363916,-1.954665968916297e-06,-0.0002140591386705,-0.0128187788650393,0.0407167002558708,0.002805121243,0.0064027681946754,-0.8687458634376526,0.4952089786529541,-0.0127866642924518,-0.0248991836742713,0.0185138282394172,0.0551815629005432,-0.0875900387763977,-0.0079917907714843,62,68,15947,13975
16.3,1788269545475,5.042253494262695,5.295774459838867,-0.006592595949769,-0.0025620013475418,0.958463191986084,0.2851283550262451,0.1779197629355316,-0.0010691572186591,-4.994415307760473e-05,-0.0056851655244827,0.0006347423768602,0.0249534454196691,0.0025333538651466,0.0064422534778714,-0.8680863380432129,0.496364951133728,-0.0001100326696285,-0.0105063297565376,0.0371401960743142,0.0528421401977539,0.1217730641365051,0.2970123291015625,56,70,14876,15039
16.4,1788269545575,4.8450703620910645,5.183098793029785,-0.0058092577382922,-0.0027459119446575,0.9590137600898744,0.2832864224910736,0.1801921377452733,-0.0038361323508706,1.2981155042168613e-05,0.0016640069661661,-0.0257529951632022,0.056831020861864,0.0018063280731439,0.0059135956689715,-0.8673315048217773,0.4976924359798431,0.0009596592402936,-0.0430232600733581,0.0244093665095997,-0.1444967985153198,-0.0491718053817749,0.0502815246582031,66,75,15158,14911
16.5,1788269545675,5.014084339141846,5.295774459838867,-0.0050723454914987,-0.0027644694782793,0.9593254923820496,0.2822431921958923,0.1758010143157694,0.0051102463460511,-3.079657863134904e-08,0.0,0.0,0.0,0.0012578945606946,0.0055591342970728,-0.8665967583656311,0.4989766180515289,-0.003032618296288,-0.0099450368689223,0.01968599555644,0.0258715748786926,-0.3554979562759399,0.0778312683105468,44,82,15146,15063
16.6,1788269545775,4.732394218444824,5.549295902252197,-0.0039183590561151,-0.002964240964502,0.960010290145874,0.2799215912818908,0.1788198959871829,0.0015644915016405,4.358091392694354e-05,0.0034992988221347,-0.0120826624333858,0.0359176136553287,0.0005416283383965,0.0046040471643209,-0.8651760220527649,0.5014467835426331,0.0129092332123912,-0.004155696745027,0.0545625149272421,0.0974607467651367,-0.1639752388000488,-0.1377468109130859,41,91,13946,16476
16.7,1788269545875,4.11267614364624,5.605633735656738,-0.0042251823469996,-0.0010032735299319,0.96245539188385,0.2714051008224487,0.1669870914712595,0.0057351563882984,-6.869596077146487e-05,0.0461982861161232,0.0380311943590641,0.2217932939529419,0.0028704414144158,0.0034935101866722,-0.8602849841117859,0.5097933411598206,0.0962542811781898,0.0837482410762775,0.3320881202635706,0.7990220785140991,0.0913141369819641,-0.5968780517578125,109,100,15467,16640
16.8,1788269545975,4.788732528686523,5.492957592010498,-0.0029760610777884,-0.0026006221305578,0.9644717574119568,0.2641564905643463,0.1969629593948929,0.0081836548037238,0.0001319611948278,-0.0917820483446121,-0.0780491828918457,0.0417843833565712,0.0006649643182754,0.0044859834015369,-0.8571546673774719,0.5150392651557922,-0.0184424167066923,0.0191870142238563,0.0227339737116203,-0.7075043320655823,-0.2092532515525818,0.8594150543212891,41,72,13707,15893
16.9,1788269546075,4.901408672332764,5.267605781555176,-0.0029179784469306,-0.0027274396270513,0.9662299752235411,0.2576503753662109,0.1679724309207615,0.0067172813060928,2.585033039372532e-05,-0.0054179234430193,-0.0063935797661542,0.1725445240736007,-1.5961937606334686e-05,0.0039226459339261,-0.853406548500061,0.5212311148643494,-0.0001988887538935,-0.0157456202755761,0.1678160106054141,-0.0436803102493286,-0.3424432277679443,1.5072526931762695,97,62,15517,14818
17.0,1788269546175,4.929577350616455,5.042253494262695,-0.0031655607745051,-0.0030420697294175,0.9673640727996826,0.2533522248268127,0.1782602971857707,0.0025800205378341,6.415330572592812e-05,-0.0056425565853714,-0.0079197557643055,0.0558330118656158,-1.0124407708644869e-05,0.0043951421976089,-0.8516248464584351,0.5241333246231079,-0.0073672588265728,0.004943581494957,0.059532217699423,0.0364535450935363,0.2870810031890869,-0.8300256729125977,113,71,15051,14933
17.1,1788269546275,4.929577350616455,5.295774459838867,-0.003053821157664,-0.0029285904020071,0.967659592628479,0.2522241771221161,0.1786701184038309,-0.0018173620962628,-1.001333517951694e-05,0.0044927871786057,-0.0027773482725024,0.0386899672448635,-0.0002528158947825,0.0040624123066663,-0.8505339026451111,0.525904655456543,0.0020878630702791,-0.0225259687962208,0.0491564164992813,-0.1169900298118591,0.2581058144569397,0.790806770324707,70,77,15279,15033
17.2,1788269546375,4.901408672332764,5.183098793029785,-0.0031839832663536,-0.0031492006964981,0.968098759651184,0.2505289614200592,0.189404547622796,-0.0006076533632028,-2.5101559141821435e-05,-0.0066158636473119,0.0033167139627039,0.0270738266408443,-0.000297394581139,0.0045449500903487,-0.8497185707092285,0.5272169709205627,-0.0105754779839758,-0.0061001047733725,0.0339131012687703,-0.1181633472442627,-0.0785256028175354,-0.7024030685424805,69,90,15958,14862
17.3,1788269546475,5.126760482788086,4.901408672332764,-0.0028103999793529,-0.0029467642307281,0.9693801403045654,0.2455308735370636,0.1774489597487844,0.0028904527769411,-1.7245529886871365e-05,0.0170076675713062,8.897772204363719e-05,0.1408604085445404,-0.0006410675123333,0.0038097472861409,-0.8462661504745483,0.5327463150024414,-0.0017854947928864,-0.0351861701095484,0.1287710600819038,0.4487169981002807,-0.0724144577980041,-0.029001235961914,127,28,16761,13798
17.4,1788269546575,5.295774459838867,4.788732528686523,-0.0026806776877492,-0.0029555317014455,0.969861388206482,0.2436245679855346,0.1852223932930856,-0.0054989112724587,-0.0001062212119532,0.0017578185070306,0.0147471213713288,0.0036531384103,-0.0002256520092487,0.0040165046229958,-0.8467748165130615,0.5319362878799438,0.0031453317355605,0.0174570050441385,-0.0511968678773018,-0.1142895221710205,0.0449629426002502,-0.494943618774414,73,61,16266,13730
17.5,1788269546675,5.154929637908936,4.901408672332764,-0.0021202084608376,-0.0030490029603242,0.9689152836799622,0.2473649084568023,0.1758294930786816,-0.0022933655255703,-4.071574975903817e-05,0.0101499781012535,-0.0068617514334619,-0.0742213129997253,-0.0010505300015211,0.0034780418500304,-0.8484861254692078,0.5292051434516907,-0.0090020071457424,-0.0636152741810192,-0.0723177690508045,-0.0210258364677429,0.1771572828292846,-0.4323263168334961,58,89,16037,14399
17.6,1788269546775,4.788732528686523,5.267605781555176,-0.0017952624475583,-0.0034030692186206,0.9684547781944276,0.2491594851016998,0.1788456862917862,0.0011119512580077,6.880351861251095e-05,-0.0101432129740715,-0.0094925183802843,-0.0163377951830625,-0.0007550856098532,0.0039206985384225,-0.8492006659507751,0.5280552506446838,-0.0024103448296749,0.0573798951921661,0.0079634810076172,-0.1868507862091064,-0.4033575057983398,1.2473535537719729,49,127,15280,15992
17.7,1788269546875,5.295774459838867,4.816901206970215,-0.001757861347869,-0.0031925577204674,0.9690940380096436,0.2466645985841751,0.1736094912098025,-0.0041354726061724,2.7524932796054007e-05,-0.0022894341964274,-0.0128047289326787,0.0190804786980152,-0.0008770283311605,0.0035207159817218,-0.8482924103736877,0.5295156836509705,0.0038998747427842,0.0243082738828014,-0.0699309295813195,-0.0398845672607421,-0.4019479155540466,0.2801218032836914,94,50,16795,14035
17.8,1788269546975,5.154929637908936,5.070422649383545,-0.0013862422201782,-0.0032195714302361,0.968543529510498,0.2488194853067398,0.1827532041530701,-0.0017173517754923,2.4759857126008747e-05,-0.0033253219444304,-0.0135513385757803,-0.036436591297388,-0.0011003063991665,0.003479303792119,-0.8491207957267761,0.528186023235321,-0.0044986427855151,0.0125708483302016,-0.0012716955278042,-0.0115735530853271,0.1251218914985656,-0.3607873916625976,62,67,15609,15066
17.9,1788269547075,4.2816901206970215,5.042253494262695,-0.0019271277124062,-0.0029384391382336,0.9687454700469972,0.2480319738388061,0.1810828701773542,-0.0002349276443464,-3.44022703631048e-05,0.0046038744039833,0.0198224950581789,0.0273388996720314,-0.0005880976095795,0.0032603163272142,-0.8482381701469421,0.5296047329902649,0.0158931056188443,0.0036516286116357,0.0507653221993091,-0.3664830327033996,-0.0982358455657959,-0.0178346633911132,11,33,8724,12605
18.0,1788269547175,1.5774648189544678,3.802816867828369,-0.002495287451893,-0.0015211009886115,0.9711422920227052,0.2384828776121139,0.1146994535885721,0.0031626771075716,-1.2738321086347423e-05,0.0242133624851703,0.0315063260495662,0.2939132153987884,0.00084013864398,0.0028614597395062,-0.8423855900764465,0.5388670563697815,0.0153367419103761,0.0519275046096084,0.3315240537416816,-1.1149502992630005,0.4318503141403198,-0.3580036163330078,0,15,1573,8644
18.1,1788269547275,0.0,2.507042169570923,-0.0019914347212761,-0.0019383404869586,0.9766581654548644,0.2147816866636276,0.0257855151357507,-0.0028973497753333,5.3512627940609095e-06,-0.0232622642070055,-0.0338200330734252,0.562394917011261,-2.522394061088562e-05,0.00277891010046,-0.8300934433937073,0.5576174259185791,-0.0290189181060662,-0.050226469186573,0.5869488030092226,0.1931160688400268,0.1583941578865051,0.2028465270996093,96,26,-7047,6222
18.2,1788269547375,-1.8028168678283687,1.7464789152145386,-0.0020598280243575,-0.002316789003089,0.9820112586021424,0.1887966096401214,0.002971176663475,-0.0019651707565629,-2.504451500057488e-07,-0.0016552378656342,-0.0042819175869226,0.4808644950389862,-0.0002813329920172,0.0030757570639252,-0.8135667443275452,0.5814633369445801,-0.004699244453663,-0.0037996735434612,0.4653139017863682,-0.2939594388008117,0.0426066517829895,-0.2463254928588867,105,47,-8509,6343
18.3,1788269547475,-1.887323975563049,1.8309859037399288,-0.0021234233863651,-0.0025585973635315,0.986042320728302,0.1664616018533706,-0.0097165490287872,-0.0013534905291395,6.091741088685935e-07,-0.0064938352443277,-0.0017011759337037,0.5108811259269714,-0.0004207324236631,0.0032966807484626,-0.800176739692688,0.5997549891471863,-0.0057540221887037,-0.0055617559444341,0.536118889049467,0.0234206318855285,0.2600000500679016,0.1127252578735351,47,117,-7690,7563
18.4,1788269547575,-1.6901408433914185,1.5774648189544678,-0.0017744209617376,-0.0028985009994357,0.9903688430786132,0.1384129226207733,0.0044113303956588,-0.0006029622547988,1.2446066759525829e-06,-0.0063331867568194,-0.0071463123895227,0.5606637001037598,-0.0008711805567145,0.0032864296808838,-0.7841996550559998,0.620499312877655,-0.0052989249233842,-0.0047468771689922,0.5485878107376975,0.0159357786178588,-0.046044647693634,-0.1732683181762695,59,33,-6317,5364
18.5,1788269547675,-1.6619718074798584,1.380281686782837,-0.0019024458015337,-0.0032034870237112,0.9929192662239076,0.11873310059309,-0.0074819659130119,0.0017555269125787,-3.755653943118865e-08,-0.005372985266149,0.0013672629138454,0.3587838411331177,-0.0009797671809792,0.003578002564609,-0.7730951309204102,0.6342792510986328,-0.0048176256052202,0.0020808668830886,0.355742799974287,-0.1916621923446655,0.0750338435173034,0.2161121368408203,124,74,-7337,5571
18.6,1788269547775,-1.1267606019973757,1.1267606019973757,-0.0017566375900059,-0.0031975989695638,0.9956578016281128,0.0930169895291328,0.002862215862503,-1.831217192968153e-05,4.959338528336498e-07,0.0006445811013691,-0.0055890665389597,0.484328418970108,-0.0010977750644087,0.0034792674705386,-0.7551974058151245,0.6554872393608093,0.001642925576251,-0.0079040718917537,0.4824604164375317,0.0888408422470092,0.0113627910614013,-0.035928726196289,47,66,-4956,4998
18.7,1788269547875,-1.1267606019973757,1.0985915660858154,-0.0016091222641989,-0.0033512713853269,0.9969189167022704,0.0783502757549285,-0.0011261982557214,-0.00073594650815,4.859937733812302e-07,-0.0041895029135048,-0.0033469712361693,0.2796397507190704,-0.0014356561005115,0.0033691693097352,-0.7428397536277771,0.6694592833518982,-0.000254928021839,-0.0154714158923918,0.3182930220790579,0.122484266757965,0.2175346612930297,0.0878839492797851,82,132,-6207,5375
18.8,1788269547975,-1.211267590522766,1.2957746982574463,-0.0012672337470576,-0.0033860052935779,0.998167872428894,0.0603978708386421,0.0017529719154122,0.0020616850589092,4.36446048003735e-07,0.0004618274106178,-0.0055090384557843,0.3999325931072235,-0.0015826299786567,0.0032139979302883,-0.7309756278991699,0.6823942065238953,0.0022838133932708,-0.0020771599592117,0.4114631752916926,0.0282650589942932,-0.0646727085113525,0.0224742889404296,38,73,-5556,4499
18.9,1788269548075,-1.0704225301742554,1.2676056623458862,-0.0013903612270951,-0.0033522206358611,0.9991220831871032,0.0417359955608844,0.0025495425222109,-0.0008812993007216,-1.1524678669730909e-07,-0.0001063568488461,0.0009956061840057,0.3656050860881805,-0.0014728801324963,0.0033002030104398,-0.7194055914878845,0.6945808529853821,0.0014284160321054,-0.0004861125735259,0.32933836860953,0.0446212291717529,-0.0635828375816345,0.0333423614501953,73,53,-6053,4798
19.0,1788269548175,-1.154929518699646,1.2394366264343262,-0.0015006143366917,-0.0034654662013053,0.9996245503425598,0.0271364115178585,-0.0043084392648933,0.0012259076528683,-3.160428933883211e-07,-0.0043604243546724,-0.0002009593736147,0.3283967971801758,-0.0015129130333662,0.0036229267716407,-0.705190122127533,0.7090073823928833,-0.0080973141746674,0.0041103191521953,0.3971471262590543,-0.0340390801429748,0.0618413686752319,-0.0470809936523437,52,112,-5300,5310
19.1,1788269548275,-1.042253494262695,0.9577465057373048,-0.0014040987007319,-0.0036805502604693,0.9999698996543884,0.0066901547834277,0.0018121025938625,-0.0006831849770021,7.910165424294508e-07,-0.0026223242748528,-0.0051230853423476,0.3583518862724304,-0.0016904855147004,0.0035893293097615,-0.6939511299133301,0.7200112342834473,-0.0028537905032762,0.0002297691503287,0.2892708319127481,0.0897184610366821,-0.127196192741394,-0.0153484344482421,41,39,-4431,3902
19.2,1788269548375,0.0,0.0,-0.0013604593696072,-0.0037340500857681,0.9999920725822448,0.0003157889877911,-0.0018844041159326,-0.002390562103495,3.775131168535418e-07,-0.0012891922378912,-0.0006548500386998,0.0172601323574781,-0.0017826315015554,0.0035553071647882,-0.6913872361183167,0.7224735617637634,-0.0019371240261738,-0.0035963481722963,-0.0799997999612951,0.2032897472381591,-0.0634800791740417,-0.0303859710693359,67,148,3679,5178
19.3,1788269548475,2.4788732528686523,3.6056337356567374,0.0011899449164047,0.0037908060476183,-0.9999902844429016,0.0019329243805259,0.0730137906020233,0.0049978229532764,9.140459108079128e-06,-0.0012400100240483,0.0018430140335112,0.1390519887208938,-0.0019181678071618,0.0034794844686985,-0.6895508170127869,0.7242264151573181,-0.0067843061937145,0.0173891256792174,0.151939108588245,0.6376981139183044,-0.0675795674324035,0.158975601196289,219,220,10560,13374
19.4,1788269548575,4.309859275817871,6.0,0.0014077738160267,0.0042357030324637,-0.9999170303344728,0.0120860077440738,0.1571851353538308,0.006866973100265,-6.917295235211054e-06,-0.0126980254426598,0.0065310043282806,0.1964271366596222,-0.0020712604746222,0.0039034700021147,-0.6811047792434692,0.7321726083755493,-0.0027973445294143,0.0097746860649208,0.2440633700730839,0.6302629709243774,-0.3532296419143677,-0.7914743423461914,107,137,15129,19180
19.5,1788269548675,4.394366264343262,6.11267614364624,0.0018116590799763,0.0040641147643327,-0.9996358752250672,0.0266155824065208,0.1921916742872152,0.0048222571519082,1.4445537963846714e-05,0.0025773248635232,0.0081623038277029,0.3208256661891937,-0.0015651322901248,0.0042758388444781,-0.6705237030982971,0.7418742179870605,0.0011777901901031,0.0437949370110345,0.331176690589237,0.057296335697174,-0.2050031423568725,-1.5859699249267578,53,69,13661,16759
19.6,1788269548775,4.169013977050781,5.88732385635376,0.0020945854485034,0.0035962772089987,-0.9991018176078796,0.0421690531075,0.1760002293813332,0.0022672688497714,1.0200751530502112e-05,0.0099151330068707,0.0060556251555681,0.295995682477951,-0.0012399079278111,0.0039215749129652,-0.6600911021232605,0.7511743903160095,0.0082413770022318,0.0012287232538752,0.2893985678946843,-0.2821776866912842,0.1377672553062439,0.8554258346557617,80,68,13315,16507
19.7,1788269548875,4.507042407989502,5.915493011474609,0.0030155330896377,0.0010274833766743,-0.9983891248703004,0.0566489323973655,0.1726080615979536,-0.0023979458712285,-0.0001090051387106,0.0442463755607605,0.0166075229644775,0.2780152261257171,0.0008732760325074,0.0033277226611971,-0.6476727724075317,0.7619108557701111,-0.0497617280025679,0.0011387962761563,0.1757562786393343,0.1023705005645752,0.0109211206436157,-0.8027782440185547,81,73,14341,17046
19.8,1788269548975,4.11267614364624,6.0,-2.917314850492403e-05,0.0021456133108586,-0.9978640079498292,0.0652899146080017,0.1873874602842318,0.0013279571774869,0.0001348382395389,0.0074746585451066,-0.036951258778572,0.1704901754856109,-0.0015712175518274,0.0014614313840866,-0.6422805190086365,0.7664666771888733,0.0184376639910838,-0.0638262928271654,0.2096326701948347,-0.251108705997467,0.5765977501869202,0.7672948837280273,16,71,12921,16833
19.9,1788269549075,4.591549396514893,5.549295902252197,-0.0001248451007995,0.0017855131300166,-0.9971389770507812,0.0755689069628715,0.1681225531234711,0.0040642477157199,5.14251965812468e-05,0.0060603399761021,-0.00929397623986,0.2255226075649261,-0.0014339545741677,0.0011676661670207,-0.6321199536323547,0.7748684287071228,-0.0054480092200225,-0.0107872390070005,0.2336799322717606,0.1794397830963134,-0.2974709868431091,1.3851690292358398,61,86,14235,16331
20.0,1788269549175,4.394366264343262,5.577464580535889,-0.0002292252611368,0.0016948040574789,-0.9964359402656556,0.0843360498547554,0.1792981452548626,0.0060766141644048,6.060818139980386e-06,0.0057650827802717,-0.0117851002141833,0.1594063192605972,-0.0014276411384344,0.0007380694150924,-0.6263982057571411,0.7795015573501587,0.0139587215739444,-0.0416377200988718,0.1594267770553818,0.0271124243736267,0.1794853806495666,-0.0204954147338867,66,79,14277,15998
20.1,1788269549275,4.535211086273193,5.549295902252197,-0.0003374664811417,0.0016925549134612,-0.9958313703536988,0.091196708381176,0.1771420925013216,0.0059360151946627,2.103574138045364e-05,-0.0187839828431606,-0.0011374595342203,0.1234453022480011,-0.0016659181565046,0.0007072016596794,-0.6216731667518616,0.7832747101783752,-0.0153798332981893,-0.0166309365693525,0.1090465824651814,0.041356086730957,-0.0175311565399169,0.3697681427001953,69,95,14289,16301
20.2,1788269549375,4.478873252868652,5.521126747131348,-0.0005625669145956,0.0022236020304262,-0.9951809048652648,0.0980289131402969,0.181162397715935,0.0060052018631439,5.076043880542876e-05,-0.0130481263622641,-0.002502801362425,0.1599396467208862,-0.002362442202866,0.0012019090354442,-0.6143488883972168,0.7890300154685974,-0.0141566879318079,-0.0236572041223367,0.1612499702211042,-0.0590591430664062,-0.0344892740249633,0.5737733840942383,70,93,13957,15577
20.3,1788269549475,5.521126747131348,4.732394218444824,-0.0003005884354934,0.0028205986600369,-0.9946219325065612,0.1035336107015609,0.1783366078488807,0.0038334112847526,-6.295351917635454e-05,-0.0031168221030384,0.0091676265001297,0.0604938641190528,-0.0024268738925457,0.0022709500044584,-0.6127985715866089,0.7902321219444275,-0.0264150503379065,0.0241804388426214,-0.054605711519988,-0.1757547259330749,-0.0482792854309082,-0.0881185531616211,100,59,16838,13927
20.4,1788269549575,5.042253494262695,4.957746505737305,0.0003433413512539,0.0035680478904396,-0.9949302077293396,0.100503921508789,0.1740611155961078,-0.0024872384696675,-2.578472679418976e-05,-0.0157770849764347,0.019404025748372,-0.0715786889195442,-0.002282309345901,0.0028123520314693,-0.614945113658905,0.7885616421699524,-0.0037073773258047,0.0370314097231507,-0.0515554596498348,-0.0845429897308349,-0.2977128624916076,0.7422313690185547,79,91,15039,14944
20.5,1788269549675,5.183098793029785,5.098591327667236,0.0002956553653348,0.0040151760913431,-0.9949953556060792,0.0998397171497345,0.1811754215908702,-0.0022542509459687,-7.228143712246311e-06,-0.0134221222251653,0.0089376410469412,-0.0163509584963321,-0.0027519827708601,0.0029831510037183,-0.6155540347099304,0.7880842089653015,-0.0026079065274328,-0.0023827529064452,-0.0196118491357522,-0.0045621395111083,-0.1769161224365234,-0.5424737930297852,90,92,15835,15200
20.6,1788269549775,5.267605781555176,5.126760482788086,-0.0006897079292684,0.0043447036296129,-0.9950757622718812,0.0990191400051117,0.1795523169801175,0.0015351864318469,0.0001184957036374,-0.0095011265948414,-0.0255631785839796,-0.0217717215418815,-0.0035127075389027,0.0028797099366784,-0.6160621047019958,0.7876845598220825,-0.0093834141024761,0.0142080084429333,-0.0056904670904266,-0.0534200072288513,0.1791671514511108,0.1172218322753906,85,88,15706,14854
20.7,1788269549875,4.873239517211914,5.014084339141846,-0.000269795069471,0.0047061005607247,-0.9950775504112244,0.0989872366189956,0.1749694917714073,-0.0003186652759917,-4.7915404446101255e-05,-0.0083088856190443,0.0008894532220438,0.0007239584811031,-0.0035615237429738,0.0031342282891273,-0.6159122586250305,0.7878004908561707,-0.0015282412733378,-0.0017900068945045,0.0046068819675949,-0.0034714341163635,-0.1332399249076843,0.1332597732543945,87,106,14887,15540
20.8,1788269549975,5.014084339141846,4.985915660858154,-0.0003602388314902,0.0050686527974903,-0.9950281977653505,0.0994640737771987,0.1889342219412906,-0.0032322103898749,-1.497500500336232e-07,0.0,0.0,0.0,-0.0041771521791815,0.0036382665857672,-0.6154389381408691,0.7881650924682617,-0.0149905295396659,-0.0045408589740512,0.00783274369809,0.1225298047065734,-0.0334096550941467,0.1581125259399414,59,84,16159,14533
20.9,1788269550075,5.154929637908936,5.098591327667236,-1.9334955140948296e-05,0.0058060260489583,-0.9950934648513794,0.0987684056162834,0.1764890354205413,0.0022437679906444,-5.008039879859757e-05,-0.0090433834120631,0.0247697830200195,-0.0326005965471267,-0.0043214662000536,0.0040264278650283,-0.616048276424408,0.787686288356781,-0.0102795156202397,0.0058990054716939,0.0149992897098519,-0.0191088318824768,-0.0344011783599853,0.5147104263305664,49,100,14732,15960
21.0,1788269550175,4.760563373565674,5.267605781555176,0.001737137325108,0.0041693639941513,-0.994539737701416,0.1042608320713043,0.1746614593086064,0.0023409876759707,-0.0003142911684139,0.0439548045396804,0.0379655919969081,0.1445369571447372,-0.0015494106337428,0.004153580404818,-0.6117638945579529,0.7910280823707581,0.0207824424462338,0.0093729463613243,0.136080027697604,0.4408193826675415,0.480006992816925,-0.1221685409545898,83,83,15469,15479
21.1,1788269550275,4.957746505737305,5.211267471313477,0.0002002556575462,0.0057419762015342,-0.9945985078811646,0.1036371290683746,0.1906710014596759,0.0002166576579835,0.0002053991634804,-0.0186240598559379,-0.0157949328422546,-0.0275190211832523,-0.0040275882929563,0.0039451755583286,-0.6115952134132385,0.7911508083343506,0.0042828174622966,-0.0185685890897221,0.0681225892707124,-0.1531893014907837,0.6002031564712524,-0.6096267700195312,52,60,14357,14911
21.2,1788269550375,4.985915660858154,4.816901206970215,0.0001240183482877,0.0055297906510531,-0.9943910241127014,0.1056216806173324,0.1733377718586535,9.521732626003104e-05,-2.864140839146893e-05,0.0042343158274888,0.0053202342242002,0.0173711329698562,-0.0039393352344632,0.0040141232311725,-0.6110534071922302,0.7915694713592529,-0.0077426172046319,-0.0075022934141012,-0.0405490584831606,0.093804657459259,-0.3896961212158203,-0.401432991027832,105,65,16232,13795
21.3,1788269550475,4.535211086273193,5.521126747131348,0.000848296447657,0.0051432545296847,-0.9943312406539916,0.1061990186572074,0.1742618041594187,-0.0002044883532701,-7.118877671565342e-06,0.0113958092406392,0.0239982120692729,0.0690762773156166,-0.0030827336013317,0.0042256424203515,-0.6101397275924683,0.7922766208648682,0.0010109856601808,0.063869795165448,0.1233703108975131,-0.1967182159423828,0.5054157972335815,0.014409065246582,79,88,13945,16098
21.4,1788269550575,4.3380279541015625,5.521126747131348,0.0009971824474632,0.0053184782154858,-0.9937198758125304,0.1117656975984573,0.1828026903388519,0.0016888532418311,-2.468019816255093e-06,0.0039441953413188,-0.0012211521388962,0.1403631418943405,-0.0031378231942653,0.0044975662603974,-0.6036864519119263,0.797203004360199,-0.0040058783414922,0.0047421470564451,0.1559651557606798,-0.0420722961425781,0.2373111844062805,0.1176080703735351,64,95,14284,16574
21.5,1788269550675,4.788732528686523,5.042253494262695,0.0007138088694773,0.0057059922255575,-0.993035078048706,0.1176788955926895,0.1703902048036592,0.0025954341908896,5.9208048916992886e-05,-0.0112946815788745,-0.0071095013990998,0.0754700899124145,-0.0035409927368164,0.0044551705941557,-0.6006793975830078,0.7994697093963623,0.0067571753197274,0.0034841538905208,0.0312463953528648,-0.0496039390563964,0.0449391603469848,-0.0669708251953125,113,97,15644,15015
21.6,1788269550775,5.183098793029785,5.042253494262695,0.0010576590429991,0.0054808119311928,-0.9926152229309082,0.1211765706539154,0.1839401446639854,0.0016804666596611,5.883437294051141e-05,0.0002722508797887,-0.0091924732550978,0.0700215101242065,-0.0032201027497649,0.0045603150501847,-0.5980206727981567,0.8014612793922424,0.0009589965646392,0.0076292911328582,0.0672745421526152,0.1523594260215759,-0.1078861951828002,0.1648206710815429,98,64,16163,14747
21.7,1788269550875,4.760563373565674,5.211267471313477,0.0007522315136156,0.0058172191493213,-0.992357075214386,0.1232600361108779,0.1758134986898519,0.002645019573816,1.1137208402535113e-05,-0.0151537023484706,-0.0137520981952548,0.0591699257493019,-0.0036602551117539,0.0046286592260003,-0.5961450338363647,0.8028550744056702,-0.0029342149563881,-0.0029414424304635,0.0410635314669014,0.2735097408294678,-0.2164986133575439,-0.9200725555419922,88,84,15925,15421
21.8,1788269550975,5.070422649383545,5.098591327667236,0.001411544624716,0.0059146173298358,-0.9921169877052308,0.1251672655344009,0.1851094115505781,-0.0006539804485972,-4.909324591833629e-05,-0.0038867585826665,0.013343371450901,0.0537083707749843,-0.00339778047055,0.0051026483997702,-0.5945453643798828,0.8040387630462646,-0.0030979821054474,0.0045211547279281,0.0337075710748862,-0.1143502593040466,-0.0687810182571411,-0.0322465896606445,78,64,14791,14977
21.9,1788269551075,4.873239517211914,5.295774459838867,0.0009689253056421,0.0061731105670332,-0.9919296503067015,0.1266359686851501,0.1732323195615074,0.0024936302485046,6.839571444485424e-06,-0.0040758736431598,-0.004349288996309,0.0262054335325956,-0.0038635544478893,0.0049734264612197,-0.5935145020484924,0.8047986626625061,-0.006654438374174,-0.0153246480004666,0.0340959639089515,-0.026358425617218,0.2942076921463012,0.2546815872192383,86,86,15572,15388
22.0,1788269551175,5.014084339141846,5.070422649383545,0.0010540348012,0.0064209387637674,-0.9917603135108948,0.1279422640800476,0.1873357101990327,0.0047795603421148,-2.752852922643012e-05,-0.003752423916012,0.0073659042827785,0.0192655026912689,-0.0037977723404765,0.0054130461066961,-0.5924964547157288,0.8055459260940552,-0.0050569345464743,0.0259947999237806,0.0227285089573061,0.1011745333671569,-0.3193590641021728,-0.5463953018188477,43,95,15112,14992
22.1,1788269551275,4.788732528686523,5.211267471313477,0.0005286195664666,0.0063507496379315,-0.9914474487304688,0.1303513497114181,0.179317765278076,0.0015125213525438,2.0904553639436964e-05,0.0015011123614385,-0.0061138565652072,0.0240014120936393,-0.0042168088257312,0.0049173217266798,-0.5904211401939392,0.8070694208145142,-0.0057175559297279,0.0095286892658024,0.0267118120827318,-0.3156445622444153,-0.2254920005798339,1.021677017211914,58,69,14903,14879
22.2,1788269551375,4.957746505737305,5.211267471313477,0.0003668823046609,0.0059305508621037,-0.99119371175766,0.132286861538887,0.1805750234395726,0.0026654585873841,7.321109041517894e-05,0.0148385129868984,-0.0093705728650093,0.0541565380990505,-0.0038198316469788,0.0045697400346398,-0.5886852145195007,0.8083404302597046,0.0044674777478571,0.0330047760314259,0.0603471361331253,0.1260173916816711,0.1507322192192077,-2.084049701690674,101,76,15467,15271
22.3,1788269551475,5.070422649383545,5.042253494262695,0.0024375410284847,0.003845655824989,-0.9900190830230712,0.1408599913120269,0.1687852791002973,0.0021861898738992,-0.0001823015070934,0.057966012507677,0.0322798453271389,0.2186435461044311,-0.0019764732569456,0.0044541507959365,-0.5814357399940491,0.8135777115821838,-0.0581369604794693,-0.0298747241760433,0.0938720006134489,0.362273097038269,0.1276637315750122,-0.6621732711791992,116,36,17136,14195
22.4,1788269551575,5.098591327667236,5.070422649383545,-0.0002028696471825,0.0054276888258755,-0.9902196526527404,0.1394108235836029,0.1835406551832107,-0.0072567752203996,-2.5046955711711614e-05,5.577461706707254e-05,0.0071043642237782,-0.0689687877893447,-0.0039606159552931,0.0036215307191014,-0.5837321877479553,0.8119285106658936,0.0076029177236943,-0.0079495173697199,-0.0488287929808937,-0.1686117649078369,0.427732765674591,0.6804885864257812,36,68,15009,14401
22.5,1788269551675,5.042253494262695,5.014084339141846,-9.18012228794396e-05,0.0051835873164236,-0.9903430342674256,0.1385416686534881,0.1747704838714938,-0.0011138075154351,3.8553253603709344e-05,0.0080897696316242,-0.0056288447231054,-0.0139726474881172,-0.0038686553016304,0.0033961469307541,-0.5841155052185059,0.8116542100906372,-0.0078670948018772,-0.0026022938242222,0.0065707111861556,-0.305264949798584,0.3529602885246277,0.2696218490600586,70,73,15949,14624
22.6,1788269551775,5.014084339141846,5.154929637908936,4.303862806409597e-05,0.005210664588958,-0.990425944328308,0.1379467099905014,0.1760543944152812,-0.00032665218672,-3.0290853075729655e-05,-0.0003109000681433,0.0056247687898576,-0.0240406021475791,-0.0034660715609788,0.0035178549587726,-0.5846268534660339,0.8112873435020447,0.015185948100941,-0.0086175360276956,0.0032972960346405,0.1750217676162719,0.3011618852615356,0.0295772552490234,78,54,16427,13594
22.7,1788269551875,5.267605781555176,4.873239517211914,0.0005639002192765,0.0048824725672602,-0.9905440211296082,0.1371072828769683,0.1815219362980421,0.0003366373118554,-0.0001025548298777,0.0173528287559747,0.020732082426548,-0.036881610751152,-0.0032951068133115,0.0039596352726221,-0.5867584943771362,0.8097456097602844,-0.0105807325802887,-0.0028144540757384,-0.0835910082816112,-0.0376355648040771,0.1503577828407287,0.1062526702880859,85,78,15269,14019
22.8,1788269551975,5.098591327667236,4.8450703620910645,0.0007568139699287,0.0050196563825011,-0.9910166263580322,0.1336422115564346,0.1802165383745172,-0.0019225893844757,-1.1901465523141848e-05,0.0057383677922189,0.0051629105582833,-0.0345330797135829,-0.0027264915406703,0.0039147660136222,-0.5886272192001343,0.8083904981613159,0.0246992084778649,0.0097531371661227,-0.0406985171153666,0.1492342948913574,-0.0206025838851928,-0.1704959869384765,91,87,16824,14368
22.9,1788269552075,5.436619758605957,4.929577350616455,0.00131850480102,0.0047363829798996,-0.9912827014923096,0.1316605061292648,0.1835951403221027,-0.007372889269614,-0.0001265887893879,0.0043718558736145,0.0208654701709747,-0.0172564908862113,-0.0025952067226171,0.004030211828649,-0.590242326259613,0.8072119355201721,-0.0076155480737243,-0.0261346615016928,-0.0348093033140836,-0.1049296855926513,0.3412827849388122,-0.3885869979858398,65,60,16552,14077
23.0,1788269552175,5.239436626434326,4.929577350616455,0.0015450757928192,0.0046755196526646,-0.9916502833366394,0.1288625597953796,0.1845572802111593,-0.0012513337405753,7.616880990742068e-05,0.0076233600266277,0.0030877022072672,-0.0446402467787265,-0.0028705578297376,0.0039897672832012,-0.592487096786499,0.8055649995803833,-0.0152587128343889,-0.0397678283993568,-0.0368270929485393,-0.0717448592185974,0.3102427721023559,-0.0095996856689453,80,99,16467,14111
23.1,1788269552275,5.183098793029785,4.8450703620910645,0.00037796725519,0.004969238769263,-0.9919849634170532,0.1262580305337906,0.182498375027949,-0.0006404045192484,5.00276555257538e-05,-0.0074590155854821,-0.018301410600543,-0.0767807289958,-0.0029885778203606,0.0040687946602702,-0.5945329070091248,0.8040555119514465,0.0060462372858154,0.0477002489764975,-0.0478840313688802,-0.0135050415992736,-0.120844542980194,-0.6678037643432617,74,102,15627,14624
23.2,1788269552375,5.183098793029785,4.901408672332764,0.000418659474235,0.0048660561442375,-0.9922583103179932,0.1240952536463737,0.1818632227804909,-0.0027595000471244,-7.927339991083795e-06,0.0051331045106053,-0.0008633869001641,-0.0509561523795127,-0.0032455036416649,0.0036670910194516,-0.5959787964820862,0.8029852509498596,-0.0095544404083825,-0.0041720905883549,-0.044382138106148,0.1607062816619873,0.1031380295753479,0.0204648971557617,94,68,15996,14162
23.3,1788269552475,5.267605781555176,5.070422649383545,5.365896504372358e-05,0.0049745920114219,-0.9925751686096193,0.1215308606624603,0.184100665701169,-0.0046517274211191,6.86131582458998e-05,0.0010569669539108,-0.0130642261356115,-0.0419053733348846,-0.0036113485693931,0.003585853613913,-0.5990442633628845,0.8006997108459473,-0.0090222409841157,0.0038678150252283,-0.0596285532674618,-0.0403238534927368,0.0648918151855468,0.2217578887939453,86,78,15613,14380
23.4,1788269552575,5.211267471313477,4.816901206970215,0.0001142196706496,0.0050712684169411,-0.9929383993148804,0.1185226663947105,0.1828310429725447,-0.0029299594437112,-1.9017921315076248e-06,-0.0008383778040297,0.0011675817659124,-0.0444274507462978,-0.0035298774018883,0.0034292442724108,-0.601080060005188,0.7991735935211182,0.0096133511330927,-0.006096574844427,-0.0463912438509133,0.054708182811737,-0.1307324767112732,-0.0533227920532226,74,83,16769,14211
23.5,1788269552675,4.760563373565674,4.957746505737305,0.0020647291094064,0.0034508821554481,-0.9930064082145692,0.1179918125271797,0.1665338967918873,0.0049917301175182,-0.000100114679786,0.066403828561306,0.076265163719654,0.0164994318038225,-0.0004852833226323,0.004072138108313,-0.6005411744117737,0.7995833158493042,0.070509048054323,0.0939071005950282,0.0616558826669494,0.634537935256958,0.0281935930252075,-0.1789827346801757,129,88,16490,14999
23.6,1788269552775,5.154929637908936,4.957746505737305,0.0012819425901398,0.005134324543178,-0.9933750629425048,0.1147955358028411,0.1881231969939716,0.0005890887353472,0.0001001830613644,-0.031053451821208,0.000728209328372,-0.1054604947566986,-0.0030482970178127,0.0039646038785576,-0.6032149195671082,0.7975629568099976,0.0130233473754309,-0.0414508630264222,0.0146579429689398,-0.0296394824981689,0.6853475570678711,0.6707592010498047,24,81,14332,14595
23.7,1788269552875,4.957746505737305,5.098591327667236,0.0011538302060216,0.0049329390749335,-0.9931049346923828,0.1171192824840545,0.1767783123908626,0.0015084930341986,8.7154164981073e-06,0.0049260472878813,-0.009347460232675,0.0638565272092819,-0.0029665688052773,0.0039523839950561,-0.6012595891952515,0.7990384101867676,0.0065173916352786,-0.0344225548627612,0.0619692381530613,0.0413666367530822,-0.0212606787681579,-0.1177024841308593,74,65,15307,14447
23.8,1788269552975,5.014084339141846,4.957746505737305,0.0005029963213019,0.0043256292119622,-0.992934226989746,0.1185857877135276,0.1760500742890456,0.0022447870890978,2.3559798832684123e-05,0.0087787080556154,-0.0044990512542426,0.020432336255908,-0.002560063265264,0.0041103614494204,-0.6003561019897461,0.7997182011604309,-0.0176024676119911,0.0471541480754558,-0.0171296774704226,0.0921249389648437,0.0175219774246215,-0.1950092315673828,103,109,15889,15139
23.9,1788269553075,5.211267471313477,4.901408672332764,0.0010106146801263,0.0045210095122456,-0.9930766820907592,0.1173764765262603,0.182165815773505,-0.0008120035790273,1.1045057296833046e-05,0.0037984896916896,-0.00537362229079,-0.0347571186721324,-0.0025387518107891,0.0039718858897686,-0.6019405126571655,0.7985271215438843,-0.0039227497854598,0.0087889408897405,-0.0477300328462411,-0.0196797847747802,0.0991365313529968,0.2910127639770508,79,70,16200,14156
24.0,1788269553175,5.183098793029785,4.929577350616455,0.001297507318668,0.0049583395011723,-0.993481993675232,0.1138734444975853,0.1770048021334197,-0.0015681734041069,4.436531521741335e-06,-0.0132817812263965,0.0133187351748347,-0.0863572359085083,-0.0025827838107943,0.0044550746679306,-0.6044741868972778,0.7966081500053406,0.0043567309901082,0.0323282951163232,-0.0779203479252676,-0.0984024405479431,-0.1709842681884765,-1.0173826217651367,61,101,15505,14945
24.1,1788269553275,5.126760482788086,5.126760482788086,0.0017315451987087,0.0049703842960298,-0.9936457872390748,0.1124290078878402,0.1815452397431884,0.0004890903337623,-3.702500387533407e-07,0.0,0.0,0.0,-0.0023653442040085,0.0047674989327788,-0.605482280254364,0.7958410978317261,-0.0209143301545168,0.0034366398557225,0.0062815799122265,0.1013458967208862,0.4118412137031555,-0.0981712341308593,74,83,15203,14722
24.2,1788269553375,4.901408672332764,5.014084339141846,0.0010668062604963,0.0048987828195095,-0.9936689138412476,0.1122361272573471,0.176936908965552,0.0011463899909782,9.958976778846216e-05,-8.984384476207197e-05,-0.0191006064414978,-0.0056481193751096,-0.0026967478916049,0.0042371405288577,-0.605542004108429,0.7957975268363953,0.0031196180887473,0.0166536862191483,-0.0086998939653656,-0.0817099809646606,-0.0768024921417236,0.4591341018676758,85,123,16056,15098
24.3,1788269553475,5.098591327667236,5.098591327667236,0.0014310051919892,0.0049281893298029,-0.9936700463294984,0.1122201159596443,0.1827561980791845,0.000663429617338,5.484197868360097e-07,0.0,0.0,0.0,-0.00273332092911,0.0045909201726317,-0.6053375005722046,0.7959510087966919,-0.0096039961928553,-0.0319705270697108,0.0102718312584778,0.0715420842170715,0.2749143838882446,0.1336269378662109,65,74,15244,14858
24.4,1788269553575,4.985915660858154,5.014084339141846,0.0015743980184197,0.0050304955802857,-0.9936389327049256,0.1124895885586738,0.1814359957689471,-0.0011693221944733,-2.231431596857288e-05,-0.003450512420386,0.0061184312216937,0.0108925951644778,-0.0025291973724961,0.0048938887193799,-0.6049196720123291,0.7962673902511597,-0.0034433763677158,0.0033142568038127,0.0050790705575519,0.0326220989227294,0.2592681050300598,0.6588134765625,78,81,15202,14740
24.5,1788269553675,2.985915422439575,4.422535419464111,0.0022318905685096,0.0054288506507873,-0.9935317039489746,0.1134030148386955,0.1717393618026661,-0.001712922189471,-9.396605459652808e-05,-0.0073420964181423,0.019333628937602,0.0223332326859235,-0.0023120576515793,0.0056420369073748,-0.6040396690368652,0.7969309687614441,-0.0152108226747939,0.0101318959433746,0.0696299800272401,-1.3747859001159668,0.0528927445411682,-0.3783931732177734,74,48,3280,12438
24.6,1788269553775,0.0,3.6619718074798575,0.0020496568176895,0.0053261709399521,-0.9918491840362548,0.1272888928651809,0.0963066739746476,0.0041290210788065,6.342751304844041e-06,0.0024018401745706,-0.0024903502780944,0.3964994847774505,-0.0024192556738853,0.0051905652508139,-0.591116189956665,0.8065661191940308,-0.0063863544642627,-0.0041503979121049,0.4653476620618563,-0.6180019378662109,-0.0056718587875366,-0.1031103134155273,7,54,0,10761
24.7,1788269553875,-2.4788732528686523,3.070422649383545,0.001877398462966,0.0054823937825858,-0.9870526790618896,0.1602915823459625,0.0309525651663625,0.0016894169571531,-1.94208734657567e-06,-0.0078530255705118,-0.0037195151671767,0.6683982610702515,-0.0028042346239089,0.0048631019890308,-0.5593705177307129,0.8288987874984741,0.001988602417948,-0.0304949412768282,0.7734023777170936,-0.7793025970458984,0.4030432105064392,0.0802421569824218,227,59,-11986,9620
24.8,1788269553975,-3.436619758605957,2.873239517211914,0.0016554439207538,0.005163780413568,-0.9788499474525452,0.2045075446367263,-0.0091455840219857,0.0001908558227238,-5.642779163729217e-07,0.0033246038947254,0.0025623119436204,0.9543231725692748,-0.0025980304926633,0.0047524748370051,-0.5241828560829163,0.8515885472297668,0.0015272834296664,0.0038829171037075,0.8876622133994112,0.0354247689247131,0.2006102800369262,0.3296976089477539,58,70,-10784,9048
24.9,1788269554075,-2.450704336166382,2.563380241394043,0.0015453106025233,0.0052421600557863,-0.9691070318222046,0.2465803027153015,0.0045849613938262,-0.0029564050479274,2.0093010135109554e-06,-0.0019260600674897,-0.0043858117423951,0.8201359510421753,-0.00271787494421,0.0047389343380928,-0.4910105168819427,0.8711365461349487,0.0044599508834565,0.0001677136657436,0.7921667473246579,0.1093162894248962,-0.0863373875617981,-0.2646312713623047,73,65,-9301,8250
25.0,1788269554175,-2.6478872299194336,2.619718313217163,0.0011115276720374,0.0051887277513742,-0.9598567485809326,0.2804406285285949,0.0007708498447684,0.003515952097677,4.810982965677005e-07,-0.0067535145208239,-0.0081917364150285,0.7864787578582764,-0.0029626255854964,0.0043555162847042,-0.4502182602882385,0.8929030895233154,0.000947266057999,-0.0069417531368672,0.7538048546320816,0.1452428102493286,-0.0084365010261535,0.1582298278808593,49,73,-9054,7433
25.1,1788269554275,-2.253521203994751,2.197183132171631,0.0011134491069242,0.0053511317819356,-0.948280930519104,0.317385196685791,0.0014149043358617,0.0030124425970653,-6.564147198970703e-07,-0.0077405762858688,-0.0035575146321207,0.6788203120231628,-0.0030974056571722,0.0044935029000043,-0.4225346446037292,0.906330406665802,-0.0024983138017607,-0.0010541935063652,0.6531828550400897,-0.0069147944450378,-0.2650942802429199,0.1537179946899414,97,61,-8768,7122
25.2,1788269554375,-2.05633807182312,1.9154930114746092,0.0015605633379891,0.0053117452189326,-0.937508463859558,0.3479183316230774,-0.0001815901839695,0.0017332290864817,5.36258548023925e-08,-0.0003042367170564,0.0131137631833553,0.6526006460189819,-0.0027616126462817,0.0047982791438698,-0.3962583839893341,0.9181223511695862,-0.0028990376560052,0.0296483864545965,0.643072101382426,0.0005176663398742,-0.2143348455429077,0.1038198471069336,59,81,-7247,6308
25.3,1788269554475,-1.6901408433914185,1.8309859037399288,0.0016262193676084,0.0055252136662602,-0.9272904396057128,0.3742983937263489,-0.0004207785650266,0.0002787908611213,2.175928330978815e-07,-0.0040166713297367,0.0001345164928352,0.5445406436920166,-0.0028414474800229,0.0049069793894886,-0.3653624057769775,0.9308481216430664,0.0033868757507577,-0.0052598167041551,0.5685198412076203,0.0937062501907348,-0.055539846420288,0.2563772201538086,70,52,-8222,6416
25.4,1788269554575,-1.97183096408844,1.9154930114746092,0.0013816705904901,0.005403418559581,-0.9179457426071168,0.3966667950153351,-0.0041776551581921,0.0015489709242251,-1.0177376837642484e-06,-0.0051392158493399,-0.0127320606261491,0.5531531572341919,-0.0030581997707486,0.0045957835391163,-0.3419575095176697,0.9396992325782776,-0.0081460874743259,-0.0186709867127734,0.5883177574857896,0.0182086825370788,-0.0016641020774841,0.0246009826660156,58,83,-7620,6686
25.5,1788269554675,-1.408450722694397,1.6901408433914185,0.0012717710342258,0.0051543973386287,-0.9052998423576356,0.4247398972511291,0.0102748650998898,-0.0021855875868437,-2.383938757036331e-07,0.0062191588804125,0.0003758339444175,0.5309481024742126,-0.0028468202799558,0.0044496040791273,-0.3184266090393066,0.947932779788971,0.0088543493799586,-0.0020175770673778,0.4878223879175015,-0.0200529098510742,-0.0851122736930847,0.2429084777832031,75,27,-5959,5292
25.6,1788269554775,-1.436619758605957,1.2957746982574463,0.0010837109293788,0.0052156690508127,-0.8965454697608948,0.4429197609424591,-0.0131711528726934,0.0007553047704671,-4.8886631374817067e-08,-0.0071740415878593,-0.0052082911133766,0.3706548511981964,-0.0030216490849852,0.0043871710076928,-0.2992762625217438,0.954151690006256,-0.0065071355060469,-0.0114130850136318,0.3580802241772541,0.0946748256683349,-0.0938811898231506,0.1824569702148437,82,92,-6426,5902
25.7,1788269554875,-1.5492957830429075,1.5774648189544678,0.0009733927436172,0.0052791661582887,-0.886630117893219,0.4624480307102203,0.0018639471969629,0.0011802999960566,2.1356388284508105e-07,-0.0037921741604804,-0.00396159151569,0.4665935933589935,-0.0031542005017399,0.0042567150667309,-0.2737744152545929,0.9617794156074524,-7.241902075693535e-05,-0.0096728982434601,0.5235025861367136,-0.1101531386375427,0.0527700185775756,0.0260133743286132,77,70,-5680,4757
25.8,1788269554975,-1.2957746982574463,1.154929518699646,0.0007697539404034,0.0053156577050685,-0.8768511414527893,0.4807319343090057,-0.0003333415177953,0.0008052485576079,-2.7161666003665034e-08,-0.0062278034165501,-0.0036995541304349,0.4380995035171509,-0.0033415434882044,0.0041460078209638,-0.2546694278717041,0.9670134782791138,-0.0031943755481172,-0.0087223793523236,0.4033482202434295,-0.0345939397811889,-0.069737434387207,0.0687055587768554,33,73,-5408,4691
25.9,1788269555075,-1.211267590522766,1.0704225301742554,0.0006858692504465,0.0053652296774089,-0.8681419491767883,0.4962865710258484,0.0020414506279599,0.0002202571551379,1.8028977700506186e-07,-0.0020927854347974,-0.0022122485097497,0.295368492603302,-0.0034070974215865,0.0041926680132746,-0.2411080449819564,0.9704833030700684,-0.0010293607953519,-0.0013208954012631,0.2782351428708715,-0.1963618993759155,0.0654765367507934,0.0812759399414062,130,88,-6349,4829
26.0,1788269555175,-1.183098554611206,1.2676056623458862,0.0006707827560603,0.0052714254707098,-0.8591152429580688,0.5117545127868652,-0.000398481452803,0.0011309806172177,3.550409949445674e-07,0.0005160305299796,-0.0018266738625243,0.3765725493431091,-0.0033477237448096,0.0040774652734398,-0.2199713438749313,0.9754920601844788,-0.0003451050483627,-0.0031811031269312,0.3708220177666534,-0.0829395651817321,0.0898482203483581,0.0156593322753906,80,107,-5630,4865
26.1,1788269555275,-1.183098554611206,1.2676056623458862,0.0002060015685856,0.0052425200119614,-0.8494537472724915,0.5276370048522949,-0.0026526757567273,0.0005790567404881,-1.2121470684545971e-06,-0.008404036052525,-0.0120873162522912,0.3655006885528564,-0.0036860713735222,0.0037577664479613,-0.203727588057518,0.9790135025978088,-0.0093493611161552,-0.0073335575611001,0.3615183638727627,0.0202046036720275,0.0092478990554809,0.0624055862426757,43,127,-4732,5235
26.2,1788269555375,-0.7605633735656738,0.8450704216957092,-0.0001332669053226,0.0052729258313775,-0.8390411734580994,0.5440423488616943,0.0014251358474506,-0.0003278237089537,1.0064253619773668e-06,-0.0033997264690697,-0.00632408214733,0.348976194858551,-0.003900883719325,0.0035617211833596,-0.1880538463592529,0.9821444749832152,-0.0019684588323445,-0.0048127121270143,0.378720460130187,0.0783342719078064,-0.0184854269027709,0.0176563262939453,12,16,-4118,3752
26.3,1788269555475,0.0,0.0,-0.0002411506138741,0.0052631245926022,-0.8334699273109436,0.5525398850440979,0.0005489683801459,-0.0005734765855304,-2.416191279689584e-07,-0.0015312824398279,-0.0005641161696985,0.1939229965209961,-0.0039784759283065,0.0034695658832788,-0.1753218024969101,0.9844970703125,-0.0011238965879547,0.0003539980016767,0.119623411449624,0.0214722752571105,-0.1584333181381225,0.0630292892456054,0,0,0,894
26.4,1788269555575,0.0,0.0,-0.000277065206319,0.0052927117794752,-0.8329786062240601,0.5532797574996948,-7.803326349618585e-05,-0.0001643814753766,-1.3049774588055106e-07,-0.0012673629680648,-0.0017345011001452,-0.0316725373268127,-0.0040219910442829,0.0034604622051119,-0.1757628321647644,0.9844183325767516,-0.0005541024424386,0.000429908496043,-0.0407870570241288,-0.0077152252197265,-0.0301824808120727,0.078134536743164,28,131,1385,5167
26.5,1788269555675,0.9295774698257446,3.521126747131348,-0.0005173736717551,0.0053910799324512,-0.8277230262756348,0.5611106753349304,0.0457306863534437,0.0055831215573514,-5.544342002281314e-06,-0.0075112995691597,-7.993410690687597e-06,0.3515998721122741,-0.0043083569034934,0.0033279694616794,-0.1599536389112472,0.9871094822883606,-0.0045249525970004,-0.0042071205118356,0.438257198068647,0.7856078147888184,-0.2579964399337768,0.1315336227416992,116,206,7698,15445
26.6,1788269555775,1.7183098793029783,5.943662166595459,-0.0005064867436885,0.0054164319299161,-0.8119540810585022,0.5836960673332214,0.1158445771328074,0.0038289195634064,-1.171815673064001e-06,-0.000164540237165,-0.0023302666377276,0.5407819747924805,-0.0042506428435444,0.0032395077869296,-0.1356000453233719,0.9907492995262146,0.0060363383613983,-0.0192316273007382,0.6066024927627975,0.3925682306289673,-0.0290968418121337,-0.099095344543457,121,210,7702,21263
26.7,1788269555875,2.2253520488739014,8.112675666809082,0.0001930745784193,0.0057113030925393,-0.790581226348877,0.612330436706543,0.1704801700582322,0.0041546346190314,-1.833609935120464e-05,0.0014573030639439,0.0045783235691487,0.7899788022041321,-0.0040360912680625,0.0041471095755696,-0.1002410426735878,0.9949464201927184,-0.0109343764846157,0.0185902618595632,0.8398675788686499,0.3596022725105285,0.3601375818252563,-0.6317949295043945,87,123,9097,23658
26.8,1788269555975,2.507042169570923,7.746479034423828,-0.0002176673151552,0.0053482674993574,-0.7624219655990601,0.6470580697059631,0.1909316512875379,-9.870467053050683e-05,0.0001271880298629,0.0051899040117859,-0.031751412898302,0.897295355796814,-0.0039945188909769,0.0034983037039637,-0.0602264292538166,0.9981706142425536,0.0102030481102726,-0.0310332729472332,0.902756960486808,0.0417103171348571,0.1252822875976562,-0.0713615417480468,105,55,9764,21015
26.9,1788269556075,3.0422534942626958,6.985915660858154,-0.0004732068628072,0.0055554714053869,-0.737260639667511,0.6755854487419128,0.1796532338794581,0.0025213316959143,4.45632944720528e-05,-0.0127123808488249,-0.0202288422733545,0.7538513541221619,-0.0041429419070482,0.0032034972682595,-0.0135514764115214,0.9998944401741028,0.0134017071867515,-0.0374167991576142,0.7773157067917514,0.2434895038604736,-0.0772236585617065,0.0846681594848632,109,47,11327,18762
27.0,1788269556175,3.014084577560425,6.901408672332764,-0.0004677583929151,0.0053288349881768,-0.7158003449440002,0.6982845067977905,0.1794517293408251,0.0047822302778741,-5.62038749639156e-06,-0.0033173260744661,-0.0014490454923361,0.5013359785079956,-0.0041754515841603,0.0033437814563512,0.0102174086496233,0.9999335408210754,0.0132212717919523,-0.0024748208956453,0.4862593554796655,-0.39311683177948,-0.1083853840827941,-0.2049169540405273,38,70,11016,19258
27.1,1788269556275,3.211267709732056,6.873239517211914,-2.921861596405506e-05,0.0056458013132214,-0.7003547549247742,0.7137725353240967,0.1809870976105499,0.0050330226905392,-2.274416284303553e-06,-0.0057710157707333,-0.0027188993990421,0.4549703598022461,-0.0040507800877094,0.0038513084873557,0.0390562713146209,0.9992213845252992,0.0029458104287606,-0.0124008153238353,0.5602702702866881,0.1417577862739563,0.1616852879524231,-0.2105979919433593,49,106,11007,19705
27.2,1788269556375,3.802816867828369,6.676056385040283,-0.0003401155117899,0.0061093727126717,-0.6813532114028931,0.7319291830062866,0.1831711500266598,0.0063570414325297,7.930619348039588e-05,-0.018573997542262,-0.0134633835405111,0.5404008626937866,-0.0046634329482913,0.0039797285571694,0.0632788315415382,0.9979770183563232,-0.0058815052727133,0.0062706059246368,0.5513114233340888,-0.1950589418411255,-0.1269957423210144,-0.4050073623657226,66,84,11761,18903
27.3,1788269556475,3.6056337356567374,6.2253522872924805,-0.0001160933170467,0.0067365737631917,-0.6634512543678284,0.7481891512870789,0.1737802867006156,0.0033951826664606,4.320890178526351e-05,-0.0134435780346393,0.0125969089567661,0.4516049921512604,-0.0049703875556588,0.0045959809795022,0.084357276558876,0.9964125752449036,-0.0171072801607575,0.0452642782706777,0.3926162967561928,0.2472144961357116,-0.1918670535087585,-0.1782693862915039,73,89,13227,17572
27.4,1788269556575,3.802816867828369,6.3380279541015625,-0.0004285944160073,0.0067136595025658,-0.6517807245254517,0.7583776712417603,0.1789598055083031,0.0043266228123117,1.0782962532972152e-05,0.0002851197496056,0.0015403908910229,0.3337487876415252,-0.0051719611510634,0.004460671916604,0.0993762463331222,0.9950265288352966,-0.0015791864119395,0.0093986611659022,0.3678202570472284,0.0674802064895629,0.1505372524261474,0.2972774505615234,52,78,12823,16990
27.5,1788269556675,4.309859275817871,5.85915470123291,-0.0007471519056707,0.0072445785626769,-0.6385305523872375,0.7695620656013489,0.179431273323204,0.003464855577211,-4.009023710439982e-05,-0.0082992631942033,0.0057096262462437,0.2828549146652221,-0.0056790094822645,0.0043286234140396,0.1172772645950317,0.993073582649231,-0.00334960174342,0.0025568316915727,0.2400805227268201,-0.2180438637733459,0.1813888549804687,0.9334650039672852,56,69,13182,16846
27.6,1788269556775,4.676056385040283,5.633802890777588,-0.0006781250704079,0.0068682553246617,-0.6299699544906616,0.7765887975692749,0.184979173342008,0.0019246092913012,-2.5009885520853287e-05,0.0086117265745997,-0.0009471732191741,0.1952926218509674,-0.0053987642750144,0.0042582591995596,0.1268120259046554,0.9919030070304872,0.0053409265719906,-0.0033754855729455,0.1885604678596164,-0.1743638515472412,-0.0146561861038208,0.3467636108398437,75,53,14081,15216
27.7,1788269556875,4.2253522872924805,5.746479034423828,0.0015054722316563,0.007230847608298,-0.6247552633285522,0.7807856798171997,0.16050158623211,0.0030132112055909,-0.000194283780948,0.0624918937683105,0.0801461786031723,0.1487284898757934,-0.0037698065862059,0.0060895308852195,0.1359001398086547,0.9906967282295228,0.0262518254564524,-0.0041487738300704,0.2113823277964164,0.4804361462593078,0.7113223075866699,-0.1631555557250976,119,121,14576,17920
