time_s,timestamp_ms,wheel_vels__velocity_left,wheel_vels__velocity_right,odom__orient_x,odom__orient_y,odom__orient_z,odom__orient_w,odom__lin_x,odom__lin_y,odom__lin_z,odom__ang_x,odom__ang_y,odom__ang_z,imu__orient_x,imu__orient_y,imu__orient_z,imu__orient_w,imu__angvel_x,imu__angvel_y,imu__angvel_z,imu__acc_x,imu__acc_y,imu__acc_z,wheel_status__current_ma_left,wheel_status__current_ma_right,wheel_status__pwm_left,wheel_status__pwm_right
0.0,1788440784571,0.0,0.0,-0.0025165469851344,-0.0008344003581441,0.3436131477355957,0.9391075968742372,2.6575028731653665e-05,-3.065170940301108e-05,-3.35398177400463e-09,0.0005690527032129,0.0007482665241695,0.0002943473227787,-0.0025419974699616,-0.0008366648107767,0.3438152074813843,0.939033567905426,0.0001332877907496,0.0001739240378388,0.0007629814308501,0.0271796584129333,0.0178967714309692,-0.013676643371582,0,0,0,0
0.1,1788440784671,0.0,0.0,-0.0025165469851344,-0.0008344003581441,0.3436131477355957,0.9391075968742372,2.6575028731653665e-05,-3.065170940301108e-05,-3.35398177400463e-09,0.0005690527032129,0.0007482665241695,0.0002943473227787,-0.0025419974699616,-0.0008366648107767,0.3438152074813843,0.939033567905426,0.0001332877907496,0.0001739240378388,0.0007629814308501,0.0271796584129333,0.0178967714309692,-0.013676643371582,0,0,0,0
0.2,1788440784771,0.0,0.0,-0.0025165469851344,-0.0008344003581441,0.3436131477355957,0.9391075968742372,2.6575028731653665e-05,-3.065170940301108e-05,-3.35398177400463e-09,0.0005690527032129,0.0007482665241695,0.0002943473227787,-0.0025419974699616,-0.0008366648107767,0.3438152074813843,0.939033567905426,0.0001332877907496,0.0001739240378388,0.0007629814308501,0.0271796584129333,0.0178967714309692,-0.013676643371582,0,0,0,0
0.3,1788440784871,0.0,0.0,-0.0025165469851344,-0.0008344003581441,0.3436131477355957,0.9391075968742372,2.6575028731653665e-05,-3.065170940301108e-05,-3.35398177400463e-09,0.0005690527032129,0.0007482665241695,0.0002943473227787,-0.0025419974699616,-0.0008366648107767,0.3438152074813843,0.939033567905426,0.0001332877907496,0.0001739240378388,0.0007629814308501,0.0271796584129333,0.0178967714309692,-0.013676643371582,0,0,0,0
0.4,1788440784971,0.0,0.0,-0.0025165469851344,-0.0008344003581441,0.3436131477355957,0.9391075968742372,2.6575028731653665e-05,-3.065170940301108e-05,-3.35398177400463e-09,0.0005690527032129,0.0007482665241695,0.0002943473227787,-0.0025419974699616,-0.0008366648107767,0.3438152074813843,0.939033567905426,0.0001332877907496,0.0001739240378388,0.0007629814308501,0.0271796584129333,0.0178967714309692,-0.013676643371582,0,0,0,0
0.5,1788440785071,0.0,0.0,-0.0025165469851344,-0.0008344003581441,0.3436131477355957,0.9391075968742372,2.6575028731653665e-05,-3.065170940301108e-05,-3.35398177400463e-09,0.0005690527032129,0.0007482665241695,0.0002943473227787,-0.0025419974699616,-0.0008366648107767,0.3438152074813843,0.939033567905426,0.0001332877907496,0.0001739240378388,0.0007629814308501,0.0271796584129333,0.0178967714309692,-0.013676643371582,0,0,0,0
0.6,1788440785171,0.0,0.0,-0.0025165469851344,-0.0008344003581441,0.3436131477355957,0.9391075968742372,2.6575028731653665e-05,-3.065170940301108e-05,-3.35398177400463e-09,0.0005690527032129,0.0007482665241695,0.0002943473227787,-0.0025419974699616,-0.0008366648107767,0.3438152074813843,0.939033567905426,0.0001332877907496,0.0001739240378388,0.0007629814308501,0.0271796584129333,0.0178967714309692,-0.013676643371582,0,0,0,0
0.7,1788440785271,0.0,0.0,-0.0025165469851344,-0.0008344003581441,0.3436131477355957,0.9391075968742372,2.6575028731653665e-05,-3.065170940301108e-05,-3.35398177400463e-09,0.0005690527032129,0.0007482665241695,0.0002943473227787,-0.0025419974699616,-0.0008366648107767,0.3438152074813843,0.939033567905426,0.0001332877907496,0.0001739240378388,0.0007629814308501,0.0271796584129333,0.0178967714309692,-0.013676643371582,0,0,0,0
0.8,1788440785371,0.0,0.0,-0.0025165469851344,-0.0008344003581441,0.3436131477355957,0.9391075968742372,2.6575028731653665e-05,-3.065170940301108e-05,-3.35398177400463e-09,0.0005690527032129,0.0007482665241695,0.0002943473227787,-0.0025419974699616,-0.0008366648107767,0.3438152074813843,0.939033567905426,0.0001332877907496,0.0001739240378388,0.0007629814308501,0.0271796584129333,0.0178967714309692,-0.013676643371582,0,0,0,0
0.9,1788440785471,0.0,0.0,-0.0025165469851344,-0.0008344003581441,0.3436131477355957,0.9391075968742372,2.6575028731653665e-05,-3.065170940301108e-05,-3.35398177400463e-09,0.0005690527032129,0.0007482665241695,0.0002943473227787,-0.0025419974699616,-0.0008366648107767,0.3438152074813843,0.939033567905426,0.0001332877907496,0.0001739240378388,0.0007629814308501,0.0271796584129333,0.0178967714309692,-0.013676643371582,0,0,0,0
1.0,1788440785571,0.0,0.0,-0.0025165469851344,-0.0008344003581441,0.3436131477355957,0.9391075968742372,2.6575028731653665e-05,-3.065170940301108e-05,-3.35398177400463e-09,0.0005690527032129,0.0007482665241695,0.0002943473227787,-0.0025419974699616,-0.0008366648107767,0.3438152074813843,0.939033567905426,0.0001332877907496,0.0001739240378388,0.0007629814308501,0.0271796584129333,0.0178967714309692,-0.013676643371582,0,0,0,0
1.1,1788440785671,0.0,0.0,-0.0025165469851344,-0.0008344003581441,0.3436131477355957,0.9391075968742372,2.6575028731653665e-05,-3.065170940301108e-05,-3.35398177400463e-09,0.0005690527032129,0.0007482665241695,0.0002943473227787,-0.0025419974699616,-0.0008366648107767,0.3438152074813843,0.939033567905426,0.0001332877907496,0.0001739240378388,0.0007629814308501,0.0271796584129333,0.0178967714309692,-0.013676643371582,0,0,0,0
1.2,1788440785771,0.0,0.0,-0.0025165469851344,-0.0008344003581441,0.3436131477355957,0.9391075968742372,2.6575028731653665e-05,-3.065170940301108e-05,-3.35398177400463e-09,0.0005690527032129,0.0007482665241695,0.0002943473227787,-0.0025419974699616,-0.0008366648107767,0.3438152074813843,0.939033567905426,0.0001332877907496,0.0001739240378388,0.0007629814308501,0.0271796584129333,0.0178967714309692,-0.013676643371582,0,0,0,0
1.3,1788440785871,0.0,0.0,-0.0025165469851344,-0.0008344003581441,0.3436131477355957,0.9391075968742372,2.6575028731653665e-05,-3.065170940301108e-05,-3.35398177400463e-09,0.0005690527032129,0.0007482665241695,0.0002943473227787,-0.0025419974699616,-0.0008366648107767,0.3438152074813843,0.939033567905426,0.0001332877907496,0.0001739240378388,0.0007629814308501,0.0271796584129333,0.0178967714309692,-0.013676643371582,0,0,0,0
1.4,1788440785971,0.0,0.0,-0.0025165469851344,-0.0008344003581441,0.3436131477355957,0.9391075968742372,2.6575028731653665e-05,-3.065170940301108e-05,-3.35398177400463e-09,0.0005690527032129,0.0007482665241695,0.0002943473227787,-0.0025419974699616,-0.0008366648107767,0.3438152074813843,0.939033567905426,0.0001332877907496,0.0001739240378388,0.0007629814308501,0.0271796584129333,0.0178967714309692,-0.013676643371582,0,0,0,0
1.5,1788440786071,0.0,0.0,-0.0025165469851344,-0.0008344003581441,0.3436131477355957,0.9391075968742372,2.6575028731653665e-05,-3.065170940301108e-05,-3.35398177400463e-09,0.0005690527032129,0.0007482665241695,0.0002943473227787,-0.0025419974699616,-0.0008366648107767,0.3438152074813843,0.939033567905426,0.0001332877907496,0.0001739240378388,0.0007629814308501,0.0271796584129333,0.0178967714309692,-0.013676643371582,0,0,0,0
1.6,1788440786171,0.0,0.0,-0.0025165469851344,-0.0008344003581441,0.3436131477355957,0.9391075968742372,2.6575028731653665e-05,-3.065170940301108e-05,-3.35398177400463e-09,0.0005690527032129,0.0007482665241695,0.0002943473227787,-0.0025419974699616,-0.0008366648107767,0.3438152074813843,0.939033567905426,0.0001332877907496,0.0001739240378388,0.0007629814308501,0.0271796584129333,0.0178967714309692,-0.013676643371582,0,0,0,0
1.7,1788440786271,0.0,0.0,-0.0025165469851344,-0.0008344003581441,0.3436131477355957,0.9391075968742372,2.6575028731653665e-05,-3.065170940301108e-05,-3.35398177400463e-09,0.0005690527032129,0.0007482665241695,0.0002943473227787,-0.0025419974699616,-0.0008366648107767,0.3438152074813843,0.939033567905426,0.0001332877907496,0.0001739240378388,0.0007629814308501,0.0271796584129333,0.0178967714309692,-0.013676643371582,0,0,0,0
1.8,1788440786371,0.0,0.0,-0.0025165469851344,-0.0008344003581441,0.3436131477355957,0.9391075968742372,2.6575028731653665e-05,-3.065170940301108e-05,-3.35398177400463e-09,0.0005690527032129,0.0007482665241695,0.0002943473227787,-0.0025419974699616,-0.0008366648107767,0.3438152074813843,0.939033567905426,0.0001332877907496,0.0001739240378388,0.0007629814308501,0.0271796584129333,0.0178967714309692,-0.013676643371582,0,0,0,0
1.9,1788440786471,0.0,0.0,-0.0025165469851344,-0.0008344003581441,0.3436131477355957,0.9391075968742372,2.6575028731653665e-05,-3.065170940301108e-05,-3.35398177400463e-09,0.0005690527032129,0.0007482665241695,0.0002943473227787,-0.0025419974699616,-0.0008366648107767,0.3438152074813843,0.939033567905426,0.0001332877907496,0.0001739240378388,0.0007629814308501,0.0271796584129333,0.0178967714309692,-0.013676643371582,0,0,0,0
2.0,1788440786571,0.0,0.0,-0.0025165469851344,-0.0008344003581441,0.3436131477355957,0.9391075968742372,2.6575028731653665e-05,-3.065170940301108e-05,-3.35398177400463e-09,0.0005690527032129,0.0007482665241695,0.0002943473227787,-0.0025419974699616,-0.0008366648107767,0.3438152074813843,0.939033567905426,0.0001332877907496,0.0001739240378388,0.0007629814308501,0.0271796584129333,0.0178967714309692,-0.013676643371582,0,0,0,0
2.1,1788440786671,0.0,0.0,-0.0025165469851344,-0.0008344003581441,0.3436131477355957,0.9391075968742372,2.6575028731653665e-05,-3.065170940301108e-05,-3.35398177400463e-09,0.0005690527032129,0.0007482665241695,0.0002943473227787,-0.0025419974699616,-0.0008366648107767,0.3438152074813843,0.939033567905426,0.0001332877907496,0.0001739240378388,0.0007629814308501,0.0271796584129333,0.0178967714309692,-0.013676643371582,0,0,0,0
2.2,1788440786771,0.0,0.0,-0.0025165469851344,-0.0008344003581441,0.3436131477355957,0.9391075968742372,2.6575028731653665e-05,-3.065170940301108e-05,-3.35398177400463e-09,0.0005690527032129,0.0007482665241695,0.0002943473227787,-0.0025419974699616,-0.0008366648107767,0.3438152074813843,0.939033567905426,0.0001332877907496,0.0001739240378388,0.0007629814308501,0.0271796584129333,0.0178967714309692,-0.013676643371582,0,0,0,0
2.3,1788440786871,0.0,0.0,-0.0025165469851344,-0.0008344003581441,0.3436131477355957,0.9391075968742372,2.6575028731653665e-05,-3.065170940301108e-05,-3.35398177400463e-09,0.0005690527032129,0.0007482665241695,0.0002943473227787,-0.0025419974699616,-0.0008366648107767,0.3438152074813843,0.939033567905426,0.0001332877907496,0.0001739240378388,0.0007629814308501,0.0271796584129333,0.0178967714309692,-0.013676643371582,0,0,0,0
2.4,1788440786971,0.0,0.0,-0.0025165469851344,-0.0008344003581441,0.3436131477355957,0.9391075968742372,2.6575028731653665e-05,-3.065170940301108e-05,-3.35398177400463e-09,0.0005690527032129,0.0007482665241695,0.0002943473227787,-0.0025419974699616,-0.0008366648107767,0.3438152074813843,0.939033567905426,0.0001332877907496,0.0001739240378388,0.0007629814308501,0.0271796584129333,0.0178967714309692,-0.013676643371582,0,0,0,0
2.5,1788440787071,0.0,0.0,-0.0025165469851344,-0.0008344003581441,0.3436131477355957,0.9391075968742372,2.6575028731653665e-05,-3.065170940301108e-05,-3.35398177400463e-09,0.0005690527032129,0.0007482665241695,0.0002943473227787,-0.0025419974699616,-0.0008366648107767,0.3438152074813843,0.939033567905426,0.0001332877907496,0.0001739240378388,0.0007629814308501,0.0271796584129333,0.0178967714309692,-0.013676643371582,0,0,0,0
2.6,1788440787171,0.0,0.0,-0.0025165469851344,-0.0008344003581441,0.3436131477355957,0.9391075968742372,2.6575028731653665e-05,-3.065170940301108e-05,-3.35398177400463e-09,0.0005690527032129,0.0007482665241695,0.0002943473227787,-0.0025419974699616,-0.0008366648107767,0.3438152074813843,0.939033567905426,0.0001332877907496,0.0001739240378388,0.0007629814308501,0.0271796584129333,0.0178967714309692,-0.013676643371582,0,0,0,0
2.7,1788440787271,0.0,0.0,-0.0025165469851344,-0.0008344003581441,0.3436131477355957,0.9391075968742372,2.6575028731653665e-05,-3.065170940301108e-05,-3.35398177400463e-09,0.0005690527032129,0.0007482665241695,0.0002943473227787,-0.0025419974699616,-0.0008366648107767,0.3438152074813843,0.939033567905426,0.0001332877907496,0.0001739240378388,0.0007629814308501,0.0271796584129333,0.0178967714309692,-0.013676643371582,0,0,0,0
2.8,1788440787371,0.0,0.0,-0.0025165469851344,-0.0008344003581441,0.3436131477355957,0.9391075968742372,2.6575028731653665e-05,-3.065170940301108e-05,-3.35398177400463e-09,0.0005690527032129,0.0007482665241695,0.0002943473227787,-0.0025419974699616,-0.0008366648107767,0.3438152074813843,0.939033567905426,0.0001332877907496,0.0001739240378388,0.0007629814308501,0.0271796584129333,0.0178967714309692,-0.013676643371582,0,0,0,0
2.9,1788440787471,0.0,0.0,-0.0025165469851344,-0.0008344003581441,0.3436131477355957,0.9391075968742372,2.6575028731653665e-05,-3.065170940301108e-05,-3.35398177400463e-09,0.0005690527032129,0.0007482665241695,0.0002943473227787,-0.0025419974699616,-0.0008366648107767,0.3438152074813843,0.939033567905426,0.0001332877907496,0.0001739240378388,0.0007629814308501,0.0271796584129333,0.0178967714309692,-0.013676643371582,0,0,0,0
3.0,1788440787571,0.0,0.0,-0.0025165469851344,-0.0008344003581441,0.3436131477355957,0.9391075968742372,2.6575028731653665e-05,-3.065170940301108e-05,-3.35398177400463e-09,0.0005690527032129,0.0007482665241695,0.0002943473227787,-0.0025419974699616,-0.0008366648107767,0.3438152074813843,0.939033567905426,0.0001332877907496,0.0001739240378388,0.0007629814308501,0.0271796584129333,0.0178967714309692,-0.013676643371582,0,0,0,0
3.1,1788440787671,0.0,0.0,-0.0025165469851344,-0.0008344003581441,0.3436131477355957,0.9391075968742372,2.6575028731653665e-05,-3.065170940301108e-05,-3.35398177400463e-09,0.0005690527032129,0.0007482665241695,0.0002943473227787,-0.0025419974699616,-0.0008366648107767,0.3438152074813843,0.939033567905426,0.0001332877907496,0.0001739240378388,0.0007629814308501,0.0271796584129333,0.0178967714309692,-0.013676643371582,0,0,0,0
3.2,1788440787771,0.0,0.0,-0.0025165469851344,-0.0008344003581441,0.3436131477355957,0.9391075968742372,2.6575028731653665e-05,-3.065170940301108e-05,-3.35398177400463e-09,0.0005690527032129,0.0007482665241695,0.0002943473227787,-0.0025419974699616,-0.0008366648107767,0.3438152074813843,0.939033567905426,0.0001332877907496,0.0001739240378388,0.0007629814308501,0.0271796584129333,0.0178967714309692,-0.013676643371582,0,0,0,0
3.3,1788440787871,0.0,0.0,-0.0025165469851344,-0.0008344003581441,0.3436131477355957,0.9391075968742372,2.6575028731653665e-05,-3.065170940301108e-05,-3.35398177400463e-09,0.0005690527032129,0.0007482665241695,0.0002943473227787,-0.0025419974699616,-0.0008366648107767,0.3438152074813843,0.939033567905426,0.0001332877907496,0.0001739240378388,0.0007629814308501,0.0271796584129333,0.0178967714309692,-0.013676643371582,0,0,0,0
3.4,1788440787971,0.0,0.0,-0.0025165469851344,-0.0008344003581441,0.3436131477355957,0.9391075968742372,2.6575028731653665e-05,-3.065170940301108e-05,-3.35398177400463e-09,0.0005690527032129,0.0007482665241695,0.0002943473227787,-0.0025419974699616,-0.0008366648107767,0.3438152074813843,0.939033567905426,0.0001332877907496,0.0001739240378388,0.0007629814308501,0.0271796584129333,0.0178967714309692,-0.013676643371582,0,0,0,0
3.5,1788440788071,0.0,0.0,-0.0025165469851344,-0.0008344003581441,0.3436131477355957,0.9391075968742372,2.6575028731653665e-05,-3.065170940301108e-05,-3.35398177400463e-09,0.0005690527032129,0.0007482665241695,0.0002943473227787,-0.0025419974699616,-0.0008366648107767,0.3438152074813843,0.939033567905426,0.0001332877907496,0.0001739240378388,0.0007629814308501,0.0271796584129333,0.0178967714309692,-0.013676643371582,0,0,0,0
3.6,1788440788171,0.0,0.0,-0.0025165469851344,-0.0008344003581441,0.3436131477355957,0.9391075968742372,2.6575028731653665e-05,-3.065170940301108e-05,-3.35398177400463e-09,0.0005690527032129,0.0007482665241695,0.0002943473227787,-0.0025419974699616,-0.0008366648107767,0.3438152074813843,0.939033567905426,0.0001332877907496,0.0001739240378388,0.0007629814308501,0.0271796584129333,0.0178967714309692,-0.013676643371582,0,0,0,0
3.7,1788440788271,0.0,0.0,-0.0025165469851344,-0.0008344003581441,0.3436131477355957,0.9391075968742372,2.6575028731653665e-05,-3.065170940301108e-05,-3.35398177400463e-09,0.0005690527032129,0.0007482665241695,0.0002943473227787,-0.0025419974699616,-0.0008366648107767,0.3438152074813843,0.939033567905426,0.0001332877907496,0.0001739240378388,0.0007629814308501,0.0271796584129333,0.0178967714309692,-0.013676643371582,0,0,0,0
3.8,1788440788371,0.0,0.0,-0.0025165469851344,-0.0008344003581441,0.3436131477355957,0.9391075968742372,2.6575028731653665e-05,-3.065170940301108e-05,-3.35398177400463e-09,0.0005690527032129,0.0007482665241695,0.0002943473227787,-0.0025419974699616,-0.0008366648107767,0.3438152074813843,0.939033567905426,0.0001332877907496,0.0001739240378388,0.0007629814308501,0.0271796584129333,0.0178967714309692,-0.013676643371582,0,0,0,0
3.9,1788440788471,0.0,0.0,-0.0025165469851344,-0.0008344003581441,0.3436131477355957,0.9391075968742372,2.6575028731653665e-05,-3.065170940301108e-05,-3.35398177400463e-09,0.0005690527032129,0.0007482665241695,0.0002943473227787,-0.0025419974699616,-0.0008366648107767,0.3438152074813843,0.939033567905426,0.0001332877907496,0.0001739240378388,0.0007629814308501,0.0271796584129333,0.0178967714309692,-0.013676643371582,0,0,0,0
4.0,1788440788571,0.0,0.0,-0.0025165469851344,-0.0008344003581441,0.3436131477355957,0.9391075968742372,2.6575028731653665e-05,-3.065170940301108e-05,-3.35398177400463e-09,0.0005690527032129,0.0007482665241695,0.0002943473227787,-0.0025419974699616,-0.0008366648107767,0.3438152074813843,0.939033567905426,0.0001332877907496,0.0001739240378388,0.0007629814308501,0.0271796584129333,0.0178967714309692,-0.013676643371582,0,0,0,0
4.1,1788440788671,0.0,0.0,-0.0025165469851344,-0.0008344003581441,0.3436131477355957,0.9391075968742372,2.6575028731653665e-05,-3.065170940301108e-05,-3.35398177400463e-09,0.0005690527032129,0.0007482665241695,0.0002943473227787,-0.0025419974699616,-0.0008366648107767,0.3438152074813843,0.939033567905426,0.0001332877907496,0.0001739240378388,0.0007629814308501,0.0271796584129333,0.0178967714309692,-0.013676643371582,0,0,0,0
4.2,1788440788771,0.0,0.0,-0.0025165469851344,-0.0008344003581441,0.3436131477355957,0.9391075968742372,2.6575028731653665e-05,-3.065170940301108e-05,-3.35398177400463e-09,0.0005690527032129,0.0007482665241695,0.0002943473227787,-0.0025419974699616,-0.0008366648107767,0.3438152074813843,0.939033567905426,0.0001332877907496,0.0001739240378388,0.0007629814308501,0.0271796584129333,0.0178967714309692,-0.013676643371582,0,0,0,0
4.3,1788440788871,0.0,0.0,-0.0025165469851344,-0.0008344003581441,0.3436131477355957,0.9391075968742372,2.6575028731653665e-05,-3.065170940301108e-05,-3.35398177400463e-09,0.0005690527032129,0.0007482665241695,0.0002943473227787,-0.0025419974699616,-0.0008366648107767,0.3438152074813843,0.939033567905426,0.0001332877907496,0.0001739240378388,0.0007629814308501,0.0271796584129333,0.0178967714309692,-0.013676643371582,0,0,0,0
4.4,1788440788971,0.0,0.0,-0.0025165469851344,-0.0008344003581441,0.3436131477355957,0.9391075968742372,2.6575028731653665e-05,-3.065170940301108e-05,-3.35398177400463e-09,0.0005690527032129,0.0007482665241695,0.0002943473227787,-0.0025419974699616,-0.0008366648107767,0.3438152074813843,0.939033567905426,0.0001332877907496,0.0001739240378388,0.0007629814308501,0.0271796584129333,0.0178967714309692,-0.013676643371582,0,0,0,0
4.5,1788440789071,0.0,0.0,-0.0025165469851344,-0.0008344003581441,0.3436131477355957,0.9391075968742372,2.6575028731653665e-05,-3.065170940301108e-05,-3.35398177400463e-09,0.0005690527032129,0.0007482665241695,0.0002943473227787,-0.0025419974699616,-0.0008366648107767,0.3438152074813843,0.939033567905426,0.0001332877907496,0.0001739240378388,0.0007629814308501,0.0271796584129333,0.0178967714309692,-0.013676643371582,0,0,0,0
4.6,1788440789171,0.0,0.0,-0.0025165469851344,-0.0008344003581441,0.3436131477355957,0.9391075968742372,2.6575028731653665e-05,-3.065170940301108e-05,-3.35398177400463e-09,0.0005690527032129,0.0007482665241695,0.0002943473227787,-0.0025419974699616,-0.0008366648107767,0.3438152074813843,0.939033567905426,0.0001332877907496,0.0001739240378388,0.0007629814308501,0.0271796584129333,0.0178967714309692,-0.013676643371582,0,0,0,0
4.7,1788440789271,0.0,0.0,-0.0025165469851344,-0.0008344003581441,0.3436131477355957,0.9391075968742372,2.6575028731653665e-05,-3.065170940301108e-05,-3.35398177400463e-09,0.0005690527032129,0.0007482665241695,0.0002943473227787,-0.0025419974699616,-0.0008366648107767,0.3438152074813843,0.939033567905426,0.0001332877907496,0.0001739240378388,0.0007629814308501,0.0271796584129333,0.0178967714309692,-0.013676643371582,0,0,0,0
4.8,1788440789371,0.0,0.0,-0.0025165469851344,-0.0008344003581441,0.3436131477355957,0.9391075968742372,2.6575028731653665e-05,-3.065170940301108e-05,-3.35398177400463e-09,0.0005690527032129,0.0007482665241695,0.0002943473227787,-0.0025419974699616,-0.0008366648107767,0.3438152074813843,0.939033567905426,0.0001332877907496,0.0001739240378388,0.0007629814308501,0.0271796584129333,0.0178967714309692,-0.013676643371582,0,0,0,0
4.9,1788440789471,0.0,0.0,-0.0025165469851344,-0.0008344003581441,0.3436131477355957,0.9391075968742372,2.6575028731653665e-05,-3.065170940301108e-05,-3.35398177400463e-09,0.0005690527032129,0.0007482665241695,0.0002943473227787,-0.0025419974699616,-0.0008366648107767,0.3438152074813843,0.939033567905426,0.0001332877907496,0.0001739240378388,0.0007629814308501,0.0271796584129333,0.0178967714309692,-0.013676643371582,0,0,0,0
5.0,1788440789571,0.0,0.0,-0.0025165469851344,-0.0008344003581441,0.3436131477355957,0.9391075968742372,2.6575028731653665e-05,-3.065170940301108e-05,-3.35398177400463e-09,0.0005690527032129,0.0007482665241695,0.0002943473227787,-0.0025119148194789,-0.0008538486436009,0.3437655866146087,0.9390517473220824,-0.0003031375577968,-0.0006171517597358,-0.0004133147585761,-0.0021260976791381,-0.0382519364356994,0.0327949523925781,0,0,0,0
5.1,1788440789671,0.0,0.0,-0.0024819679092615,-0.0008737372118048,0.3436276912689209,0.9391023516654968,0.0001132812911965,-0.0001315517886313,6.019337183670416e-08,0.000849948846735,-0.0011795832542702,0.0012952487450093,-0.0024628229439258,-0.0009563062340021,0.3437784016132355,0.9390471577644348,-0.0001766346079085,-0.0033441443972107,-0.0010331904316955,-0.0169047117233276,0.0011124610900878,0.0167808532714843,0,0,0,0
5.2,1788440789771,0.0,0.0,-0.0024533604737371,-0.0009583504870533,0.3436006605625152,0.9391121864318848,-9.818224658189228e-06,1.0646554533134853e-05,5.7034538060519934e-08,6.349255727400305e-06,-0.0003266246931161,-9.460846922593193e-05,-0.0024393387138843,-0.0009657070040702,0.3437628746032715,0.9390528798103333,0.000702490804517,-0.0007427724597487,-0.0004451693874415,0.0061483979225158,0.0188174247741699,-0.0118427276611328,0,0,0,0
5.3,1788440789871,0.0,0.0,-0.0024628099054098,-0.0009774805512279,0.3436059653759002,0.9391101598739624,3.3298718301967655e-05,-3.806822118866292e-05,1.900275972043218e-08,-0.0007812350522726,-0.0001047260011546,0.0003732396289706,-0.0024601137265563,-0.0009839972481131,0.3437770903110504,0.9390475153923036,-0.0003818403404705,-0.0003468065288741,-8.970910717087613e-05,0.0293080806732177,0.0391180515289306,-0.0171060562133789,0,0,0,0
5.4,1788440789971,0.0,0.0,-0.002463683951646,-0.00098995747976,0.3436074256896972,0.9391096234321594,-1.4704113142241446e-05,1.803862116020221e-05,-8.097086428097676e-08,-0.000379700504709,-0.0002841115638148,-0.0002001406974159,-0.0024636257439851,-0.0010052565485239,0.343769907951355,0.9390501379966736,-0.0004298500290871,-0.0007592829110722,-0.0003115918947237,-0.0034048557281494,-0.0235794186592102,-0.0066137313842773,0,0,0,0
5.5,1788440790071,0.0,0.0,-0.0024647342506796,-0.0010336602572351,0.3436165750026703,0.939106285572052,2.163586612925609e-05,-2.5176005003532047e-05,8.492508714506372e-09,-0.000524845381733,-0.0011743284994736,0.0002563443267717,-0.0024657100439071,-0.0009374246001243,0.3437767624855041,0.9390476942062378,0.0006111691274817,0.0025895432904021,-7.064466124164633e-05,-0.0146904587745666,-0.0167679786682128,-0.0191602706909179,0,0,0,0
5.6,1788440790171,0.0,0.0,-0.002446713624522,-0.0009346654405817,0.3436363339424133,0.9390991926193236,9.106825789652948e-05,-0.0001057599012814,3.109996821823941e-08,0.0006050686351954,0.0004180696851108,0.0010460732737556,-0.0024542259052395,-0.0009675398468971,0.3438051640987396,0.9390373229980468,0.0005261811555731,-0.0005602299191119,8.547588560231006e-05,-0.0279562473297119,-0.0133706331253051,0.0293397903442382,0,0,0,0
5.7,1788440790271,0.0,0.0,-0.0024328881409019,-0.0009480598964728,0.3436442017555237,0.9390962719917296,2.5442090619341086e-05,-2.9513198914261758e-05,-4.9681189974150455e-08,0.0010217193048447,5.488352690008469e-05,0.0002903616987168,-0.0024249879643321,-0.0009542973712086,0.3438085615634918,0.939036190509796,1.6252130030237997e-06,-0.0002153709172071,-0.0008088598974019,0.0170535445213317,0.0256831049919128,-0.0135450363159179,0,0,0,0
5.8,1788440790371,0.0,0.0,-0.0024293411988765,-0.0009503267938271,0.3436583876609802,0.9390910863876344,8.269140432081836e-05,-9.59260589301741e-05,2.2845295415507336e-08,-0.0001293043605983,0.0002243117050966,0.0009565303334966,-0.00244140625,-0.0009725075215101,0.3438212871551513,0.939031422138214,-5.824372415135628e-06,-0.0019908099265916,0.0011511077214606,-0.0136998295783996,0.0296973586082458,-0.0117597579956054,0,0,0,0
5.9,1788440790471,0.0,0.0,-0.002441581338644,-0.0009720678790472,0.3436521887779236,0.9390933513641356,5.959238742832417e-05,-6.986705993976337e-05,7.4773136788201e-08,-3.4626489195943577e-06,-0.0011897378135472,0.0006867361953482,-0.0024274690076708,-0.0009802971035242,0.3438346087932586,0.9390265345573424,0.0005168014121256,-0.0006028804456974,0.0007027630568199,0.0166159272193908,-0.0027872920036315,-0.0244169235229492,0,0,0,0
6.0,1788440790571,0.0,0.0,-0.0024220251943916,-0.0009651805739849,0.3436687588691711,0.9390872716903688,6.263825588787384e-05,-7.344318562348523e-05,7.485962363116565e-08,0.0008718686876818,-1.2576447261380965e-05,0.0007419173489324,-0.0024576839059591,-0.0009538829326629,0.3438331484794616,0.9390270709991456,-0.0002748438112429,-0.0013941206244723,-0.0015722592760549,0.0118734836578369,-0.0115768909454345,0.0240488052368164,0,0,0,0
6.1,1788440790671,0.0,0.0,-0.0024464742746204,-0.0009546762448735,0.3436640799045563,0.9390890002250672,-7.216603535043745e-05,8.373176735277265e-05,-2.0455022998819323e-08,0.0003118774038739,-0.0012203998630866,-0.0008361085201613,-0.0024479255080223,-0.0009678425267338,0.3438358604907989,0.9390261173248292,-0.0005336713163072,-0.0005365358069098,-0.0002627630745804,-0.0064036846160888,-0.0242593884468078,0.0293741226196289,0,0,0,0
6.2,1788440790771,0.0,0.0,-0.0024513350799679,-0.0009508960647508,0.3436504304409027,0.9390940070152284,-7.084930636314565e-05,8.307589777587063e-05,-8.578295723405247e-08,0.0001174537537735,0.0004909817362204,-0.0008306982927024,-0.0024643661454319,-0.0009161988273262,0.3438052237033844,0.939037263393402,0.0001680207762082,0.0026375074804021,-0.0004371959131398,-0.0250260829925537,-0.0097398161888122,-0.0190820693969726,0,0,0,0
6.3,1788440790871,0.0,0.0,-0.0024645316880196,-0.0009157540625892,0.3436356782913208,0.939099371433258,-5.338869548918579e-05,6.226361431876962e-05,3.50906603548624e-08,-1.2668365343415644e-05,0.0015013298252597,-0.0006227231351658,-0.0024365801364183,-0.0009007826447486,0.3438457250595093,0.9390225410461426,0.0010620476487196,-0.0005579014204201,0.0002658677040123,0.0145973563194274,-0.008560299873352,-0.017221450805664,0,0,0,0
6.4,1788440790971,0.0,0.0,-0.00242919055745,-0.0009056943817995,0.3436789512634277,0.9390836358070374,9.339106245625495e-06,-1.0998314331594413e-05,-5.7292485141180606e-08,0.0002090590132866,-0.0003036109555978,0.0001174165299744,-0.0024296240881085,-0.0009045861661434,0.3438557088375091,0.9390189051628112,0.0004915329541054,-0.0010178568659066,0.0010791648725171,-0.0088791847229003,0.0110526084899902,-0.0045938491821289,0,0,0,0
6.5,1788440791071,0.0,0.0,-0.0024295365437865,-0.0008607310592196,0.3436541855335235,0.9390926957130432,-0.0001279346739748,0.0001497260988134,-1.0360065663286762e-09,0.0005314795416779,0.0014540973352268,-0.0014938197564333,-0.0024328147992491,-0.000859934836626,0.3438426256179809,0.939023733139038,-0.0001948193787562,0.0001592156960973,0.0013953390890156,-0.0026363134384155,0.0467168688774108,-0.0008411407470703,0,0,0,0
6.6,1788440791171,0.0,0.0,-0.0024377617519348,-0.0008240259485319,0.3436934053897857,0.9390783309936525,2.62436834115298e-05,-3.0547905240370305e-05,2.240359575992101e-08,-0.0003897442365996,0.0016324300086125,0.0003223583335056,-0.0024447860196232,-0.0007522571831941,0.343852698802948,0.9390200972557068,0.0007911016600891,-0.0007295947676712,0.0007054845992752,0.0120346546173095,-0.0309646129608154,-0.0154905319213867,0,0,0,0
6.7,1788440791271,0.0,0.0,-0.0024353167973458,-0.0007550112786702,0.3436874747276306,0.9390806555747986,4.0732107621610736e-05,-4.766807861394384e-05,6.474458329614663e-08,0.0006325354333966,-0.0005438011139631,0.0004747989878524,-0.0024513527750968,-0.0007817251607775,0.343826949596405,0.9390294551849364,-0.0002561900865316,-0.0011142383038656,-0.0017554979870964,-0.0009081363677978,0.0049402117729187,0.0313425064086914,0,0,0,0
6.8,1788440791371,0.0,0.0,-0.0024385876022279,-0.0007413530838675,0.343656450510025,0.939091980457306,2.8495948004121063e-05,-3.355543960804778e-05,-1.3217503628706764e-08,0.0003059152222704,0.0005545640597119,0.0003377370885573,-0.0024319868534803,-0.000744342803955,0.3438306152820587,0.9390282034873962,0.0005130346047601,-0.0004569422834266,0.0004355278441555,-0.0112501978874206,0.0082654953002929,-0.0171461105346679,0,0,0,0
6.9,1788440791471,0.0,0.0,-0.0024877053219825,-0.00074806594057,0.3436416387557983,0.9390972852706908,-6.19210453072101e-05,7.26033553329318e-05,4.0518807159317085e-08,-0.0022305834572762,0.0001205297667183,-0.0007136109634302,-0.0024839509278535,-0.0007510539144277,0.3438110649585724,0.9390352964401244,-1.3796681272732689e-05,-0.0003589758594521,-0.0006140678538299,-0.0289649963378906,-0.0068392753601074,-0.0297908782958984,0,0,0,0
7.0,1788440791571,0.0,0.0,-0.0024708267301321,-0.000736242858693,0.3436561822891235,0.939091980457306,1.42595933543597e-05,-1.7496477920906788e-05,8.863994344128039e-08,-0.0005429470329545,-0.0007637193775735,0.0001982713147299,-0.0024556573480367,-0.0007308144122362,0.34381964802742,0.9390321969985962,0.0006431184346981,6.680454996446514e-05,3.964683477924989e-05,0.0070829391479492,0.0264354348182678,0.0189027786254882,0,0,0,0
7.1,1788440791671,0.0,0.0,-0.0024557895958423,-0.0007303701713681,0.3436498343944549,0.9390943646430968,3.1192835964075106e-05,-3.6429332482442605e-05,-2.9129205989233948e-08,0.0005213556578382,-0.0002256810694234,0.0003680535883177,-0.002422203309834,-0.0007371008396148,0.3438330888748169,0.9390274286270142,0.001461131796882,-0.0008712765078831,0.0007100771739212,0.0247220396995544,-0.0118001103401184,0.0044107437133789,0,0,0,0
7.2,1788440791771,0.0,0.0,-0.0024331687018275,-0.0006767571903765,0.343634694814682,0.9391000270843506,-7.223861116492018e-05,8.356102635241802e-05,-4.8325003277175394e-08,9.646244143368676e-05,0.0011759480694308,-0.0008206951315514,-0.0024052830412983,-0.0006833923980593,0.3438159823417663,0.9390336871147156,0.0013382554208229,6.142997402294e-05,0.0003158351911616,-0.0192750692367553,-0.0088076591491699,-0.0153760910034179,0,0,0,0
7.3,1788440791871,0.0,0.0,-0.0024274960160255,-0.0006923265755176,0.3436350226402282,0.939099907875061,-6.390688218974796e-05,7.396457293557536e-05,-1.3012405014153508e-07,-0.0011389658320695,0.0004486481775529,-0.0007228671456687,-0.0024356674402952,-0.0006855614483356,0.3438017070293426,0.9390389323234558,-0.0002500960656857,0.0001886686053757,-0.0010971651363701,-0.0281291604042053,-0.0155336260795593,0.0151386260986328,0,0,0,0
7.4,1788440791971,0.0,0.0,-0.0024228894617408,-0.0007130726007744,0.3436404764652252,0.9390979409217834,0.0,0.0,0.0,0.0,-2.7083117970505555e-09,0.0,-0.0023918617516756,-0.0007130168378353,0.3437883257865906,0.9390438795089722,0.0006788266380073,0.0006026922655013,-0.0007673693189794,0.0105522871017456,-0.034193992614746,0.0348844528198242,0,0,0,0
7.5,1788440792071,0.0,0.0,-0.0023952471092343,-0.000711599655915,0.343622088432312,0.9391047358512878,0.0,0.0,0.0,0.0,2.32513941433865e-09,0.0,-0.0024139154702425,-0.0007377006113529,0.3437965512275696,0.9390407204627992,-0.0017364117879902,-0.0007396249005799,4.190881664228804e-05,-0.0022708773612976,-0.0172683596611022,-0.0099563598632812,0,0,0,0
7.6,1788440792171,0.0,0.0,-0.0023952471092343,-0.000711599655915,0.343622088432312,0.9391047358512878,0.0,0.0,0.0,0.0,2.32513941433865e-09,0.0,-0.0024139154702425,-0.0007377006113529,0.3437965512275696,0.9390407204627992,-0.0017364117879902,-0.0007396249005799,4.190881664228804e-05,-0.0022708773612976,-0.0172683596611022,-0.0099563598632812,0,0,0,0
7.7,1788440792271,0.0,0.0,-0.0023866235278546,-0.0007115401094779,0.3436262309551239,0.9391031861305236,1.556824122096833e-05,-1.7737928848857566e-05,6.221855454608257e-08,0.0003178861516062,-0.0001142721739597,0.0001727119815768,-0.002435284666717,-0.0007653757929801,0.3438060879707336,0.9390372037887572,-0.0005867687871533,2.9292618623582034e-05,0.0004373221606011,0.026117980480194,0.0157110095024108,-0.02593994140625,0,0,0,0
7.8,1788440792371,0.0,0.0,-0.0023866235278546,-0.0007115401094779,0.3436262309551239,0.9391031861305236,1.556824122096833e-05,-1.7737928848857566e-05,6.221855454608257e-08,0.0003178861516062,-0.0001142721739597,0.0001727119815768,-0.002435284666717,-0.0007653757929801,0.3438060879707336,0.9390372037887572,-0.0005867687871533,2.9292618623582034e-05,0.0004373221606011,0.026117980480194,0.0157110095024108,-0.02593994140625,0,0,0,0
7.9,1788440792471,0.0,0.0,-0.0023866235278546,-0.0007115401094779,0.3436262309551239,0.9391031861305236,1.556824122096833e-05,-1.7737928848857566e-05,6.221855454608257e-08,0.0003178861516062,-0.0001142721739597,0.0001727119815768,-0.0024640709161758,-0.0007180329412221,0.3437787890434265,0.93904709815979,-0.0003199332498287,0.0002233339637351,-0.0009452868647237,0.0289877653121948,0.0087719559669494,-0.0313339233398437,0,0,0,0
8.0,1788440792571,0.0,0.0,-0.0024894580710679,-0.0007421552436426,0.3436036109924316,0.9391112327575684,-0.0001216620026031,0.0001414572343916,-5.4348555919763444e-08,-0.0008438607328571,-0.000847291725222,-0.0014147692127153,-0.0024896534159779,-0.0007416382431983,0.3437782526016235,0.9390472173690796,-0.0005258978790744,-0.0019780619683237,-0.0011726431415486,-0.0144509673118591,-0.0123454332351684,0.0206270217895507,0,0,0,0
8.1,1788440792671,0.0,0.0,-0.0024766493588685,-0.0007475034799426,0.3436121046543121,0.93910813331604,3.140603138457355e-05,-3.667239172826902e-05,-3.129557467683116e-08,0.000407370069297,-0.0003776762459892,0.0003610032144933,-0.0024929670616984,-0.0007337797433137,0.3437569439411163,0.9390550255775452,-0.0001769806366334,0.0025501405087146,-0.0014548344635698,-0.0035184025764465,-0.0285254120826721,0.027775764465332,0,0,0,0
8.2,1788440792771,0.0,0.0,-0.0024766493588685,-0.0007475034799426,0.3436121046543121,0.93910813331604,3.140603138457355e-05,-3.667239172826902e-05,-3.129557467683116e-08,0.000407370069297,-0.0003776762459892,0.0003610032144933,-0.0025173369795084,-0.0007763607427477,0.3437928259372711,0.9390418529510498,-0.0013036811225422,-0.0005360505246984,0.0002320609605578,-0.0094717741012573,-0.0042645931243896,-0.0152301788330078,0,0,0,0
8.3,1788440792871,0.0,0.0,-0.0025174771435558,-0.0007759070140309,0.343623548746109,0.9391038417816162,9.144013013561382e-05,-0.0001061381456358,-7.521913678360182e-08,-0.0010672439821064,-0.0011852720053866,0.0010268609039485,-0.0025312872603535,-0.0007619298994541,0.3437894582748413,0.93904310464859,0.0001007845392886,0.0010774906580081,-0.0001967019495782,0.0016114711761474,0.0226746201515197,0.0262088775634765,0,0,0,0
8.4,1788440792971,0.0,0.0,-0.0025303461588919,-0.0007892572320997,0.3435939848423004,0.9391145706176758,-0.0001378688373789,0.0001593443137887,-4.0985179566570757e-08,-0.0004804655909538,-0.0014863705728203,-0.0015711935702711,-0.0025258883833885,-0.0007788790389895,0.3437624275684356,0.939052939414978,0.0001610015897973,0.0007000537844486,-0.0002711339054907,-0.0023015737533569,-0.0328943133354187,0.0026435852050781,0,0,0,0
8.5,1788440793071,0.0,0.0,-0.002525629941374,-0.0007816700963303,0.3435980379581451,0.9391131401062012,1.552627570249209e-05,-1.7687999763218947e-05,5.5793632808279104e-08,0.0002747377147898,0.0002145092003047,0.0001687434560153,-0.0025379927828907,-0.0008193962275981,0.343741625547409,0.9390605688095092,-0.0002870533155316,-0.0003251191395133,-0.000766366124941,-0.0065895915031433,-0.019919991493225,0.0260524749755859,0,0,0,0
8.6,1788440793171,0.0,0.0,-0.0025345047470182,-0.0008214813424274,0.3435766994953155,0.9391208291053772,0.0,0.0,0.0,3.333140696781811e-08,3.4664662251771006e-08,-8.191526831069496e-06,-0.0025654463097453,-0.000870008021593,0.3437577188014984,0.9390544295310974,-0.0023905605079523,-0.0016535525557517,-0.0009012391633023,0.0070163011550903,0.0075424909591674,0.0481719970703125,0,0,866,-887
8.7,1788440793271,0.7323943376541138,-0.7887324094772339,-0.0025521467905491,-0.0010141906095668,0.3375491797924042,0.9413039088249208,0.0015671916744863,0.0019834454430957,3.687489662108766e-07,-0.0011085943551734,-0.0037174148019403,-0.1940319389104843,-0.0025700414553284,-0.000949403271079,0.3397188186645508,0.9405230283737184,-0.0019884253216005,-0.0013559210731443,-0.2124400263613651,-0.0374767780303955,-0.4813269376754761,-0.1657619476318359,148,214,7297,-6657
8.8,1788440793371,1.2394366264343262,-1.2676056623458862,-0.0024588960222899,-0.0007461892673745,0.3209134340286255,0.94710510969162,-0.0001872794010147,0.0065507891267603,9.934071663728381e-08,-0.0005454425700008,0.0073487018235027,-0.3777849376201629,-0.0022659050300717,-0.0007344251498579,0.3097872734069824,0.9508029818534852,0.0072071835363307,-0.0039996695911051,-0.3670634827943378,-0.0659162402153015,0.2224081754684448,-0.0372905731201171,45,62,4459,-5157
8.9,1788440793471,1.0985915660858154,-1.154929518699646,-0.002122604753822,-0.0008846120908856,0.3037258088588714,0.9527567028999328,-0.0002194564090051,0.0031514845555505,4.2692003179754877e-07,0.0062833838164806,-0.0082644717767834,-0.3648165464401245,-0.0020985407754778,-0.0009178556501865,0.3028558790683746,0.9530335664749146,0.005188801635084,-0.0104067356881376,-0.3640579244970672,-0.1804882884025573,-0.139613926410675,0.1551132202148437,66,62,4681,-4969
9.0,1788440793571,0.7605633735656738,-0.7887324094772339,-0.0017288743983954,-0.0013561295345425,0.2888604402542114,0.9573687314987184,0.0017882551264581,0.0005959697995912,4.775294330426776e-07,0.0051341098733246,-0.0081194825470447,-0.3312364220619201,-0.0017135133966803,-0.0013797748833894,0.2881040573120117,0.9575966596603394,0.0054427422587011,-0.0100082974384545,-0.3338578540220495,-0.0770574808120727,0.1880063414573669,0.1457929611206054,17,91,3590,-4437
9.1,1788440793671,1.2957746982574463,0.0,-0.0016111994627863,-0.0015193952713161,0.2785401940345764,0.9604219794273376,0.0016604977298464,0.0025011431995382,3.249880162734341e-07,0.0010586879216134,-0.0043217344209551,-0.1774624437093734,-0.0016542375087738,-0.0014370093122124,0.2807629108428955,0.959774613380432,7.385593226688303e-05,-0.0026466538739685,-0.1924099283854148,0.0218662619590759,0.0004452466964721,0.1056699752807617,207,1,8803,997
9.2,1788440793771,3.859154939651489,3.126760482788086,-0.0016460127662867,-0.0020108190365135,0.2652086913585663,0.964187502861023,0.0705085337547419,0.0009467382374491,1.0998494282260631e-05,-0.0058419033885002,-0.0120975673198699,-0.2968771755695343,-0.001699011772871,-0.0019783647730946,0.2645594179630279,0.9643658399581908,-0.0056341691249014,-0.0036049383949329,-0.2158851722655423,1.056910753250122,0.3390098810195923,-0.1825780868530273,136,199,13073,12855
9.3,1788440793871,5.295774459838867,4.901408672332764,-0.0025786771439015,-0.0017237209249287,0.2614553868770599,0.9652106761932372,0.1545978491576801,-0.0042621555577205,-5.482766140446397e-06,-0.0074411649256944,0.0013317925622686,-0.0146112460643053,-0.002577532082796,-0.0019111549481749,0.261731207370758,0.9651354551315308,0.0088577755115483,-0.0177459676351102,0.0012717323541678,-0.2165354490280151,-0.7071504592895508,0.0325431823730468,126,120,14856,16556
9.4,1788440793971,5.042253494262695,5.408450603485107,-0.002377048600465,-0.0024832866620272,0.2587741315364837,0.96593177318573,0.1657520800289557,-0.0123808863192026,3.201342009704389e-05,0.0018513076938688,-0.0271483361721038,-0.1312405914068222,-0.002300227060914,-0.0030077025294303,0.2574985325336456,0.9662712812423706,-0.0090729752433924,-0.0625563473056452,-0.1791245961936521,0.482785165309906,0.3590266704559326,0.2569084167480469,70,115,13062,14849
9.5,1788440794071,5.154929637908936,5.323943614959717,-0.002377048600465,-0.0024832866620272,0.2587741315364837,0.96593177318573,0.1657520800289557,-0.0123808863192026,3.201342009704389e-05,0.0018513076938688,-0.0271483361721038,-0.1312405914068222,-0.0023853918537497,-0.0015109004452824,0.2559413909912109,0.9666882157325744,0.0321868113486044,0.0734739775191355,0.0691707459856156,-0.4251831173896789,0.2784634828567505,0.9503679275512696,16,419,11653,17958
9.6,1788440794171,5.154929637908936,5.323943614959717,-0.0022287054453045,-0.0013868167297914,0.2571375668048858,0.9663712382316588,0.1536917582000689,-0.0130171722580578,-0.0001709111334122,0.0140893151983618,0.0235723797231912,0.0669307932257652,-0.0016091559082269,-0.0010574394837021,0.2573660910129547,0.9663121104240416,0.0435299295847714,0.0117986202797735,-0.0111072045578217,0.488389790058136,-0.2215242981910705,-0.4406414031982422,58,303,13573,18550
9.7,1788440794271,5.154929637908936,5.323943614959717,-0.0019920761696994,-0.0011571404756978,0.2534032166004181,0.9673579931259156,0.1639863653379863,-0.0058939808380381,7.985344008376662e-05,-0.0095875449478626,-0.0168563555926084,-0.0778886005282402,-0.0022387085482478,-0.0010953666642308,0.253161758184433,0.9674208164215088,-0.0159758289760299,0.0168123564048283,-0.0319954538592771,0.250801146030426,0.0615602135658264,-0.7487602233886719,49,336,12602,16857
9.8,1788440794371,4.2816901206970215,6.14084529876709,-0.0034035402350127,-0.0038238614797592,0.2540307343006134,0.9671826362609864,0.1570568441508856,0.0036490626905831,0.0001677028447632,-0.0532956756651401,-0.0818310305476188,0.0587391890585422,-0.0031075105071067,-0.0036355927586555,0.2563023567199707,0.966584861278534,0.005286751400922,-0.0437013180435026,0.1391309374515678,-0.1556307673454284,0.116755723953247,0.3144979476928711,43,311,12402,16692
9.9,1788440794471,4.901408672332764,5.295774459838867,-0.0027627295348793,-0.0023755691945552,0.2585210800170898,0.9659988284111024,0.1646977346849638,-0.0020575350049348,-4.669852015472513e-06,0.0075458772480487,-0.0043643005192279,-0.013525734655559,-0.002778772264719,-0.0017932569608092,0.2581836581230163,0.9660901427268982,0.0148470370733406,0.0491288947179016,-0.0923619649046668,0.0032509565353393,-0.5118129253387451,0.4790334701538086,64,271,13635,14847
10.0,1788440794571,5.126760482788086,5.577464580535889,-0.0028481029439717,-0.0012288962025195,0.2550964057445526,0.9669106602668762,0.1668804031128226,-0.0008513590876104,-3.6804504698855735e-05,-0.0030840046238154,0.0076381899416446,-0.0735524073243141,-0.0028673475608229,-0.001250703819096,0.2551595866680145,0.9668939113616944,-0.0048441920776553,0.0070262920604836,-0.0671457381518067,-0.451801061630249,0.0749866962432861,0.7878732681274414,30,230,11551,16729
10.1,1788440794671,4.929577350616455,5.746479034423828,-0.0030178672168403,-0.0014211375964805,0.254517138004303,0.9670624732971193,0.161072536130593,-0.0074132722448476,2.9338974483567505e-05,-0.0085798753425478,-0.0056566973216831,-0.0240827165544033,-0.00286316126585,-0.001768410205841,0.2544158697128296,0.967089056968689,0.0050790565335937,-0.0173346326823997,-0.0085920348093788,-0.1349404454231262,0.2154475450515747,-0.4863615036010742,43,329,12619,15997
10.2,1788440794771,5.605633735656738,4.14084529876709,-0.0026949583552777,-0.002090812427923,0.2538843750953674,0.9672285318374634,0.1610934275968646,-0.002440233196339,7.090561516571549e-05,0.0056305765174329,-0.0289690755307674,-0.0261427331715822,-0.0026745982468128,-0.0020815934985876,0.2498998939990997,0.9682657718658448,0.0043192919894944,-0.005839910988735,-0.1529004326222947,-0.053140640258789,-0.62804114818573,0.1624059677124023,79,276,14360,17374
10.3,1788440794871,5.633802890777588,3.94366192817688,-0.002817504806444,-0.0018958586733788,0.2523145973682403,0.9676392674446106,0.1621253915786758,-0.0113289728956439,-8.274126518809381e-06,-0.0036335079930722,0.0114688007161021,-0.0827542915940284,-0.002621735446155,-0.0033694803714752,0.2334744185209274,0.9723535776138306,-0.0013556758443,-0.0154604234654305,-0.2670261294579487,0.0303786396980285,-0.0926713943481445,0.3408031463623047,75,314,14214,18441
10.4,1788440794971,5.436619758605957,4.394366264343262,-0.0026341956108808,-0.003261144272983,0.2349274456501007,0.9720038175582886,0.159025687022416,-0.0065738607051837,1.3004396622279708e-05,-0.0026593054644763,-0.0138599434867501,-0.2777708768844604,-0.0032032774761319,-0.0016790274530649,0.2258084565401077,0.9741650223731996,0.0001903162775041,0.0629405189917045,-0.1810748964971033,0.1727063655853271,-0.4839085936546325,0.1650543212890625,48,386,14270,18124
10.5,1788440795071,5.549295902252197,5.014084339141846,-0.0031777909025549,-0.0018510551890358,0.2260300368070602,0.9741133451461792,0.1591883566040023,-5.566031296895116e-05,-0.0001035813013393,-0.0017279883613809,0.0578327439725399,-0.1864148378372192,-0.0036421995609998,-0.0002557151019573,0.2178224027156829,0.9759816527366638,-0.0022646769671381,0.011782616406758,-0.1542831960284656,0.0163859724998474,0.2047843337059021,0.0615730285644531,48,386,14270,18124
10.6,1788440795171,5.126760482788086,5.183098793029785,-0.0039032662753015,-2.7387170121073723e-05,0.2117912173271179,0.9773072004318236,0.1549431202235617,-0.0121147355412932,-7.619024610892631e-06,-0.0099744368344545,0.011289544403553,-0.1891789436340332,-0.0037797074764966,-0.0011204089969396,0.2102523893117904,0.9776391983032228,-0.0097180028650905,-0.0672203068279582,-0.1491315187748239,-0.6861290335655212,0.0372817516326904,-0.0495214462280273,19,320,12003,18125
10.7,1788440795271,4.985915660858154,5.408450603485107,-0.0034610780421644,-0.0051632383838295,0.2090856879949569,0.9778775572776794,0.1561667886148034,-0.0052771381053596,0.0002129999312927,-0.0128046944737434,-0.0857701897621154,-0.0280473604798316,-0.0037797074764966,-0.0011204089969396,0.2102523893117904,0.9776391983032228,-0.0097180028650905,-0.0672203068279582,-0.1491315187748239,-0.6861290335655212,0.0372817516326904,-0.0495214462280273,19,320,12003,18125
10.8,1788440795371,4.957746505737305,4.873239517211914,-0.0034532090649008,-0.0057332101278007,0.2081639617681503,0.9780710935592652,0.1587820108582044,-0.0094425718545598,0.0001117890235787,-0.0038405728992074,-0.0184379052370786,-0.0313649997115135,-0.0038347290828824,-0.0058037349954247,0.207485482096672,0.978213369846344,-0.012005901060714,0.0063027893118978,0.0052778579478535,0.0969756245613098,0.02680504322052,-0.0424814224243164,19,320,12003,18125
10.9,1788440795471,5.098591327667236,4.647887229919434,-0.0035549118183553,-0.0058552934788167,0.2075753509998321,0.978195071220398,0.161314500565383,-0.0017973355211724,3.965194731328205e-08,0.0,2.311751012840091e-09,0.0,-0.0044815586879849,-0.0032435599714517,0.2066356986761093,0.978402316570282,0.0087317028468814,0.0930440548331283,-0.0400473034023529,-0.203176736831665,0.1714189648628235,-0.2366981506347656,51,345,12693,19615
11.0,1788440795571,5.098591327667236,4.647887229919434,-0.0047611370682716,-0.0001493889722041,0.2050895988941192,0.9787315726280212,0.1600405867256316,-0.0080872450063905,-0.000148376851029,0.0130557771772146,0.0501771084964275,-0.0288574956357479,-0.0039059873670339,-0.0002212142571806,0.2047350108623504,0.978809654712677,0.0267800521883595,-0.0177641295556634,-0.0102571254071572,-0.0758794546127319,-0.2544083595275879,0.3308782577514648,57,249,12493,17494
11.1,1788440795671,5.042253494262695,4.676056385040283,-0.0034816195257008,-0.0008815891342237,0.2038036584854126,0.9790052175521852,0.1636594447528651,-0.0112718474115701,8.113436266498478e-05,0.027955075725913,-0.0423123724758625,-0.0415978878736496,-0.0036874702200293,-0.0010958351194858,0.2026540637016296,0.9792428016662598,0.0012825333951481,-0.0301608781718387,-0.0719457902729716,0.2810584306716919,-0.138323426246643,0.2689371109008789,43,325,12627,19373
11.2,1788440795771,4.169013977050781,6.197183132171631,-0.0035024052485823,-0.0014538550749421,0.2017768919467926,0.9794241786003112,0.1517342313410336,-0.0095892774014957,3.8883000418358165e-05,-0.0060560693964362,-0.024196084588766,-0.091369517147541,-0.0023766877129673,-0.0034642741084098,0.2027430981397628,0.9792228937149048,0.0106766858677697,-0.0967219448701032,0.1058560289005498,-0.1107850670814514,0.3993449807167053,0.2150688171386718,24,415,9571,20624
11.3,1788440795871,3.9718310832977295,6.366197109222412,-0.0010353442048653,-0.0089297108352184,0.2096538543701172,0.9777343273162842,0.1631810958474838,0.0006547954749391,0.0006545411794034,0.0075984164141118,-0.1883058100938797,0.2411281317472458,-0.0023766877129673,-0.0034642741084098,0.2027430981397628,0.9792228937149048,0.0106766858677697,-0.0967219448701032,0.1058560289005498,-0.1107850670814514,0.3993449807167053,0.2150688171386718,35,335,10443,20074
11.4,1788440795971,4.507042407989502,5.802816867828369,-0.0010353442048653,-0.0089297108352184,0.2096538543701172,0.9777343273162842,0.1631810958474838,0.0006547954749391,0.0006545411794034,0.0075984164141118,-0.1883058100938797,0.2411281317472458,0.0014036577194929,-0.0174329243600368,0.2235422432422638,0.9745373129844666,0.0101316370928637,-0.128984215748199,0.2102875935648766,0.1416009068489074,-0.196397602558136,-0.583775520324707,59,424,9517,20819
11.5,1788440796071,4.873239517211914,5.436619758605957,0.0016730581410229,-0.018156899139285,0.2302915900945663,0.97295081615448,0.1637433637613678,0.0002501689480327,-1.897051178472352e-05,0.0096321478486061,-0.0045104259625077,0.1914986073970794,0.0017233872786164,-0.0183121878653764,0.231474682688713,0.9726670384407043,0.0087224484869062,-0.0219478125600869,0.1326321951986644,0.2507501244544983,-0.0628179907798767,-0.1334209442138672,83,140,12977,17291
11.6,1788440796171,4.563380241394043,5.154929637908936,0.0016730581410229,-0.018156899139285,0.2302915900945663,0.97295081615448,0.1637433637613678,0.0002501689480327,-1.897051178472352e-05,0.0096321478486061,-0.0045104259625077,0.1914986073970794,0.0006344132125377,-0.013608057051897,0.2321656793355941,0.972580909729004,0.0094023614702842,0.0519042354064293,0.0624886361346106,-0.1074233651161193,0.3905966877937317,0.0156707763671875,13,414,10300,19967
11.7,1788440796271,4.704225540161133,5.408450603485107,0.0006420144345611,-0.0135080246254801,0.23267762362957,0.97245991230011,0.1620164247484378,0.0001558356836465,-6.761929934961861e-05,0.0047491644509136,0.024258803576231,0.0926395803689956,0.0007480271160602,-0.0136936726048588,0.2352328449487686,0.9718422889709472,3.7433360221700334e-05,-0.0244447065317667,0.0930571546738741,0.1775879263877868,-0.2329146265983581,0.2974071502685547,47,391,10564,17870
11.8,1788440796371,4.704225540161133,5.521126747131348,0.0015824837610125,-0.0187309607863426,0.239229679107666,0.9707810282707214,0.1633495419726157,-0.0035046399161409,0.0003227002127409,-0.0081779714673757,-0.1035366207361221,0.0812473222613334,0.0014578150585293,-0.0183130912482738,0.2399200946092605,0.9706188440322876,-0.0062303040262376,-0.0044792272677231,0.0642988371241413,0.2994179129600525,-0.4453223943710327,-0.3576431274414062,83,385,12748,17535
11.9,1788440796471,5.014084339141846,5.295774459838867,0.0014300153125077,-0.0181063320487737,0.240076258778572,0.9705840945243835,0.1599184986046666,-0.0096395422122631,-0.0001007517632121,0.000703269499354,0.025615019723773,0.0348260328173637,0.0012664161622524,-0.0179209951311349,0.2376760840415954,0.9711782932281494,-0.0057832023630254,-0.0077784895457632,-0.0597198203126095,-0.0334762334823608,0.2763425707817077,-0.4668722152709961,83,385,12748,17535
12.0,1788440796571,5.042253494262695,5.380281925201416,0.001103016315028,-0.0179619845002889,0.2367904931306839,0.9713940024375916,0.1516077482023818,0.0016241898074119,8.852057955410694e-06,-0.0155682126060128,-0.0050084628164768,-0.0659257173538208,0.0010543642565608,-0.0180196613073349,0.2364917248487472,0.9714658856391908,-0.0137695792150818,-0.0023086947365564,-0.066652716278141,-0.3571791052818298,-0.5136470198631287,0.4851465225219726,83,385,12748,17535
12.1,1788440796671,4.929577350616455,4.704225540161133,0.0013648075982928,-0.0191467180848121,0.2355827689170837,0.9716647267341614,0.1615734893379521,-0.0039499879757491,3.170602454334713e-05,0.0016603249823674,-0.0172017887234687,-0.0040884921327233,0.0013304622843861,-0.0192057304084301,0.2351064831018448,0.9717789888381958,0.0012356153510418,-0.0104058358492396,-0.024535469686563,-0.1506907939910888,-0.2752168178558349,0.0741653442382812,53,338,14129,18531
12.2,1788440796771,5.295774459838867,5.352112770080566,0.0013817250728607,-0.0193537808954715,0.2325631529092788,0.9723877310752868,0.1654469557962928,-0.0026712564282414,1.2827687193611312e-05,-0.0036991604138165,-0.0025164159014821,-0.0832814276218414,0.0013844082131981,-0.0193134192377328,0.2323180735111236,0.972447156906128,-0.0043002551016857,0.0018271471240639,-0.0794710600625925,-0.1477632522583007,-0.4761362075805664,0.0608930587768554,45,303,13296,18606
12.3,1788440796871,5.267605781555176,5.239436626434326,0.001192859141156,-0.0182170793414115,0.2285014986991882,0.9733723402023317,0.1552410541570073,-0.0106328455566683,-9.907691872156813e-05,0.0022157107014209,0.0308130197227001,-0.1044269949197769,0.0012282133102416,-0.0180900525301694,0.2279070168733596,0.9735140800476074,0.0032922442309634,0.0146212200365173,-0.1004637952635267,-0.0073981285095214,0.1712350845336914,0.1686944961547851,50,261,13028,16454
12.4,1788440796971,5.239436626434326,4.591549396514893,0.0014004616532474,-0.0177341159433126,0.2265930473804474,0.973827064037323,0.1620578721998419,-0.0013073822984691,-2.489341958818563e-05,0.0105188358575105,0.0162712503224611,-0.0746199339628219,0.0011291829869151,-0.0160739850252866,0.2219171822071075,0.9749323725700378,-0.0037619638544255,0.0317541038659936,-0.1191045803649314,0.0994148254394531,-0.0444554090499877,0.1935491561889648,58,232,12946,18368
12.5,1788440797071,5.183098793029785,4.394366264343262,0.0013274236116558,-0.0157148241996765,0.2200182974338531,0.9753682613372804,0.1612642222556013,-0.0034455822081927,-5.32883893938548e-05,0.0093882028013467,0.0147874355316162,-0.0786778703331947,0.0016144569963216,-0.0136811276897788,0.2174825519323349,0.9759669899940492,0.0222681164056506,0.0837267574128455,-0.0741845072457594,0.0669007897377014,-0.2585057616233825,-0.3467016220092773,77,322,13234,18979
12.6,1788440797171,5.323943614959717,5.380281925201416,0.0014463331317529,-0.012229036539793,0.2154093831777572,0.9764461517333984,0.1660812470953081,-0.0041098858490802,-0.0002468364818397,0.0128574185073375,0.0890288800001144,-0.1061309874057769,0.0013026818633079,-0.0112638901919126,0.2141374200582504,0.9767377972602844,0.0037068834108798,0.0732237280151444,-0.1175115059441297,-0.1102242469787597,-0.1058178544044494,-0.0875320434570312,57,321,12934,15206
12.7,1788440797271,5.323943614959717,5.380281925201416,0.0010066266404464,-0.0096764098852872,0.2108120769262313,0.9774782061576844,0.1571887832690889,-0.0083382094214865,-0.0001257689200094,-0.0022556239273399,0.0496375374495983,-0.1119492650032043,0.0009417571127414,-0.0094615677371621,0.2102597057819366,0.9775993824005128,-0.0047314141357551,0.0425459989266014,-0.1110344273365391,0.1980497241020202,0.1625177264213562,0.3734169006347656,57,321,12934,15206
12.8,1788440797371,5.211267471313477,4.732394218444824,0.0015464790631085,-0.0089835589751601,0.2093398571014404,0.97780042886734,0.1604099230685277,-0.0041688880473797,-4.613454087411469e-05,0.0264463424682617,0.0226706527173519,-0.0606977455317974,-0.000313919968903,-0.0069191996008157,0.2034755051136016,0.9790555238723756,-0.0244698758448756,-0.0391143443508829,-0.0916517116586735,-0.0598053932189941,-0.2127583622932434,0.4200515747070312,11,203,9770,11223
12.9,1788440797471,4.394366264343262,3.746478796005249,0.0015464790631085,-0.0089835589751601,0.2093398571014404,0.97780042886734,0.1604099230685277,-0.0041688880473797,-4.613454087411469e-05,0.0264463424682617,0.0226706527173519,-0.0606977455317974,-0.000313919968903,-0.0069191996008157,0.2034755051136016,0.9790555238723756,-0.0244698758448756,-0.0391143443508829,-0.0916517116586735,-0.0598053932189941,-0.2127583622932434,0.4200515747070312,11,203,9770,11223
13.0,1788440797571,1.5211267471313477,1.4647886753082275,-0.0012275599874556,-0.0049594179727137,0.1974981427192688,0.980289876461029,0.0424010981674539,0.0017829932742764,4.333233954381969e-06,-0.0039471555501222,-0.0130750965327024,-0.0258946754038333,-0.000313919968903,-0.0069191996008157,0.2034755051136016,0.9790555238723756,-0.0244698758448756,-0.0391143443508829,-0.0916517116586735,-0.0598053932189941,-0.2127583622932434,0.4200515747070312,53,113,908,6335
13.1,1788440797671,-1.2957746982574463,0.591549277305603,-0.001090339734219,-0.0053415913134813,0.2004701197147369,0.9796846508979796,-0.0014794839092182,0.0001853487722632,-3.618987425182853e-06,0.0029319780878722,-0.0163951925933361,0.1217130050063133,-0.0011166110634803,-0.0053222440183162,0.1993052661418914,0.979922354221344,0.0006224063419953,0.0061917161291241,0.0839651063439901,-0.7462399005889893,-0.0582481622695922,0.3169593811035156,120,270,-4944,8819
13.2,1788440797771,-0.7042253613471985,0.7605633735656738,-0.0001505743712186,-0.008425404317677,0.2132875174283981,0.976953148841858,0.0046379190559922,-0.0008180483412561,1.0012583926297846e-05,0.0058214948512613,-0.0821455866098404,0.2148291915655136,0.0001153014600276,-0.0091156680136919,0.2165242433547973,0.97623473405838,0.00795754148708,-0.0543077459487612,0.1982746505637895,-0.1978408694267273,0.1473930478096008,0.001744270324707,142,399,-5822,8763
13.3,1788440797871,-0.4507042169570923,0.0,0.0004469172563403,-0.0103449914604425,0.2220606803894043,0.9749779105186462,-0.0003966680002629,0.0003569781244657,1.2996922260128785e-06,0.0037120948545634,-0.0398765765130519,0.1762145906686782,0.0001153014600276,-0.0091156680136919,0.2165242433547973,0.97623473405838,0.00795754148708,-0.0543077459487612,0.1982746505637895,-0.1978408694267273,0.1473930478096008,0.001744270324707,6,18,0,0
13.4,1788440797971,1.2394366264343262,-0.98591548204422,0.0004991150926798,-0.0108615681529045,0.2216194868087768,0.9750725626945496,0.0053737377107424,-0.0057181661847197,4.1118910948872124e-06,-0.0027402993291616,-0.0206028539687395,-0.0180804841220378,0.0002373317256569,-0.0096979942172765,0.2169099003076553,0.976143479347229,-0.0045548781327545,0.075785828744233,-0.2525630855194303,-0.0492388606071472,0.0033313035964965,-0.3037424087524414,14,26,1933,-861
13.5,1788440798071,0.9577465057373048,-0.3943662047386169,-0.0011565757449716,-0.0050809923559427,0.2073439508676529,0.9782541990280152,0.0034654327206319,0.0024436425110961,1.3475964643821223e-06,-0.0088687473908066,0.0352091640233993,-0.1821854412555694,-0.0011321948841214,-0.0050569325685501,0.2079961597919464,0.9781158566474916,-0.0084813244915005,0.0679735380178501,-0.1928113065593868,-0.566125750541687,0.3307873606681824,1.4250764846801758,17,183,2388,-3599
13.6,1788440798171,0.5633803009986877,-0.591549277305603,-0.0011565757449716,-0.0050809923559427,0.2073439508676529,0.9782541990280152,0.0034654327206319,0.0024436425110961,1.3475964643821223e-06,-0.0088687473908066,0.0352091640233993,-0.1821854412555694,-0.0014773672446608,-0.0047635678201913,0.2011735588312149,0.9795429706573486,-0.0040784420437157,0.0059316167489345,-0.1269100156855188,-0.1931747794151306,-0.15326589345932,0.1519289016723632,111,107,3021,-4928
13.7,1788440798271,3.94366192817688,3.014084577560425,-0.0016326974146068,-0.0046833301894366,0.1872389763593673,0.9823018312454224,0.0332936013013652,-0.0024484035162092,-3.171604077585974e-06,-0.002754165790975,0.0052990871481597,-0.3093658685684204,-0.0015650270506739,-0.0049910582602024,0.1802883148193359,0.9835999011993408,0.0014931953842994,-0.0133239956860654,-0.2588404402047232,0.7201473712921143,0.0233910679817199,-0.2951631546020508,103,220,12068,12295
13.8,1788440798371,4.929577350616455,4.478873252868652,-0.0012823180295526,-0.0061872764490544,0.1752403229475021,0.9845053553581238,0.1086581907278509,-0.0050947334219516,5.261479082180341e-05,0.0022552378941327,-0.0599560253322124,-0.2540360391139984,-0.0009838137775659,-0.0089694252237677,0.1711650192737579,0.985201060771942,-0.012025895948943,-0.1593576832533077,-0.2738604227358414,0.5822144746780396,0.4716538190841675,0.6738977432250977,103,220,12068,12295
13.9,1788440798471,4.816901206970215,5.830986022949219,-0.0003306115977466,-0.0126565573737025,0.1688319891691208,0.9855635166168212,0.1500096911570043,0.0018090666922577,0.0004673511309765,-0.009587237611413,-0.2660245299339294,-0.2655184268951416,0.0008445372804999,-0.0191132146865129,0.1670310795307159,0.9857659339904784,0.003688256893583,-0.5294964244364315,-0.2157997570385,-0.3730522394180298,-0.5296922326087952,1.1020164489746094,78,515,12690,19351
14.0,1788440798571,4.507042407989502,5.77464771270752,0.0036353364121168,-0.0265198498964309,0.1674600690603256,0.9855154752731324,0.1704214686123864,-0.001496124415403,1.1800476240635204e-05,-0.0026610579807311,-0.0035838948097079,0.049274668097496,0.0010502841323614,-0.022647401317954,0.1693361550569534,0.9852975606918336,-0.0569441876978503,0.2311989117831256,0.1017913111704377,0.0367067456245422,-0.0929535031318664,0.4911680221557617,83,336,12312,20597
14.1,1788440798671,4.507042407989502,5.77464771270752,0.0007383860647678,-0.0207075718790292,0.1696328818798065,0.985289454460144,0.1628320837870355,-0.002431023631131,-0.0006743524828919,-0.0608442425727844,0.2074100226163864,0.0745824500918388,0.0010502841323614,-0.022647401317954,0.1693361550569534,0.9852975606918336,-0.0569441876978503,0.2311989117831256,0.1017913111704377,0.0367067456245422,-0.0929535031318664,0.4911680221557617,31,334,11244,20213
14.2,1788440798771,4.676056385040283,5.267605781555176,-0.0011248167138546,-0.0150428097695112,0.1765441596508026,0.9841771125793456,0.1669876735742216,0.005980953244084,-4.987106549354208e-05,-0.0096246870234608,0.0344858057796955,0.1160441860556602,-0.0004910752177238,-0.0163411442190408,0.1734430342912674,0.9847081899642944,0.007505856284657,0.1133025439170929,0.1472350632379218,-0.2603703737258911,-0.5256516933441162,0.73907470703125,31,334,11244,20213
14.3,1788440798871,4.535211086273193,5.352112770080566,-0.0012230083812028,-0.0153530100360512,0.1784900575876236,0.9838211536407472,0.1659070775323368,0.0027923990256981,2.3729360751761115e-05,-0.0048933718353509,-0.0118010742589831,0.0790364742279052,-0.001351804472506,-0.0162162110209465,0.1787358671426773,0.9837625622749328,-0.0109443702275243,-0.0320497390986551,-1.3863424811446754e-06,0.0085448026657104,0.3265601396560669,0.0403966903686523,13,446,9345,22805
14.4,1788440798971,4.3380279541015625,5.943662166595459,-0.0004690019413828,-0.0191589258611202,0.1877163201570511,0.9820363521575928,0.1551370687898917,0.0026192647493937,0.0001411404188931,0.0072640674188733,0.0084180682897567,0.1535351723432541,-0.0006035296246409,-0.0175767932087183,0.1893364936113357,0.9817547798156738,0.0062183242164408,0.0573550293090828,0.0640741260641176,-0.3034895658493042,0.1905553340911865,0.2056283950805664,67,441,11106,18492
14.5,1788440799071,4.507042407989502,5.577464580535889,-0.0004510842263698,-0.0183638464659452,0.1925722807645797,0.9811108708381652,0.1652806364329507,0.0040386841908088,7.767727419823406e-05,0.0020833311136811,-0.0200593303889036,0.1012126356363296,-0.0003083394840359,-0.0184480771422386,0.1934332102537155,0.9809399843215942,0.0163188200388609,-0.0182977313643497,0.1261176765117611,-0.0713378190994262,0.1663486361503601,0.1777324676513672,31,238,10260,20307
14.6,1788440799171,3.9718310832977295,5.943662166595459,-0.0004510842263698,-0.0183638464659452,0.1925722807645797,0.9811108708381652,0.1652806364329507,0.0040386841908088,7.767727419823406e-05,0.0020833311136811,-0.0200593303889036,0.1012126356363296,0.0006388230249285,-0.01945261657238,0.2027750611305236,0.9790318608283995,0.0157520604586069,0.0270026693385358,0.1911947309102832,0.0048463344573974,0.001924991607666,0.4150896072387695,12,330,9508,20209
14.7,1788440799271,4.253520965576172,5.633802890777588,-0.0004510842263698,-0.0183638464659452,0.1925722807645797,0.9811108708381652,0.1652806364329507,0.0040386841908088,7.767727419823406e-05,0.0020833311136811,-0.0200593303889036,0.1012126356363296,0.0004551289603114,-0.0191915333271026,0.2116342186927795,0.9771604537963868,-0.00142713976521,0.0589212340885631,0.2161912184770825,0.2509620189666748,-0.2302425503730774,-0.259286880493164,24,358,9913,21441
14.8,1788440799371,4.704225540161133,5.211267471313477,0.000330590410158,-0.0175224430859088,0.2154064327478408,0.9763672351837158,0.1670636312887682,-0.0012034370618202,-0.0003564724848763,0.0092085972428321,0.0863782167434692,0.2170228809118271,0.0003077173605561,-0.0181266739964485,0.2200143486261367,0.9753282070159912,-0.0065837363590717,-0.0169768200513569,0.0251849756919884,0.1247967481613159,-0.1387576460838318,0.1208724975585937,39,332,11828,16864
14.9,1788440799471,4.704225540161133,5.211267471313477,0.0002031817566603,-0.0177316423505544,0.221925675868988,0.974902331829071,0.1658542278402306,-0.0050153692211096,-5.135149020764045e-05,-0.0009343568817712,0.0065082972869277,0.0600204765796661,0.0001168148592114,-0.0179952960461378,0.2220364660024643,0.974872350692749,-0.0152157670547863,-0.0223032674733932,-0.0021670211308999,0.2279043793678283,-0.0339320302009582,0.042180061340332,39,332,11828,16864
15.0,1788440799571,5.154929637908936,5.464788913726807,-0.000295995734632,-0.0182604044675827,0.2193969786167144,0.9754647016525269,0.1583319756545656,-0.0079992983297724,-8.516791749647989e-06,-0.014287163503468,0.003359424881637,-0.0811801552772522,-9.618327021598816e-05,-0.0182580407708883,0.220700055360794,0.9751707911491394,-0.0148810796295561,-0.010477142532088,-0.0701038734652746,-0.0914852023124694,-0.1303449273109436,0.1512203216552734,63,353,13344,15531
15.1,1788440799671,5.070422649383545,4.422535419464111,-0.0004930766299366,-0.0196633022278547,0.2151041328907013,0.9763930439949036,0.1600098315620532,-0.0024911092150107,0.0001261008353094,-0.012476016767323,-0.0381857305765152,-0.0993499234318733,-0.0010124333202838,-0.0187098421156406,0.2129309028387069,0.976887583732605,-0.0087158105982258,0.0613493613208803,-0.0929554466037032,0.1239407062530517,-0.1102158427238464,0.1806039810180664,63,353,13344,15531
15.2,1788440799771,5.267605781555176,4.507042407989502,-0.0011384112294763,-0.0173474587500095,0.2103670686483383,0.9774678945541382,0.1628954039157987,-0.0044722027723357,-0.0001065088531957,0.0058958134613931,0.0528396405279636,-0.09869185090065,-0.0011799149215221,-0.0170213971287012,0.2088980227708816,0.9777885675430298,0.0018778345976721,0.0191313325974103,-0.0860525815759785,-0.0145741701126098,0.1757850646972656,0.5826902389526367,51,260,12930,18755
15.3,1788440799871,5.267605781555176,5.267605781555176,-0.0013519725762307,-0.0166030935943126,0.2079364359378814,0.9780004620552064,0.1600147986676472,-0.0043456996426711,-5.526382513727293e-05,-0.0030897371470928,0.0258644353598356,-0.0818718448281288,-0.0012684827670454,-0.0153352301567792,0.2061438709497451,0.978400707244873,0.0142299212752101,0.0508177697740637,-0.0879394997982056,-0.0053892135620117,0.0820932388305664,0.4968299865722656,57,216,12946,15721
15.4,1788440799971,5.211267471313477,4.760563373565674,-0.0016870771069079,-0.0122452406212687,0.2015619426965713,0.979397714138031,0.1744929798004046,0.0040624951187503,-0.0002230358222936,-0.0410517752170562,0.0787306725978851,-0.1343815624713897,-0.0018177097663283,-0.0120362360030412,0.2010585963726043,0.9795036315917968,-0.0416169409789391,0.0595905092882265,-0.1311010937405998,-0.3487277030944824,-0.1979246139526367,0.5347461700439453,59,388,13140,17866
15.5,1788440800071,5.577464580535889,4.394366264343262,-0.0018483072053641,-0.014188346453011,0.1969763040542602,0.9803038835525512,0.165294927424468,-0.000158145777615,0.0001794129686007,-0.0132150175049901,-0.0665746107697486,-0.0876479297876358,-0.001818704418838,-0.0146454870700836,0.1950094550848007,0.9806903600692748,-0.0038381120212143,-0.0398536219513212,-0.1289521262264451,0.1864333748817443,-0.4136306047439575,-0.5955343246459961,75,186,14203,16595
15.6,1788440800171,5.464788913726807,4.478873252868652,-0.0017124239820986,-0.0151251833885908,0.1866744309663772,0.9823039174079896,0.159409396538332,-0.0076289033841073,2.881267137499249e-05,-0.0034426331985741,-0.0192892532795667,-0.2123986482620239,-0.0016726991161704,-0.0158156342804431,0.1820517182350158,0.9831603765487672,-0.0132636474879552,-0.0455588121487225,-0.1740967097785534,-0.0132309794425964,-0.0352294445037841,0.3368206024169922,75,186,14203,16595
15.7,1788440800271,5.521126747131348,4.8450703620910645,-0.0018491672817617,-0.0164392236620187,0.1772726476192474,0.9840226769447328,0.157888943133289,-0.0078602208685074,8.215173807524086e-05,-0.0144921708852052,-0.0232265088707208,-0.1913046091794967,-0.0017825979739427,-0.0138760637491941,0.1723659187555313,0.984933614730835,0.0273270501669759,0.0990484282491445,-0.166972967578172,-0.2553797364234924,-0.0913342237472534,-0.5108194351196289,65,270,13610,16663
15.8,1788440800371,5.154929637908936,4.366197109222412,-0.0013400516472756,-0.0142253348603844,0.1703969985246658,0.9852718710899352,0.1619757187166607,-0.0101137256088358,-3.35592080506296e-05,0.0270619969815015,-0.0112625695765018,-0.1215080544352531,-0.0006686123088002,-0.0158069189637899,0.1685525327920913,0.9855656623840332,0.0185188218919496,-0.0893326308130894,-0.1009247792859468,-0.1595239043235778,0.2948681712150574,0.388279914855957,69,351,13360,19642
15.9,1788440800471,5.183098793029785,5.211267471313477,6.737257353961468e-05,-0.0182442758232355,0.165489912033081,0.9860427975654602,0.1608959604241945,-0.0081958676076576,0.0002015135233139,0.007930876687169,-0.0863277986645698,-0.0969424098730087,0.0007146103307604,-0.0215937234461307,0.1647034436464309,0.9861064553260804,0.0020174828615226,-0.1140819518975871,-0.0265371463750344,-0.0581477284431457,0.3269155025482178,-0.05426025390625,38,376,12429,17365
16.0,1788440800571,5.126760482788086,4.929577350616455,0.0006980146281421,-0.0224538054317235,0.1639652401208877,0.986210286617279,0.16463707739415,-0.0026291540398618,0.0001743738267896,-0.0085209347307682,-0.0507973246276378,-0.0332700051367282,0.0006175236776471,-0.0223863217979669,0.1631624549627304,0.986345112323761,-0.0108588623568909,-0.003703732657096,-0.0597727825800332,0.1365613937377929,0.2775371074676513,0.2105045318603515,78,422,12574,18791
16.1,1788440800671,5.323943614959717,5.408450603485107,0.0002836878411471,-0.0209630727767944,0.1618455350399017,0.9865934252738952,0.1794260614762382,-0.0019637007361252,-7.130045290117336e-05,-0.004992970265448,0.0591188333928585,-0.0486830808222293,-9.389407932758333e-05,-0.0200774613767862,0.1611889153718948,0.9867193102836608,-0.0247108695040324,0.0937559828539793,-0.0827982812110372,0.0343389511108398,-0.3470058441162109,0.1340417861938476,48,311,13027,15636
16.2,1788440800771,5.380281925201416,5.239436626434326,-0.0008439577650278,-0.0175905581563711,0.1561048328876495,0.9875835180282592,0.1686847720602454,-0.0019450929791361,-0.0001067733203864,-0.0039529441855847,0.0412152111530303,-0.0990126654505729,-0.0009749308228492,-0.0173584949225187,0.1549113541841507,0.987775444984436,-0.0081475527452867,0.0146414970200382,-0.0862672063495998,-0.0114351511001586,-0.1846628189086914,0.1954164505004882,48,311,13027,15636
16.3,1788440800871,4.422535419464111,5.070422649383545,-0.0010086281690746,-0.018995938822627,0.1514210850000381,0.9882862567901612,0.1781222933650846,-0.0004727743716627,0.0001098603086761,-0.0101911257952451,-0.061493556946516,-0.1000700891017913,-0.0009260866791009,-0.0207355935126543,0.1506373435258865,0.988371193408966,-0.01326566034056,-0.1091296818002084,-0.0731626131943412,-0.0013662576675415,0.2752153873443603,-0.1737604141235351,33,383,13280,16817
16.4,1788440800971,4.478873252868652,5.577464580535889,-0.0008371656294912,-0.0211230963468551,0.151855856180191,0.9881766438484192,0.1684769906597551,-0.0034261823301629,-1.0664742148969044e-05,0.0067034000530838,-0.0080577302724123,0.0737719237804412,-0.0006151162087917,-0.0221368074417114,0.1549718081951141,0.9876707196235656,0.0064953969328131,-0.0508854588180595,0.160364879073703,0.8348290920257568,0.7458749413490295,-0.3025951385498047,64,282,11256,20327
16.5,1788440801071,4.619718074798584,5.85915470123291,-0.0006306455470621,-0.0220300368964672,0.1548245996236801,0.98769611120224,0.1666117380045261,0.0030718699159753,0.0001283333678811,0.0062692509964108,-0.0458138473331928,0.1462530642747879,-0.0007844921201467,-0.0209115799516439,0.1592282801866531,0.9870200157165528,0.0041028603157705,0.0123001780390862,0.0988837896567284,-0.6376806497573853,0.5555657744407654,0.5612726211547852,86,402,11613,18228
16.6,1788440801171,4.253520965576172,5.352112770080566,-0.0006241507362574,-0.0221186056733131,0.162582591176033,0.9864467978477478,0.1731495284619104,0.0047164361309605,0.0001340747501188,0.000217863213038,-0.0560240633785724,0.1692728549242019,-0.0006785010918974,-0.0214311927556991,0.1688373684883117,0.9854106903076172,0.0037747086490992,0.0276468281284538,0.1285659240011397,0.2422193884849548,-0.0394666790962219,0.2389745712280273,86,402,11613,18228
16.7,1788440801271,5.098591327667236,4.563380241394043,-0.0010267824400216,-0.0196359772235155,0.1690648049116134,0.9854087829589844,0.1851008323937005,-0.0002315706508662,-0.0001959308352142,0.0012572534615173,0.0643370300531387,0.0067005325108766,-0.0010406775400042,-0.0194181594997644,0.1694245785474777,0.9853513240814208,0.0016377720169838,0.0149317534021188,0.0135861374847476,-0.1197381615638732,0.1091458797454834,0.041666030883789,86,402,11613,18228
16.8,1788440801371,4.929577350616455,4.929577350616455,-0.0010324877221137,-0.0205163452774286,0.1677577495574951,0.9856141805648804,0.1770666492559175,-0.0020852905262726,8.038359699736069e-05,-0.0045677665621042,-0.0444456897675991,-0.0452351234853267,-0.0008595427498221,-0.0200632736086845,0.1677483022212982,0.9856253266334534,0.0050813641336722,0.0171823882273431,-0.0171647970482065,0.1124627590179443,0.4211987853050232,0.5592050552368164,13,450,12015,19218
16.9,1788440801471,5.098591327667236,5.633802890777588,-0.0009569141548126,-0.0197190567851066,0.1676044464111328,0.9856566190719604,0.1782907573425651,0.000435241671591,-5.814330841032458e-05,-0.0028727145399898,0.0200381036847829,-0.0065903258509933,-0.0010188976302742,-0.0198520682752132,0.1675953567028045,0.9856554269790648,-0.0059977689660072,-0.0079450593364861,-0.0117219934970016,-0.280938446521759,-0.1238005757331848,-0.0165977478027343,41,383,12697,20953
17.0,1788440801571,4.8450703620910645,4.732394218444824,-0.0008729251567274,-0.0198855213820934,0.1671549677848816,0.9857296943664552,0.1736054514894616,0.0019974711038005,8.185498909327105e-06,0.0047113676555454,-0.0042376485653221,-0.0165853295475244,-0.0003339862450957,-0.0192613955587148,0.1678283214569091,0.985628068447113,0.0320957079615955,0.024093175654419,0.0192548252824518,0.355633795261383,-0.5089444518089294,-0.4541797637939453,24,363,12108,20476
17.1,1788440801671,5.211267471313477,4.788732528686523,-0.0006733504123985,-0.0122401276603341,0.1652557700872421,0.9861745238304138,0.1815287910596323,0.0012052515101976,-0.0006037806352211,-0.011916228570044,0.1511083841323852,-0.1235706061124801,-0.0005942732095718,-0.0124702239409089,0.1659733057022094,0.9860512614250184,-0.0164499691711155,0.1761537272448983,-0.1347866548220031,-0.3069414496421814,-0.1640270352363586,0.0287580490112304,12,277,12079,19007
17.2,1788440801771,4.929577350616455,5.183098793029785,-0.0006370283663272,-0.0160224549472332,0.16370390355587,0.9863791465759276,0.1748899481889926,-0.0024544302142321,0.0002607960680052,-0.0205015372484922,-0.1116484403610229,-0.0383512005209922,2.899300307035446e-05,-0.020395727828145,0.1623962521553039,0.9865148663520812,0.0047634349744627,-0.1292331518568581,-0.0437744226221329,0.0160960555076599,-0.399347186088562,-0.478398323059082,37,242,12858,17459
17.3,1788440801871,4.873239517211914,4.8450703620910645,-0.0002097492106258,-0.0190858319401741,0.1607027053833007,0.9868183135986328,0.15993734122888,-0.0042963399479917,-6.628104465592761e-05,-0.0020150088239461,0.0530863553285598,-0.0613812878727912,-0.0013243677094578,-0.0184458307921886,0.1592184007167816,0.9870701432228088,-0.0467047918922997,0.0717400170063199,-0.0989127599411446,0.1819459199905395,-0.3745411038398742,-0.6287393569946289,16,403,10617,22481
17.4,1788440801971,4.591549396514893,6.535211086273193,-0.0032929033041,-0.0113740442320704,0.1590667814016342,0.9871968626976012,0.1704874544197004,0.0088482330553581,-0.0007849407258596,0.0147046595811843,0.2713999450206756,0.0661720260977745,-0.0030911015346646,-0.0106585202738642,0.1604464799165725,0.9869821667671204,0.0347352904869171,0.1363979254506593,0.1272871313804954,-0.8264610767364502,-0.1603286862373352,-0.010477066040039,20,410,10617,17655
17.5,1788440802071,4.2816901206970215,5.098591327667236,-0.00202007452026,-0.0140613475814461,0.1646275669336319,0.9862534999847412,0.1671235641045404,-0.0003395291415925,0.0003228651145627,0.011561969295144,-0.0939449518918991,0.1153148338198661,-0.0018546124920248,-0.0145452301949262,0.1659543812274933,0.9860244989395142,0.0090982687963648,-0.0592971886148949,0.1222060966456084,0.163647711277008,0.1708797216415405,-0.0364761352539062,68,331,11738,21395
17.6,1788440802171,4.760563373565674,5.070422649383545,-0.0012798658572137,-0.0176165159791708,0.1701365560293197,0.9852622151374816,0.1669392522051399,0.0024854182469216,0.0001641249349635,0.0019153420580551,-0.0399803109467029,0.1025790646672248,-0.000918760895729,-0.0196276865899562,0.1719603985548019,0.9849079251289368,0.0006448982282156,-0.1230947227420887,0.0744286821029146,-0.3366508483886719,0.5607160329818726,-0.7738866806030273,15,335,10321,21725
17.7,1788440802271,5.042253494262695,5.267605781555176,-0.0009803350549191,-0.0195222776383161,0.1718496084213256,0.9849292635917664,0.1808266022630022,-0.002011992330535,0.0001738553146081,3.015002948814072e-05,-0.092884860932827,0.0832951962947845,-0.0016354350373148,-0.0163033176213502,0.1743640750646591,0.9845449924468994,-0.0046439320936631,0.0782857868957218,-0.0106186323684989,-0.0313549041748046,0.2700970768928528,0.8951234817504883,103,322,11852,19031
17.8,1788440802371,4.985915660858154,4.676056385040283,-0.0017236871644854,-0.0163121186196804,0.174397736787796,0.984538733959198,0.1795306204390847,-0.0001062247070481,-0.0001361617292727,-0.0052845501340925,0.0392829328775405,-0.0023943197447806,-0.0018502352759242,-0.0155431488528847,0.1756040453910827,0.9843364357948304,0.0043050009217266,0.0090501533081244,0.0251958108616315,-0.0201862454414367,0.210561454296112,0.0861673355102539,45,349,13205,19504
17.9,1788440802471,4.985915660858154,4.676056385040283,-0.0012749452143907,-0.0160672292113304,0.1745663434267044,0.984513521194458,0.1707699018755767,-0.0025772909832959,4.423936814172695e-05,0.0191936884075403,-0.0192194171249866,-0.0321286171674728,-0.0005797306075692,-0.0183360148221254,0.1737922877073288,0.984611451625824,0.0069318929355225,-0.0910289914582454,-0.0307659051164441,0.1444579362869262,0.258808970451355,-0.1467857360839843,45,349,13205,19504
18.0,1788440802571,4.901408672332764,4.760563373565674,-0.0001398145686835,-0.0190474055707454,0.1732967942953109,0.9846854209899902,0.1733895038597243,-0.0050049145710505,0.0001713723986191,0.009524306282401,-0.0379711501300334,-0.0153585178777575,-0.0001286566257476,-0.0195752792060375,0.1720054149627685,0.9849015474319458,-0.0040000895018782,-0.0023049520698053,-0.049014632202834,-0.042430579662323,-0.0273381471633911,-0.4004468917846679,59,406,13546,19383
18.1,1788440802671,5.098591327667236,5.183098793029785,-0.0006558571476489,-0.0180308297276496,0.1704707145690918,0.9851975440979004,0.1732950094548062,-0.0018070013527191,-0.0001898930603534,-0.0099799232557415,0.0470134057104587,-0.0628599524497985,-0.0001286566257476,-0.0195752792060375,0.1720054149627685,0.9849015474319458,-0.0040000895018782,-0.0023049520698053,-0.049014632202834,-0.042430579662323,-0.0273381471633911,-0.4004468917846679,45,324,13191,15072
18.2,1788440802771,5.6619720458984375,4.704225540161133,-0.0007017662283033,-0.0183465108275413,0.1694244146347046,0.9853721261024476,0.1747005584120045,-0.0034736936647944,2.209784755611273e-05,0.0009074943955056,-0.0105469720438122,-0.0213557705283164,-0.0006986418738961,-0.0183466300368309,0.1695922464132309,0.9853432774543762,-0.00060285469081,-0.0164215552729314,-0.0284322953667783,0.2342696189880371,0.2097408771514892,-0.2456426620483398,45,324,13191,15072
18.3,1788440802871,5.77464771270752,4.816901206970215,-0.0008118997793644,-0.0153015200048685,0.1604553312063217,0.986924171447754,0.1776373873431801,-0.0006975945213995,-0.0001975020770698,-0.0018623273354023,0.0444237813353538,-0.2297415137290954,-0.000626222230494,-0.0157039575278759,0.1649063527584076,0.986184060573578,0.0146458230226072,0.0828320990700414,-0.1503993910151909,0.1822287440299987,0.1725397706031799,-0.1362848281860351,29,315,13259,15297
18.4,1788440802971,4.619718074798584,5.436619758605957,-0.0003140030894428,-0.0180695299059152,0.1494441777467727,0.98860502243042,0.17162498658052,0.0007881344336138,0.0002442261739939,-0.0035086178686469,-0.1032779887318611,-0.1456935554742813,-0.0001359973102807,-0.0196751169860363,0.1495699882507324,0.9885554313659668,-0.0081718896451896,-0.1586631849685343,-0.0637902246059548,-0.8546130061149597,-0.2779243588447571,0.0394649505615234,38,399,9943,20490
18.5,1788440803071,4.3380279541015625,6.366197109222412,0.0001506030093878,-0.0228184182196855,0.150953322649002,0.988277554512024,0.1652714125498292,-0.0001787296001506,0.0005273671173254,-0.0089119719341397,-0.1904686242341995,0.0611255578696727,-0.0001237951219081,-0.0211392566561698,0.1580611020326614,0.987203061580658,0.0014694201653967,0.0799840655145923,0.1478566370721684,0.4137164354324341,0.23422372341156,0.525670051574707,71,398,12414,17722
18.6,1788440803171,4.478873252868652,5.070422649383545,-0.0001854335423558,-0.0209851432591676,0.1592359393835067,0.9870174527168274,0.1822220527568397,0.005318030657021,5.306557302282269e-05,-0.0002117572294082,0.0072623006999492,0.0631328895688057,6.152689456939697e-05,-0.0203533638268709,0.1615863740444183,0.9866487383842468,0.0041695278891821,-0.0083325845772705,0.0868323765039171,-0.0436592698097229,0.08637535572052,0.4106960296630859,20,345,11209,21278
18.7,1788440803271,4.591549396514893,5.943662166595459,0.0003842876758426,-0.0208139084279537,0.1641764640808105,0.9862112998962402,0.1718060279313108,0.0025637247907481,6.615266576345923e-05,0.0116074839606881,-0.0185390412807464,0.1069298982620239,0.000582868233323,-0.0209917295724153,0.1654422134160995,0.985995888710022,0.0162375422146176,-0.0189272237555876,0.1251364472453793,0.2300688028335571,-0.2914952635765075,0.3131313323974609,58,328,10680,18005
18.8,1788440803371,4.985915660858154,5.915493011474609,0.0014960545813664,-0.0200937092304229,0.1671910732984542,0.9857186079025269,0.1736024424949623,-0.0043176774549232,-0.000113938437376,0.0193686503916978,0.0560756362974643,0.0235987659543752,0.0012677442282438,-0.0207555778324604,0.166044071316719,0.9858990907669068,-0.0242819517758813,-0.0407374186093349,-0.0877321515476402,-0.0417938828468322,-0.3178640604019165,-0.1292839050292968,15,354,12121,16571
18.9,1788440803471,4.929577350616455,4.8450703620910645,0.0012821070849895,-0.0229160320013761,0.1650447994470596,0.9860190153121948,0.1732680161770486,-0.0014596206095691,0.0002879237774446,-0.0101788658648729,-0.044370412826538,-0.0235178805887699,0.0012677442282438,-0.0207555778324604,0.166044071316719,0.9858990907669068,-0.0242819517758813,-0.0407374186093349,-0.0877321515476402,-0.0417938828468322,-0.3178640604019165,-0.1292839050292968,73,270,13201,19004
19.0,1788440803571,4.901408672332764,4.873239517211914,8.913013152778149e-05,-0.0206070989370346,0.1618681997060775,0.986597180366516,0.1768782751824972,0.0004521779105169,-6.23651554742745e-05,-0.0175325889140367,0.020248245447874,-0.0503765791654586,-0.0003915391862392,-0.0199321173131465,0.1617497950792312,0.9866304397583008,-0.0183013065731563,0.0137186312622355,-0.0125988427789924,0.392072319984436,0.4670909643173218,0.0495862960815429,50,457,13051,19750
19.1,1788440803671,5.070422649383545,4.619718074798584,-0.000831487821415,-0.017332412302494,0.1601781249046325,0.9869356155395508,0.1757520654830002,-0.0003994870244254,-0.0003382405574359,0.0070507414638996,0.0840005576610565,-0.0466502681374549,-0.0002183821052312,-0.0190266817808151,0.1590030193328857,0.9870947599411012,0.0007274887742387,-0.1019270188597384,-0.0635502453766806,-0.154787003993988,-0.2180310487747192,-0.2149610519409179,56,298,13788,19034
19.2,1788440803771,4.985915660858154,4.647887229919434,0.0003473234828561,-0.0221043974161148,0.156456634402275,0.98743736743927,0.1759246714192531,0.0004750490975693,0.0002063442993677,-0.000369087269064,-0.1276163756847381,-0.1008986681699752,0.0006456039845943,-0.023564463481307,0.1554754227399826,0.9875584244728088,0.0025545314675299,-0.0990329176165968,-0.0777624347576248,0.2344110012054443,0.1666217446327209,-0.4389028549194336,57,506,12964,20313
19.3,1788440803871,4.760563373565674,5.436619758605957,0.001132502220571,-0.02622527256608,0.153830885887146,0.9877484440803528,0.1718385240242868,0.0016497798851141,0.0003472974207059,0.0013616495998576,-0.0673869252204895,-0.0248259846121072,0.0008620275184512,-0.0247687716037035,0.1554289162158966,0.9875361919403076,-0.0005127408112611,0.0985306758105425,0.0961514491602027,0.4574669599533081,-0.222670316696167,0.2148027420043945,126,390,14685,16926
19.4,1788440803971,4.788732528686523,5.436619758605957,0.0002472936175763,-0.0215110126882791,0.1548955738544464,0.9876965880393982,0.1877514061355617,-5.801832405083988e-05,-0.000319512478442,-0.0055036493577063,0.0630233883857727,-0.0512283593416214,0.0003029610961675,-0.0216919835656881,0.1548042297363281,0.9877069592475892,-0.0071733963527486,-0.0148231063315748,-0.0729400231024274,0.0884714126586914,-0.5169424414634705,-0.4686660766601562,60,403,12173,16259
19.5,1788440804071,2.901408433914185,2.7887322902679443,0.0002138945274055,-0.0211394988000392,0.1554107517004013,0.9876237511634828,0.1741469829765826,-0.0057069734706736,-6.537509570394954e-05,-0.0005713999853469,0.011650719679892,0.0155672272667288,-0.0003885356709361,-0.0168706513941288,0.154239147901535,0.9878894090652466,-0.0012133006811293,0.1886297334926023,-0.0362698761530488,-0.897749662399292,0.1936162114143371,-0.2032642364501953,87,144,2537,8483
19.6,1788440804171,1.380281686782837,0.0,-0.0013070148415863,-0.0106630688533186,0.1542098373174667,0.987979769706726,0.0798851675789034,0.0049256541307194,-0.0003257284287195,0.0004337367427069,0.3007830679416656,-0.0015993197448551,-0.0025710854679346,-0.0023106941953301,0.1507667750120163,0.988563358783722,-0.0005339295489934,0.0791391967485948,-0.2056589598562134,-0.9890824556350708,0.5904489159584045,-2.4670238494873047,4,102,1308,1555
19.7,1788440804271,1.6056338548660278,0.9577465057373048,-0.0027605204377323,-0.0021576625294983,0.1480124443769455,0.9889792799949646,0.01954695147282,-0.0011530242772126,-1.2284156680048631e-05,-0.0054374183528125,0.0339199490845203,-0.1508121639490127,-0.0023434497416019,-0.0033624004572629,0.147443950176239,0.9890618920326232,0.0243973301331566,-0.077759468723125,-0.0211531522590157,1.4687950611114502,0.0352802276611328,-0.0842809677124023,4,102,1308,1555
19.8,1788440804371,4.056337833404541,3.211267709732056,-0.0022019762545824,-0.0041877590119838,0.1466110497713089,0.989182949066162,0.0545793843118802,-0.0071343627114773,7.096247972156808e-05,0.0099538005888462,-0.0832419171929359,-0.0567789860069751,0.000433181412518,-0.0229601357132196,0.139650285243988,0.9899345636367798,-0.0023524585667346,-0.5614844810719328,-0.151742052750843,0.1831951737403869,0.011488139629364,0.7650508880615234,118,624,12449,20065
19.9,1788440804471,4.056337833404541,3.211267709732056,0.0049484744668006,-0.0300609041005373,0.135786086320877,0.9902696013450624,0.142134212526522,-0.0009096636204988,0.0006221124304917,0.1241526380181312,-0.191930815577507,-0.1263463646173477,0.000433181412518,-0.0229601357132196,0.139650285243988,0.9899345636367798,-0.0023524585667346,-0.5614844810719328,-0.151742052750843,0.1831951737403869,0.011488139629364,0.7650508880615234,118,624,12449,20065
20.0,1788440804571,4.056337833404541,3.211267709732056,0.0063214330002665,-0.033599741756916,0.1262464374303817,0.9914094805717468,0.1757721112296811,-0.0002711545691218,-1.0747572355266813e-05,-0.0239915903657674,0.0189080517739057,-0.172305941581726,0.0007814140990376,-0.0261534377932548,0.1221245378255844,0.9921698570251464,-0.1178169609332496,0.2608135330321677,-0.0762409757165229,0.4242618680000305,0.2707186341285705,-0.2488079071044922,74,409,14072,18733
20.1,1788440804671,5.521126747131348,4.901408672332764,-0.000662675127387,-0.0219328496605157,0.1210656017065048,0.992401957511902,0.1795692767989889,-0.0014220253697366,-0.0008575611479585,-0.0822275951504707,0.291537344455719,-0.0591338761150836,-0.0006580175831913,-0.0219329874962568,0.1212763339281082,0.9923762083053588,-0.0622604655652071,0.2896426483473185,-0.0554807223357924,-0.0320079922676086,-0.4603920578956604,0.5679531097412109,59,276,13366,14440
20.2,1788440804771,5.267605781555176,4.450704097747803,-0.001950197503902,-0.0163672026246786,0.1169880926609039,0.9929964542388916,0.1753380787278015,-0.0016726882646626,-0.000365878249962,-0.0080405790358781,0.1434595286846161,-0.0716911032795906,-0.0015687281265854,-0.0187895502895116,0.1183398514986038,0.992794156074524,-0.0161728374715938,0.0942928597007963,-0.0903043942117643,-0.619229793548584,-0.2172024846076965,-0.0923757553100586,49,244,12976,18846
20.3,1788440804871,5.098591327667236,4.366197109222412,-0.0023623167071491,-0.0136078065261244,0.1153730973601341,0.993226170539856,0.1813166140840407,0.0054047577399145,-0.0001236485544085,0.002093399176374,0.0642417669296264,-0.0250408295542001,-0.0015687281265854,-0.0187895502895116,0.1183398514986038,0.992794156074524,-0.0161728374715938,0.0942928597007963,-0.0903043942117643,-0.619229793548584,-0.2172024846076965,-0.0923757553100586,63,321,13999,18235
20.4,1788440804971,5.267605781555176,4.929577350616455,-0.0024536058772355,-0.0104230977594852,0.1105309203267097,0.993815004825592,0.1713228800258954,0.0001981592933118,-8.429448291815107e-05,0.0066098752431571,0.0475640185177326,-0.1180308163166046,-0.0024554310366511,-0.0103295175358653,0.1097281128168106,0.993904948234558,0.0043890952049878,0.0264245854570574,-0.115982933677594,-0.3050237894058227,-0.1547113060951233,-0.047612190246582,18,450,10960,19219
20.5,1788440805071,4.8450703620910645,5.267605781555176,-0.0022788264323025,-0.0145493429154157,0.1097548529505729,0.9938495755195618,0.1732109683242005,0.005966133146685,0.00029577151412,-0.0081650158390402,-0.1236981749534607,0.0361076258122921,-0.0021034386008977,-0.0169910117983818,0.1108437627553939,0.9936904311180116,0.0020182192832986,-0.0888854395310163,0.0361693502100624,-0.0815106034278869,-0.3549405336380005,-0.1162891387939453,82,381,12303,18258
20.6,1788440805171,4.8450703620910645,5.267605781555176,-0.0019710084889084,-0.0177044477313756,0.1106058731675148,0.9937046766281128,0.1766266492075865,0.0024664178813828,5.957063213295733e-05,0.002626699861139,-0.0340590141713619,-0.0011760317720472,-0.001501920633018,-0.0217783730477094,0.1106457635760307,0.9936201572418212,-0.0016334318523857,-0.1428973612219049,0.0016661476642957,-0.0954023599624633,-0.3246040940284729,0.0366144180297851,82,381,12303,18258
20.7,1788440805271,4.873239517211914,5.521126747131348,-0.0012773219496011,-0.0224754493683576,0.1106488853693008,0.99360454082489,0.1675513052254399,0.0039137706120731,0.0003378854257615,0.0077633475884795,-0.0759169608354568,0.0136040085926651,-0.0005224728956818,-0.0214541591703891,0.110580176115036,0.9936355352401732,0.0402783546287366,0.0156751915794299,-0.0321935189800351,0.2365326285362243,0.3982221484184265,-0.6284809112548828,61,319,12733,18656
20.8,1788440805371,4.873239517211914,5.521126747131348,-0.0001275890972465,-0.0198544189333915,0.1100538149476051,0.9937272667884828,0.1775734292935271,0.0048018555889719,-0.000126370414603,0.0460314340889453,0.0951505601406097,-0.0269331131130456,-0.0004343744367361,-0.0218633748590946,0.1083059757947921,0.993877112865448,-0.002137424196122,-0.1356596397064254,0.008265562050358,-0.6701059937477112,-0.1182067394256591,-0.3906612396240234,61,319,12733,18656
20.9,1788440805471,4.8450703620910645,5.154929637908936,-0.0007607801817357,-0.0215259958058595,0.1098738014698028,0.9937121272087096,0.1645872695275313,0.0066222306430317,5.6655849687365935e-06,-0.0100847454741597,0.0121928360313177,0.0645018368959426,-0.0005063358694314,-0.0218084342777729,0.1091787740588188,0.9937827587127686,-0.0029610703814426,0.0038225651213545,0.0560197264329419,0.2880232334136963,0.1119399070739746,-0.03472900390625,96,377,12588,19744
21.0,1788440805571,5.070422649383545,5.014084339141846,-0.0017651296220719,-0.0200381651520729,0.1099531501531601,0.9937331676483154,0.182177060895464,0.0059122644007503,-7.722967481758217e-05,-0.037170972675085,0.0709296762943267,0.0044316626153886,-0.0012704096734523,-0.0183744467794895,0.1096989139914512,0.9937942624092102,0.0130253162131544,-0.0464156044189353,-0.0056590931942244,-0.5412522554397583,-0.2370259165763855,-0.2231874465942382,65,274,12243,18737
21.1,1788440805671,5.070422649383545,5.7183098793029785,-0.0007158063817769,-0.020861629396677,0.1081501543521881,0.993915319442749,0.1616423813173965,-0.0050546070260934,0.0002492404434884,0.0073022721335291,-0.0662400647997856,-0.0466440059244632,-0.000958819873631,-0.0202332437038421,0.1092047914862632,0.99381285905838,0.0064550200583694,-0.1243214287504268,-0.0331468430225498,-0.0395395159721374,-0.2776913046836853,-0.0506191253662109,85,429,13069,17237
21.2,1788440805771,5.070422649383545,5.436619758605957,-0.0010752461384981,-0.0191664136946201,0.1054461747407913,0.9942397475242616,0.1747404446204062,0.0066313045303631,-0.0001309723847144,-0.0051520378328859,0.0328029319643974,-0.031549047678709,-0.0009087091311812,-0.0197515171021223,0.1058556362986564,0.994184911251068,-0.0061386892742579,0.0243748087000318,-0.0595516768759769,-0.0304391384124755,0.0046730637550354,-0.0714178085327148,89,335,12645,19956
21.3,1788440805871,5.239436626434326,4.535211086273193,-0.0011215026024729,-0.0163193847984075,0.1028707474470138,0.9945602416992188,0.1815373532300023,-0.0004487921141563,-0.0003945151270045,0.0041120271198451,0.0569993257522583,-0.0519097112119197,-0.0011489726603031,-0.0171635504812002,0.1013929992914199,0.9946977496147156,-0.0053360230943995,-0.05600554965978,-0.0669193449320272,-0.388896107673645,0.2016690969467163,-0.444157600402832,34,298,12282,19983
21.4,1788440805971,5.098591327667236,5.211267471313477,-0.0012568604433909,-0.0166545864194631,0.1008035466074943,0.9947661757469176,0.1714543955598629,0.0082816646906407,-4.284290748480112e-05,-0.0026370584964752,0.0234171580523252,-0.0166481006890535,-0.0014878921210765,-0.0155070163309574,0.101760908961296,0.9946869611740112,-0.0079830170012151,0.0301425178351347,0.03304137643021,0.1004629731178283,-0.1421816349029541,0.0824785232543945,30,443,11213,19166
21.5,1788440806071,1.0140844583511353,0.0,-0.0014246253995224,-0.0160431377589702,0.1016879379749298,0.99468594789505,0.1645183493818744,0.0130854923641716,8.71094430923455e-05,-0.0072168125770986,-0.0204325728118419,0.0250060278922319,-0.0022745551541447,-0.0020456695929169,0.1005356535315513,0.9949287176132202,0.0225499051849438,0.5834154116234533,-0.0556115628370699,-1.398948073387146,-0.8310018181800842,3.333599090576172,197,66,0,0
21.6,1788440806171,-1.8591549396514893,-2.3380281925201416,-0.0027743114624172,-0.0027032392099499,0.0991461500525474,0.9950653314590454,0.0028645555237589,0.0050879786441281,2.9035845976253864e-07,-0.0562047809362411,-0.0131663745269179,-0.0686028227210044,-0.0029805731028318,-0.0026633935049176,0.0989357978105545,0.995085835456848,-0.000798836887459,0.0003609293656695,0.0514224030673845,-1.235412836074829,-0.118756890296936,0.5042610168457031,369,457,-12175,-14287
21.7,1788440806271,-3.9718310832977295,-3.746478796005249,-0.0030385197605937,-0.0029188909102231,0.1035892963409423,0.9946112632751464,-0.0849945365317528,0.0170159380761922,-2.2707617860287663e-05,-0.0070681101642549,-0.0123762115836143,0.177986279129982,-0.0029805731028318,-0.0026633935049176,0.0989357978105545,0.995085835456848,-0.000798836887459,0.0003609293656695,0.0514224030673845,-1.235412836074829,-0.118756890296936,0.5042610168457031,369,457,-12175,-14287
21.8,1788440806371,-4.14084529876709,-4.816901206970215,-0.0028813830576837,-0.0031512368004769,0.1127298101782798,0.99361652135849,-0.1314617074448128,0.0145485085393181,-2.43412134209948e-05,-0.0034258808009326,0.0024703633971512,0.2097157537937164,-0.0028772875666618,-0.003114964812994,0.1135198250412941,0.9935267567634584,0.0005564141961779,0.0242461089322464,0.1993555546550354,0.0148059129714965,-0.6060967445373535,-1.6944379806518557,110,305,-12928,-16171
21.9,1788440806471,-4.2253522872924805,-3.6619718074798575,-0.0025776284746825,-0.0030894891824573,0.1180032864212989,0.9930050373077391,-0.1355795050346793,0.0047925736685551,1.4391996137979784e-05,0.0017474459018558,0.0093430569395422,0.0607476942241191,-0.0026659164577722,-0.0031797485426068,0.118680752813816,0.9929237961769104,-0.0101669333526182,-0.0103378326213997,0.0470499672689226,-0.4920163154602051,-0.4772074818611145,-1.155747413635254,131,281,-12521,-16443
22.0,1788440806571,-4.253520965576172,-4.14084529876709,-0.0028407017234712,-0.0028734046500176,0.1181020811200141,0.9929932355880736,-0.1375855716484938,0.0046014896162068,8.095575688125718e-08,0.0022077891044318,-0.0022116031032055,-0.0240685734897851,-0.0028576385229825,-0.0027283858507871,0.1185328736901283,0.992942214012146,0.0113880291972162,-0.0089331506640049,0.0029258486598947,-0.1140515804290771,0.3138201832771301,-1.574258804321289,164,153,-12753,-13777
22.1,1788440806671,-3.9718310832977295,-3.746478796005249,-0.0029154729563742,-0.0027337027713656,0.1189713478088378,0.992889642715454,-0.1407681063852342,0.003437399410607,3.342298440901381e-05,-0.0022144501563161,0.005772347562015,0.0349254943430423,-0.0028964560478925,-0.0030778758227825,0.1195937618613243,0.992814004421234,-0.0053236462706044,-0.0229061032173553,0.0112227668109047,0.222490131855011,0.3607504963874817,-1.6759719848632812,145,149,-13336,-14773
22.2,1788440806771,-3.91549301147461,-4.2816901206970215,-0.00289714243263,-0.0030772311147302,0.1193723902106285,0.992840588092804,-0.1390443465886677,0.003748470561159,2.155914940176694e-09,1.2955733152963942e-09,3.886719834866881e-09,3.3166676871587697e-07,-0.0031063966453075,-0.002876877784729,0.1199057102203369,0.992776334285736,-0.0185760016633206,-0.001483785706138,0.0285807058692189,0.310968816280365,0.2859183549880981,-0.0075912475585937,147,244,-13441,-12798
22.3,1788440806871,-1.3239436149597168,-0.98591548204422,-0.0033795468043535,-0.0034136730246245,0.1217524707317352,0.9925488829612732,-0.0754003791572954,-7.313183987571641e-05,-5.594668397577324e-06,-0.0175414383411407,-0.0108494898304343,0.0915715470910072,-0.003473438322544,-0.0034470623359084,0.1227215677499771,0.9924290776252748,-0.01422077625118,-0.0129846089881857,0.1054497451838299,1.5052528381347656,0.0172013044357299,-0.7200689315795898,42,32,-953,-3041
22.4,1788440806971,0.0,0.0,-0.0035678825806826,-0.0033958700951188,0.1229106411337852,0.9924055933952332,0.0039879043568003,-0.003193707544313,7.409028774128756e-08,0.0,9.915784859870767e-10,0.0,-0.0035915626212954,-0.0031573511660099,0.123216837644577,0.9923682808876038,0.00187526878165,0.0015408342011307,-0.0099536792338031,-0.1294628977775573,0.1653180122375488,-0.0678491592407226,0,0,0,0
22.5,1788440807071,0.0,0.0,-0.0036011599004268,-0.0031489438842982,0.1229812651872634,0.9923974275588988,-0.0001660787859611,0.0001122188826263,9.556101977579035e-08,-9.73646092461422e-05,0.0098342299461364,0.002848551608622,-0.0036045331507921,-0.0031824549660086,0.1232440620660781,0.9923647046089172,0.0012453209683885,-0.0002007512992399,0.0002637086378285,-0.0187577009201049,-0.084628164768219,0.0839776992797851,0,0,0,0
22.6,1788440807171,0.0,0.0,-0.0036052432842552,-0.0031816514674574,0.1230226978659629,0.9923921823501588,0.0,0.0,0.0,2.0415889423475164e-08,2.2967874713231143e-08,-9.79962692326808e-07,-0.003591158427298,-0.0032008625566959,0.1231987476348877,0.992370307445526,-0.0007715401753882,-2.123183483457349e-05,-0.0006871299384643,-0.0064697861671447,-0.0216489434242248,-0.0001716613769531,0,0,0,0
22.7,1788440807271,0.0,0.0,-0.0035657947883009,-0.0031954974401742,0.1229952871799469,0.9923956394195556,0.0,0.0,0.0,0.0,3.6115879176179525e-09,0.0,-0.0035652564838528,-0.0031932750716805,0.1232212707400322,0.9923677444458008,0.000361209826253,-2.159505496044705e-05,8.666786383562281e-05,0.0061965584754943,0.031733751296997,-0.0053377151489257,0,0,0,0
22.8,1788440807371,0.0,0.0,-0.0035657947883009,-0.0031954974401742,0.1229952871799469,0.9923956394195556,0.0,0.0,0.0,0.0,4.319979041156331e-09,0.0,-0.003609599545598,-0.003223892301321,0.1232354715466499,0.9923655986785888,-0.0006643518994199,0.0008171203949237,-0.0007572092734021,-0.06267911195755,-0.0593488812446594,0.1001930236816406,0,0,0,0
22.9,1788440807471,0.0,0.0,-0.0035657947883009,-0.0031954974401742,0.1229952871799469,0.9923956394195556,0.0,0.0,0.0,0.0,3.518350499831513e-09,0.0,-0.003671545535326,-0.0032195411622524,0.1232296749949455,0.9923661947250366,-0.0007059884183517,0.0006881641895364,-0.0002688018766375,-0.0192788243293762,-0.0202522277832031,0.0537061691284179,0,0,0,0
23.0,1788440807571,0.0,0.0,-0.0035657947883009,-0.0031954974401742,0.1229952871799469,0.9923956394195556,0.0,0.0,0.0,0.0,4.488768468036142e-09,0.0,-0.0036367317661643,-0.0032832035794854,0.1232336089015007,0.992365539073944,0.0008752993015899,-0.001422034377286,0.000959845950454,0.043091595172882,0.0453961491584777,-0.0536727905273437,0,0,0,0
23.1,1788440807671,0.0,0.0,-0.0035657947883009,-0.0031954974401742,0.1229952871799469,0.9923956394195556,0.0,0.0,0.0,0.0,2.922588393516889e-09,0.0,-0.0036659389734268,-0.0032627200707793,0.1232298016548156,0.9923660755157472,-0.0007899569908381,0.0005986353496781,-0.0008896408756992,-0.0052699446678161,-0.0269606709480285,0.0411577224731445,0,0,0,0
23.2,1788440807771,0.0,0.0,-0.0035657947883009,-0.0031954974401742,0.1229952871799469,0.9923956394195556,0.0,0.0,0.0,0.0,4.274148146521384e-09,0.0,-0.0036150198429822,-0.0031961118802428,0.1232112646102905,0.992368757724762,0.0014156761123224,0.0012165857894153,-0.0007967783103889,-0.007053256034851,0.0040544867515563,0.0096378326416015,0,0,0,0
23.3,1788440807871,0.0,0.0,-0.0035657947883009,-0.0031954974401742,0.1229952871799469,0.9923956394195556,0.0,0.0,0.0,0.0,3.507560020210576e-09,0.0,-0.0036220485344529,-0.0031818989664316,0.1232203394174575,0.9923676252365112,-0.0005295435238998,0.0006864159488896,0.0002654385382025,0.0388022661209106,0.0128941535949707,-0.0328683853149414,0,0,0,0
23.4,1788440807971,0.0,0.0,-0.0035657947883009,-0.0031954974401742,0.1229952871799469,0.9923956394195556,0.0,0.0,0.0,0.0,4.445074530678994e-09,0.0,-0.0036411751061677,-0.0031989961862564,0.1232200115919113,0.9923675656318665,-0.0012876761125308,-0.0013151551848753,0.00063826407955,-0.006638765335083,-0.0157798528671264,0.0391664505004882,0,0,0,0
23.5,1788440808071,0.0,0.0,-0.0035657947883009,-0.0031954974401742,0.1229952871799469,0.9923956394195556,0.0,0.0,0.0,0.0,3.488965782949549e-09,0.0,-0.003708723001182,-0.0031382432207465,0.1231922507286071,0.992370903491974,-0.001107237453192,0.0032924418782513,-0.0009591855382244,-0.0245932936668396,-0.0486050844192504,0.0305795669555664,0,0,0,0
23.6,1788440808171,0.0,0.0,-0.0035657947883009,-0.0031954974401742,0.1229952871799469,0.9923956394195556,0.0,0.0,0.0,0.0,3.5127161179815403e-09,0.0,-0.003807820379734,-0.0030483985319733,0.1232098117470741,0.9923686981201172,-0.0014327395801719,0.0029208318088357,-0.0002235159170334,0.015258252620697,0.0639415383338928,-0.0167465209960937,0,0,0,0
23.7,1788440808271,0.0,0.0,-0.0035657947883009,-0.0031954974401742,0.1229952871799469,0.9923956394195556,0.0,0.0,0.0,0.0,3.4944667159919614e-09,0.0,-0.0038415370509028,-0.0029524536803364,0.1231957077980041,0.9923705458641052,-3.226914872094752e-05,0.0031626727954532,0.0002936849756207,0.0182333588600158,0.040460467338562,-0.0345954895019531,0,0,0,0
23.8,1788440808371,0.0,0.0,-0.0035657947883009,-0.0031954974401742,0.1229952871799469,0.9923956394195556,0.0,0.0,0.0,0.0,4.517115570479291e-09,0.0,-0.0039004022255539,-0.0028583602979779,0.1232122778892517,0.9923685789108276,5.498804456588278e-05,0.0013394901888922,0.0006299457709369,-0.0060373544692993,-0.0134308338165283,0.0151195526123046,0,0,0,0
23.9,1788440808471,0.0,0.0,-0.0035657947883009,-0.0031954974401742,0.1229952871799469,0.9923956394195556,0.0,0.0,0.0,0.0,3.4730891496081995e-09,0.0,-0.0039489539340138,-0.0027654245495796,0.1232239454984664,0.992367148399353,0.0005565278731771,0.0026044022820873,-0.0001112329534551,-0.0345047116279602,-0.0529097318649292,0.0581626892089843,0,0,0,0
24.0,1788440808571,0.0,0.0,-0.0039309971034526,-0.0028130013961344,0.1230036616325378,0.9923943877220154,0.0,0.0,0.0,0.0,-9.628395858385375e-10,0.0,-0.0040041469037532,-0.0026803612709045,0.1232244074344635,0.992367148399353,-0.0007262061910317,0.0013976809587201,1.5031531114862257e-05,0.0257870554924011,0.0719279646873474,-0.0579328536987304,0,0,0,0
24.1,1788440808671,0.0,0.0,-0.0039309971034526,-0.0028130013961344,0.1230036616325378,0.9923943877220154,0.0,0.0,0.0,0.0,-1.1587715231797802e-09,0.0,-0.0040418040007352,-0.0026272786781191,0.1232246905565261,0.992367148399353,-0.0007415306111753,0.0013815447318769,1.451379423851844e-05,0.020381212234497,0.0072580575942993,-0.0101442337036132,0,0,0,0
24.2,1788440808771,0.0,0.0,-0.0039309971034526,-0.0028130013961344,0.1230036616325378,0.9923943877220154,0.0,0.0,0.0,0.0,-1.518195347216533e-09,0.0,-0.0040760859847068,-0.0025799721479415,0.1232249438762664,0.9923670291900636,-0.0006120187078929,0.0010886413874991,1.1925102984059331e-05,-0.0157434940338134,-0.0645768642425537,0.0469989776611328,0,0,0,0
24.3,1788440808871,0.0,0.0,-0.0039309971034526,-0.0028130013961344,0.1230036616325378,0.9923943877220154,0.0,0.0,0.0,0.0,-1.1655387766040803e-09,0.0,-0.004117832519114,-0.0025303000584244,0.1232252418994903,0.9923670291900636,-0.0005428238249822,0.0007644914332527,8.873730607064254e-06,-0.0095210075378417,0.0383329987525939,-0.0128107070922851,0,0,0,0
24.4,1788440808971,0.0,0.0,-0.0039309971034526,-0.0028130013961344,0.1230036616325378,0.9923943877220154,0.0,0.0,0.0,0.0,-1.4203795917211435e-09,0.0,-0.0041452459990978,-0.0024992022663354,0.1232254281640052,0.992366909980774,-0.000487270888,0.0007530688802225,8.492750770462025e-06,0.0518052577972412,0.0236717462539672,-0.0178194046020507,0,0,0,0
24.5,1788440809071,0.0,0.0,-0.0039309971034526,-0.0028130013961344,0.1230036616325378,0.9923943877220154,0.0,0.0,0.0,0.0,-1.1749162753815767e-09,0.0,-0.0041673639789223,-0.0024701720103621,0.1232256069779396,0.992366909980774,-0.0003766933407771,0.0006824822443385,6.983700487094788e-06,0.0123440027236938,0.0050938129425048,0.0235118865966796,0,0,0,0
24.6,1788440809171,0.0,0.0,-0.0039309971034526,-0.0028130013961344,0.1230036616325378,0.9923943877220154,0.0,0.0,0.0,0.0,-1.4548756643861791e-09,0.0,-0.0041846139356493,-0.002443884499371,0.1232257261872291,0.9923667907714844,-0.0003095615686004,0.0006621761808596,6.5162416297852e-06,-0.0056903958320617,-0.0331456661224365,0.0538749694824218,0,0,0,0
24.7,1788440809271,0.0,0.0,-0.0039309971034526,-0.0028130013961344,0.1230036616325378,0.9923943877220154,0.0,0.0,0.0,0.0,-1.1630331142598036e-09,0.0,-0.0041988985612988,-0.0024114558473229,0.1232259050011634,0.9923667907714844,-0.0001037286759182,0.000537565161491,5.55849018122131e-06,-0.0163099765777587,-0.0036045908927917,-0.0161781311035156,0,0,0,0
24.8,1788440809371,0.0,0.0,-0.0041568935848772,-0.0024695030879229,0.1230043843388557,0.9923942685127258,0.0,0.0,0.0,0.0,0.0,0.0,-0.0042039938271045,-0.0023825308308005,0.1232260912656784,0.992366909980774,2.0087999883478507e-05,0.0005572208406915,5.087832374100554e-06,0.0630877017974853,0.0909066200256347,-0.0388984680175781,0,0,0,0
24.9,1788440809471,0.0,0.0,-0.0041568935848772,-0.0024695030879229,0.1230043843388557,0.9923942685127258,0.0,0.0,0.0,0.0,0.0,0.0,-0.0042050592601299,-0.0023602480068802,0.1232262179255485,0.992366909980774,5.43055409926353e-05,0.0005008497177558,4.477449172104671e-06,-0.0299222469329834,-0.0750460028648376,0.0678510665893554,0,0,0,0
25.0,1788440809571,0.0,0.0,-0.0041568935848772,-0.0024695030879229,0.1230043843388557,0.9923942685127258,0.0,0.0,0.0,0.0,0.0,0.0,-0.0042051710188388,-0.0023379381746053,0.1232263371348381,0.992366909980774,4.582330765230319e-05,0.0004631940864391,4.243435896960188e-06,-0.0170088410377502,-0.031788170337677,0.0286226272583007,0,0,0,0
25.1,1788440809671,0.0,0.0,-0.0041568935848772,-0.0024695030879229,0.1230043843388557,0.9923942685127258,0.0,0.0,0.0,0.0,0.0,0.0,-0.0042069666087627,-0.0023171259090304,0.1232264637947082,0.992366909980774,-3.16125825292735e-06,0.0004548842509977,5.086658862182163e-06,0.0225913524627685,0.0515146255493164,-0.0373954772949218,0,0,0,0
25.2,1788440809771,0.0,0.0,-0.0041568935848772,-0.0024695030879229,0.1230043843388557,0.9923942685127258,0.0,0.0,0.0,0.0,0.0,0.0,-0.0042123841121792,-0.0023006396368145,0.1232265383005142,0.992366909980774,-0.0001059736696764,0.0003475221859687,3.4785142648649777e-06,0.0096113681793212,0.0415089726448059,-0.0133743286132812,0,0,0,0
25.3,1788440809871,0.0,0.0,-0.0042167785577476,-0.0022922719363123,0.1230051815509796,0.9923943877220154,0.0,0.0,0.0,-0.0011792039731517,0.0057428269647061,5.206972491578199e-05,-0.0042222188785672,-0.0022852625697851,0.1232266277074813,0.992366909980774,-0.0001565689953131,0.0002445433085603,3.245959683482558e-06,-0.0180190801620483,-0.0337305665016174,0.0280866622924804,0,0,0,0
25.4,1788440809971,0.0,0.0,-0.0042235623113811,-0.0022833694238215,0.1230052337050437,0.9923943281173706,0.0,0.0,0.0,-0.0001360565074719,0.0002176684938604,2.8606773412320763e-06,-0.0042281588539481,-0.0022768508642911,0.1232266947627067,0.992366909980774,-9.001441353748633e-05,0.0001888936062812,2.470757998200287e-06,-0.0180564522743225,-0.0358003377914428,0.0060529708862304,0,0,0,0
25.5,1788440810071,0.0,0.0,-0.0042286668904125,-0.0022759074345231,0.1230052560567855,0.9923943877220154,0.0,0.0,0.0,1.3538089538300824e-09,8.122853500935891e-09,0.0,-0.0042334645986557,-0.0022699888795614,0.1232267692685127,0.992366909980774,-6.59641615250326e-05,8.399630416861991e-05,1.5950255685732626e-06,0.0513278841972351,0.0721657276153564,-0.0711393356323242,0,0,0,0
25.6,1788440810171,0.0,0.0,-0.0042349500581622,-0.0022680037654936,0.1230052858591079,0.9923943877220154,0.0,0.0,0.0,-6.927223148522899e-05,9.174965089187026e-05,9.813206816033926e-07,-0.0042338371276855,-0.0022676484659314,0.1232267692685127,0.992366909980774,5.3951464399059e-05,4.717818438203179e-05,3.7863665604449936e-11,0.0187476873397827,0.0098008513450622,0.0198469161987304,0,0,0,0
25.7,1788440810271,0.0,0.0,-0.0042330082505941,-0.0022661772090941,0.1230053007602691,0.9923943877220154,0.0,0.0,0.0,0.0,0.0,0.0,-0.004228732548654,-0.0022665094584226,0.1232267692685127,0.992366909980774,0.0001355484817986,2.659890086720508e-06,5.34939338137554e-12,-0.0498126745223999,-0.059215247631073,0.029820442199707,0,0,0,0
25.8,1788440810371,0.0,0.0,-0.0042330082505941,-0.0022661772090941,0.1230053007602691,0.9923943877220154,0.0,0.0,0.0,0.0,0.0,0.0,-0.0042168134823441,-0.0022643217816948,0.1232267841696739,0.9923670291900636,0.0002350009394051,6.725062505936749e-06,-4.989954678049058e-07,0.0148929357528686,0.0514189004898071,-0.0339441299438476,0,0,0,0
25.9,1788440810471,0.0,0.0,-0.0042330082505941,-0.0022661772090941,0.1230053007602691,0.9923943877220154,0.0,0.0,0.0,0.0,0.0,0.0,-0.0042058955878019,-0.0022625792771577,0.1232267841696739,0.9923670291900636,0.0002584726862892,1.2126213504730446e-05,4.701591632960748e-11,0.0365529060363769,0.0096880197525024,-0.0355243682861328,0,0,0,0
26.0,1788440810571,0.0,0.0,-0.0042330082505941,-0.0022661772090941,0.1230053007602691,0.9923943877220154,0.0,0.0,0.0,0.0,0.0,0.0,-0.0041942680254578,-0.0022612018510699,0.1232267990708351,0.992367148399353,0.0002687497451882,-6.158032563866886e-06,-5.399053801161847e-07,-0.0031221508979797,-0.0461906790733337,0.0089330673217773,0,0,0,0
26.1,1788440810671,0.0,0.0,-0.0042330082505941,-0.0022661772090941,0.1230053007602691,0.9923943877220154,0.0,0.0,0.0,0.0,0.0,0.0,-0.0041839657351374,-0.0022576041519641,0.1232267990708351,0.992367148399353,0.0001413585527184,7.037219486373083e-05,4.976986986572041e-07,-0.0025847554206848,-0.0224713683128356,0.0557222366333007,0,0,0,0
26.2,1788440810771,0.0,0.0,-0.0042330082505941,-0.0022661772090941,0.1230053007602691,0.9923943877220154,0.0,0.0,0.0,0.0,0.0,0.0,-0.0042016878724098,-0.0022609597072005,0.1232211366295814,0.9923677444458008,-0.0008606826598739,0.0003266445872505,-0.0004372733499324,-0.0011272430419921,0.0003874897956848,0.0357723236083984,0,0,0,0
26.3,1788440810871,2.3380281925201416,1.0140844583511353,-0.0042330082505941,-0.0022661772090941,0.1230053007602691,0.9923943877220154,0.0,0.0,0.0,0.0,0.0,0.0,-0.0038553522899746,-0.0022134818136692,0.117759495973587,0.9930322766304016,0.0137971714526804,0.027806643437891,-0.2870146327914752,1.088894605636597,0.1249207258224487,-0.0791034698486328,258,26,11210,3400
26.4,1788440810971,4.873239517211914,1.8028168678283687,-0.0036250047851353,-0.0018008067272603,0.1021448820829391,0.9947613477706908,0.0969140667388817,-0.002956481000718,2.1262077074397937e-06,0.0020156409591436,0.0102271102368831,-0.3971576988697052,-0.0036268206313252,-0.0017773453146219,0.1018997430801391,0.994786500930786,-0.0009084023936421,0.0229792298431677,-0.4399231597084972,0.5248365998268127,-0.2301961779594421,-0.3327474594116211,229,38,16558,4980
26.5,1788440811071,7.408450603485107,1.97183096408844,-0.0036590206436812,-0.0019906000234186,0.0683195143938064,0.9976548552513124,0.1404857097461209,-0.0031856908210109,1.577931895097516e-05,-0.0023709097877144,-0.0118827270343899,-0.7393434643745422,-0.0036522764712572,-0.0017638523131608,0.071561649441719,0.9974278807640076,0.0001078039004975,-6.633394408068092e-05,-0.7158266851039126,0.6134287118911743,-0.2338355183601379,0.4863853454589844,210,169,21819,8058
26.6,1788440811171,6.084506988525391,1.408450722694397,-0.0035232086665928,-0.001773260300979,0.0519401617348194,0.9986424446105956,0.1606645231552798,-0.0053783034869166,3.4073266786092855e-05,0.0059352787211537,0.0131787806749343,-0.8025097846984863,-0.0036857835948467,-0.0011308752000331,0.0241682697087526,0.9997005462646484,0.0003715405127984,0.0194800761655206,-0.7324511062036445,-1.7593364715576172,-0.057437241077423,0.5612077713012695,59,68,10029,4829
26.7,1788440811271,2.0,0.5633803009986877,-0.0037625832483172,-0.0015963098267093,0.0163104906678199,0.9998586773872375,0.0897042227427159,0.0005854417087846,-1.0685499831577356e-05,-0.0038182525895535,-0.0086602661758661,-0.614605188369751,-0.003827697597444,-0.0017108507454395,0.0045378496870398,0.9999809861183168,-0.0037239179803028,-0.0204466273133415,-0.32929255096897,-0.5139968395233154,0.272692859172821,-0.0985746383666992,7,98,3794,2447
26.8,1788440811371,0.0,0.0,-0.0038761752657592,-0.0018531768582761,-7.112262392183766e-05,0.9999907612800598,0.0386543308311296,0.0031929854635403,1.9538062686711822e-06,-0.0029283217154443,-0.0078206686303019,-0.2455613613128662,-0.0038690036162734,-0.001903404481709,-0.0016939379274845,0.9999892711639404,0.0020354188523907,-0.0055081516488362,-0.023886672766431,-0.410277247428894,0.1966614723205566,-0.2513866424560547,0,8,0,0
26.9,1788440811471,0.0,0.0,-0.0039014664944261,-0.0019837000872939,-0.0009089877130463,0.9999899864196776,-0.0014921420614532,0.0012382266384722,-5.91980083528357e-08,-6.990410474827513e-05,-0.007381837349385,0.0363504029810428,-0.0038854172453284,-0.0019559087231755,-0.0004445053637027,0.999990463256836,0.0012622339133551,0.0004897752357157,0.0033280711149734,-0.0199317336082458,0.1028122305870056,-0.0446968078613281,0,0,0,0
27.0,1788440811571,0.0,0.0,-0.0039014664944261,-0.0019837000872939,-0.0009089887607842,0.9999899864196776,0.0,0.0,0.0,-2.7248824724379617e-11,3.5332643477659076e-09,-1.3951398258882364e-08,-0.0038688210770487,-0.0019201328977942,-0.0004083281382918,0.9999905824661256,0.0012043913775127,0.0023461941738995,-0.0004163220196668,-0.0049356222152709,-0.0108993053436279,0.014139175415039,0,0,0,0
27.1,1788440811671,0.0,0.0,-0.0039014664944261,-0.0019837000872939,-0.0009089891100302,0.9999899864196776,0.0,0.0,0.0,-2.723599991372172e-11,3.47712925119481e-09,-1.394483195582552e-08,-0.0038681635633111,-0.0019720904529094,-0.0003829160705208,0.999990463256836,-0.0001603267806607,-0.0002080015514069,8.746171694556297e-05,-0.0042000412940979,0.0158941745758056,0.0483779907226562,0,0,0,0
27.2,1788440811771,0.0,0.0,-0.0039014664944261,-0.0019837000872939,-0.0009089898085221,0.9999899864196776,0.0,0.0,0.0,-2.736328871821847e-11,3.3839266944113433e-09,-1.4010003823727857e-08,-0.0038381526246666,-0.0019522877410054,-0.0003814874216914,0.999990701675415,0.0021388171686016,0.0011976169263629,0.0024138071166898,-0.0145997405052185,0.0242509841918945,0.057373046875,0,0,0,0
27.3,1788440811871,0.0,0.0,-0.0039014664944261,-0.0019837000872939,-0.0009089909726753,0.9999899864196776,0.0,0.0,0.0,-2.719034025711053e-11,3.181269914165341e-09,-1.3921454211640594e-08,-0.0038371328264474,-0.0019728448241949,-0.0003841742873191,0.9999906420707704,0.0007353006231844,-3.379107149992856e-05,0.000271717415588,-0.0455178022384643,-0.0116336345672607,0.0428237915039062,0,0,0,0
27.4,1788440811971,0.0,0.0,-0.0039014664944261,-0.0019837000872939,-0.0009089913219213,0.9999899864196776,0.0,0.0,0.0,-3.414083946107205e-11,3.926196256998082e-09,-1.7480109804068892e-08,-0.0038125496357679,-0.002006210386753,-0.000358679331839,0.9999906420707704,1.7641472033034384e-05,-0.0005614426232481,-0.0006268672258623,0.0220723748207092,-0.0157356858253479,0.0500822067260742,0,0,0,0
