time_s,timestamp_ms,wheel_vels__velocity_left,wheel_vels__velocity_right,odom__orient_x,odom__orient_y,odom__orient_z,odom__orient_w,odom__lin_x,odom__lin_y,odom__lin_z,odom__ang_x,odom__ang_y,odom__ang_z,imu__orient_x,imu__orient_y,imu__orient_z,imu__orient_w,imu__angvel_x,imu__angvel_y,imu__angvel_z,imu__acc_x,imu__acc_y,imu__acc_z,wheel_status__current_ma_left,wheel_status__current_ma_right,wheel_status__pwm_left,wheel_status__pwm_right
0.0,1788444096100,0.0,0.0,0.0004414287395775,0.0063488753512501,-0.9829883575439452,0.1835581064224243,0.0003364494630004,0.0001036825770047,2.347023153848725e-06,0.0009214202873408,0.0007206117152236,0.0012666909024119,0.000798194669187,0.0063458168879151,-0.990780234336853,0.1353273838758468,-0.0001567745723012,0.0013439826509254,-0.000374581170354,-0.0102263092994689,-0.0193362832069396,-0.0172786712646484,0,0,0,0
0.1,1788444096200,0.0,0.0,0.0004414287395775,0.0063488753512501,-0.9829883575439452,0.1835581064224243,0.0003364494630004,0.0001036825770047,2.347023153848725e-06,0.0009214202873408,0.0007206117152236,0.0012666909024119,0.000798194669187,0.0063458168879151,-0.990780234336853,0.1353273838758468,-0.0001567745723012,0.0013439826509254,-0.000374581170354,-0.0102263092994689,-0.0193362832069396,-0.0172786712646484,0,0,0,0
0.2,1788444096300,0.0,0.0,0.0004414287395775,0.0063488753512501,-0.9829883575439452,0.1835581064224243,0.0003364494630004,0.0001036825770047,2.347023153848725e-06,0.0009214202873408,0.0007206117152236,0.0012666909024119,0.000798194669187,0.0063458168879151,-0.990780234336853,0.1353273838758468,-0.0001567745723012,0.0013439826509254,-0.000374581170354,-0.0102263092994689,-0.0193362832069396,-0.0172786712646484,0,0,0,0
0.3,1788444096400,0.0,0.0,0.0004414287395775,0.0063488753512501,-0.9829883575439452,0.1835581064224243,0.0003364494630004,0.0001036825770047,2.347023153848725e-06,0.0009214202873408,0.0007206117152236,0.0012666909024119,0.000798194669187,0.0063458168879151,-0.990780234336853,0.1353273838758468,-0.0001567745723012,0.0013439826509254,-0.000374581170354,-0.0102263092994689,-0.0193362832069396,-0.0172786712646484,0,0,0,0
0.4,1788444096500,0.0,0.0,0.0004414287395775,0.0063488753512501,-0.9829883575439452,0.1835581064224243,0.0003364494630004,0.0001036825770047,2.347023153848725e-06,0.0009214202873408,0.0007206117152236,0.0012666909024119,0.000798194669187,0.0063458168879151,-0.990780234336853,0.1353273838758468,-0.0001567745723012,0.0013439826509254,-0.000374581170354,-0.0102263092994689,-0.0193362832069396,-0.0172786712646484,0,0,0,0
0.5,1788444096600,0.0,0.0,0.0004414287395775,0.0063488753512501,-0.9829883575439452,0.1835581064224243,0.0003364494630004,0.0001036825770047,2.347023153848725e-06,0.0009214202873408,0.0007206117152236,0.0012666909024119,0.000798194669187,0.0063458168879151,-0.990780234336853,0.1353273838758468,-0.0001567745723012,0.0013439826509254,-0.000374581170354,-0.0102263092994689,-0.0193362832069396,-0.0172786712646484,0,0,0,0
0.6,1788444096700,0.0,0.0,0.0004414287395775,0.0063488753512501,-0.9829883575439452,0.1835581064224243,0.0003364494630004,0.0001036825770047,2.347023153848725e-06,0.0009214202873408,0.0007206117152236,0.0012666909024119,0.000798194669187,0.0063458168879151,-0.990780234336853,0.1353273838758468,-0.0001567745723012,0.0013439826509254,-0.000374581170354,-0.0102263092994689,-0.0193362832069396,-0.0172786712646484,0,0,0,0
0.7,1788444096800,0.0,0.0,0.0004414287395775,0.0063488753512501,-0.9829883575439452,0.1835581064224243,0.0003364494630004,0.0001036825770047,2.347023153848725e-06,0.0009214202873408,0.0007206117152236,0.0012666909024119,0.000798194669187,0.0063458168879151,-0.990780234336853,0.1353273838758468,-0.0001567745723012,0.0013439826509254,-0.000374581170354,-0.0102263092994689,-0.0193362832069396,-0.0172786712646484,0,0,0,0
0.8,1788444096900,0.0,0.0,0.0004414287395775,0.0063488753512501,-0.9829883575439452,0.1835581064224243,0.0003364494630004,0.0001036825770047,2.347023153848725e-06,0.0009214202873408,0.0007206117152236,0.0012666909024119,0.000798194669187,0.0063458168879151,-0.990780234336853,0.1353273838758468,-0.0001567745723012,0.0013439826509254,-0.000374581170354,-0.0102263092994689,-0.0193362832069396,-0.0172786712646484,0,0,0,0
0.9,1788444097000,0.0,0.0,0.0004414287395775,0.0063488753512501,-0.9829883575439452,0.1835581064224243,0.0003364494630004,0.0001036825770047,2.347023153848725e-06,0.0009214202873408,0.0007206117152236,0.0012666909024119,0.000798194669187,0.0063458168879151,-0.990780234336853,0.1353273838758468,-0.0001567745723012,0.0013439826509254,-0.000374581170354,-0.0102263092994689,-0.0193362832069396,-0.0172786712646484,0,0,0,0
1.0,1788444097100,0.0,0.0,0.0004414287395775,0.0063488753512501,-0.9829883575439452,0.1835581064224243,0.0003364494630004,0.0001036825770047,2.347023153848725e-06,0.0009214202873408,0.0007206117152236,0.0012666909024119,0.000798194669187,0.0063458168879151,-0.990780234336853,0.1353273838758468,-0.0001567745723012,0.0013439826509254,-0.000374581170354,-0.0102263092994689,-0.0193362832069396,-0.0172786712646484,0,0,0,0
1.1,1788444097200,0.0,0.0,0.0004414287395775,0.0063488753512501,-0.9829883575439452,0.1835581064224243,0.0003364494630004,0.0001036825770047,2.347023153848725e-06,0.0009214202873408,0.0007206117152236,0.0012666909024119,0.000798194669187,0.0063458168879151,-0.990780234336853,0.1353273838758468,-0.0001567745723012,0.0013439826509254,-0.000374581170354,-0.0102263092994689,-0.0193362832069396,-0.0172786712646484,0,0,0,0
1.2,1788444097300,0.0,0.0,0.0004414287395775,0.0063488753512501,-0.9829883575439452,0.1835581064224243,0.0003364494630004,0.0001036825770047,2.347023153848725e-06,0.0009214202873408,0.0007206117152236,0.0012666909024119,0.000798194669187,0.0063458168879151,-0.990780234336853,0.1353273838758468,-0.0001567745723012,0.0013439826509254,-0.000374581170354,-0.0102263092994689,-0.0193362832069396,-0.0172786712646484,0,0,0,0
1.3,1788444097400,0.0,0.0,0.0004414287395775,0.0063488753512501,-0.9829883575439452,0.1835581064224243,0.0003364494630004,0.0001036825770047,2.347023153848725e-06,0.0009214202873408,0.0007206117152236,0.0012666909024119,0.000798194669187,0.0063458168879151,-0.990780234336853,0.1353273838758468,-0.0001567745723012,0.0013439826509254,-0.000374581170354,-0.0102263092994689,-0.0193362832069396,-0.0172786712646484,0,0,0,0
1.4,1788444097500,0.0,0.0,0.0004414287395775,0.0063488753512501,-0.9829883575439452,0.1835581064224243,0.0003364494630004,0.0001036825770047,2.347023153848725e-06,0.0009214202873408,0.0007206117152236,0.0012666909024119,0.000798194669187,0.0063458168879151,-0.990780234336853,0.1353273838758468,-0.0001567745723012,0.0013439826509254,-0.000374581170354,-0.0102263092994689,-0.0193362832069396,-0.0172786712646484,0,0,0,0
1.5,1788444097600,0.0,0.0,0.0004414287395775,0.0063488753512501,-0.9829883575439452,0.1835581064224243,0.0003364494630004,0.0001036825770047,2.347023153848725e-06,0.0009214202873408,0.0007206117152236,0.0012666909024119,0.000798194669187,0.0063458168879151,-0.990780234336853,0.1353273838758468,-0.0001567745723012,0.0013439826509254,-0.000374581170354,-0.0102263092994689,-0.0193362832069396,-0.0172786712646484,0,0,0,0
1.6,1788444097700,0.0,0.0,0.0004414287395775,0.0063488753512501,-0.9829883575439452,0.1835581064224243,0.0003364494630004,0.0001036825770047,2.347023153848725e-06,0.0009214202873408,0.0007206117152236,0.0012666909024119,0.000798194669187,0.0063458168879151,-0.990780234336853,0.1353273838758468,-0.0001567745723012,0.0013439826509254,-0.000374581170354,-0.0102263092994689,-0.0193362832069396,-0.0172786712646484,0,0,0,0
1.7,1788444097800,0.0,0.0,0.0004414287395775,0.0063488753512501,-0.9829883575439452,0.1835581064224243,0.0003364494630004,0.0001036825770047,2.347023153848725e-06,0.0009214202873408,0.0007206117152236,0.0012666909024119,0.000798194669187,0.0063458168879151,-0.990780234336853,0.1353273838758468,-0.0001567745723012,0.0013439826509254,-0.000374581170354,-0.0102263092994689,-0.0193362832069396,-0.0172786712646484,0,0,0,0
1.8,1788444097900,0.0,0.0,0.0004414287395775,0.0063488753512501,-0.9829883575439452,0.1835581064224243,0.0003364494630004,0.0001036825770047,2.347023153848725e-06,0.0009214202873408,0.0007206117152236,0.0012666909024119,0.000798194669187,0.0063458168879151,-0.990780234336853,0.1353273838758468,-0.0001567745723012,0.0013439826509254,-0.000374581170354,-0.0102263092994689,-0.0193362832069396,-0.0172786712646484,0,0,0,0
1.9,1788444098000,0.0,0.0,0.0004414287395775,0.0063488753512501,-0.9829883575439452,0.1835581064224243,0.0003364494630004,0.0001036825770047,2.347023153848725e-06,0.0009214202873408,0.0007206117152236,0.0012666909024119,0.000798194669187,0.0063458168879151,-0.990780234336853,0.1353273838758468,-0.0001567745723012,0.0013439826509254,-0.000374581170354,-0.0102263092994689,-0.0193362832069396,-0.0172786712646484,0,0,0,0
2.0,1788444098100,0.0,0.0,0.0004414287395775,0.0063488753512501,-0.9829883575439452,0.1835581064224243,0.0003364494630004,0.0001036825770047,2.347023153848725e-06,0.0009214202873408,0.0007206117152236,0.0012666909024119,0.000798194669187,0.0063458168879151,-0.990780234336853,0.1353273838758468,-0.0001567745723012,0.0013439826509254,-0.000374581170354,-0.0102263092994689,-0.0193362832069396,-0.0172786712646484,0,0,0,0
2.1,1788444098200,0.0,0.0,0.0004414287395775,0.0063488753512501,-0.9829883575439452,0.1835581064224243,0.0003364494630004,0.0001036825770047,2.347023153848725e-06,0.0009214202873408,0.0007206117152236,0.0012666909024119,0.000798194669187,0.0063458168879151,-0.990780234336853,0.1353273838758468,-0.0001567745723012,0.0013439826509254,-0.000374581170354,-0.0102263092994689,-0.0193362832069396,-0.0172786712646484,0,0,0,0
2.2,1788444098300,0.0,0.0,0.0004414287395775,0.0063488753512501,-0.9829883575439452,0.1835581064224243,0.0003364494630004,0.0001036825770047,2.347023153848725e-06,0.0009214202873408,0.0007206117152236,0.0012666909024119,0.000798194669187,0.0063458168879151,-0.990780234336853,0.1353273838758468,-0.0001567745723012,0.0013439826509254,-0.000374581170354,-0.0102263092994689,-0.0193362832069396,-0.0172786712646484,0,0,0,0
2.3,1788444098400,0.0,0.0,0.0004414287395775,0.0063488753512501,-0.9829883575439452,0.1835581064224243,0.0003364494630004,0.0001036825770047,2.347023153848725e-06,0.0009214202873408,0.0007206117152236,0.0012666909024119,0.000798194669187,0.0063458168879151,-0.990780234336853,0.1353273838758468,-0.0001567745723012,0.0013439826509254,-0.000374581170354,-0.0102263092994689,-0.0193362832069396,-0.0172786712646484,0,0,0,0
2.4,1788444098500,0.0,0.0,0.0004414287395775,0.0063488753512501,-0.9829883575439452,0.1835581064224243,0.0003364494630004,0.0001036825770047,2.347023153848725e-06,0.0009214202873408,0.0007206117152236,0.0012666909024119,0.000798194669187,0.0063458168879151,-0.990780234336853,0.1353273838758468,-0.0001567745723012,0.0013439826509254,-0.000374581170354,-0.0102263092994689,-0.0193362832069396,-0.0172786712646484,0,0,0,0
2.5,1788444098600,0.0,0.0,0.0004414287395775,0.0063488753512501,-0.9829883575439452,0.1835581064224243,0.0003364494630004,0.0001036825770047,2.347023153848725e-06,0.0009214202873408,0.0007206117152236,0.0012666909024119,0.000798194669187,0.0063458168879151,-0.990780234336853,0.1353273838758468,-0.0001567745723012,0.0013439826509254,-0.000374581170354,-0.0102263092994689,-0.0193362832069396,-0.0172786712646484,0,0,0,0
2.6,1788444098700,0.0,0.0,0.0004414287395775,0.0063488753512501,-0.9829883575439452,0.1835581064224243,0.0003364494630004,0.0001036825770047,2.347023153848725e-06,0.0009214202873408,0.0007206117152236,0.0012666909024119,0.000798194669187,0.0063458168879151,-0.990780234336853,0.1353273838758468,-0.0001567745723012,0.0013439826509254,-0.000374581170354,-0.0102263092994689,-0.0193362832069396,-0.0172786712646484,0,0,0,0
2.7,1788444098800,0.0,0.0,0.0004414287395775,0.0063488753512501,-0.9829883575439452,0.1835581064224243,0.0003364494630004,0.0001036825770047,2.347023153848725e-06,0.0009214202873408,0.0007206117152236,0.0012666909024119,0.000798194669187,0.0063458168879151,-0.990780234336853,0.1353273838758468,-0.0001567745723012,0.0013439826509254,-0.000374581170354,-0.0102263092994689,-0.0193362832069396,-0.0172786712646484,0,0,0,0
2.8,1788444098900,0.0,0.0,0.0004414287395775,0.0063488753512501,-0.9829883575439452,0.1835581064224243,0.0003364494630004,0.0001036825770047,2.347023153848725e-06,0.0009214202873408,0.0007206117152236,0.0012666909024119,0.000798194669187,0.0063458168879151,-0.990780234336853,0.1353273838758468,-0.0001567745723012,0.0013439826509254,-0.000374581170354,-0.0102263092994689,-0.0193362832069396,-0.0172786712646484,0,0,0,0
2.9,1788444099000,0.0,0.0,0.0004414287395775,0.0063488753512501,-0.9829883575439452,0.1835581064224243,0.0003364494630004,0.0001036825770047,2.347023153848725e-06,0.0009214202873408,0.0007206117152236,0.0012666909024119,0.000798194669187,0.0063458168879151,-0.990780234336853,0.1353273838758468,-0.0001567745723012,0.0013439826509254,-0.000374581170354,-0.0102263092994689,-0.0193362832069396,-0.0172786712646484,0,0,0,0
3.0,1788444099100,0.0,0.0,0.0004414287395775,0.0063488753512501,-0.9829883575439452,0.1835581064224243,0.0003364494630004,0.0001036825770047,2.347023153848725e-06,0.0009214202873408,0.0007206117152236,0.0012666909024119,0.000798194669187,0.0063458168879151,-0.990780234336853,0.1353273838758468,-0.0001567745723012,0.0013439826509254,-0.000374581170354,-0.0102263092994689,-0.0193362832069396,-0.0172786712646484,0,0,0,0
3.1,1788444099200,0.0,0.0,0.0004414287395775,0.0063488753512501,-0.9829883575439452,0.1835581064224243,0.0003364494630004,0.0001036825770047,2.347023153848725e-06,0.0009214202873408,0.0007206117152236,0.0012666909024119,0.000798194669187,0.0063458168879151,-0.990780234336853,0.1353273838758468,-0.0001567745723012,0.0013439826509254,-0.000374581170354,-0.0102263092994689,-0.0193362832069396,-0.0172786712646484,0,0,0,0
3.2,1788444099300,0.0,0.0,0.0004873926518484,0.0063772229477763,-0.982990860939026,0.1835432648658752,-5.298060620504355e-05,6.305750798733896e-05,6.074333196771119e-07,-0.0007832022965885,0.0020372569561004,-0.000595981022343,0.0008358424529433,0.0062900995835661,-0.9907837510108948,0.1353050470352172,0.0024632175668643,-0.0008425958912373,-0.0010010977595691,-0.0150520801544189,0.0081849694252014,-0.0081968307495117,0,0,0,0
3.3,1788444099400,0.0,0.0,0.0004873926518484,0.0063772229477763,-0.982990860939026,0.1835432648658752,0.0,0.0,0.0,0.0,1.1638398023094963e-09,0.0,0.0008533224463462,0.0063280798494815,-0.990784227848053,0.1352991014719009,-0.0016218712136745,0.0011045021278821,0.0002518135031883,-0.0074333548545837,0.0142725706100463,-0.0081472396850585,0,0,0,0
3.4,1788444099500,0.0,0.0,0.0005503955762833,0.0063422387465834,-0.9829926490783693,0.1835346519947052,-0.0001549194840694,-0.0001607895333693,1.2588333976395783e-06,0.0,0.0,0.0,0.0008930601179599,0.0063295988366007,-0.9907817840576172,0.1353164613246917,0.000316513487699,0.0010536647711833,-0.0011163937611577,0.0148412585258483,-0.0182526111602783,0.0241022109985351,0,0,0,0
3.5,1788444099600,0.0,0.0,0.0005742885405197,0.0063568474724888,-0.9829837679862976,0.1835813522338867,0.000382299011834,2.691244555307421e-05,1.659246142834555e-06,0.0004149535088799,-0.0002515229571145,0.0019075607415288,0.0008898312225937,0.0063307555392384,-0.990776538848877,0.1353551298379898,-0.0005577042820571,0.0012790410691808,-0.0002826229005449,0.0345569849014282,0.0106226205825805,-0.0008869171142578,0,0,0,0
3.6,1788444099700,0.0,0.0,0.0006037522107362,0.0063850590959191,-0.9829883575439452,0.1835558861494064,-9.204502844108868e-05,0.0001059869595797,9.835340368345343e-07,-0.0008920074324123,0.001373320701532,-0.0010291533544659,0.0009183585643768,0.0062902672216296,-0.9907766580581664,0.1353556215763092,0.0021715697762834,-0.0011576581995921,0.0009196201061452,-0.0099540948867797,0.0150181055068969,0.0332002639770507,0,0,0,0
3.7,1788444099800,0.0,0.0,0.0005968792829662,0.0063037881627678,-0.9829871654510498,0.1835649758577346,3.011586334350302e-05,-3.3116963072288855e-05,-3.020588977741981e-07,0.0026403262745589,-0.0007298643467947,0.0003077911969739,0.0008846446871757,0.0062871174886822,-0.9907785654067992,0.1353424042463302,0.0001459503336568,0.0003838475652423,0.0007851700739083,-0.021390676498413,-0.0136181712150573,0.0169124603271484,0,0,0,0
3.8,1788444099900,0.0,0.0,0.0005766064859926,0.0063228118233382,-0.98298841714859,0.1835580915212631,6.28380349659972e-06,-0.0003129250749132,-8.973858685607882e-08,0.0,0.0,0.0,0.0008688895031809,0.0062943305820226,-0.9907820820808412,0.1353164464235305,-0.0017780961988477,0.001260445270139,-0.0009864799224597,0.0088670253753662,0.0117960572242736,-0.0027008056640625,0,0,0,0
3.9,1788444100000,0.0,0.0,0.0005857766373082,0.0063106059096753,-0.9829909801483154,0.1835444122552871,2.635845496378904e-05,0.0003992951376813,-2.214885850798752e-07,0.0008790566935203,0.0012455839896574,0.0004000546177849,0.0008608903735876,0.0062786135822534,-0.9907824993133544,0.135313794016838,-0.0005635220544331,-0.0020929343058379,-0.0010090912368722,-0.0093230605125427,0.007863700389862,0.013427734375,0,0,0,0
4.0,1788444100100,0.0,0.0,0.0005545448511838,0.0063007003627717,-0.982995331287384,0.1835218518972396,-7.726412287214816e-05,9.130464365047068e-05,8.452430863871215e-07,0.0001619661488803,-0.0012964167399331,-0.0009277582284994,0.000840175896883,0.0062762908637523,-0.9907835125923156,0.1353069543838501,-3.065756840880065e-05,-0.0013030710352603,-0.0004416473224487,0.0279736518859863,0.0042614936828613,0.0188522338867187,0,0,0,0
4.1,1788444100200,0.0,0.0,0.0005545448511838,0.0063007003627717,-0.982995331287384,0.1835218518972396,0.0,0.0,0.0,0.0,0.0,0.0,0.0008111465722322,0.0062050521373748,-0.9907761216163636,0.1353648006916046,-3.257315300175777e-05,-0.0003115048648479,0.001233824099963,-0.0051116347312927,-0.0365252494812011,0.0114555358886718,0,0,0,0
4.2,1788444100300,0.0,0.0,0.0005114099476486,0.0062356838025152,-0.9829819798469543,0.1835950911045074,0.0001490547286926,0.0002556669974617,-1.6032000021152252e-06,0.0006345722358673,-0.0009635534370318,0.0017914278432726,0.0008197901770472,0.0062040882185101,-0.9907730221748352,0.1353870183229446,0.0001400986214739,0.0005568413963705,0.0015089187625768,0.0094386339187622,-0.0131682753562927,-0.0010023117065429,0,0,0,0
4.3,1788444100400,0.0,0.0,0.0004608513554558,0.0062276124954223,-0.9829789400100708,0.183612048625946,6.373007096999694e-05,-7.166736491818843e-05,-6.55176238162194e-07,-5.470260657602921e-05,-0.0020387503318488,0.0006723515107296,0.0008162260055541,0.0061658918857574,-0.9907736778259276,0.1353843361139297,0.0016998403996009,0.0018505213701146,3.374272250767406e-05,0.0056794881820678,0.0400441288948059,-0.0151662826538085,0,0,0,0
4.4,1788444100500,0.0,0.0,0.0004608513554558,0.0062276124954223,-0.9829789400100708,0.183612048625946,0.0,0.0,0.0,0.0,0.0,0.0,0.0007764026522636,0.006159583106637,-0.9907711744308472,0.1354024112224578,-0.0010416092540798,-5.064466052925741e-05,0.0001104493934266,0.0012569427490234,-0.0247158408164978,0.0079240798950195,0,0,0,0
4.5,1788444100600,0.0,0.0,0.0004608513554558,0.0062276124954223,-0.9829789400100708,0.183612048625946,0.0,0.0,0.0,0.0,0.0,0.0,0.0007379241287708,0.0061578471213579,-0.9907677173614502,0.1354289948940277,-0.0001414879675299,-0.0015425795285631,0.001064000068113,-0.0012951493263244,-0.0138661861419677,0.0079641342163085,0,0,0,0
4.6,1788444100700,0.0,0.0,0.0004608513554558,0.0062276124954223,-0.9829789400100708,0.183612048625946,0.0,0.0,0.0,0.0,0.0,0.0,0.0007165716961026,0.0062222070991992,-0.9907655715942384,0.1354415565729141,-0.0016308089314806,-0.0004767759614134,0.0002080806456065,-0.0266620516777038,0.0414631366729736,-0.0223703384399414,0,0,0,0
4.7,1788444100800,0.0,0.0,0.0004608513554558,0.0062276124954223,-0.9829789400100708,0.183612048625946,0.0,0.0,0.0,0.0,0.0,0.0,0.0007370375096797,0.0062107499688863,-0.9907644987106324,0.1354494392871856,0.0003843715178041,-0.000453698979519,0.000596055380398,0.0077924728393554,0.0069736838340759,0.0008869171142578,0,0,0,0
4.8,1788444100900,0.0,0.0,0.0004608513554558,0.0062276124954223,-0.9829789400100708,0.183612048625946,0.0,0.0,0.0,0.0,0.0,0.0,0.0006704414263367,0.0062057068571448,-0.9907628893852234,0.1354617774486541,-4.208803682697775e-05,-0.0022990305681681,-0.0003218823461281,-0.0079073309898376,0.0106148719787597,0.0098638534545898,0,0,0,0
4.9,1788444101000,0.0,0.0,0.0004608513554558,0.0062276124954223,-0.9829789400100708,0.183612048625946,0.0,0.0,0.0,0.0,0.0,0.0,0.0007207551971077,0.0061398735269904,-0.9907624125480652,0.1354685723781585,0.000279556864452,0.0001616887514447,-0.0007502630929184,0.0072754025459289,0.0020878911018371,-0.0063238143920898,0,0,0,0
5.0,1788444101100,0.0,0.0,0.0004608513554558,0.0062276124954223,-0.9829789400100708,0.183612048625946,0.0,0.0,0.0,0.0,0.0,0.0,0.0006736945360898,0.006112060509622,-0.9907634854316713,0.1354617029428482,0.0005954871695092,-0.0015423941672385,0.0001011251299414,0.0008339881896972,-0.0254024267196655,0.0294790267944335,0,0,0,0
5.1,1788444101200,0.0,0.0,0.0004608513554558,0.0062276124954223,-0.9829789400100708,0.183612048625946,0.0,0.0,0.0,0.0,0.0,0.0,0.0006785159930586,0.0060876701027154,-0.9907631874084472,0.1354653984308242,0.0012394506148337,-0.0004661092603248,0.0010382209593185,-0.0098571181297302,0.0102285146713256,-0.0188932418823242,0,0,0,0
5.2,1788444101300,0.0,0.0,0.0004608513554558,0.0062276124954223,-0.9829789400100708,0.183612048625946,0.0,0.0,0.0,0.0,0.0,0.0,0.0006827609613537,0.0060744397342205,-0.9907665252685548,0.1354414969682693,-4.860629595409733e-05,0.0016158318918695,-0.0002811306246719,-0.0098239183425903,0.0117499232292175,-0.0152931213378906,0,0,0,0
5.3,1788444101400,0.0,0.0,0.0004608513554558,0.0062276124954223,-0.9829789400100708,0.183612048625946,0.0,0.0,0.0,0.0,0.0,0.0,0.0006335768848657,0.0060908393934369,-0.9907673597335817,0.1354346424341201,-0.0009683621515459,-0.0016227077274217,-0.0002488996767573,0.0107554197311401,0.0138441920280456,0.0260562896728515,0,0,0,0
5.4,1788444101500,0.0,0.0,0.0004608513554558,0.0062276124954223,-0.9829789400100708,0.183612048625946,0.0,0.0,0.0,0.0,0.0,0.0,0.0006335768848657,0.0060908393934369,-0.9907673597335817,0.1354346424341201,-0.0009683621515459,-0.0016227077274217,-0.0002488996767573,0.0107554197311401,0.0138441920280456,0.0260562896728515,0,0,0,0
5.5,1788444101600,0.0,0.0,0.0004608513554558,0.0062276124954223,-0.9829789400100708,0.183612048625946,0.0,0.0,0.0,0.0,0.0,0.0,0.0006624022498726,0.0060677528381347,-0.9907683730125428,0.1354286968708038,0.0006265995427565,-3.7171726128599855e-05,0.0009741502849362,-0.0156342983245849,-0.0134415030479431,-0.0171928405761718,0,0,0,0
5.6,1788444101700,0.0,0.0,0.0004608513554558,0.0062276124954223,-0.9829789400100708,0.183612048625946,0.0,0.0,0.0,0.0,0.0,0.0,0.0007062060758471,0.0060471259057521,-0.9907678365707396,0.1354328393936157,0.0004363921603897,0.0006717431802757,7.376928478906797e-05,0.0048792362213134,-0.0068966746330261,0.0151824951171875,0,0,0,0
5.7,1788444101800,0.0,0.0,0.0004608513554558,0.0062276124954223,-0.9829789400100708,0.183612048625946,0.0,0.0,0.0,0.0,0.0,0.0,0.000713562592864,0.00603764411062,-0.9907691478729248,0.135423794388771,0.0001742327584412,0.0001014507788983,-0.0001519621633229,-0.0165379047393798,0.0001439452171325,0.0026025772094726,0,0,0,0
5.8,1788444101900,0.0,0.0,0.0004608513554558,0.0062276124954223,-0.9829789400100708,0.183612048625946,0.0,0.0,0.0,0.0,0.0,0.0,0.000713562592864,0.00603764411062,-0.9907691478729248,0.135423794388771,0.0001742327584412,0.0001014507788983,-0.0001519621633229,-0.0165379047393798,0.0001439452171325,0.0026025772094726,139,297,6685,8187
5.9,1788444102000,1.6056338548660278,3.0422534942626958,0.0005204840563237,0.00561403343454,-0.9808358550071716,0.1947541236877441,0.0532811263770266,0.0012955217916855,1.3021742255550929e-06,0.0146360704675316,-0.0028917752206325,0.3690126240253448,0.0008750343695282,0.0059362770989537,-0.990144431591034,0.1399218142032623,0.0072247042776272,0.0087003315369895,0.2505261238686659,0.1469244360923767,0.7412648797035217,-0.0669975280761718,734,334,21169,15540
6.0,1788444102100,1.6619718074798584,4.760563373565674,0.0006133518181741,0.0051718475297093,-0.978662371635437,0.2054091095924377,0.1003996245580324,-0.0031828615066719,-4.107580558648225e-05,0.0178641807287931,-0.0022107693366706,0.4475744664669037,0.0008750343695282,0.0059362770989537,-0.990144431591034,0.1399218142032623,0.0072247042776272,0.0087003315369895,0.2505261238686659,0.1469244360923767,0.7412648797035217,-0.0669975280761718,734,334,21169,15540
6.1,1788444102200,1.7464789152145386,5.605633735656738,0.0016992092132568,0.0054368809796869,-0.972891330718994,0.2311925590038299,0.1336364968478687,-0.0025574831555847,1.3991053462895546e-06,2.0922027033520862e-05,0.018278382718563,0.674318790435791,0.0025551859289407,0.0043531553819775,-0.9761160612106324,0.2171912193298339,0.0163939688498756,0.0085470001677025,0.6673163818302068,0.2244601249694824,0.0567978620529174,1.1067466735839844,885,71,32767,13244
6.2,1788444102300,0.9577465057373048,1.6901408433914185,0.0031696658115833,0.004642991349101,-0.9629625082015992,0.2695767879486084,0.1233351837025865,-0.0030671794200985,-5.99680954223104e-05,0.0138829881325364,0.0346275642514228,0.6281750798225403,0.0049563264474272,0.0050012115389108,-0.9724453687667848,0.2330244332551956,-0.0158388050235298,0.0639353945352447,0.4525045337157405,-3.0860838890075684,-0.519310712814331,1.0664615631103516,885,71,32767,13244
6.3,1788444102400,-2.3380281925201416,-2.253521203994751,0.0033896937966346,0.0049984473735094,-0.9586406946182252,0.2845551967620849,0.022314443395943,-0.0114173372937396,1.1707199165927178e-06,-0.0158676374703645,-0.0203085169196128,0.2841046452522278,0.0037581752985715,0.0058144088834524,-0.971490740776062,0.2369763702154159,-0.0496469089102689,0.0060802159964643,-0.0147933663732002,-1.7632620334625244,-0.0968924760818481,2.546156883239746,885,71,32767,13244
6.4,1788444102500,-2.3380281925201416,-2.253521203994751,0.0039904881268739,0.0046933684498071,-0.9645098447799684,0.2639751732349396,-0.0448774843541428,-0.0062061086842133,-6.614983787373065e-06,0.0548572652041912,0.0357740372419357,-0.806065559387207,0.0033705923706293,0.0043020760640501,-0.9833077788352966,0.1818678528070449,-0.0079788928009825,-0.0014011549969787,-1.158992884625134,-0.8183792233467102,0.2755843997001648,0.8117809295654297,885,71,32767,13244
6.5,1788444102600,0.0,-6.760563373565674,0.0032522692345082,0.0049379961565136,-0.977413773536682,0.2112517058849334,-0.126981144402434,0.0195218955689703,7.242670536588979e-05,-0.0228849258273839,0.0323609225451946,-1.262811541557312,0.0035340813919901,0.0047479504719376,-0.991923987865448,0.1266954988241195,0.0110989623445685,-0.0045305576404561,-1.1170388990044795,-0.8644194602966309,0.3255364298820495,0.4599332809448242,924,47,32767,-16250
6.6,1788444102700,0.0,-6.14084529876709,0.0029513984918594,0.0047160936519503,-0.9873453378677368,0.1584873050451278,-0.1237646216849124,0.013600634660424,-2.2782716879492976e-05,0.0117407841607928,-0.015003029257059,-1.0807921886444092,0.0027039060369133,0.004641642794013,-0.9967489242553712,0.0803920328617096,-0.0063017770692608,-0.001731020247877,-0.9740171750443868,0.5800348520278931,-0.0349053740501403,-0.315652847290039,924,47,32767,-16250
6.7,1788444102800,0.0,-6.14084529876709,0.0024993140250444,0.0052241133525967,-0.9959008693695068,0.0902652069926261,-0.1075285278756154,0.0007959245545369,4.533405752717615e-07,-0.0034985817037522,0.0065927836112678,-0.9736416935920716,0.0027788998559117,0.0051462054252624,-0.9994552135467528,0.0324829779565334,-0.0064215230763803,0.0110035307605475,-1.010079812553815,-0.5256456136703491,0.1595180630683899,0.0375804901123046,912,115,32767,-17315
6.8,1788444102900,0.0,-6.394366264343262,0.0026236760895699,0.0059938901104032,-0.9993986487388612,0.0340514406561851,-0.1049350596573669,0.004602464255322,7.449313072979056e-06,-0.012281697243452,-0.0012515353737398,-0.9213219285011292,-0.0024010082706809,-0.0059596933424472,0.9997559189796448,0.0211376938968896,-0.0081834343028012,-0.0254071288759365,-0.8005069611626063,2.198032855987549,1.265475511550903,-1.0141305923461914,884,132,32767,-17006
6.9,1788444103000,0.0,0.0,0.0023191876243799,0.0059395022690296,-0.9996533989906312,0.0255435425788164,-0.033899304648808,0.0070488888930531,-1.2153669074055986e-05,0.0032224636524915,-0.0121529567986726,-0.4044078290462494,-0.0033854255452752,-0.0059267152100801,0.9996798038482666,0.0243674255907535,-0.0045299198639275,-0.0076364462818021,-0.0114782465097197,0.4308712482452392,-0.1019378900527954,-0.4236583709716797,925,0,32767,-32767
7.0,1788444103100,0.0,0.0,0.0031528631225228,0.0059935906901955,-0.999670684337616,0.0247525442391634,0.0041449558744287,-0.0024464396004694,-3.512297695913044e-07,0.0008371699950657,-0.0066775125451385,0.0225017461925745,-0.0035020867362618,-0.0057815676555037,0.9996747374534608,0.024593012407422,0.0016378227580808,0.0034765704598767,-0.0424411167891244,-0.5749275088310242,0.222372829914093,-0.0195589065551757,923,0,32767,-32767
7.1,1788444103200,0.0,0.0,0.0031438153237104,0.0059584956616163,-0.9996858239173888,0.0241407752037048,0.000386522953469,0.0015444207253808,-1.017158278243053e-07,0.000780567235779,0.0006786021986044,-0.0321620143949985,-0.0034284209832549,-0.0058085415512323,0.9996454119682312,0.0257603246718645,-0.0010737020122052,-0.0036675081609344,-0.0088484083136116,0.1453320980072021,0.0302157402038574,0.1171112060546875,923,0,32767,-32767
7.2,1788444103300,0.0,0.0,0.0031438153237104,0.0059584956616163,-0.9996858239173888,0.0241407752037048,0.000386522953469,0.0015444207253808,-1.017158278243053e-07,0.000780567235779,0.0006786021986044,-0.0321620143949985,-0.003469243645668,-0.0057654557749629,0.9996399879455566,0.0259761773049831,0.0033269235439329,0.0002750344237739,-0.0040395571263542,0.207228422164917,-0.0656863451004028,0.0916624069213867,892,0,32767,-32767
7.3,1788444103400,0.0,0.0,0.0032363242935389,0.0059099020436406,-0.9997318983078004,0.0221532620489597,0.0047084950080996,-0.0006685640821376,-4.954224252001269e-06,0.0024081976152956,0.0026672706007957,-0.0370949879288673,-0.0035300208255648,-0.0057489806786179,0.999613344669342,0.0269742216914892,-0.00163937648833,0.0013521460982051,-0.0364636742424322,-0.267631471157074,0.1766174435615539,0.077646255493164,879,0,32767,-32767
7.4,1788444103500,0.0,0.0,0.0031823022291064,0.0059270719066262,-0.9997379779815674,0.0218775868415832,0.0010608675696363,0.000339802481726,1.5682166608983862e-06,-0.0006976735312491,-0.002081653336063,-0.0110494764521718,-0.003553045913577,-0.0057111056521534,0.9995805621147156,0.0281681455671787,-0.0009581629796708,-0.0026297620514589,-0.0053593278377368,-0.1379291415214538,0.0396142601966857,0.0395488739013671,925,0,32767,-32767
7.5,1788444103600,0.0563380271196365,0.0,0.0033056384418159,0.0058820080012083,-0.9997649788856506,0.0206056274473667,0.0010208199564723,-0.0009902184666549,2.6174350434373626e-07,0.0,0.0,0.0,-0.0035775052383542,-0.0056848609820008,0.9995720982551576,0.0284701064229011,0.0012815901770046,0.0001685012979675,-0.0099329516086214,0.4247337579727173,-0.1278185844421386,0.0180578231811523,893,0,32767,-32767
7.6,1788444103700,0.0,0.0,0.003332310123369,0.0058665759861469,-0.9997841715812684,0.0196460466831922,0.0006631358898553,-0.0002109920536688,2.124206590913171e-06,0.0,0.0,0.0,-0.0035888506099581,-0.0057354317978024,0.9995411038398744,0.029524203389883,-0.0005625225665313,2.491647834575632e-05,-0.0075165854702404,-0.0636869668960571,-0.0529810190200805,-0.014596939086914,887,0,32767,-32767
7.7,1788444103800,0.0,0.0,0.003332310123369,0.0058665759861469,-0.9997841715812684,0.0196460466831922,0.0033053255997771,-0.0015921055313425,-5.522709243686487e-07,0.0,0.0,0.0,-0.0035481117665767,-0.0057262005284428,0.9995124340057372,0.0304872598499059,-0.0023472096710698,-0.0033602606956396,-0.0158805446641978,0.1112130880355835,-0.0322250723838806,0.1509466171264648,926,0,32767,-32767
7.8,1788444103900,0.9295774698257446,0.0,0.0033456075470894,0.0058613670989871,-0.9998034834861756,0.0186406411230564,0.0013789946637114,-0.0001766444523172,2.8008597576705043e-06,0.0,0.0,0.0,-0.0033740932121872,-0.0060473531484603,0.999504804611206,0.030696302652359,-0.0144740407259157,-0.0104037278368537,0.0047831111817852,0.2493755221366882,-0.0209505558013916,0.2302274703979492,926,0,32767,-32767
7.9,1788444104000,0.0,0.0,0.0033198643941432,0.0059022540226578,-0.9998103380203248,0.0182597041130065,-0.0046139714953027,0.001727966287039,-1.959329306685217e-06,0.0,0.0,0.0,-0.0032838946208357,-0.0061374502256512,0.9995183944702148,0.0302406717091798,0.0016502341134952,-0.0027033811121101,0.0091298471782823,-0.0718660354614257,0.2562318444252014,0.0548992156982421,0,0,0,0
8.0,1788444104100,0.0,0.0,0.0033198643941432,0.0059022540226578,-0.9998103380203248,0.0182597041130065,0.0002436763396383,0.0002505530098446,-1.2617932768957372e-06,0.0,0.0,0.0,-0.0033169873058795,-0.0061384877189993,0.9995185136795044,0.0302359201014041,0.0002799515555297,0.0017761950268749,0.0018272495466329,0.0383831262588501,-0.0669015645980835,0.023228645324707,0,0,0,0
8.1,1788444104200,0.0,7.183098793029785,0.001070287078619,0.006433414760977,-0.999465823173523,0.032023835927248,0.0690985389866897,0.0041881011702695,0.0001195422232535,-0.0130243031308054,-0.0837218537926673,0.5396854281425476,0.0024824077263474,0.0059705097228288,-0.9999164938926696,0.0111888078972697,0.0111295186565737,0.038265347332961,1.0767731017687483,-0.9866256713867188,-0.2937096357345581,0.5094480514526367,0,60,-32767,15037
8.2,1788444104300,-4.084506988525391,5.7183098793029785,0.001070287078619,0.006433414760977,-0.999465823173523,0.032023835927248,0.0690985389866897,0.0041881011702695,0.0001195422232535,-0.0130243031308054,-0.0837218537926673,0.5396854281425476,0.0024824077263474,0.0059705097228288,-0.9999164938926696,0.0111888078972697,0.0111295186565737,0.038265347332961,1.0767731017687483,-0.9866256713867188,-0.2937096357345581,0.5094480514526367,382,53,-22254,18292
8.3,1788444104400,-1.6901408433914185,6.253520965576172,0.001070287078619,0.006433414760977,-0.999465823173523,0.032023835927248,0.0690985389866897,0.0041881011702695,0.0001195422232535,-0.0130243031308054,-0.0837218537926673,0.5396854281425476,0.0015553161501884,0.0056203380227088,-0.996983289718628,0.0773974955081939,-0.0036519087426543,-0.0320841521404524,0.8684294207382717,-0.3233921527862549,0.3696203827857971,-1.4503097534179688,382,53,-22254,18292
8.4,1788444104500,-5.464788913726807,6.2816901206970215,0.000418793875724,0.0067231128923594,-0.9858923554420472,0.1672448962926864,0.0579988663781255,0.0014630893041435,1.0610166818356734e-05,-0.0099151078611612,0.0023164690937846,1.2758008241653442,0.0017658974975347,0.0061747329309582,-0.976161003112793,0.2169524878263473,0.0126674354629274,0.0039182752818817,1.7743664022755443,-1.1522785425186155,-0.0526216030120849,0.2928609848022461,794,31,-32282,16625
8.5,1788444104600,-5.464788913726807,6.2816901206970215,0.002211594954133,0.0055619543418288,-0.9461439847946168,0.3236908316612243,0.0234627012964223,-0.0065012298201985,4.141405635106503e-06,0.0154375582933425,0.0150521825999021,1.8275076150894165,0.0025421399623155,0.0054596299305558,-0.9603099822998048,0.2788698971271515,0.0060448800243196,0.034992842737171,1.8637756802605197,-0.6057643294334412,-0.0844532251358032,-0.3388214111328125,794,31,-32282,16625
8.6,1788444104700,-6.2816901206970215,6.2253522872924805,0.0020723543129861,0.0053510069847106,-0.9297652244567872,0.3681082725524902,0.019575608754996,0.0016499570906435,2.152290224847197e-06,-0.0013790214434266,-0.0162731707096099,1.8745486736297607,0.003054779022932,0.0042720837518572,-0.922796905040741,0.385250985622406,0.0457769939484927,0.0166072582682943,1.799676217890502,0.2237008213996887,-0.4081556797027588,-0.8258228302001953,578,27,-29705,16353
8.7,1788444104800,-6.704225540161133,6.563380241394043,0.0023350701667368,0.0046109040267765,-0.9076870679855348,0.4196160137653351,0.0029345558052587,-0.0071952557401379,-5.636741971997975e-06,0.0188544206321239,-0.0086886128410696,1.8862981796264648,0.0024830000475049,0.0039070704951882,-0.8821167945861816,0.4710081815719604,-0.0290412532592063,-0.0033688765182813,1.946910728581399,0.8036288619041443,-0.755678117275238,-0.3020620346069336,493,47,-27762,15461
8.8,1788444104900,-6.450704097747803,6.507042407989502,0.0019450900144875,0.0035456805489957,-0.8434154391288757,0.5372467041015625,0.0116005619352711,-0.013454294378107,6.416627097260499e-07,0.001905883080326,-0.0147574907168746,1.9227341413497925,0.0019784960895776,0.0030890880152583,-0.863349437713623,0.5045931339263916,0.0145547897636348,-0.0462333661402912,1.919234028674306,-0.1862505078315735,0.0830652713775634,-0.5820913314819336,452,49,-26856,15817
8.9,1788444105000,0.0,1.0704225301742554,0.0004144543781876,0.0027742669917643,-0.788673460483551,0.6148058772087097,0.0154401134179589,-0.0178442349679083,1.8614003887356496e-05,-0.0227234251797199,-0.0413613989949226,1.8956847190856931,0.0003198748454451,0.0028043445199728,-0.805733323097229,0.5922717452049255,-0.0109072386818891,0.0154640356131148,0.5714936566214324,1.7386573553085327,-1.4155040979385376,0.1992473602294922,452,49,-26856,15817
9.0,1788444105100,0.0,0.0,0.0001957764616236,0.002837497042492,-0.7766349911689758,0.6299444437026978,-0.003524613692429,0.0042644001937747,3.792007464240999e-08,-0.0003980596666224,0.000251023157034,-0.0308051370084285,0.0002976329997181,0.0027939500287175,-0.8064736127853394,0.591263473033905,-4.968746555079567e-05,-0.0022800700070263,-0.0136579190092975,-0.4854387044906616,-0.0719377398490905,0.2142696380615234,0,0,0,0
9.1,1788444105200,0.0,0.0,0.0001957763452082,0.0028374968096613,-0.7766349911689758,0.6299444437026978,0.0001984512974173,0.0002026349866202,1.612935458292159e-06,0.0,-1.1639595953738535e-09,0.0,0.000308284536004,0.0027667023241519,-0.8064303398132324,0.591322660446167,0.0017587449948132,-0.0004797927958456,0.004584997555784,0.3121726512908935,0.1780534386634826,-0.0100164413452148,0,0,0,0
9.2,1788444105300,0.0,0.0,0.0001957763452082,0.0028374968096613,-0.7766349911689758,0.6299444437026978,0.0002537419267068,-0.0002444604874768,-3.286658775701521e-08,0.0,-1.452664877277243e-09,0.0,0.0002974402159452,0.0027721095830202,-0.8064670562744141,0.5912724733352661,-0.000402358877671,0.0003733788585646,0.0004045743896255,0.0084040164947509,-0.0160710215568542,0.0804224014282226,0,0,0,0
9.3,1788444105400,0.0,0.0,0.0001957763452082,0.0028374968096613,-0.7766349911689758,0.6299444437026978,0.0,0.0,0.0,0.0,-1.1669591959417858e-09,0.0,0.0003261202946305,0.0027721412479877,-0.8064702153205872,0.5912681221961975,0.0006678424914134,0.0009129188426758,-0.0002090935276358,0.0215067863464355,-0.005391240119934,0.0212116241455078,0,0,0,0
9.4,1788444105500,0.0,0.0,0.0001957763452082,0.0028374968096613,-0.7766349911689758,0.6299444437026978,0.0,0.0,0.0,0.0,-1.2348476685630771e-09,0.0,0.000357742421329,0.0028172759339213,-0.8064725399017334,0.5912647247314453,0.0001097726407763,-0.000499845895899,0.0006139766145348,0.0243163108825683,-0.0374019742012023,0.0282745361328125,0,0,0,0
9.5,1788444105600,0.0,0.0,0.0001957763452082,0.0028374968096613,-0.7766349911689758,0.6299444437026978,0.0,0.0,0.0,0.0,-1.2348476685630771e-09,0.0,0.0003444729372859,0.0028101345524191,-0.8064754009246826,0.5912607908248901,0.0001892905426587,0.0001206050181415,0.0005841518182503,0.0168462395668029,-0.0032140612602233,0.0230131149291992,0,0,0,0
9.6,1788444105700,0.0,0.0,0.0001957763452082,0.0028374968096613,-0.7766349911689758,0.6299444437026978,0.0,0.0,0.0,0.0,-1.4512131496502432e-09,0.0,0.0003750119358301,0.0027996245771646,-0.8064731359481812,0.5912638902664185,0.000631220066241,0.0003872305728721,0.0002505338954833,0.0441231131553649,-0.0235695838928222,0.0427255630493164,0,0,0,0
9.7,1788444105800,0.0,0.0,0.0001957763452082,0.0028374968096613,-0.7766349911689758,0.6299444437026978,0.0,0.0,0.0,0.0,-1.1540354227790315e-09,0.0,0.0003790194168686,0.0028364239260554,-0.8064651489257812,0.591274619102478,-0.0009471724794521,0.000394945577659,-0.0008156282077502,0.0013077855110168,-0.0065416693687438,0.0246839523315429,0,0,0,0
9.8,1788444105900,0.0,0.0,0.0001957763452082,0.0028374968096613,-0.7766349911689758,0.6299444437026978,0.0,0.0,0.0,0.0,-1.471522126372804e-09,0.0,0.0004072245210409,0.0027929069474339,-0.8064533472061157,0.591291069984436,0.0020623702958316,-0.000491063373175,-0.000465572542961,0.0152636766433715,0.0200411677360534,-0.0048418045043945,0,0,0,0
9.9,1788444106000,0.0,0.0,0.000270398100838,0.0028094560839235,-0.7766267657279968,0.6299546957015991,3.333559356641501e-05,-3.827294636883433e-05,-2.9934765736219284e-08,0.0019667742308229,0.0011516492813825,0.000382752448786,0.0004080906510353,0.0028014853596687,-0.8064694404602051,0.5912690162658691,-6.74055524281845e-05,0.0006255384518044,-0.000486750006696,0.0429181456565856,-0.0183930397033691,0.0068235397338867,73,65,3297,-3297
10.0,1788444106100,0.7323943376541138,-2.11267614364624,0.000270398100838,0.0028094560839235,-0.7766267657279968,0.6299546957015991,0.0,0.0,0.0,0.0,2.9182898320101462e-09,0.0,0.000704264268279,0.0028386460617184,-0.8093869686126709,0.5872684717178345,0.0048119324927372,0.0154639458217195,-0.3273434764759451,-0.1225944757461547,-0.7388797998428345,-0.139923095703125,623,328,17237,-12998
10.1,1788444106200,2.7042253017425537,-3.492957830429077,0.0007819851161912,0.0026906381826847,-0.7880055904388428,0.6156616806983948,-0.0122527207833424,-0.0023063771864428,1.8356776350211093e-06,0.0123774297535419,0.005686791613698,-0.6164690852165222,0.0019469978287816,0.0029137432575225,-0.8257796168327332,0.5639820694923401,0.0218365859715729,0.0634156471216265,-0.9602095849697642,0.0489206314086914,-0.2179685831069946,-0.7320537567138672,305,48,14767,-8637
10.2,1788444106300,3.0422534942626958,-2.6478872299194336,0.001541745616123,0.0028629652224481,-0.816608190536499,0.577183187007904,-0.0137443469535743,0.0084281055142825,-1.3013681407612035e-06,-0.001623683492653,-0.0097857546061277,-0.9221771955490112,0.0019469978287816,0.0029137432575225,-0.8257796168327332,0.5639820694923401,0.0218365859715729,0.0634156471216265,-0.9602095849697642,0.0489206314086914,-0.2179685831069946,-0.7320537567138672,277,136,13880,-10713
10.3,1788444106400,2.6478872299194336,-2.05633807182312,0.0028494070284068,0.0036332511808723,-0.8526768088340759,0.5224182605743408,0.001328341705494,-7.950314292926056e-05,2.8840227013950245e-07,0.0086197592318058,0.0233918707817792,-0.7503260374069214,0.0026192478835582,0.003344977274537,-0.8735073804855347,0.486792504787445,0.0032507096874848,0.0111345372713187,-0.7294709267151436,0.5208269357681274,-0.1944233179092407,-0.0128393173217773,450,88,17320,-6508
10.4,1788444106500,6.619718074798584,1.380281686782837,0.0027666543610394,0.0035760784521698,-0.8614928722381592,0.5077495574951172,0.0269694367959774,0.0013366262925638,-1.0809533752755498e-06,0.0039739189669489,-0.0036187521182,-0.8570965528488159,0.0043008206412196,0.0029572127386927,-0.8999780416488647,0.4359039962291717,-0.0298714432044142,-0.0334912485759928,-0.8647125363019722,0.6520994901657104,0.2046712636947631,-0.7311077117919922,358,103,25057,7382
10.5,1788444106600,6.957746505737305,3.239436626434326,0.0023230006918311,0.0036820534151047,-0.8816778063774109,0.4718319475650787,0.1349566192106156,-0.0061134212785716,6.199263224466924e-05,-0.0703777819871902,-0.0721884369850158,-0.8770571351051331,0.0030084112659096,0.0037102801725268,-0.9120039343833924,0.4101538360118866,0.035032408754034,-0.0118664760644395,-0.5176423555410544,-2.2549891471862797,1.2861552238464355,5.947168350219727,390,169,26162,11692
10.6,1788444106700,6.422535419464111,3.2676055431365967,-0.0009374798974022,0.0001475815079174,-0.8940113186836243,0.4480432569980621,0.1701902426198957,0.0014193291224755,0.0007733406669595,0.0754338353872299,-0.230319395661354,-0.3677391409873962,-0.0002651391550898,0.0001333532854914,-0.9222407937049866,0.3866159617900848,0.0033874614195887,-0.0522014673034605,-0.4335298586099492,-0.0001639127731323,-0.5324581265449524,0.3011245727539062,407,110,25034,12790
10.7,1788444106800,4.056337833404541,2.6478872299194336,-7.853834540583193e-05,1.98470243049087e-05,-0.9045446515083312,0.4263789355754852,0.1596017398162248,-0.0093796796758514,0.0001815874280276,0.0083156898617744,-0.0259528346359729,-0.4041976928710937,-0.0006762230768799,9.594392031431198e-05,-0.927928864955902,0.3727567791938782,-0.0096875283880713,-0.0147881632863509,-0.2380529938251725,-1.1992387771606443,-0.3322109580039978,0.6506166458129883,489,67,25197,11122
10.8,1788444106900,2.760563373565674,1.2957746982574463,-0.0006796287489123,-5.919368413742632e-05,-0.9102579355239868,0.4140411615371704,0.0918976211820382,0.0020663332264132,5.717888620638912e-06,-0.0024816431105136,-0.003231689101085,-0.1151485443115234,-0.0008044829592108,6.095785647630692e-05,-0.9297487735748292,0.3681938350200653,-0.0171354061541554,-0.0051712364558716,-0.1592926779276799,-0.4612993001937866,-0.335612416267395,0.2079248428344726,492,9,16407,4111
10.9,1788444107000,0.0,0.0,-0.0010656121885403,0.0001549842418171,-0.9119720458984376,0.4102509915828705,0.0618588153517942,-0.0003804573715428,1.234876842774392e-05,-0.0145332552492618,-0.0106413392350077,-0.1691215485334396,-0.0009338185191154,0.000215264968574,-0.9316460490226746,0.3633657693862915,-0.0049210931107031,0.0057158725535912,-0.0611533729260041,-1.0083413124084473,0.2795402407646179,0.0031003952026367,359,0,0,0
11.0,1788444107100,0.0,0.0,-0.0012978797312825,0.0001204793225042,-0.9127144813537598,0.4085959494113922,-0.0038762381052089,0.0014843908660014,-1.83462673557496e-06,-0.0061917169950902,-0.0136298667639493,-0.0034764010924845,-0.0012112269178032,0.0002169804647564,-0.9315873980522156,0.3635152280330658,-0.006505937073593,-0.0163990062525842,0.0102066783336687,0.1237052679061889,-0.236986756324768,-0.1321821212768554,0,0,0,0
11.1,1788444107200,0.0,0.0,-0.0012978797312825,0.0001204793225042,-0.9127144813537598,0.4085959494113922,-0.000284436466666,-4.316901507245242e-06,6.403533447511814e-07,0.0,0.0,0.0,-0.0012688171118497,0.0002243630588054,-0.9316127300262452,0.3634501993656158,7.341729120620773e-05,0.001728351749132,-0.0022781969584201,-0.1199639439582824,-0.0322948098182678,0.0209846496582031,0,0,0,0
11.2,1788444107300,0.0,0.0,-0.0012949185911566,0.0001652797800488,-0.912755012512207,0.4085052609443664,0.0,0.0,0.0,0.0,0.0,0.0,-0.0013344613835215,0.0001993272453546,-0.931587278842926,0.3635153472423553,0.0002746526635543,-0.0023763776406177,0.0031691559530179,0.1085522770881652,0.0916239619255065,0.0271644592285156,0,0,0,0
11.3,1788444107400,0.0,0.0,-0.0013230312615633,0.0001521329686511,-0.9127416610717772,0.4085349142551422,-7.633523643001693e-05,4.900144556758584e-05,2.3616122170586615e-07,-0.0004087444685865,-0.0011496257502585,0.001500375336036,-0.0013466197997331,0.0001992201432585,-0.931593120098114,0.3635003268718719,-0.0001769357944514,-0.0004630655092394,-0.0006575157889086,0.032863438129425,-0.0053720474243164,0.0500316619873046,0,0,0,0
11.4,1788444107500,0.0,0.0,-0.0013230312615633,0.0001521329686511,-0.9127416610717772,0.4085349142551422,-7.633523643001693e-05,4.900144556758584e-05,2.3616122170586615e-07,-0.0004087444685865,-0.0011496257502585,0.001500375336036,-0.0013726903125643,0.0002158731222152,-0.9315903782844543,0.3635070621967315,-0.002613708690574,0.0005571959684835,-0.0021628822483487,-0.0195827484130859,-0.0318300724029541,0.0516557693481445,0,0,0,0
11.5,1788444107600,0.0,0.0,-0.0013721354771405,0.0001350900274701,-0.9127310514450072,0.408558577299118,2.2815727617425663e-06,-2.5543669753796463e-06,-8.98009934950983e-09,-4.85399709759804e-07,0.0001467788533773,3.42497369274497e-05,-0.0013761147856712,0.0002018138766288,-0.9315849542617798,0.363521009683609,-0.0002082274205449,-0.0011098458089327,2.168925434516644e-05,0.0107836127281188,-0.0105235576629638,0.055373191833496,0,0,0,0
11.6,1788444107700,0.0,0.0,-0.0013806547503918,0.0001342134783044,-0.9127328395843506,0.4085545539855957,-3.0605351864029486e-05,3.649855550613044e-05,1.2422052886091306e-07,8.302402420667931e-05,0.0001636739762034,-0.0003451665397733,-0.0013617184013128,0.0001968825235962,-0.9315752983093262,0.3635460138320923,0.0003371483694489,0.0001282497122454,0.0004380738480247,0.0092086791992187,0.018000304698944,0.0608701705932617,0,0,0,0
11.7,1788444107800,0.0,0.0,-0.0013665563892573,0.000135964306537,-0.9127210378646852,0.4085809886455536,6.531352289303443e-06,-7.31296163439843e-06,-2.5503798863763287e-08,2.6089497623615895e-05,-0.0001706257316982,8.82452804944478e-05,-0.00131949596107,0.0001941537484526,-0.931577205657959,0.3635410666465759,0.0014745347979344,0.000896299538597,-0.0004449698183849,0.0746448040008544,-0.021786093711853,0.0410404205322265,348,235,10613,6524
11.8,1788444107900,4.2253522872924805,2.7042253017425537,-0.0013979157665744,5.863321712240577e-05,-0.9127199053764344,0.408583402633667,0.000982390204203,0.0002507547206121,2.8687952614279897e-06,0.0018669565906748,-0.0035828750114887,-0.0003372551582287,-0.0010650167241692,0.0005571665242314,-0.9329107403755188,0.3601058423519134,-0.0184137372141909,0.0128986193181532,-0.203649957116779,0.6152437329292297,0.0368298292160034,0.0473241806030273,671,110,23682,9840
11.9,1788444108000,5.070422649383545,3.1549296379089355,-0.00113749015145,0.0002068505855277,-0.9132186770439148,0.4074679911136627,0.0701309157122523,-0.0062858244854228,-1.0099469383640386e-05,-0.0010048999683931,0.0098825423046946,-0.040374856442213,-2.9795803129673004e-05,0.0008304109796881,-0.9375692009925842,0.3477977216243744,0.0176803253442281,0.0369865012492504,-0.3636810956826185,0.925400733947754,0.0050720572471618,-0.2092742919921875,681,165,28567,12615
12.0,1788444108100,6.873239517211914,4.3380279541015625,-0.0001832281122915,0.0016178515506908,-0.921902060508728,0.3874196112155914,0.1770678477579716,-0.0030846820480712,-0.0001203418078066,-0.0346461944282054,0.0238418225198984,-0.3943243324756622,-0.0031946152448654,0.0034495731815695,-0.9432252645492554,0.3321204781532287,-0.0822494798793157,-0.0770788344953845,-0.3484384791253027,-0.6614826917648315,-0.7211855053901672,-1.1928863525390625,404,21,25741,10513
12.1,1788444108200,6.901408672332764,3.9718310832977295,-0.0040156757459044,0.0029958004597574,-0.9286448955535888,0.3709361851215362,0.1692734593258425,-0.0191138378001657,6.407359370413733e-07,-0.0031274268403649,-0.0295826699584722,-0.3681614696979522,-0.0031946152448654,0.0034495731815695,-0.9432252645492554,0.3321204781532287,-0.0822494798793157,-0.0770788344953845,-0.3484384791253027,-0.6614826917648315,-0.7211855053901672,-1.1928863525390625,245,69,21445,10316
12.2,1788444108300,6.14084529876709,3.436619758605957,-0.0044118445366621,0.0024500004947185,-0.9402916431427002,0.3403326570987701,0.1638298439018705,-0.0013947381622723,2.8457942998723997e-05,0.0339022912085056,0.024847449734807,-0.3591491878032684,-0.0052704457193613,0.0034621087834239,-0.9525504112243652,0.3043156862258911,-0.017692505615341,-0.0510938672867077,-0.4147518289214691,-0.172256052494049,0.1269832849502563,-0.2060670852661132,338,118,22530,12096
12.3,1788444108400,6.253520965576172,4.394366264343262,-0.0022544777020812,0.0033590390812605,-0.9443453550338744,0.3289308845996856,0.1480308044386283,-0.0066596928594127,-0.0001256562810984,-0.0063719698227941,0.0943951979279518,-0.4788084030151367,-0.0034841829910874,0.002771939150989,-0.9577375650405884,0.2876090705394745,0.0068910111102665,0.0549546427748708,-0.4464000643604682,-0.6090532541275024,0.3875304460525512,0.8591623306274414,141,34,18416,12074
12.4,1788444108500,6.309859275817871,4.619718074798584,-0.0023286566138267,0.0038729372899979,-0.9475971460342408,0.3194359242916107,0.1715631917086627,-0.0052420518698221,-1.0348626674539794e-05,-0.0208406914025545,0.0055373553186655,-0.4020544290542602,0.0058652572333812,0.0008133696392178,-0.9660438299179076,0.258310317993164,0.0930561188334317,0.1311254142975082,-0.3337762159691829,0.2297258973121643,0.3205419778823852,-0.7560863494873047,182,100,18838,11153
12.5,1788444108600,5.6619720458984375,3.94366192817688,0.0030016324017196,0.0022646891884505,-0.9539071917533876,0.300078272819519,0.1916106301973975,-0.0056192590168148,-9.545382322944872e-05,-0.0628797262907028,-0.0615685880184173,-0.3412751853466034,-0.0003603072836995,0.0045791780576109,-0.9702247977256776,0.2421626448631286,0.0160987837729162,0.0313382043670384,-0.2458315835723151,0.4611238241195678,0.0015403032302856,-0.3031902313232422,266,147,19273,12886
12.6,1788444108700,5.802816867828369,3.8309860229492183,-0.0005601949524134,0.0043325345031917,-0.9579333662986756,0.2869575321674347,0.1533989034281514,-0.0219545624105747,-8.159170548302118e-05,0.0185101628303527,0.0174362901598215,-0.2417105585336685,-0.0009322073310613,0.0042698681354522,-0.9733866453170776,0.229127362370491,0.0101576355096585,-0.0153835200031983,-0.2375674285715362,0.3410927057266235,0.3470077514648437,-1.2503280639648438,231,102,19180,13128
12.7,1788444108800,5.943662166595459,3.88732385635376,-0.0010145507985725,0.0044637322425842,-0.9594014883041382,0.2820067107677459,0.1675107790564406,0.0060937580875502,2.784195518792152e-05,-0.0123041970655322,-0.0182912796735763,-0.2517508864402771,-0.000218803063035,0.0038494458422064,-0.9761720299720764,0.2169636189937591,0.0050783783750296,0.0162102660194378,-0.2615987149440498,-0.3012065291404724,-0.1417505741119384,0.9955730438232422,231,102,19180,13128
12.8,1788444108900,4.535211086273193,2.929577350616455,-0.000497052562423,0.0035936881322413,-0.964819312095642,0.2628886997699737,0.1525089159891093,-0.0064062202399589,-8.685509262278253e-05,0.0124706579372286,0.0165086779743433,-0.2504138648509979,-3.957096487283707e-05,0.003239108249545,-0.9780715703964232,0.208244115114212,0.0040905098056387,0.0052826046959642,-0.1733379415710628,-0.9293662905693054,-0.1336066126823425,-0.5427122116088867,231,102,19180,13128
12.9,1788444109000,3.774647951126098,1.211267590522766,-3.20125836879015e-05,0.0031557909678667,-0.9673276543617249,0.2535097301006317,0.1255033103670175,-0.0053183863490173,2.9505002858936905e-06,0.0073391455225646,0.005019218660891,-0.1831539422273636,-3.957096487283707e-05,0.003239108249545,-0.9780715703964232,0.208244115114212,0.0040905098056387,0.0052826046959642,-0.1733379415710628,-0.9293662905693054,-0.1336066126823425,-0.5427122116088867,337,60,17626,0
13.0,1788444109100,3.4647886753082275,-1.97183096408844,-0.0001652599021326,0.0026898216456174,-0.973731279373169,0.227684274315834,0.0613533634687063,-0.0014678727750282,7.41001011474402e-06,0.0118908481672406,-0.0003482035826891,-0.5799471735954285,0.0006868746131658,0.0022684596478939,-0.9866355061531068,0.1629257649183273,0.0197947984379024,0.0289388664005521,-0.7721264524090806,-0.3239174485206604,-0.319821298122406,0.0087137222290039,242,273,15046,-13152
13.1,1788444109200,3.2957746982574463,-3.380281686782837,-0.0001652599021326,0.0026898216456174,-0.973731279373169,0.227684274315834,0.0613533634687063,-0.0014678727750282,7.41001011474402e-06,0.0118908481672406,-0.0003482035826891,-0.5799471735954285,0.0006868746131658,0.0022684596478939,-0.9866355061531068,0.1629257649183273,0.0197947984379024,0.0289388664005521,-0.7721264524090806,-0.3239174485206604,-0.319821298122406,0.0087137222290039,242,273,15046,-13152
13.2,1788444109300,3.014084577560425,-3.1549296379089355,-0.0012970559764653,0.0043722069822251,-0.9870678782463074,0.1602376401424408,-0.0027297060579305,0.0144706173963729,-3.398344432920522e-05,-0.0660104975104332,-0.0386870093643665,-1.0991013050079346,-0.001304212026298,0.0049192532896995,-0.9984619617462158,0.0552078410983085,-0.0136585776302494,-0.0036447737626353,-0.9960093763810952,0.1425561904907226,-0.0802555680274963,-0.5337257385253906,242,273,15046,-13152
13.3,1788444109400,3.126760482788086,-3.549295663833618,-0.0013769894139841,0.0051060053519904,-0.9961448907852172,0.0875643491744995,-0.005458458503217,0.0066964355188815,4.140122005888233e-07,-0.0147270765155553,0.0117648653686046,-0.985560417175293,-0.0009642681106925,0.0055530602112412,-0.9999229907989502,0.0110590066760778,-0.0112064098653578,0.0067095747881421,-0.8984175720663575,0.1673541069030761,-0.1008739471435546,0.2835197448730469,304,87,15255,-11657
13.4,1788444109500,2.9577465057373047,-3.0422534942626958,-0.001185176661238,0.0057675316929817,-0.9992119073867798,0.0392544977366924,-0.0045392153624152,0.0090961137572393,-3.207865018836256e-06,-0.0143376076593995,0.012801356613636,-1.0068305730819702,0.0001794304698705,-0.0052468841895461,0.998582363128662,0.0529700592160224,0.0098567749005827,0.0104196001817489,-0.958608491834932,0.2167834043502807,-0.2205339074134826,-0.6293811798095703,304,87,15255,-11657
13.5,1788444109600,3.436619758605957,-3.014084577560425,-0.0005587796331383,0.0053914100863039,-0.9999397993087769,0.0095413066446781,-0.009213071611153,0.0214425822516775,1.480384707484594e-05,0.0120129650458693,0.025475675240159,-0.9663518071174622,-0.00099035538733,-0.0040203537791967,0.994629442691803,0.1034170463681221,0.0223710973016512,0.024609439199111,-1.018294458887248,-0.1246222257614135,0.1581050157546997,-0.2351140975952148,329,59,15792,-10945
13.6,1788444109700,3.014084577560425,-2.985915422439575,-0.0004692603833973,-0.0039772056043148,0.9963943958282472,0.0847477689385414,-0.0146014259001243,0.0072866146335954,-4.013876148487073e-06,0.0044581983238458,-0.0083904545754194,-0.9742147922515868,-0.0005034217610955,-0.0038685789331793,0.9898504018783568,0.1420598775148391,0.008710084867907,-0.0140555586097473,-0.9716072601293294,-0.0602843761444091,0.123196542263031,0.3305959701538086,451,127,17831,-11152
13.7,1788444109800,3.1549296379089355,-3.4084506034851074,-0.0004692603833973,-0.0039772056043148,0.9963943958282472,0.0847477689385414,-0.0146014259001243,0.0072866146335954,-4.013876148487073e-06,0.0044581983238458,-0.0083904545754194,-0.9742147922515868,-0.0015771267935633,-0.003293752670288,0.983166515827179,0.1826751679182052,0.0066567978642686,0.0273880193041905,-0.8492243279065113,0.009495198726654,-0.1054087281227111,0.4177560806274414,511,65,19297,-8230
13.8,1788444109900,3.3521127700805664,-3.2676055431365967,-0.0013517290353775,-0.0034156877081841,0.9871660470962524,0.1596549451351165,-0.0078761553222069,0.0018434304699083,-1.2054745587805366e-06,0.000623308122158,0.0031742276623845,-0.9951547384262084,-0.0013318788260221,-0.0034282151609659,0.97503262758255,0.2220310121774673,-0.0028971820387028,-0.0159042650209744,-0.9443703565911564,-0.092035174369812,-0.3369179368019104,0.4705963134765625,509,64,18774,-10265
13.9,1788444110000,2.985915422439575,-3.070422649383545,-0.0013517290353775,-0.0034156877081841,0.9871660470962524,0.1596549451351165,-0.0078761553222069,0.0018434304699083,-1.2054745587805366e-06,0.000623308122158,0.0031742276623845,-0.9951547384262084,-0.0014823554083704,-0.0028495509177446,0.9586679935455322,0.2845088839530945,0.0202242377144783,0.0294492156485865,-0.962825494606814,-0.28156578540802,0.3901264071464538,-0.4715433120727539,539,69,20382,-10793
14.0,1788444110100,2.985915422439575,-3.633802890777588,-0.0013517290353775,-0.0034156877081841,0.9871660470962524,0.1596549451351165,-0.0078761553222069,0.0018434304699083,-1.2054745587805366e-06,0.000623308122158,0.0031742276623845,-0.9951547384262084,-0.0014823554083704,-0.0028495509177446,0.9586679935455322,0.2845088839530945,0.0202242377144783,0.0294492156485865,-0.962825494606814,-0.28156578540802,0.3901264071464538,-0.4715433120727539,539,69,20382,-10793
14.1,1788444110200,2.985915422439575,-3.633802890777588,-0.0015357662923634,-0.0019930552225559,0.953477382659912,0.3014538884162903,-0.0192791837422828,0.0253393700599053,-6.928362193236088e-06,-0.0250350218266248,-0.0412333793938159,-1.0535825490951538,-0.0014823554083704,-0.0028495509177446,0.9586679935455322,0.2845088839530945,0.0202242377144783,0.0294492156485865,-0.962825494606814,-0.28156578540802,0.3901264071464538,-0.4715433120727539,539,69,20382,-10793
14.2,1788444110300,3.239436626434326,-3.746478796005249,-0.0015357662923634,-0.0019930552225559,0.953477382659912,0.3014538884162903,-0.0192791837422828,0.0253393700599053,-6.928362193236088e-06,-0.0250350218266248,-0.0412333793938159,-1.0535825490951538,-0.0014496678486466,-0.002803947776556,0.915687084197998,0.4018797278404236,-0.0068477446149591,0.0142191195969739,-0.9486626444144106,0.2490037679672241,-0.5571654438972473,-0.3003911972045898,539,69,20382,-10793
14.3,1788444110400,3.6056337356567374,-3.4084506034851074,-0.0008947578608058,-0.002661628415808,0.9263792634010316,0.3765814304351806,-0.0129872108780214,0.01591075179431,6.379562458976778e-06,0.0132312187924981,-0.0056188269518315,-1.0086090564727783,-0.0009972974658012,-0.0024915486574172,0.8888931274414062,0.4581067264080047,-0.001089178716916,0.0196942509986252,-1.1113999376442856,0.0668525099754333,-0.2528853416442871,0.3184366226196289,451,138,17863,-11361
14.4,1788444110500,3.4647886753082275,-2.985915422439575,-0.0007732629310339,-0.0025277433451265,0.9056182503700256,0.4240856170654297,-0.0088297321007248,0.0227486120432519,4.950601954327407e-06,0.0013656015507876,0.0090849017724394,-1.1102237701416016,-0.0009972974658012,-0.0024915486574172,0.8888931274414062,0.4581067264080047,-0.001089178716916,0.0196942509986252,-1.1113999376442856,0.0668525099754333,-0.2528853416442871,0.3184366226196289,451,138,17863,-11361
14.5,1788444110600,2.929577350616455,-2.7323944568634038,-0.0006861108122393,-0.0029183242004364,0.8715904355049133,0.4902254939079284,-0.0096383147080434,0.0155011961600943,-3.481515304555721e-06,-0.002005617134273,0.0124048953875899,-1.0112402439117432,-0.0011423509567975,-0.0025112191215157,0.8254483938217163,0.5644709467887878,-0.001305231410019,0.0222934743135909,-0.9858549515413448,-0.1087412238121032,-0.0419483184814453,-0.559239387512207,451,138,17863,-11361
14.6,1788444110700,2.929577350616455,-2.7323944568634038,-0.0007720181019976,-0.0027062089648097,0.8594188690185547,0.5112643837928772,-0.010499653345797,0.0060088680709129,6.6412931185968585e-06,0.0051550148054957,0.0105325877666473,-1.0296485424041748,-0.0015354072675108,-0.0022746678441762,0.8109164237976074,0.5851556062698364,-0.0010078386368229,0.0092740830908897,-0.7891716869397883,-0.3579668998718261,0.129050612449646,0.8312873840332031,186,48,12849,-9759
14.7,1788444110800,2.563380241394043,-2.7042253017425537,-0.0009500556625425,-0.0025211505126208,0.8222960233688354,0.5690536499023438,-0.0176374624743587,0.0019024131363085,-3.5799501086888164e-06,0.0037948889657855,-0.0038278852589428,-0.8209837675094604,-0.0012716259807348,-0.0026756664738059,0.7794377207756042,0.6264728307723999,-0.0137205987017893,-0.006357293557193,-0.7232905460414119,-0.0264298915863037,-0.2068656086921692,-0.7339954376220703,294,132,13165,-8409
14.8,1788444110900,2.0281689167022705,-2.6478872299194336,-0.0009673088206909,-0.0029068875592201,0.8018344640731812,0.597538411617279,-0.0064637465273662,0.0117266419270746,-5.70592307018649e-06,-0.0054493718780577,-0.0161343589425086,-0.7606669664382935,-0.0012197215110063,-0.0028899693861603,0.7559349536895752,0.6546391844749451,-0.0077806157612636,0.0020312449229524,-0.7003962437407557,-0.3499493598937988,0.3625819087028503,-0.7087831497192383,348,65,13062,-6358
14.9,1788444111000,2.169013977050781,-2.0,-0.0010296732652932,-0.0031559858471155,0.7806217670440674,0.6249950528144836,-0.0092524860149961,0.0126560175035703,-3.741963692437984e-06,-0.0088683050125837,-0.0053201187402009,-0.6547630429267883,-0.0010251430794596,-0.0032796962186694,0.7322795987129211,0.680995523929596,0.0014659051187366,0.0004746569207831,-0.6496295125922747,-0.0339970588684082,-0.0042396187782287,-0.0272693634033203,348,65,13062,-6358
15.0,1788444111100,2.169013977050781,-2.197183132171631,-0.0008222161559388,-0.0032981028780341,0.7601526379585266,0.649735689163208,-0.0063198056926979,0.0064456827165814,1.5735946288026798e-06,0.0024508102796971,0.001778231235221,-0.6757718324661255,-0.0010029422119259,-0.0032951598986983,0.7225182056427002,0.6913433074951172,-0.0008883910786108,0.0008411372315554,-0.7078500369395466,-0.0531921982765197,-0.067140519618988,-0.1442842483520507,338,80,13220,-8127
15.1,1788444111200,1.8028168678283687,-2.0281689167022705,-0.0008235775749199,-0.0023191669024527,0.7239162921905518,0.6898835301399231,-0.0102885633124629,0.005363811497239,3.712762404663328e-06,0.0063359062187373,0.0107928570359945,-0.638236403465271,-0.0009358590468764,-0.0022761775180697,0.689359724521637,0.7244150638580322,0.0014548990891948,0.0118592930411881,-0.6261270457005412,-0.4448837041854858,0.1497049927711486,-0.0344324111938476,427,80,12668,-6152
15.2,1788444111300,1.5492957830429075,-1.97183096408844,-0.0006475868285633,-0.0021736216731369,0.7162140607833862,0.6978769302368164,-0.0086984472909486,0.0088735949418249,2.147225242356512e-06,0.0099774720147252,-9.777647937880828e-05,-0.5139532089233398,-0.0005384786054491,-0.0024652238935232,0.6652385592460632,0.7466266751289368,-0.0022489191268121,-0.0061532916818468,-0.5259024595640981,0.0357512235641479,-0.0528537034988403,0.2096900939941406,523,74,16058,-6691
15.3,1788444111400,1.4647886753082275,-1.6619718074798584,-0.0004379936726763,-0.0024804035201668,0.6986793279647827,0.7154305577278137,-0.0109477614199707,0.0047666429548861,-3.1668881555630834e-06,-0.0020344967488199,-0.0023958112578839,-0.492351233959198,-0.00031856354326,-0.0024921372532844,0.6518575549125671,0.7583372592926025,0.0112995645878173,0.0031315379404397,-0.6036347069171083,-0.185652494430542,-0.0998977422714233,0.3331670761108398,836,90,17601,-7701
15.4,1788444111500,1.0704225301742554,-2.05633807182312,0.0006721278186887,-0.002596843522042,0.6805110573768616,0.7327327728271484,-0.0202349007027708,0.0102098358593101,-9.980227691679228e-06,0.0254685599356889,-0.0285466909408569,-0.5234687328338623,0.0037246709689497,-0.0026677418500185,0.6254240870475769,0.7802715301513672,0.041328907708584,-0.0328095741465842,-0.4417400145199219,0.9886100888252258,0.6344565153121948,-0.4502935409545898,863,11,22109,-3388
15.5,1788444111600,1.211267590522766,-1.6619718074798584,0.003286839928478,-0.0025154582690447,0.66740882396698,0.7446799874305725,-0.0309026144970374,0.0136880607782421,-2.0699611662845796e-05,0.0615174956619739,-0.0541283711791038,-0.5656008720397949,0.0035385899245738,-0.0027397982776165,0.6182599067687988,0.7859609723091125,-0.0096543714141521,0.0019450394430065,-0.382319688068219,0.1596396565437317,-0.3467239141464233,-0.0314083099365234,863,11,22109,-3388
15.6,1788444111700,0.0,-2.3943662643432617,0.0035092020407319,-0.0025481502525508,0.6488474607467651,0.7609061598777771,0.0017699158496371,0.0117606362651324,2.846276074804829e-06,-0.0058770976029336,-0.0051562939770519,-0.2963946163654327,0.0029810834676027,-0.0026648826897144,0.5925418138504028,0.8055297136306763,-0.0153492300544897,0.0291659245184194,-0.8215196284780378,-2.237429141998291,-0.2100142240524292,-1.0380992889404297,538,229,-17612,-11934
15.7,1788444111800,0.0,-2.3943662643432617,0.002949938410893,-0.0026266765780746,0.6228088140487671,0.7823641300201416,-0.0340138493683188,0.015969317135805,5.737028315717359e-06,-0.0125914588570594,0.0083031626418232,-0.7104219794273376,0.0025785891339182,-0.0027387551963329,0.5806382298469543,0.8141529560089111,-0.0170452536048282,0.0063831486780308,-0.5855813197397857,-1.1469489336013794,0.7431439161300659,0.2009506225585937,538,229,-17612,-11934
15.8,1788444111900,6.11267614364624,-6.197183132171631,0.0026261063758283,-0.0026175209786742,0.616414487361908,0.7874131202697754,-0.0784985652535793,0.0054967862845115,1.8036051976995555e-05,-0.0108916880562901,0.0079247187823057,-0.3176320493221283,0.0021181302145123,-0.0028684241697192,0.5408827662467957,0.8410905003547668,-0.0126114530756188,-0.0011482720050165,-1.5485934802304844,2.121745347976685,-0.7668654918670654,-1.266489028930664,341,39,22504,-18705
15.9,1788444112000,5.97183084487915,-6.0,0.0019446023507043,-0.002269891090691,0.553301215171814,0.8329759240150452,-0.0538923015199085,0.0481865782765218,-2.279977018913424e-06,-0.0068418723531067,0.0128588499501347,-1.8323599100112915,0.0010833712294697,-0.0024011144414544,0.4296011626720428,0.9030149579048156,-0.0099319274765702,0.0104321367242628,-1.8517835843749129,0.1432600617408752,-0.0698809623718261,1.0146121978759766,359,88,22224,-17529
16.0,1788444112100,5.492957592010498,-5.633802890777588,0.0011993321822956,-0.0023453459143638,0.4731854796409607,0.8809589147567749,-0.0170891591247471,0.0356462190614171,-1.0294358184643909e-05,-0.0106644872575998,0.0010921733919531,-1.8276822566986084,0.0011245729401707,-0.0012649847194552,0.3656968474388122,0.930732488632202,0.0245872305131491,0.0532540207829942,-1.7208013942372529,-0.1461552381515503,-0.0835521221160888,1.7648992538452148,647,150,27650,-19064
16.1,1788444112200,6.056337833404541,-5.915493011474609,0.0009268331923522,-0.000955207273364,0.3581433892250061,0.9336656332015992,-0.0230704864377557,0.0299542838837138,-2.56127231243936e-06,-0.0120033305138349,-0.0037839035503566,-1.781939148902893,0.001201469451189,8.756574243307114e-05,0.2448070049285888,0.9695711135864258,0.0322681654679996,0.0199566375910877,-1.818388883926334,-0.1725000739097595,0.0283155441284179,1.377333641052246,730,154,29995,-18735
16.2,1788444112300,6.14084529876709,-6.535211086273193,0.0007911553839221,-0.0001323555916314,0.3148329555988312,0.949146807193756,-0.0039019971854559,0.0259070395784342,-8.02039302323184e-06,0.0044941026717424,0.0316744409501552,-1.8401262760162356,0.0022851889953017,0.0010180165991187,0.1994047909975052,0.9799140691757202,0.050755411415443,0.0261568943957892,-1.903680692682168,-0.4385653734207153,-0.2817916870117187,0.4491424560546875,742,162,31442,-16409
16.3,1788444112400,5.436619758605957,-7.098591327667236,0.0017238656291738,0.0004869537660852,0.2739931344985962,0.9617300033569336,-0.0095535053166468,0.0003748813503731,1.4615237501037792e-06,0.0461499616503715,0.0114203980192542,-1.8516026735305784,0.0010690614581108,-0.0014089364558458,0.1235104650259018,0.9923417568206788,-0.0274164148837168,-0.0586351240976876,-1.9998379497245455,-0.8563426733016968,-0.4147034287452698,0.4371662139892578,737,83,32104,-14663
16.4,1788444112500,5.436619758605957,-7.098591327667236,0.0017238656291738,0.0004869537660852,0.2739931344985962,0.9617300033569336,-0.0095535053166468,0.0003748813503731,1.4615237501037792e-06,0.0461499616503715,0.0114203980192542,-1.8516026735305784,0.0010690614581108,-0.0014089364558458,0.1235104650259018,0.9923417568206788,-0.0274164148837168,-0.0586351240976876,-1.9998379497245455,-0.8563426733016968,-0.4147034287452698,0.4371662139892578,737,83,32104,-14663
16.5,1788444112600,6.366197109222412,-6.394366264343262,0.0025034744758158,0.0042626210488379,-0.0123020643368363,0.9999121427536012,0.002077879721798,0.0024704465286556,-6.320325898255872e-05,0.030050391331315,0.2270498424768448,-1.8934950828552248,0.0010690614581108,-0.0014089364558458,0.1235104650259018,0.9923417568206788,-0.0274164148837168,-0.0586351240976876,-1.9998379497245455,-0.8563426733016968,-0.4147034287452698,0.4371662139892578,345,95,23720,-14847
16.6,1788444112700,6.3380279541015625,-6.8450703620910645,0.0035754805430769,0.0056695621460676,-0.1032043695449829,0.9946375489234924,0.0043162113710423,-0.0052421845070404,-3.3063122732082293e-07,-0.0017373317386955,0.0320699177682399,-1.964569091796875,0.0030078245326876,0.0047410391271114,-0.2371682822704315,0.9714523553848268,-0.0009886496108323,-0.0056230380939929,-1.875448600545568,0.0873692631721496,-0.2529530525207519,-1.13214111328125,341,135,22623,-16459
16.7,1788444112800,6.507042407989502,-6.563380241394043,0.0031880938913673,0.0052800276316702,-0.212358295917511,0.9771724343299866,0.0,0.0,0.0,0.0183583814650774,0.0151778645813465,-1.889577865600586,0.0030078245326876,0.0047410391271114,-0.2371682822704315,0.9714523553848268,-0.0009886496108323,-0.0056230380939929,-1.875448600545568,0.0873692631721496,-0.2529530525207519,-1.13214111328125,183,132,19916,-16377
16.8,1788444112900,6.507042407989502,-6.563380241394043,0.0011740466579794,0.0047785430215299,-0.2983425259590149,0.9544461965560912,0.0022183556269297,-0.0038663230892481,-1.246927350913098e-05,-0.0359331481158733,-0.0086038671433925,-1.9661118984222408,0.0017063589766621,0.0046563651412725,-0.403421550989151,0.9150007367134094,0.0203204091441004,0.0313794958217338,-1.9544377427353463,0.0874474048614502,-0.1588358283042907,0.3084049224853515,172,66,19187,-16511
16.9,1788444113000,5.915493011474609,-6.732394218444824,0.0015295874327421,0.004961309954524,-0.389615923166275,0.9209628105163574,0.0029775637057253,0.0055329464850614,3.244768543747069e-07,0.0163988880813121,0.0212725102901458,-1.9264870882034304,0.0015107160434126,0.0044851144775748,-0.4951043725013733,0.8688206076622009,0.0153300627432163,-0.0123494738617504,-1.7213228098855569,-0.5971879959106445,-0.2644091844558716,-1.363321304321289,354,153,22515,-16476
17.0,1788444113100,5.690140724182129,-6.901408672332764,0.0014316982124,0.0045533995144069,-0.4681113958358764,0.8836565613746643,-0.0194301171237944,0.0162032344079111,7.033670908159216e-06,0.0252512339502573,0.0056607010774314,-1.7696233987808228,0.0025244168937206,0.0038750991225242,-0.5716265439987183,0.820500910282135,0.037160730445803,-0.0093494545333332,-1.8042906242278636,-0.1421201825141906,-0.3234332203865051,-0.2726821899414062,578,88,26202,-14886
17.1,1788444113200,6.11267614364624,-6.422535419464111,0.0026414089370518,0.0042692744173109,-0.5565714240074158,0.8307846784591675,-0.0102867164043688,-0.0003631630598645,3.343994977977336e-06,0.0223309695720672,0.0161051154136657,-1.7651965618133545,0.002920389175415,0.0040334723889827,-0.6213306188583374,0.7835326790809631,0.0162567018589151,-0.0020850718270709,-1.7994267775678523,-0.0519043803215026,-0.1905484795570373,-0.8054285049438477,701,62,29702,-16733
17.2,1788444113300,-0.5633803009986877,-2.0281689167022705,0.0031615525949746,0.0037036864086985,-0.6223572492599487,0.7827181220054626,-0.014055976305788,0.0028303876511473,-8.372353318009529e-06,0.0360000617802143,-0.0113271065056324,-1.7788279056549072,0.0039559556171298,0.0037087565287947,-0.6701503992080688,0.7422055006027222,0.0449506563848798,0.0269697787055362,-1.8049318346666547,0.3346070647239685,-0.0321001410484313,-0.132425308227539,41,199,0,0
17.3,1788444113400,0.0,0.0,0.0046286573633551,0.0039417250081896,-0.657268226146698,0.753632128238678,-0.0263722536309359,0.0346013514828911,8.90102660815345e-05,0.0488300770521163,0.0438445881009101,-1.815880298614502,0.0041698375716805,0.003483036532998,-0.7128279209136963,0.7013179659843445,-0.0016094734978731,0.0027372856854423,-0.0534770616793518,-0.4521567821502685,0.6137509942054749,0.1008167266845703,0,0,0,0
17.4,1788444113500,0.0,0.0,0.0046286573633551,0.0039417250081896,-0.657268226146698,0.753632128238678,-0.0263722536309359,0.0346013514828911,8.90102660815345e-05,0.0488300770521163,0.0438445881009101,-1.815880298614502,0.0038854070007801,0.0035460004583001,-0.7125520706176758,0.7015995383262634,-0.0116198615836147,-0.0074616905673836,0.0185193670866973,0.1089071631431579,-0.7441044449806213,-0.0601558685302734,0,0,0,0
17.5,1788444113600,1.380281686782837,-1.0140844583511353,0.0035616711247712,0.00364850461483,-0.6741424202919006,0.7385838031768799,0.0130456468962331,0.0032048929302438,1.5221603979950943e-06,-0.0069183376617729,-0.0033767770510166,0.147165909409523,0.0038507841527462,0.003470117226243,-0.7102925181388855,0.7038876414299011,0.0036103439815687,0.0019270726702361,-0.1457114887190149,-0.0524099469184875,-0.5041045546531677,-0.1186943054199218,92,180,3466,-6298
17.6,1788444113700,0.0,-1.0985915660858154,0.0037163742817938,0.0036057748366147,-0.6795588731765747,0.73360276222229,-0.0254015781139873,0.0005474044710931,7.467875765289356e-07,0.0033456136006861,0.0012092774268239,-0.2187821716070175,0.0040108412504196,0.0034792153164744,-0.7212152481079102,0.6926906704902649,0.0022230240673062,0.0060679974384628,-0.2396844207908776,-0.0268651247024536,-0.1766558289527893,0.0784378051757812,806,126,15612,-5598
17.7,1788444113800,2.1408450603485107,-2.197183132171631,0.0038560177199542,0.0036062891595065,-0.6886106133460999,0.7251120209693909,-0.0079771270000096,-6.464560612185968e-05,3.5987286046631145e-06,0.002971660811454,0.0041955988854169,-0.2904737889766693,0.0034944294020533,0.0035608746111392,-0.7382188439369202,0.6745429039001465,-0.0186337765436115,-0.0199590722384635,-0.6061666368268209,0.2337850928306579,0.0132756829261779,0.6003007888793945,685,82,19393,-6349
17.8,1788444113900,1.8591549396514893,-1.7183098793029783,0.0036675406154245,0.0036736263427883,-0.6986351013183594,0.7154593467712402,-0.0068593654381081,-0.0042373597775702,1.7031108004352835e-06,-0.0043760510161519,-0.0033840429969131,-0.5553359389305115,0.001478468067944,0.0040588742122054,-0.7563998699188232,0.6540953516960144,-0.0386794899669299,-0.0265154786287208,-0.5905349676174702,-0.2832664847373962,0.1658344268798828,0.1689367294311523,746,49,20111,-6565
17.9,1788444114000,1.5492957830429075,-1.436619758605957,4.432792775332928e-05,0.0043586520478129,-0.73177170753479,0.6815358400344849,0.002797364309993,0.0058229327731333,-3.030695653148391e-06,-0.0429417975246906,-0.0312832444906234,-0.5370419025421143,-0.000827862881124,0.0045310594141483,-0.7730735540390015,0.634299635887146,-0.0272594115494089,-0.026949979245531,-0.5019505302169054,-0.1282463073730468,-0.1173521876335144,0.020674705505371,618,52,18989,-4837
18.0,1788444114100,1.5492957830429075,-1.436619758605957,-0.0009894511895254,0.004471203777939,-0.74052494764328,0.6720132231712341,0.0004481299010799,0.0032185518421253,-3.432461902321556e-07,-0.0293434467166662,-0.0250427387654781,-0.5073328018188477,-0.001787856221199,0.0044417595490813,-0.7825688719749451,0.622545599937439,-0.0141683992542849,-0.0252986510911405,-0.4284058807975769,0.3292315602302551,-0.4502143263816833,-0.2297010421752929,10,228,0,-12321
18.1,1788444114200,2.4788732528686523,-7.380281925201416,-0.001440808060579,0.0050104483962059,-0.7637574076652527,0.6454823017120361,-0.0780903314413248,0.0311962669355914,2.767170367033509e-05,-0.0017899206141009,0.0311433058232069,-0.6191977262496948,-0.0007825139909982,0.0046370197087526,-0.8176088333129883,0.5757550001144409,0.0249798270879078,-0.0204773219819453,-1.3772814389867798,0.1859796643257141,1.3960355520248413,5.336374282836914,900,105,32767,-16337
18.2,1788444114300,4.760563373565674,-6.873239517211914,-0.0004675555974245,0.0030010468326509,-0.8340773582458496,0.5516392588615417,-0.033856323674489,0.0238053184855868,3.5544091187496644e-05,0.0249211825430393,0.0426138453185558,-1.7092732191085815,-0.0002485131844878,0.0028883758932352,-0.8747193813323975,0.4846211969852447,0.0139846775593773,0.009165339042759,-1.8654299705745827,-0.2130813598632812,-0.132303774356842,-0.3172798156738281,619,96,25284,-18517
18.3,1788444114400,4.760563373565674,-6.676056385040283,-0.0005192008684389,0.0030899082776159,-0.8784844279289246,0.4777606129646301,-0.040353584994413,0.0055678956039819,2.3443237103791425e-06,-0.0076095322147011,0.0063230968080461,-1.7409113645553589,-0.0001557962968945,0.0031471485272049,-0.9097859859466552,0.4150657951831817,0.008878252764658,0.0213272724427484,-1.667008440381123,0.5468230843544006,-0.0301675796508789,0.6791582107543945,698,58,25926,-18814
18.4,1788444114500,5.239436626434326,-6.732394218444824,-0.0001857592724263,0.0031291504856199,-0.913144826889038,0.407623291015625,-0.032028159993875,0.0018049063439675,9.778807970007136e-06,0.0059559135697782,0.0051190960220992,-1.7689859867095947,0.0003458708524703,0.003358450718224,-0.9430692791938782,0.3325794339179992,-0.0034760812854175,0.0355537187033157,-1.8427050447993831,-0.5445616841316223,0.1087115406990051,0.2418556213378906,463,93,22846,-18347
18.5,1788444114600,5.154929637908936,-6.788732528686523,-0.0001036572502925,0.0032751259859651,-0.9465221762657166,0.3226222097873688,-0.0356698431501481,0.0085091774233752,1.2595567641182569e-06,-0.0040634893812239,0.0011790542630478,-1.7965033054351809,0.00052176322788,0.0038418816402554,-0.9736201167106628,0.2281424254179,-0.0135577605092232,0.0529120741977011,-2.129517418702185,-0.2069894671440124,-0.3133373260498047,-0.5765819549560547,380,39,20324,-18014
18.6,1788444114700,6.704225540161133,-5.802816867828369,0.0005228130030445,0.0038335944991558,-0.9734615683555604,0.2288180291652679,-0.0118696707032885,-0.0013813891941218,3.5807147856638096e-06,0.002798564499244,0.0177613664418458,-1.857093095779419,0.0012550018727779,0.0039073443040251,-0.9898350238800048,0.1421616971492767,0.0043497943065359,0.0409077072250093,-2.1945201389558213,-0.2200322151184082,-0.2442942857742309,-0.8942155838012695,253,55,21573,-18027
18.7,1788444114800,6.732394218444824,-5.577464580535889,-0.0011465271236374,0.0059045110829174,-0.9912367463111876,0.131960779428482,0.0071373494321293,0.0207451676250231,-2.9157684409122385e-05,-0.0732738599181175,-0.0538768358528614,-1.9712705612182615,-0.0010469928383827,0.006303702481091,-0.9984085559844972,0.0560313612222671,-0.0212664635468829,0.0126198041747547,-1.8519271313043368,-0.0890449285507202,-0.2688992619514465,0.3562736511230469,160,74,18359,-19159
18.8,1788444114900,6.084506988525391,-6.197183132171631,-0.0015813786303624,0.0060911695472896,-0.9992666840553284,0.0377676934003829,6.674864186900497e-05,0.0186204676361352,-5.268755429196552e-06,0.0009297860087826,0.0004036389582324,-1.9218924045562744,-0.0001903790980577,-0.0048748701810836,0.99828439950943,0.0583471171557903,0.0276737913485582,0.0396852113818985,-1.8791832099106496,-0.8904111981391907,-0.5457799434661865,-0.0681791305541992,138,27,19461,-17278
18.9,1788444115000,6.056337833404541,-6.366197109222412,-0.0002382254751864,-0.0042302124202251,0.9989498257637024,0.0456196926534175,-0.0177168660763149,0.0318754984809457,2.129862539106136e-05,0.0297197680920362,0.0224169716238975,-1.812817931175232,0.0002241479232907,-0.0039116321131587,0.9900891780853271,0.1403854340314865,0.009342412062196,-0.0296788359959336,-1.836324496788319,0.2619428634643554,-0.3345374464988708,-0.0317945480346679,307,106,21468,-17285
19.0,1788444115100,5.77464771270752,-5.7183098793029785,1.7163343727588654e-05,-0.0029450578149408,0.9891749620437622,0.146711453795433,-0.0281587620702589,0.0337914886084524,2.322452399246916e-05,0.0251351054757833,0.0112911351025104,-1.80184006690979,0.0002763932570815,-0.0028614038601517,0.9755775928497314,0.21963632106781,0.012682437078693,-0.0209594255266528,-2.002736105064153,-0.3824894428253174,-0.0676027536392211,0.5395441055297852,676,47,28058,-19010
19.1,1788444115200,5.633802890777588,-6.169013977050781,0.0002744439116213,-0.0017115112859755,0.9717495441436768,0.2360081821680069,-0.0557616984539123,0.0474758874563872,5.441713317994826e-05,0.0391556620597839,0.0194464568048715,-1.8204551935195925,0.0008224928751587,0.0001346599310636,0.9452966451644896,0.3262110650539398,0.0786929449597068,-0.0081571210698237,-1.8825116783209332,-0.1781281232833862,-0.2367243766784668,0.5589838027954102,766,32,32360,-17290
19.2,1788444115300,5.85915470123291,-6.11267614364624,0.0012940756278112,-0.0013453213032335,0.9461849331855774,0.3236210942268371,-0.0310543771836563,0.0258047466916237,-2.2717192672997616e-05,-0.054551288485527,-0.0362999364733696,-1.8503202199935915,0.001464806497097,-0.0019744066521525,0.9153773188591005,0.4025896489620209,-0.0136902769742816,-0.0149499788049442,-1.731909345970623,-0.5414254069328308,-0.7760918736457825,0.5150785446166992,784,58,32358,-17346
19.3,1788444115400,6.11267614364624,-6.3380279541015625,0.0017035162309184,-0.0018440809799358,0.9162049293518066,0.4007020890712738,-0.007546640131246,0.0240017538088573,-7.141363772332681e-06,-0.0002811752201523,-7.478802217519842e-06,-1.8285143375396729,0.0011264253407716,-0.002010554075241,0.8789027333259583,0.4769954979419708,-0.0342422029308785,0.0287209446176465,-1.907623068584433,-1.513548493385315,0.3182046413421631,0.909693717956543,313,68,20920,-20276
19.4,1788444115500,4.732394218444824,-5.97183084487915,0.0014199905563145,-0.0018036571564152,0.896289050579071,0.4434645175933838,-0.0138000037731119,0.0130318946523593,1.1906198064148945e-06,-0.0072754686698317,0.0125421425327658,-1.8432003259658811,0.0013691429048776,-0.0010950425639748,0.8386341333389282,0.54469233751297,0.0256697174563164,0.0106248688481502,-1.68758318697934,-0.751686692237854,0.1535086035728454,0.981903076171875,455,156,22870,-21274
19.5,1788444115600,4.704225540161133,-6.760563373565674,0.0016477042809128,-0.0003342284471727,0.8500961065292358,0.5266249179840088,-0.0303805939710444,0.0013671583339951,5.222306302809466e-06,0.0316883027553558,0.0102465292438864,-1.637882947921753,0.0017737746238708,-0.0006148321554064,0.8151552677154541,0.579239547252655,0.0220033937903291,-0.0019529091237607,-1.663252186832308,-0.9727885127067566,0.0671440362930297,1.6423063278198242,628,175,23875,-18837
19.6,1788444115700,0.0,-2.422535181045532,-0.0001687303301878,-0.0015704871620982,0.8058608174324036,0.5921029448509216,-0.0418295990336409,0.0016500343668019,2.471496694162104e-05,-0.0806947574019432,0.029258906841278,-1.5726666450500488,0.0002343785017728,-0.0018620565533638,0.7725871801376343,0.6349059343338013,-0.0245177327557673,-0.0432725858311462,-0.7821784738357541,-0.7932643294334412,2.212360620498657,0.0326042175292968,0,202,0,0
19.7,1788444115800,0.0,0.0,0.0003036645939573,-0.002461998257786,0.8042076230049133,0.5943433046340942,0.003765135021811,-0.0099691820474416,5.003260068998464e-08,0.0001780563034117,-0.0035026078112423,0.0313432440161705,0.0002737762406468,-0.0022853314876556,0.7743709087371826,0.6327278017997742,0.0130245609102841,-0.0011575591165903,0.0147132682297169,-0.4091242551803589,0.738909125328064,-0.1002492904663086,0,202,0,0
19.8,1788444115900,-5.239436626434326,6.422535419464111,0.0002218502340838,-0.0036157069262117,0.8055319786071777,0.5925412178039551,0.0044897757992164,0.0010368145613957,-1.0094896511867382e-06,-0.043208472430706,-0.0277177803218364,0.0993733629584312,0.0023866528645157,-0.0030135633423924,0.8118013143539429,0.5839210748672485,0.0714566264209988,-0.0369723230417445,1.924990428417644,-1.0871682167053225,0.7808325290679932,-1.129847526550293,892,427,-30607,23737
19.9,1788444116000,-5.605633735656738,6.647887229919434,0.0017562331631779,-0.0031616149935871,0.8767662644386292,0.4809030890464782,0.0203431172926942,-0.0016720936830983,-5.1102902001730345e-06,-0.0004278193227946,0.0024112414103001,1.7229788303375244,0.0012861303985118,-0.0030387314036488,0.8599346280097961,0.5103935599327087,0.0072293365314503,0.002749837227624,1.6874952178688274,0.1127418279647827,0.0604729056358337,0.6504106521606445,772,116,-32096,15048
20.0,1788444116100,-5.070422649383545,6.084506988525391,0.0017009719740599,-0.0030506937764585,0.8958002328872681,0.4444431364536285,0.0165232605134441,0.001209527162514,-2.756908835999864e-06,0.0076600620523095,0.0007841095793992,1.6162419319152832,0.00157674215734,-0.0032518990337848,0.8983675837516785,0.4392295777797699,-0.0090765559722592,-0.0107667681596298,1.6216946354102153,0.2167311310768127,0.3512165546417236,-0.664820671081543,833,150,-32571,17073
20.1,1788444116200,-4.816901206970215,5.323943614959717,0.0019286117749288,-0.0029117178637534,0.9258325099945068,0.3779179751873016,0.0264081076665865,-0.0030054980543815,8.216527466807558e-07,0.0101430397480726,-0.00527049228549,1.615172266960144,0.0018069315701723,-0.00287960562855,0.9119017720222472,0.4103946089744568,0.026090736970491,-0.0066273971213662,1.5948699914614537,-1.167580246925354,-0.2029227018356323,0.5866641998291016,843,24,-32767,10504
20.2,1788444116300,-6.816901206970215,4.873239517211914,0.000978511525318,-0.0014017826179042,0.9551122188568116,0.2962394654750824,-0.0402893697149025,0.0019639529543674,1.577588970141214e-05,0.0263887979090213,0.0248949751257896,1.485172986984253,0.0025763688609004,-0.0024966355413198,0.9510639905929564,0.3089731633663177,-0.0113136645682383,-0.1165035174766128,1.952220558010549,0.6684950590133667,-0.3460302352905273,-0.1658315658569336,586,167,-30662,13806
20.3,1788444116400,-6.8450703620910645,5.380281925201416,0.0014033478219062,-0.0027027244213968,0.9735124111175536,0.2286136597394943,-0.0297156557425996,-0.0101446040810497,1.829376334297696e-05,-0.0245321784168481,0.0357945375144481,1.7381870746612549,0.0001228787004947,-0.0036284094676375,0.9800103306770324,0.1989136636257171,-0.0596527606570598,0.0099229359015649,1.6784081969661837,-1.0008224248886108,-0.2146734595298767,0.3675622940063476,586,167,-30662,13806
20.4,1788444116500,-7.267605781555176,5.323943614959717,0.0005469114985316,-0.0029061108361929,0.984521210193634,0.175240471959114,-0.0332966829685086,-0.0055767527904575,1.06522938014556e-05,-0.009285133332014,0.0211449619382619,1.7494900226593018,0.0002576280385255,-0.0040840562433004,0.9910083413124084,0.1337376534938812,-0.0091294496367916,-0.0157398399621513,1.9151123495717108,-0.1131204962730407,0.0630582571029663,0.6500368118286133,377,75,-27448,14913
20.5,1788444116600,-7.267605781555176,5.323943614959717,0.0004567111027427,-0.004066607914865,0.9963558912277222,0.0851955711841583,-0.0570324654436784,-0.0041699298399336,-3.970033581241115e-06,-0.0142509313300251,-0.0085933739319443,1.9066866636276243,0.0018125297501683,-0.0062409685924649,0.9969432353973388,0.0778585448861122,0.016852095965339,-0.0872128825003128,1.795171064194094,0.661647379398346,-1.0945889949798584,1.1479368209838867,377,75,-27448,14913
20.6,1788444116700,-5.915493011474609,3.802816867828369,0.0004567111027427,-0.004066607914865,0.9963558912277222,0.0851955711841583,-0.0570324654436784,-0.0041699298399336,-3.970033581241115e-06,-0.0142509313300251,-0.0085933739319443,1.9066866636276243,-0.0003218371421098,0.0057059554383158,-0.9985263347625732,0.0539671033620834,-0.0046268810808438,-0.009410977200522,1.5034099245638293,0.5341532826423645,-0.3878218531608581,-0.4338054656982422,161,38,-18446,10920
20.7,1788444116800,-1.4929577112197876,1.0985915660858154,-0.0009508589282631,0.0061056385748088,-0.9926844835281372,0.1205792650580406,-0.013702924809656,-0.0047388433820174,-1.3237438739581151e-06,-0.0239119306206703,-0.0176039990037679,1.1981654167175293,-0.0008101686835289,0.0062169162556529,-0.9948641061782836,0.1010255441069603,0.0020433791747818,-0.0115150117664916,0.4945313335613174,0.2195297479629516,-0.2533504366874695,0.0890779495239257,209,21,-7564,1987
20.8,1788444116900,0.0,0.0,-0.0011121475836262,0.0061644189991056,-0.9885027408599854,0.1510733217000961,-0.0039664100863545,-0.0050702642024544,-2.2488223336216743e-06,0.0006796216475777,-0.0083152214065194,0.3959417641162872,-0.0007132859900593,0.0062215924263,-0.9945334196090698,0.1042313203215599,-0.0002577964466891,0.0026306566580811,-0.0204561300246147,-0.230681300163269,0.192317247390747,0.0058412551879882,173,26,-3005,945
20.9,1788444117000,0.0,0.0,-0.0011339897755533,0.0061635775491595,-0.988174319267273,0.1532067358493805,0.0007227543472678,-0.0024992777825238,9.162462278181362e-07,0.0,0.0,0.0,-0.0007826704531908,0.0062388302758336,-0.9945296049118042,0.104266457259655,0.0003311049071662,-0.001994916605839,-0.0002513539702574,0.1307713985443115,0.0435835719108581,0.0398502349853515,173,26,-3005,945
21.0,1788444117100,0.0,0.0,-0.0010477646719664,0.006205843295902,-0.9882546663284302,0.1526863127946853,0.0,0.0,0.0,0.0,-7.744443308865812e-09,0.0,-0.0007405588403344,0.0062545984983444,-0.9945340156555176,0.1042236685752868,0.0003724329197517,0.0009620280886507,0.0004484440672652,-0.0461795926094055,0.0348681211471557,0.0288114547729492,0,0,0,0
21.1,1788444117200,0.0,0.0,-0.0010700185084715,0.0062078242190182,-0.9882612824440002,0.1526434123516082,7.066571263618464e-05,-8.055355490046808e-05,-1.0297560316193009e-06,0.0004275667015463,-0.0006556368316523,0.0007973454194143,-0.0007249452173709,0.0062309456989169,-0.9945325255393982,0.1042385175824165,0.0008880866600325,0.0023213024906837,-0.0002383959199138,-0.0063984990119934,-0.0392356514930725,0.0213813781738281,0,0,0,0
21.2,1788444117300,0.0,0.0,-0.0010700185084715,0.0062078242190182,-0.9882612824440002,0.1526434123516082,0.0,0.0,0.0,0.0,0.0,0.0,-0.0007495833560824,0.0062288092449307,-0.994528830051422,0.104273609817028,-0.0010522667832034,-0.0011249933384039,0.0004315271776916,0.016421616077423,0.034262478351593,0.059422492980957,0,0,0,0
21.3,1788444117400,0.0,0.0,-0.00104202888906,0.0061638816259801,-0.9882566928863524,0.1526745855808258,0.0,0.0,0.0,0.0,5.407264414003521e-09,0.0,-0.0006896778941154,0.006203762255609,-0.9945277571678162,0.1042867600917816,0.0010992500265141,-0.0007812075238691,0.0013870018419007,0.0103716254234313,0.022925317287445,0.0467872619628906,0,0,0,0
21.4,1788444117500,0.0,0.0,-0.0009767503943294,0.0061928150244057,-0.9882577061653136,0.1526674479246139,-2.526097239166336e-05,3.0424064370258156e-05,3.84849238429671e-07,-0.0007426026277244,0.0027496058028191,-0.00027028034674,-0.0007027965039014,0.0062124272808432,-0.9945293664932252,0.1042702123522758,-6.719932903909867e-05,-0.0009343401521115,-0.0005147310564391,0.0280832052230834,0.0338689088821411,0.0540409088134765,0,0,0,0
21.5,1788444117600,0.0,0.0,-0.0010098037309944,0.0061959754675626,-0.9882516264915466,0.1527064591646194,3.994897358375857e-05,-4.7669470130992384e-05,-5.984144861026251e-07,-0.0010672113858163,-0.0008602156885899,0.0004609407915268,-0.0007442627102136,0.0062623396515846,-0.9945250749588012,0.1043073832988739,-0.0011321175700995,-0.0014164329885261,0.0006337093651534,-0.0085007548332214,0.0188832283020019,0.023411750793457,0,0,0,0
21.6,1788444117700,0.0,0.0,-0.0010098037309944,0.0061959754675626,-0.9882516264915466,0.1527064591646194,3.994897358375857e-05,-4.7669470130992384e-05,-5.984144861026251e-07,-0.0010672113858163,-0.0008602156885899,0.0004609407915268,-0.0007680617272853,0.0062509560957551,-0.9945233464241028,0.1043244376778602,0.002049878030588,-0.0004917777894464,0.0004263710098709,-0.0091317296028137,0.0311639308929443,0.0218133926391601,0,0,0,0
21.7,1788444117800,1.5774648189544678,-1.183098554611206,-0.001077645458281,0.00621525850147,-0.988246202468872,0.152740329504013,0.0,0.0,0.0,0.0,0.0,0.0,-0.000602601096034,0.0061470149084925,-0.9946849942207336,0.1027798876166343,0.0058619090451405,0.0094415767775701,-0.0996737143635392,-0.2758785486221313,-0.4138470292091369,0.2566127777099609,112,325,7764,-9814
21.8,1788444117900,3.6056337356567374,-3.9718310832977295,-0.0009789676405489,0.0061073503457009,-0.9893839955329896,0.1451929062604904,-0.0122945069559505,-0.0014603636095973,2.1154966614811727e-06,0.0025891663972288,0.0034746669698506,-0.2281752079725265,-0.0001255208626389,0.0060401363298296,-0.9982582926750184,0.0586841776967048,0.0062153664492221,0.026962453013307,-1.1487216301980727,-0.6049022078514099,-0.3070710897445678,0.7235736846923828,505,290,15781,-14385
21.9,1788444118000,2.169013977050781,-2.08450698852539,-0.0003072019317187,0.0057870834134519,-0.9949252009391784,0.1004498302936554,-0.0104104844480432,0.0072346131570765,5.576967425660387e-06,0.0130402045324444,0.0223259348422288,-1.115080952644348,-0.0002787383273243,0.005375419743359,-0.9998809695243835,0.0144574316218495,-0.0045928321375719,-0.0011821038318029,-0.8328675742583083,-0.4881184697151184,-0.0502132773399353,-0.2685880661010742,505,290,15781,-14385
22.0,1788444118100,3.014084577560425,-2.873239517211914,-0.0005045787547715,0.0052564973011612,-0.9984534978866576,0.0553411766886711,-0.0181587412989513,0.0089153059124632,-2.9530869419827565e-06,0.0011117459507659,0.0030396259389817,-0.7891878485679626,0.0002824626863002,-0.0051206108182668,0.9999479651451112,0.0088184345513582,0.0037122281035527,-0.003481341817998,-0.6700237273205867,0.617277204990387,0.1574518084526062,-0.0274820327758789,323,188,15165,-11986
22.1,1788444118200,3.4647886753082275,-3.126760482788086,-0.0005320819909684,0.005100717768073,-0.9991863369941713,0.0400032512843608,0.0022506147255694,0.0063171136920907,-1.423252049121783e-06,0.0065029254183173,0.0019453725544735,-0.6651073098182678,0.0013060960918664,-0.0053301015868783,0.9976792335510254,0.0678677856922149,0.0001464678254197,-0.0351063692576879,-1.208259959085533,0.0849782824516296,0.4840563535690307,1.0472955703735352,231,48,12789,-10847
22.2,1788444118300,3.070422649383545,-3.0422534942626958,0.0010845395736396,-0.0052635101601481,0.9999746680259703,0.004670959431678,-0.0104131795769715,-0.0032907838116763,-2.429705402636303e-07,0.002493827138096,-0.0131297409534454,-1.0537817478179932,0.0019071800634264,-0.0052638994529843,0.9945385456085204,0.104220226407051,0.0168618713863299,-0.0161539386818812,-0.979277081872481,0.0301718115806579,0.1176121830940246,-0.3479490280151367,257,92,14295,-10504
22.3,1788444118400,3.802816867828369,-2.366197109222412,0.0025817139539867,-0.0048422012478113,0.996149480342865,0.0874995291233062,-0.0143039618878794,0.0095555383227611,-6.2101321316779066e-06,0.0023013169411569,-0.0052780951373279,-1.0056136846542358,0.0024170456454157,-0.0050758002325892,0.992197811603546,0.1245466470718383,0.0098770306491501,-0.0191058840193394,-1.0262113790028138,0.1524346470832824,0.23084157705307,0.4088630676269531,461,22,19240,-6896
22.4,1788444118500,3.690140962600708,-2.507042169570923,0.0020097712986171,-0.0024568638764321,0.99079567193985,0.1353292614221573,0.025933712910671,0.0030203378526632,-1.960579411820745e-05,0.0277049988508224,0.0152050713077187,-0.9671866297721864,0.0015508281067013,-0.0023965137079358,0.9780635237693788,0.2082872837781906,-0.0008728097914856,0.0393136690376834,-0.8740683623587974,-0.1574132442474365,0.3595527410507202,-0.1714439392089843,404,112,18686,-7308
22.5,1788444118600,3.690140962600708,-2.3943662643432617,0.0011580130085349,-0.0023923984263092,0.9806576371192932,0.1957127451896667,0.0177925898799326,0.0025377029788584,-1.282578276641052e-06,0.0008231186075136,0.0080548450350761,-0.8219195008277893,0.0011333730071783,-0.0025626961141824,0.9732115268707277,0.2298946231603622,-0.0122995605907433,0.0166520270697561,-0.8965212613933912,-0.2302013039588928,-0.1502858996391296,-0.0909709930419921,413,53,17300,-6391
22.6,1788444118700,3.8309860229492183,-2.816901445388794,0.0009534356649965,-0.002098892815411,0.9763508439064026,0.2161800414323806,0.0153654245317915,0.0084454302746835,-4.206166368257588e-06,0.0083222929388284,0.0117579754441976,-0.8141525983810425,0.0009527271613478,-0.0025746328756213,0.95586097240448,0.2938065528869629,-0.0126117789842732,-0.0024981741529793,-0.841837243335163,0.1305343508720398,-0.353037416934967,0.503199577331543,675,76,22679,-8182
22.7,1788444118800,4.056337833404541,-2.901408433914185,0.0008181111188605,-0.0025473560672253,0.9577355980873108,0.2876377403736114,0.0184735171665639,0.0109615473980044,-6.403786602940511e-06,-0.003298589028418,0.0127884373068809,-0.983696460723877,0.0005320878699421,-0.0025605028495192,0.9400876760482788,0.3409229516983032,-0.004413446354968,0.0049860504956768,-0.9696004632519792,0.3307917714118957,-0.307469367980957,0.1030826568603515,659,61,24337,-6160
22.8,1788444118900,5.77464771270752,-1.183098554611206,0.0009451963123865,-0.0021820599213242,0.9504863023757936,0.3107571601867676,0.0322385251832217,0.0049525640281178,2.5683869091322736e-06,0.0143643831834197,0.0014948166208341,-0.9971074461936952,0.0003436170518398,-0.0009176861494779,0.9208540320396424,0.3899063467979431,0.0164816153191686,0.0117356049970454,-1.1850999662768702,1.02909255027771,0.1325138807296753,-0.1205921173095703,649,38,29147,-890
22.9,1788444119000,8.0563383102417,0.3098591566085815,0.0002411222521914,-0.0006800629198551,0.9416549205780028,0.3365790545940399,0.0336651527154028,0.0079825023077452,-2.632873497597401e-05,0.0456665009260177,0.0464038290083408,-1.0694985389709473,0.0010926546528935,-0.0029116962105035,0.9009037613868712,0.4340077638626098,0.0092760878611446,-0.0037499724288341,-1.0370188336958834,0.4884355068206787,-0.5372384786605835,1.0490083694458008,568,257,31711,7898
23.0,1788444119100,9.014084815979004,1.887323975563049,0.0013907747343182,-0.002659813966602,0.9137188196182252,0.4063359200954437,0.1573489262701751,-0.0153021407499105,1.8108391888672948e-05,0.0131709584966301,-0.0040757749229669,-1.0468862056732178,0.0006273686885833,-0.0028692120686173,0.8764458894729614,0.4814913868904114,-0.0165120501576235,0.0238079181840924,-1.08412015646592,-0.3728881478309631,-0.5001280903816223,1.064173698425293,242,73,26796,6550
23.1,1788444119200,8.535211563110352,1.97183096408844,0.0008917622617445,-0.0025849812664091,0.8887127041816711,0.45845627784729,0.1895989785344207,-0.0144850615911829,-2.924268828467256e-05,0.0095629831776022,0.0044075618498027,-1.036233901977539,0.0007140720263123,-0.0025291247293353,0.8559696078300476,0.5170194506645203,0.0012255161563673,0.0060668778145771,-1.0108108377721468,0.0557136535644531,-0.1176293492317199,0.3801307678222656,271,91,26958,5623
23.2,1788444119300,8.422534942626953,1.5774648189544678,0.0008917622617445,-0.0025849812664091,0.8887127041816711,0.45845627784729,0.1895989785344207,-0.0144850615911829,-2.924268828467256e-05,0.0095629831776022,0.0044075618498027,-1.036233901977539,0.0009845783933997,-0.0024099769070744,0.8238005638122559,0.5668737888336182,0.0286677670568706,0.0211634592355948,-0.9579012619612732,0.295108437538147,-0.1868866086006164,-2.5456576347351074,267,86,27129,6333
23.3,1788444119400,8.450704574584961,1.6619718074798584,0.0021131867542862,-0.0032612043432891,0.8279009461402893,0.5608609914779663,0.1813705104942749,-0.0100367577835535,6.671509119935688e-05,-0.0006939685554243,-0.0276618041098117,-0.9772330522537231,0.0019303802400827,-0.0032594418153166,0.7947520017623901,0.6069225072860718,0.0037303334038212,0.0111878552227874,-0.963148523621562,-0.6385728120803833,-0.107718288898468,-2.1691856384277344,281,69,26336,7546
23.4,1788444119500,6.563380241394043,2.985915422439575,0.0012527473736554,-0.00295488582924,0.814030110836029,0.5808137059211731,0.1620375524393785,-0.0068123581231038,-0.0001347502749343,-0.0125570902600884,0.0365109145641326,-0.9643031358718872,0.0043589174747467,-0.0061988122761249,0.7689277529716492,0.6392908692359924,-0.004362139916307,-0.0948842130194235,-0.5280280248838545,0.4185899496078491,0.1083608269691467,-0.8926267623901367,476,62,26308,10205
23.5,1788444119600,6.591549396514893,3.014084577560425,0.004100973252207,-0.0059462967328727,0.7934515476226807,0.6085905432701111,0.162642746670369,0.0013254423676587,-3.3931191042311947e-06,-0.0186852049082517,0.005385298281908,-0.5623769164085388,0.0036557065322995,-0.0058373501524329,0.7607541084289551,0.6490037441253662,-0.011585284555238,0.0334413175424353,-0.5352433637021891,-0.3056672215461731,-0.1577665209770202,-0.3793582916259765,732,80,32767,8177
23.6,1788444119700,6.309859275817871,2.6478872299194336,0.004100973252207,-0.0059462967328727,0.7934515476226807,0.6085905432701111,0.162642746670369,0.0013254423676587,-3.3931191042311947e-06,-0.0186852049082517,0.005385298281908,-0.5623769164085388,0.0034632552415132,-0.0052185645326972,0.737311840057373,0.6755236387252808,0.018987797875318,0.0171757715278169,-0.552859664528162,-0.3210879564285278,-0.0230587124824523,0.9285898208618164,732,80,32767,8177
23.7,1788444119800,6.873239517211914,3.690140962600708,0.0030944219324737,-0.0033670621924102,0.7629348635673523,0.6464591026306152,0.164481853677267,-0.0030288440183136,-0.0001484142145324,0.046493262052536,0.0829907581210136,-0.5845189690589905,0.0021619061008095,-0.005994077771902,0.7181355953216553,0.695874035358429,-0.0539179769948318,-0.1442516624373575,-0.5381833655039633,0.4416360855102539,-1.440941572189331,-1.552957534790039,568,52,30426,8032
23.8,1788444119900,6.535211086273193,3.88732385635376,0.0029050272423774,-0.0046635037288069,0.7452411651611328,0.6667723059654236,0.1728377367148519,-0.0047025205968183,0.0002692227064212,0.0362282395362854,-0.0154428211972117,-0.52283775806427,0.0022865226492285,-0.001183221116662,0.6977649331092834,0.7163222432136536,0.0146879621552388,0.0172583821576945,-0.4439920469075856,-0.6278078556060791,-0.1229634284973144,0.1585140228271484,568,52,30426,8032
23.9,1788444120000,6.591549396514893,3.91549301147461,0.0024908843915909,-0.0010507826227694,0.7271286249160767,0.6864959001541138,0.1839731539511333,-0.0039868947369416,1.6000651277515424e-05,0.0076383631676435,-0.0029367681127041,-0.4153514206409454,0.0021675992757081,-0.0001041917130351,0.6827857494354248,0.7306153774261475,0.016951702363935,0.0325985473512428,-0.43538666823783,0.1631823778152465,-0.1273505687713623,-0.8373222351074219,386,132,26209,10401
24.0,1788444120100,6.788732528686523,3.211267709732056,0.0025811134837567,-0.0003148835385218,0.7021201252937317,0.7120537161827087,0.1793850147288508,0.0022914946859142,7.585303457081963e-05,-0.0008143681916408,-0.0214331746101379,-0.5179683566093445,0.0023134518414735,-0.0001542819663882,0.6732131242752075,0.73944491147995,0.002171632801285,-0.0062171878695,-0.5212851733764161,-0.1465635895729065,-0.2775576114654541,-0.5652885437011719,285,112,23473,11083
24.1,1788444120200,6.2253522872924805,3.4084506034851074,0.0026657425332814,-0.0006027763010933,0.6950669884681702,0.7189397215843201,0.1774722801745288,0.0031121363262926,3.29832079010851e-05,-0.0080616688355803,-0.0139674842357635,-0.4908778369426727,0.002437206916511,-0.0006457101553678,0.6540240049362183,0.7564696669578552,-0.0072320295837549,0.0093100136386137,-0.3883387085033289,-0.158449113368988,-0.1076216697692871,-0.379617691040039,327,149,22866,12326
24.2,1788444120300,6.056337833404541,3.91549301147461,0.0024151131510734,-0.0003213422605767,0.6881917715072632,0.7255247235298157,0.1733839960716295,-0.0034675190328793,-3.742576857154449e-05,-0.0002495771041139,0.0144164953380823,-0.3789591491222381,0.0021687839180231,-0.0026268335059285,0.6323300004005432,0.7746917605400085,-0.0009577280926142,-0.0174510086179712,-0.3243297706164754,-0.2062102556228637,-0.0757842659950256,2.598416328430176,336,87,22818,11482
24.3,1788444120400,5.7183098793029785,4.0,0.0023693947587162,-0.0024911626242101,0.6650732159614563,0.7467702627182007,0.1716473178265935,-0.004156390986776,5.297318384781235e-05,0.0049892840906977,-0.0082969050854444,-0.2878335416316986,0.0021687839180231,-0.0026268335059285,0.6323300004005432,0.7746917605400085,-0.0009577280926142,-0.0174510086179712,-0.3243297706164754,-0.2062102556228637,-0.0757842659950256,2.598416328430176,483,132,26413,11112
24.4,1788444120500,6.563380241394043,3.91549301147461,0.0021017224062234,-0.0022891471162438,0.6480817198753357,0.7615644931793213,0.1757818654374458,-0.0022917180628667,9.300180576244196e-06,0.0057631712406873,-0.0037883988115936,-0.3371363282203674,0.0022819153964519,-0.0026214644312858,0.6071450114250183,0.7945835590362549,0.0087424471704779,-0.0336120720525041,-0.3744423430848289,0.0622320175170898,-0.1128867864608764,-0.3685226440429687,598,44,27511,9193
24.5,1788444120600,5.295774459838867,3.774647951126098,0.0021706079132854,-0.0017829341813921,0.6405174732208252,0.767938494682312,0.1705429177347071,-0.001556550252037,4.5129785610164326e-05,0.0140242185443639,0.0136131858453154,-0.3966034650802612,0.0027154302224516,-0.0018268134444952,0.5938647985458374,0.8045582175254822,0.0127132386354937,-0.0155896608607933,-0.3013186401503328,-0.0877763628959655,0.0725348591804504,-0.739741325378418,809,29,32767,11244
24.6,1788444120700,5.295774459838867,3.774647951126098,0.0028550308197736,-0.0018940828740596,0.6283815503120422,0.7778976559638977,0.1553950739425548,-0.0033190508489655,-4.155877550865113e-05,-0.0027849362231791,0.0006015903782099,-0.260296881198883,0.0030500767752528,-0.0013171639293432,0.5827237367630005,0.8126634955406189,0.0188669683891699,0.0192252751657893,-0.2212465577813278,0.115943968296051,-0.3245558142662048,-0.5524139404296875,809,29,32767,11244
24.7,1788444120800,5.408450603485107,3.6056337356567374,0.00307277450338,-0.0019618193618953,0.6243680715560913,0.7811217904090881,0.1581331557431905,-0.0092605229972003,3.859837398054485e-05,0.0045617376454174,-0.0080805225297808,-0.2134789079427719,0.0017461385577917,-0.004030087031424,0.5735677480697632,0.8191463947296143,-0.0934359674110623,-0.0539183005013294,-0.3024259992534949,0.1228251457214355,-0.8914031386375427,-0.1505327224731445,825,144,31906,11252
24.8,1788444120900,-2.8450703620910645,0.7605633735656738,0.00307277450338,-0.0019618193618953,0.6243680715560913,0.7811217904090881,0.1581331557431905,-0.0092605229972003,3.859837398054485e-05,0.0045617376454174,-0.0080805225297808,-0.2134789079427719,0.0017872750759124,-0.0050047701224684,0.5652928352355957,0.8248732089996338,0.0099065712641963,-0.0109007686802143,-0.2921031143399778,-2.335401058197021,-0.0229321122169494,0.5916833877563477,545,3,-14829,-16437
24.9,1788444121000,3.126760482788086,-7.436619758605957,0.0019932058639824,-0.0049880882725119,0.6020364761352539,0.7984505295753479,0.0088375160321462,0.0052008382207483,-4.684897915686317e-06,-0.0020223101601004,-0.0092950137332081,-0.1972528547048568,0.0020608101040124,-0.0042304517701268,0.5558900237083435,0.8312426209449768,0.0294525827439407,0.0235628806284108,-0.3247788784156896,-0.5433570146560669,-0.9409772753715516,-0.1712656021118164,893,410,23448,-24994
25.0,1788444121100,5.098591327667236,-7.605633735656738,0.0027112830430269,-0.001141689135693,0.5635636448860168,0.8260675072669983,-0.0749068795908877,-0.0013569333002391,6.899041608481419e-05,0.0691711604595184,0.0658353567123413,-1.3842713832855225,0.0029932772740721,-0.0012375889346003,0.4920681416988373,0.8705506920814514,0.0077711685355519,-0.0084093161250718,-1.7615570232829385,0.5601732730865479,0.2486491203308105,-0.6681051254272461,472,88,23893,-16250
25.1,1788444121200,5.77464771270752,-6.704225540161133,0.0032369913533329,-0.000887174042873,0.4788670837879181,0.8778809905052185,-0.0329200928948102,0.0058026054469867,-3.1414288042220586e-06,0.0038325586356222,-0.0063609261997044,-1.828740239143372,0.0037419060245156,0.0001026270911097,0.3866634368896484,0.9222133159637452,0.053438403214365,0.0069677436093527,-1.7857300710414328,0.2306773066520691,-0.1859644651412964,1.4493045806884766,758,54,29176,-15360
25.2,1788444121300,6.2816901206970215,-6.422535419464111,0.0041482611559331,0.000206742901355,0.4055129587650299,0.9140798449516296,-0.0200523439298688,-0.0026062106894267,-1.1170619913928018e-05,0.0195239540189504,-0.0202006325125694,-1.8614977598190308,0.0045285103842616,0.0004725055769085,0.2868793904781341,0.9579558968544006,0.0014296650994683,-0.0336008735562563,-1.8474609605229813,-0.1127010583877563,0.026318073272705,1.0332012176513672,424,124,25270,-16000
25.3,1788444121400,6.366197109222412,-5.943662166595459,0.0046699973754584,0.0001765034394338,0.3135201036930084,0.9495700597763062,-0.0044804567126072,0.0061872076430502,-1.1566209059930568e-06,0.0011110826162621,-0.0436552390456199,-1.975547432899475,0.0045433044433593,0.0001771049574017,0.2218537330627441,0.9750693440437316,-0.0061361789278526,0.0146532719472345,-1.9160400155274155,-0.6951083540916443,-0.4767104983329773,0.1790971755981445,368,92,24342,-17605
25.4,1788444121500,6.591549396514893,-5.577464580535889,0.0046626622788608,-0.0001796633005142,0.2238121330738067,0.9746211767196656,0.0128491196971749,0.0014530137277609,1.780909017399352e-05,-0.0024464200250804,-0.0320035181939601,-1.865345478057861,0.0044928779825568,-0.0003327345475554,0.1568410396575927,0.9876136183738708,-0.0046210626078057,2.8334218976674724e-05,-1.8825191895990256,-0.0757516622543335,-0.3978446125984192,0.1837940216064453,157,117,19316,-19358
25.5,1788444121600,6.2816901206970215,-6.732394218444824,0.0039116786792874,-0.0011007254943251,0.1163282990455627,0.9932025671005248,-0.0001420221288428,-0.0026212076473966,1.9432122639647e-06,-0.0022417590953409,-0.0131916003301739,-1.999632239341736,0.003510775975883,-0.0010588122531771,0.0113848708570003,0.9999285340309144,-0.0607251309503843,-0.0828096656456966,-1.790335085268861,0.5931576490402222,0.0675208568572998,-0.0076770782470703,172,115,18700,-15208
25.6,1788444121700,6.253520965576172,-5.605633735656738,0.0018755353521555,0.0002710643748287,-0.0162679366767406,0.9998658895492554,-0.0067542282341761,-0.0022660806922607,-1.6721557222919327e-05,-0.0403685234487056,-0.0163237359374761,-1.870524883270264,0.0024791210889816,0.0001477738842368,-0.034225296229124,0.9994111061096193,-0.0447602382663575,0.0405915808586068,-1.837261038643552,-0.6951356530189514,-0.4698691368103027,-0.2829418182373047,125,221,18409,-20118
25.7,1788444121800,5.521126747131348,-5.85915470123291,0.0019330880604684,0.0007895629387348,-0.0617533922195434,0.9980891942977904,-0.010413797747382,0.0054348003091163,6.603124232141387e-06,0.002578487386927,0.0172984171658754,-1.811668276786804,0.0028564985841512,0.001319813542068,-0.1780492663383484,0.9840165376663208,0.0259868857937009,0.01467239708533,-1.8080596241163465,0.0959612131118774,-0.1795620918273925,0.7322769165039062,416,121,25074,-18648
25.8,1788444121900,5.746479034423828,-5.6619720458984375,0.0027676518075168,0.0017002784879878,-0.1476593613624572,0.9890329241752625,-0.014387803877902,-0.0022771943455998,4.017756707606936e-06,0.0145782232284545,0.0057610245421528,-1.8058751821517944,0.0026058396324515,0.0051682898774743,-0.2726149559020996,0.9621058106422424,0.0261580356199765,0.0778657240704712,-1.7490279245758784,0.1003264188766479,-0.0959541201591491,0.5406818389892578,705,163,29385,-20153
25.9,1788444122000,5.943662166595459,-6.478873252868652,0.0019636033102869,0.0045018680393695,-0.2019526064395904,0.979382872581482,-0.012789227952833,0.0003915032153159,4.405718692035469e-06,-0.0341815687716007,0.0789793878793716,-1.7290672063827517,0.0028565861284732,0.0051492089405655,-0.3428112268447876,0.939385950565338,-0.0331203663491375,-0.067435085304617,-1.8267832760729816,0.3087620139122009,-0.0785083174705505,1.106797218322754,764,151,32314,-16821
26.0,1788444122100,6.450704097747803,-6.591549396514893,0.0020976145751774,0.005377275403589,-0.326128602027893,0.9453078508377076,-0.0058824978298826,0.0027406051315147,-8.29602361708663e-07,-0.0336575917899608,-0.0221805889159441,-1.9400426149368288,0.002814476378262,0.0061807464808225,-0.4318946599960327,0.9018985629081726,0.0154528183954002,0.0401729256570879,-1.8869193124208408,-0.03366619348526,-0.1187353730201721,1.4906797409057615,610,81,29744,-14769
26.1,1788444122200,6.366197109222412,-6.14084529876709,0.0028197178617119,0.006868187803775,-0.415402203798294,0.9096075296401978,0.0054815607450399,-0.0014298659991996,4.407746869391071e-06,0.0165176428854465,0.0550095960497856,-1.897037148475647,0.0039392597973346,0.0070133814588189,-0.5244575142860413,0.8513986468315125,0.0378257218081149,0.0031272403042286,-1.9259974796526744,0.0269230604171752,-0.2488504648208618,-0.0702552795410156,506,162,27680,-17610
26.2,1788444122300,6.788732528686523,-5.943662166595459,0.0042306161485612,0.0072539625689387,-0.4991636574268341,0.8664669990539551,-0.0004122184741511,-0.0048580676900705,-1.569147102270214e-05,0.051257200539112,0.0217089187353849,-1.9203583002090452,0.0045446222648024,0.0065043829381465,-0.5893076658248901,0.8078697323799133,0.0243535206957933,-0.0287246947025038,-1.972507103491535,-0.1142099499702453,-0.0801233053207397,-0.8475008010864258,350,105,23733,-17949
26.3,1788444122400,6.309859275817871,-6.535211086273193,0.0040458086878061,0.0071545047685503,-0.5892491936683655,0.8079094886779785,0.004675271365654,-0.0049226475119929,-3.660375025395097e-06,0.0010044287191703,0.0104557769373059,-1.9512687921524048,0.004263637587428,0.0070222551003098,-0.6355379819869995,0.7720259428024292,-0.0146955378882651,0.0022524948360869,-1.8346184022365035,-0.3919506669044494,-0.2191977500915527,0.2615861892700195,297,150,22797,-15939
26.4,1788444122500,2.901408433914185,-2.7887322902679443,0.0017782347276806,0.0071776621043682,-0.6592353582382202,0.7519002556800842,0.0034753567252768,0.0089183007580779,-1.0530171486051468e-05,-0.0275492370128631,-0.0462325476109981,-1.9619404077529907,0.0008974559605121,0.0059448825195431,-0.7125260829925537,0.7016198635101318,0.0154577659932781,-0.1251757641513729,-1.757225538994836,-1.7619645595550537,-0.0145933628082275,1.0106792449951172,223,258,0,0
26.5,1788444122600,0.0,0.0,0.0007692882791161,0.0059632640331983,-0.6904698610305786,0.7233362793922424,-0.0024085619590225,0.0075505886277297,-1.2860147626230495e-06,-0.004638441838324,0.0002930531045421,0.0127259576693177,0.0011015329509973,0.0059039918705821,-0.7248897552490234,0.6888388395309448,0.0004240443228549,0.0077696729265261,0.0117586958988464,-0.0547752380371093,-0.1136624813079834,-0.2447767257690429,0,0,0,0
26.6,1788444122700,-5.183098793029785,4.901408672332764,0.0007692882791161,0.0059632640331983,-0.6904698610305786,0.7233362793922424,-0.0024085619590225,0.0075505886277297,-1.2860147626230495e-06,-0.004638441838324,0.0002930531045421,0.0127259576693177,0.001061393879354,0.0058719376102089,-0.7248844504356384,0.688844621181488,-0.0065910639699932,0.0064115275977068,-0.0042959206925263,-0.0420106649398803,-0.2160021066665649,0.2200183868408203,591,323,-23600,18808
26.7,1788444122800,-5.943662166595459,5.915493011474609,0.0003871836233884,0.0069916853681206,-0.6079611778259277,0.7939359545707703,0.0135937866885626,0.0013041227838454,1.5334895004331673e-05,-0.0180014409124851,-0.0716590657830238,1.9194122552871704,0.0014703990891575,0.007441840134561,-0.6385577321052551,0.7695364952087402,0.0336491494883953,0.0302601535024276,1.835909314422674,0.1620476841926574,-0.3356969356536865,-1.7357749938964844,324,139,-23852,18503
26.8,1788444122900,-6.535211086273193,6.11267614364624,0.0013269300106912,0.0068377228453755,-0.5363816618919373,0.8439468145370483,0.0101586907787043,-0.0002259797085781,-2.396882649122061e-06,-0.0085185868665575,-0.0215783193707466,1.890825867652893,0.0015103816986083,0.0065487762913107,-0.554657518863678,0.8320516347885132,-0.0183726765713407,-0.0036049094035179,1.6307541856552132,-0.4100100398063659,-0.2203388810157776,0.160491943359375,255,116,-21935,17248
26.9,1788444123000,-6.394366264343262,5.943662166595459,0.0012087823124602,0.0063610398210585,-0.4541520774364471,0.8909006118774414,0.0049280815112946,4.413578990159571e-05,6.205049180741021e-06,-0.0013712426880374,-0.005155811086297,1.9320632219314573,0.0015318440273404,0.0061726700514554,-0.4716936349868774,0.8817395567893982,-0.0075049611635373,-0.0097009036961158,1.9355956121471425,-0.7032607197761536,-0.1695584654808044,0.0866479873657226,289,127,-21706,17542
27.0,1788444123100,-6.084506988525391,6.901408672332764,0.0010724063031375,0.0057803527452051,-0.3548634350299835,0.934899628162384,0.0054271842947862,-0.0040392490968022,3.5168410804943584e-06,-0.014821033924818,-0.017503248527646,1.9098575115203855,0.00169238448143,0.0052342098206281,-0.3673256933689117,0.9300761818885804,0.0239838720414823,-0.0280785397997857,1.857020537903585,0.1321334242820739,-0.3450937271118164,-0.591984748840332,305,89,-21735,13404
27.1,1788444123200,-4.422535419464111,6.169013977050781,0.0022373327519744,0.0049859001301229,-0.2699562609195709,0.9628570675849916,0.0005265058382162,0.0007668852734129,1.2291217666469438e-06,0.0118680382147431,-0.0123572563752532,1.806840777397156,0.0010312488302588,0.0037096859887242,-0.2920325398445129,0.9564006924629213,-0.0788211012370578,-0.1003768923751225,1.7196040680549654,0.7960718870162964,-0.643518328666687,1.4029226303100586,15,132,-9914,17967
