time_s,timestamp_ms,wheel_vels__velocity_left,wheel_vels__velocity_right,odom__orient_x,odom__orient_y,odom__orient_z,odom__orient_w,odom__lin_x,odom__lin_y,odom__lin_z,odom__ang_x,odom__ang_y,odom__ang_z,imu__orient_x,imu__orient_y,imu__orient_z,imu__orient_w,imu__angvel_x,imu__angvel_y,imu__angvel_z,imu__acc_x,imu__acc_y,imu__acc_z,wheel_status__current_ma_left,wheel_status__current_ma_right,wheel_status__pwm_left,wheel_status__pwm_right
0.0,1788519282298,0.0,0.0,-0.0035842657089233,-0.0041742166504263,0.9740906953811646,0.2260912209749221,0.0001002110270375,-0.0001126187540353,-5.812429325350726e-07,-0.0005532153300009,-0.0005005273851566,0.0011004731059074,-0.005086432211101,0.0020539909601211,0.0964526683092117,0.9953224658966064,-0.000358415635168,-0.0001106028323948,0.000512971645426,-0.0174915790557861,-0.0267255902290344,-0.01318359375,0,0,0,0
0.1,1788519282398,0.0,0.0,-0.0035842657089233,-0.0041742166504263,0.9740906953811646,0.2260912209749221,0.0001002110270375,-0.0001126187540353,-5.812429325350726e-07,-0.0005532153300009,-0.0005005273851566,0.0011004731059074,-0.005086432211101,0.0020539909601211,0.0964526683092117,0.9953224658966064,-0.000358415635168,-0.0001106028323948,0.000512971645426,-0.0174915790557861,-0.0267255902290344,-0.01318359375,0,0,0,0
0.2,1788519282498,0.0,0.0,-0.0035842657089233,-0.0041742166504263,0.9740906953811646,0.2260912209749221,0.0001002110270375,-0.0001126187540353,-5.812429325350726e-07,-0.0005532153300009,-0.0005005273851566,0.0011004731059074,-0.005086432211101,0.0020539909601211,0.0964526683092117,0.9953224658966064,-0.000358415635168,-0.0001106028323948,0.000512971645426,-0.0174915790557861,-0.0267255902290344,-0.01318359375,0,0,0,0
0.3,1788519282598,0.0,0.0,-0.0035842657089233,-0.0041742166504263,0.9740906953811646,0.2260912209749221,0.0001002110270375,-0.0001126187540353,-5.812429325350726e-07,-0.0005532153300009,-0.0005005273851566,0.0011004731059074,-0.005086432211101,0.0020539909601211,0.0964526683092117,0.9953224658966064,-0.000358415635168,-0.0001106028323948,0.000512971645426,-0.0174915790557861,-0.0267255902290344,-0.01318359375,0,0,0,0
0.4,1788519282698,0.0,0.0,-0.0035842657089233,-0.0041742166504263,0.9740906953811646,0.2260912209749221,0.0001002110270375,-0.0001126187540353,-5.812429325350726e-07,-0.0005532153300009,-0.0005005273851566,0.0011004731059074,-0.0050926646217703,0.0020688287913799,0.0964941680431366,0.9953183531761168,-0.0002852469191346,0.0007211678720376,2.670260219857384e-05,-0.0064395070075988,0.0057100057601928,-0.0058393478393554,0,0,0,0
0.5,1788519282798,0.0,0.0,-0.0035842657089233,-0.0041742166504263,0.9740906953811646,0.2260912209749221,0.0001002110270375,-0.0001126187540353,-5.812429325350726e-07,-0.0005532153300009,-0.0005005273851566,0.0011004731059074,-0.0050730425864458,0.0020673517137765,0.0964722409844398,0.9953205585479736,-0.0004196239438293,-0.0004002497672409,-0.0001880130360578,-0.0119277238845825,-6.401538848876953e-05,0.0012845993041992,0,0,0,0
0.6,1788519282898,0.0,0.0,-0.0035842657089233,-0.0041742166504263,0.9740906953811646,0.2260912209749221,0.0001002110270375,-0.0001126187540353,-5.812429325350726e-07,-0.0005532153300009,-0.0005005273851566,0.0011004731059074,-0.0050730425864458,0.0020673517137765,0.0964722409844398,0.9953205585479736,-0.0004196239438293,-0.0004002497672409,-0.0001880130360578,-0.0119277238845825,-6.401538848876953e-05,0.0012845993041992,0,0,0,0
0.7,1788519282998,0.0,0.0,-0.003564404323697,-0.0041734562255442,0.9740922451019288,0.2260845899581909,7.995958927369845e-05,-9.827657668077727e-05,-5.471894381993387e-07,-0.0005052534397691,-0.0008727914537303,0.0009787164162844,-0.0050929021090269,0.0020003961399197,0.0964917168021202,0.9953187108039856,4.721475788405402e-05,-0.0004687373239105,0.0004477015326775,0.0029872059822082,-0.0120688080787658,-0.0022954940795898,0,0,0,0
0.8,1788519283098,0.0,0.0,-0.0035306951031088,-0.0041872654110193,0.9740850925445556,0.2261154055595398,-7.12923535590775e-05,8.089018708068525e-05,4.278851539538168e-07,-0.0001825233484851,-0.0013886699452996,-0.0008321971399709,-0.0050919009372591,0.0019869850948452,0.0964878350496292,0.9953191876411438,9.312281748351928e-05,-0.0005796072166067,-0.0009018518068975,0.0153430700302124,-0.0138023495674133,-0.0130252838134765,0,0,0,0
0.9,1788519283198,0.0,0.0,-0.003519014455378,-0.0041722538881003,0.9740902781486512,0.2260935753583908,5.499596376096816e-05,-6.872776855358734e-05,-3.987354837783885e-07,0.0006601415225304,0.0006152755231596,0.0006742950063198,-0.0050428686663508,0.0020070914179086,0.0965166538953781,0.9953165054321288,0.0012233724513701,-0.0002402212621036,-0.0009531474842448,0.0101820826530456,0.0156842470169067,0.0050420761108398,0,0,0,0
1.0,1788519283298,0.0,0.0,-0.003519014455378,-0.0041722538881003,0.9740902781486512,0.2260935753583908,5.499596376096816e-05,-6.872776855358734e-05,-3.987354837783885e-07,0.0006601415225304,0.0006152755231596,0.0006742950063198,-0.0050328997895121,0.0020231492817401,0.0965285971760749,0.9953154921531676,-0.0002206525323716,0.0005497595272359,0.0006003628070481,-0.0020119547843933,0.0011841654777526,-0.0130262374877929,0,0,0,0
1.1,1788519283398,0.0,0.0,-0.0035173236392438,-0.0041212360374629,0.9740992188453674,0.2260562032461166,0.0001157506348601,-0.0001328464669116,-7.026477311571956e-07,0.0003110199177172,8.193368557840586e-05,0.0012712135212495,-0.0050276424735784,0.0020166160538792,0.0965510383248329,0.9953132271766664,0.000170191947237,-5.346897436216253e-05,0.0002572226827658,0.001425564289093,-0.0078775882720947,-0.0076494216918945,0,0,0,0
1.2,1788519283498,0.0,0.0,-0.0035173236392438,-0.0041212360374629,0.9740992188453674,0.2260562032461166,0.0001157506348601,-0.0001328464669116,-7.026477311571956e-07,0.0003110199177172,8.193368557840586e-05,0.0012712135212495,-0.0050347317010164,0.0020226715132594,0.0965701714158058,0.995311439037323,0.0002287506352364,-1.905310961077824e-05,2.6447224273260075e-05,-0.0020213723182678,-0.0220932364463806,-0.0095109939575195,0,0,0,0
1.3,1788519283598,0.0,0.0,-0.0035432018339633,-0.0041281408630311,0.9741114974021912,0.2260024845600128,9.714029642281786e-05,-0.000111511934249,-5.901551403675365e-07,-0.0002062884013867,0.001039759023115,0.0011008995352312,-0.0050408393144607,0.0020426623523235,0.0966019853949546,0.9953082203865052,-0.0002731954302145,0.0013136395742584,0.0020717103845691,-0.0052533149719238,0.0048906207084655,0.0013694763183593,0,0,0,0
1.4,1788519283698,0.0,0.0,-0.0034860600717365,-0.0040811700746417,0.9741121530532836,0.2260016649961471,0.0,0.0,0.0,0.0007507164264097,-0.0002300705818925,2.562858753663022e-05,-0.0049905823543667,0.0020149312913417,0.0966068804264068,0.9953081011772156,0.0007159905689253,0.0004456019074406,0.0002244780139677,0.0119521021842956,0.0128476619720458,0.0302257537841796,0,0,0,0
1.5,1788519283798,0.0,0.0,-0.0034860600717365,-0.0040811700746417,0.9741121530532836,0.2260016649961471,0.0,0.0,0.0,0.0007507164264097,-0.0002300705818925,2.562858753663022e-05,-0.0050055915489792,0.0019736848771572,0.0966211259365081,0.995306670665741,-0.0008992089644162,3.310532444766477e-05,0.0007839166477971,0.0130629539489746,-0.0118117928504943,0.0103940963745117,0,0,0,0
1.6,1788519283898,0.0,0.0,-0.0034860600717365,-0.0040811700746417,0.9741121530532836,0.2260016649961471,0.0,0.0,0.0,0.0007507164264097,-0.0002300705818925,2.562858753663022e-05,-0.0050190603360533,0.001957856118679,0.0966242551803588,0.9953063726425172,-0.0006591257757796,-0.0001004256526934,0.0002172477455642,-0.0123565793037414,0.0118516683578491,0.0086050033569335,0,0,0,0
1.7,1788519283998,0.0,0.0,-0.0034836148843169,-0.0041483407840132,0.9741235375404358,0.2259508818387985,2.50256093857378e-05,-2.965963624624548e-05,-1.6324466864751165e-07,-0.0004869127296842,0.0003890963562298,0.0003094240673817,-0.0050561921671032,0.0020030997693538,0.0966564193367958,0.99530291557312,-0.0001064166505754,0.0010215105901276,-0.0007256916422279,0.0029699206352233,-0.0270097255706787,0.0085315704345703,0,0,0,0
1.8,1788519284098,0.0,0.0,-0.0035033728927373,-0.0041563594713807,0.9741223454475404,0.2259556204080581,-2.186426906226709e-05,2.2207374313556e-05,1.0704229614099197e-07,-0.0005069398321211,0.0007216535159386,-0.0002001812681555,-0.0050442526116967,0.0019835727289319,0.0966461226344108,0.9953041076660156,-0.001182520823631,0.0001211947274716,0.0014144868502707,0.0224788784980773,0.0124678611755371,-0.0271215438842773,0,0,0,0
1.9,1788519284198,0.0,0.0,-0.0034892703406512,-0.0041477750055491,0.9741225838661194,0.2259551435708999,9.064495683294172e-05,-0.0001074220496144,-5.877712909092898e-07,-0.0008455067290924,8.670128590893e-05,0.0010113411117345,-0.0050375256687402,0.0020170034840703,0.0966650620102882,0.9953022003173828,0.0004189387513569,0.0005659669525945,0.0010213696508092,-0.014675498008728,-0.0147401690483093,-0.0094165802001953,0,0,0,0
2.0,1788519284298,0.0,0.0,-0.0034892703406512,-0.0041477750055491,0.9741225838661194,0.2259551435708999,9.064495683294172e-05,-0.0001074220496144,-5.877712909092898e-07,-0.0008455067290924,8.670128590893e-05,0.0010113411117345,-0.0050375256687402,0.0020170034840703,0.0966650620102882,0.9953022003173828,0.0004189387513569,0.0005659669525945,0.0010213696508092,-0.014675498008728,-0.0147401690483093,-0.0094165802001953,0,0,0,0
2.1,1788519284398,0.0,0.0,-0.0034892703406512,-0.0041477750055491,0.9741225838661194,0.2259551435708999,9.064495683294172e-05,-0.0001074220496144,-5.877712909092898e-07,-0.0008455067290924,8.670128590893e-05,0.0010113411117345,-0.0049789417535066,0.0020057708024978,0.0967079401016235,0.9952983260154724,0.0013495487219218,-0.0003661392777858,0.0008876901427629,0.0047577023506164,-0.0014941096305847,-0.0092496871948242,0,0,0,0
2.2,1788519284498,0.0,0.0,-0.0035026411060243,-0.0041035180911421,0.9741327166557312,0.2259120792150497,3.357194439817585e-05,-4.6930322507623525e-05,-2.846069571758408e-07,0.0002504044387023,0.0008142451988533,0.0004245110321789,-0.0050047039985656,0.0020043440163135,0.0967383310198783,0.9952952861785888,0.0004006310986584,-4.9010180740953386e-05,7.642654620348159e-05,0.0082265138626098,0.0024641156196594,0.0249357223510742,0,0,0,0
2.3,1788519284598,0.0,0.0,-0.0034967400133609,-0.0041002938523888,0.9741438627243042,0.2258641570806503,-1.0278218417113296e-05,2.0972064431753964e-05,1.502685175255266e-07,0.0005698669701814,0.0002238983142888,-0.0001379449968226,-0.0050047039985656,0.0020043440163135,0.0967383310198783,0.9952952861785888,0.0004006310986584,-4.9010180740953386e-05,7.642654620348159e-05,0.0082265138626098,0.0024641156196594,0.0249357223510742,0,0,0,0
2.4,1788519284698,0.0,0.0,-0.0035250731743872,-0.0041336733847856,0.9741455912590028,0.2258559316396713,-5.336640022531985e-05,6.676722449809696e-05,3.77439301164685e-07,-0.000475359527627,0.0006966881337575,-0.0006327503942884,-0.0050047039985656,0.0020043440163135,0.0967383310198783,0.9952952861785888,0.0004006310986584,-4.9010180740953386e-05,7.642654620348159e-05,0.0082265138626098,0.0024641156196594,0.0249357223510742,0,0,0,0
2.5,1788519284798,0.0,0.0,-0.0035584222059696,-0.0041196723468601,0.9741523861885072,0.225826010107994,5.013641466738344e-05,-5.944967537066672e-05,-3.192844315213124e-07,0.0002055638033198,8.595551480539143e-05,0.0005570116336457,-0.0050510773435235,0.0020615626126527,0.096779279410839,0.995290994644165,-0.0010492922944658,0.0004341785291884,0.0007498325784823,-0.0047715902328491,-0.0001651048660278,-0.0110101699829101,0,0,0,0
2.6,1788519284898,0.0,0.0,-0.0035707773640751,-0.0041341697797179,0.9741517901420592,0.2258283495903015,6.142793481241466e-05,-8.029505481740377e-05,-4.5789376371085125e-07,-0.0019603599794209,0.0006120533798821,0.0007937012123875,-0.0050443261861801,0.0020492495968937,0.0967815220355987,0.995290756225586,0.0012087548543733,-0.0002292564989077,0.0006173494343017,-0.0158604979515075,-0.0021265745162963,0.0033149719238281,0,0,0,0
2.7,1788519284998,0.0,0.0,-0.0035707773640751,-0.0041341697797179,0.9741517901420592,0.2258283495903015,6.142793481241466e-05,-8.029505481740377e-05,-4.5789376371085125e-07,-0.0019603599794209,0.0006120533798821,0.0007937012123875,-0.0050196861848235,0.0020470796152949,0.096799150109291,0.9952890872955322,0.0012201248754405,-0.0002327826125584,0.0008922234046787,0.0163367390632629,-0.0008525848388671,0.0142402648925781,0,0,0,0
2.8,1788519285098,0.0,0.0,-0.0035458337515592,-0.0041038510389626,0.974157691001892,0.225803717970848,7.23120788820658e-05,-8.213987572368027e-05,-4.2664172925821803e-07,0.0009534973069094,-1.806214095267933e-05,0.000786448305007,-0.0050071300938725,0.002040865831077,0.0968854874372482,0.9952808618545532,0.0004218909570365,-9.301191547037988e-05,-0.0004545595160564,-0.0053399801254272,0.0007206201553344,0.0123748779296875,0,0,0,0
2.9,1788519285198,0.0,0.0,-0.0035327239893376,-0.004091911483556,0.9741755723953248,0.2257270663976669,-4.979673274583212e-05,5.907833915526124e-05,3.156748570380875e-07,0.0004155148926656,-1.2462701306503732e-05,-0.0006049443036317,-0.0049893530085682,0.0020407494157552,0.0968751832842826,0.9952818751335144,0.0002788920538384,0.0003017721686637,0.0006136357387539,0.01800137758255,0.0022016167640686,0.0071039199829101,0,0,0,0
3.0,1788519285298,0.0,0.0,-0.0035249690990895,-0.0040783174335956,0.974174439907074,0.2257319986820221,2.6335948951585837e-05,-3.124103175390536e-05,-1.6610184821649738e-07,0.0004711225628852,-0.0001569666637806,0.0003549097455106,-0.0049893530085682,0.0020407494157552,0.0968751832842826,0.9952818751335144,0.0002788920538384,0.0003017721686637,0.0006136357387539,0.01800137758255,0.0022016167640686,0.0071039199829101,0,0,0,0
3.1,1788519285398,0.0,0.0,-0.0035131773911416,-0.0040911613032221,0.974162459373474,0.2257838398218155,-2.5162173192841803e-05,2.55751830742832e-05,1.1802519398866716e-07,-0.0004587013681884,-0.000161365387612,-0.0002673320414032,-0.0050057703629136,0.0019920337945222,0.0968555957078933,0.9952839016914368,-0.0001136660492742,-0.0007168958460994,-1.2731345449490574e-05,-0.0099183917045593,0.0061579346656799,0.0231742858886718,0,0,0,0
3.2,1788519285498,0.0,0.0,-0.003492368850857,-0.0041117798537015,0.9741710424423218,0.2257468849420547,2.5467423286089805e-05,-3.0208945751367302e-05,-1.624244479896616e-07,-0.0006091421819292,-0.0002423279802314,0.0003144442744087,-0.0050355941057205,0.0019619259983301,0.0968381315469741,0.9952855110168456,-0.001321869799606,-0.0009887121838481,-9.329834369598168e-05,0.0058304667472839,0.0176828503608703,-0.0018472671508789,0,0,0,0
3.3,1788519285598,0.0,0.0,-0.0034679230302572,-0.0041527561843395,0.9741645455360411,0.2257745712995529,-5.179820876249588e-05,6.144069466317729e-05,3.3373441306260297e-07,-0.0013183288974687,-0.0010929765412583,-0.0006389314075931,-0.0050526559352874,0.0019745454192161,0.0968396514654159,0.9952852129936218,-0.0007876727158162,0.0007097930766958,7.891419461818884e-05,-0.0136050581932067,-0.0250760316848754,-0.011087417602539,0,0,0,0
3.4,1788519285698,0.0,0.0,-0.0034679230302572,-0.0041527561843395,0.9741645455360411,0.2257745712995529,-5.179820876249588e-05,6.144069466317729e-05,3.3373441306260297e-07,-0.0013183288974687,-0.0010929765412583,-0.0006389314075931,-0.0050581526011228,0.0020114500075578,0.0968283265829086,0.9952861666679382,-0.0004764351599971,-4.213022281164272e-05,-0.0003704954876815,-0.0002685189247131,-0.0160318613052368,-0.0163774490356445,0,0,0,0
3.5,1788519285798,0.0,0.0,-0.0035258373245596,-0.0041538747027516,0.9741705656051636,0.2257477343082428,5.471223746546383e-05,-6.067430704219943e-05,-3.141025075628984e-07,-0.000213860621443,9.281467646360396e-05,0.0006249455618672,-0.0050581526011228,0.0020114500075578,0.0968283265829086,0.9952861666679382,-0.0004764351599971,-4.213022281164272e-05,-0.0003704954876815,-0.0002685189247131,-0.0160318613052368,-0.0163774490356445,0,0,0,0
3.6,1788519285898,0.0,0.0,-0.0035258373245596,-0.0041538747027516,0.9741705656051636,0.2257477343082428,5.471223746546383e-05,-6.067430704219943e-05,-3.141025075628984e-07,-0.000213860621443,9.281467646360396e-05,0.0006249455618672,-0.0050523187965154,0.0020229322835803,0.0968350693583488,0.9952855706214904,-0.0004809536527903,0.0008471191976386,0.0007092909420564,-0.0038946270942687,-0.0002555847167968,0.0447502136230468,0,0,0,0
3.7,1788519285998,0.0,0.0,-0.0035194924566894,-0.0041462918743491,0.9741619229316713,0.2257853001356125,-2.0986072869522105e-05,2.133030686356446e-05,1.0135804192052285e-07,-0.0003295090864412,0.0001007895989459,-0.0001880691270343,-0.0050844270735979,0.0020040227100253,0.0967623740434646,0.9952925443649292,1.5428664296949743e-05,-0.0002126246975513,-0.000996686496403,-0.0076063275337219,0.0167508125305175,0.0017013549804687,0,0,0,0
3.8,1788519286098,0.0,0.0,-0.0035194924566894,-0.0041462918743491,0.9741619229316713,0.2257853001356125,-2.0986072869522105e-05,2.133030686356446e-05,1.0135804192052285e-07,-0.0003295090864412,0.0001007895989459,-0.0001880691270343,-0.0050876671448349,0.0019859336316585,0.096769280731678,0.9952918887138368,-0.0002502237154314,-0.0008882871895608,0.0003427909966686,-0.011572778224945,0.0240024328231811,0.0089015960693359,0,0,0,0
3.9,1788519286198,0.0,0.0,-0.0035194924566894,-0.0041462918743491,0.9741619229316713,0.2257853001356125,-2.0986072869522105e-05,2.133030686356446e-05,1.0135804192052285e-07,-0.0003295090864412,0.0001007895989459,-0.0001880691270343,-0.0050674397498369,0.0019728587940335,0.0967682525515556,0.9952921271324158,0.0009392946966163,-0.0007449557085243,-5.341874217587266e-05,-0.0029153227806091,0.0092310905456542,0.0160608291625976,0,0,0,0
4.0,1788519286298,0.0,0.0,-0.0035194924566894,-0.0041462918743491,0.9741619229316713,0.2257853001356125,-2.0986072869522105e-05,2.133030686356446e-05,1.0135804192052285e-07,-0.0003295090864412,0.0001007895989459,-0.0001880691270343,-0.0050566373392939,0.0019730301573872,0.0967193618416786,0.9952969551086426,0.0002194244849459,4.224452405932085e-05,0.0012622474701655,-0.0029411315917968,-0.0017750263214111,0.0196027755737304,0,0,0,0
4.1,1788519286398,0.0,0.0,-0.0034815622493624,-0.0041629541665315,0.9741394519805908,0.2258822321891784,0.0,0.0,0.0,-1.2299074114707764e-05,-0.0002218157169409,2.213833431596868e-05,-0.0050566373392939,0.0019730301573872,0.0967193618416786,0.9952969551086426,0.0002194244849459,4.224452405932085e-05,0.0012622474701655,-0.0029411315917968,-0.0017750263214111,0.0196027755737304,0,0,0,0
4.2,1788519286498,0.0,0.0,-0.0035164835862815,-0.0041891857981681,0.974141240119934,0.2258734852075576,-3.0193357357590087e-05,3.946412283975251e-05,2.3452107950173465e-07,-0.0001197193560074,-0.0002164845645893,-0.0004105098487343,-0.0050931395962834,0.0020003020763397,0.0967235043644905,0.99529629945755,-0.0001070333630868,0.0006179564627129,-0.000171513980765,0.0228024125099182,-0.0065209865570068,0.021484375,0,0,0,0
4.3,1788519286598,0.0,0.0,-0.003529698587954,-0.0042015723884105,0.9741393327713012,0.2258815020322799,-3.399677186747339e-05,4.4433514626056206e-05,2.6467684117068337e-07,-0.0006917492719367,0.0004655415250454,-0.0003792309144046,-0.0051040099933743,0.0019505182281136,0.0967352911829948,0.9952951669692992,0.0004422876695543,-0.0005697934121381,0.0002544085948629,0.0074520707130432,-0.0134345293045043,0.0285682678222656,0,0,0,0
4.4,1788519286698,0.0,0.0,-0.0034675574861466,-0.0042071188800036,0.9741390347480774,0.2258836179971695,-4.56167715286532e-05,5.056466932684101e-05,2.722430497905113e-07,0.0009793430799618,-0.0010642999550327,-0.0005296926246955,-0.0050923759117722,0.0019483510404825,0.0967064797878265,0.9952979683876038,-0.000114670703764,5.443374253400559e-05,-0.0005924858800727,0.002113938331604,-0.0207272171974182,0.0015602111816406,0,0,0,0
4.5,1788519286798,0.0,0.0,-0.0034807580523192,-0.0042199282906949,0.9741306900978088,0.2259190380573272,-0.0001044543381128,0.0001273802407208,7.358174082736745e-07,-0.0007421898189932,0.0004250283236615,-0.0012462805025279,-0.0051028709858655,0.0019445810467004,0.0966910943388938,0.9952994585037231,-0.0004304698110344,-0.0001063728996362,-0.0006189516352397,-0.0015555620193481,0.0171815752983093,0.0070905685424804,0,0,0,0
4.6,1788519286898,0.0,0.0,-0.0034807580523192,-0.0042199282906949,0.9741306900978088,0.2259190380573272,-0.0001044543381128,0.0001273802407208,7.358174082736745e-07,-0.0007421898189932,0.0004250283236615,-0.0012462805025279,-0.0050933063030242,0.0019009718671441,0.0966726318001747,0.995301365852356,1.9135897025837493e-05,-0.0001976393239003,-0.0006801740303096,0.0011827945709228,0.0099101662635803,0.0034666061401367,0,0,0,0
4.7,1788519286998,0.0,0.0,-0.0034471461549401,-0.004236142616719,0.9741266965866088,0.2259365171194076,-6.387123385213247e-05,7.988262312561891e-05,4.768505913214573e-07,-0.0008216716814786,0.0009686526027508,-0.0007564527913928,-0.0051273796707391,0.0019264239817857,0.0966469794511795,0.9953036904335022,-0.0006498286456599,-0.0004803411014438,-0.0001938297139597,0.0072404742240905,0.0142259001731872,-0.0216407775878906,0,0,0,0
4.8,1788519287098,0.0,0.0,-0.0034541860222816,-0.0042338012717664,0.9741231203079224,0.2259517908096313,-2.525646035725815e-05,2.9934997144239888e-05,1.717076260903379e-07,0.0003550546825863,-0.0006561749032698,-0.0003301005053799,-0.0051627689972519,0.0019053351134061,0.0966251119971275,0.9953056573867798,5.964003569710095e-05,-0.0014531360752525,0.0011995419660411,-0.0255091786384582,0.0130921602249145,-0.005624771118164,0,0,0,0
4.9,1788519287198,0.0,0.0,-0.0034541860222816,-0.0042338012717664,0.9741231203079224,0.2259517908096313,-2.525646035725815e-05,2.9934997144239888e-05,1.717076260903379e-07,0.0003550546825863,-0.0006561749032698,-0.0003301005053799,-0.0051627689972519,0.0019053351134061,0.0966251119971275,0.9953056573867798,5.964003569710095e-05,-0.0014531360752525,0.0011995419660411,-0.0255091786384582,0.0130921602249145,-0.005624771118164,0,0,0,0
5.0,1788519287298,0.0,0.0,-0.0034541860222816,-0.0042338012717664,0.9741231203079224,0.2259517908096313,-2.525646035725815e-05,2.9934997144239888e-05,1.717076260903379e-07,0.0003550546825863,-0.0006561749032698,-0.0003301005053799,-0.0051627689972519,0.0019053351134061,0.0966251119971275,0.9953056573867798,5.964003569710095e-05,-0.0014531360752525,0.0011995419660411,-0.0255091786384582,0.0130921602249145,-0.005624771118164,0,0,0,0
5.1,1788519287398,0.0,0.0,-0.0034541860222816,-0.0042338012717664,0.9741231203079224,0.2259517908096313,-2.525646035725815e-05,2.9934997144239888e-05,1.717076260903379e-07,0.0003550546825863,-0.0006561749032698,-0.0003301005053799,-0.0051627689972519,0.0019053351134061,0.0966251119971275,0.9953056573867798,5.964003569710095e-05,-0.0014531360752525,0.0011995419660411,-0.0255091786384582,0.0130921602249145,-0.005624771118164,0,0,0,0
5.2,1788519287498,0.0,0.0,-0.0033730282448232,-0.0042826826684176,0.974113941192627,0.2259917855262756,-7.870374945611146e-05,8.492964439195614e-05,4.759810404766908e-07,0.0005420395173132,0.0002259743487229,-0.0008796363836154,-0.0051643056795001,0.0017735920846462,0.0966721326112747,0.9953013062477112,0.0012927722761493,0.0001422939321956,-0.0005335987900257,0.0131918787956237,0.0007457733154296,0.0070629119873046,0,0,0,0
5.3,1788519287598,0.0,0.0,-0.0033276050817221,-0.0043385112658143,0.9741286039352416,0.2259281724691391,-2.5673175586005177e-05,2.607891714794791e-05,1.4398107400015384e-07,0.0006891100201755,-0.0002821829693857,-0.000262552552158,-0.0051643056795001,0.0017735920846462,0.0966721326112747,0.9953013062477112,0.0012927722761493,0.0001422939321956,-0.0005335987900257,0.0131918787956237,0.0007457733154296,0.0070629119873046,0,0,0,0
5.4,1788519287698,0.0,0.0,-0.0033276050817221,-0.0043385112658143,0.9741286039352416,0.2259281724691391,-2.5673175586005177e-05,2.607891714794791e-05,1.4398107400015384e-07,0.0006891100201755,-0.0002821829693857,-0.000262552552158,-0.0051690973341465,0.001803227700293,0.0966748148202896,0.9953009486198424,-0.0002887232284544,0.0004910403577333,-0.0001823204858035,-0.0040445923805236,0.0025017261505126,0.0224628448486328,0,0,0,0
5.5,1788519287798,-2.2253520488739014,2.2253520488739014,-0.0034622848033905,-0.0044018346816301,0.974269151687622,0.2253180891275406,0.0018301811936434,-0.0022814398537104,2.2017252053154527e-06,-0.0043719005770981,0.0039343447424471,0.0292481072247028,-0.0051690973341465,0.001803227700293,0.0966748148202896,0.9953009486198424,-0.0002887232284544,0.0004910403577333,-0.0001823204858035,-0.0040445923805236,0.0025017261505126,0.0224628448486328,29,217,-6483,10812
5.6,1788519287898,-2.05633807182312,2.0281689167022705,-0.0034622848033905,-0.0044018346816301,0.974269151687622,0.2253180891275406,0.0018301811936434,-0.0022814398537104,2.2017252053154527e-06,-0.0043719005770981,0.0039343447424471,0.0292481072247028,-0.0056280018761754,0.0020996192470192,0.1272861659526825,0.9918479323387146,-0.0097102305675964,-0.0093069153479195,0.7885030516109605,0.2153918743133545,-0.5033490657806396,-0.6647701263427734,29,217,-6483,10812
5.7,1788519287998,-2.05633807182312,2.0281689167022705,-0.0034622848033905,-0.0044018346816301,0.974269151687622,0.2253180891275406,0.0018301811936434,-0.0022814398537104,2.2017252053154527e-06,-0.0043719005770981,0.0039343447424471,0.0292481072247028,-0.0055292416363954,0.0020756665617227,0.1809141188859939,0.983481228351593,0.0004809263541544,-0.0140587635761798,0.7082916974700764,0.0273428559303283,-0.1227406859397888,-0.5203304290771484,73,275,-7916,11698
5.8,1788519288098,-2.05633807182312,2.0281689167022705,-0.0034622848033905,-0.0044018346816301,0.974269151687622,0.2253180891275406,0.0018301811936434,-0.0022814398537104,2.2017252053154527e-06,-0.0043719005770981,0.0039343447424471,0.0292481072247028,-0.0055292416363954,0.0020756665617227,0.1809141188859939,0.983481228351593,0.0004809263541544,-0.0140587635761798,0.7082916974700764,0.0273428559303283,-0.1227406859397888,-0.5203304290771484,73,275,-7916,11698
5.9,1788519288198,-2.05633807182312,2.0281689167022705,-0.0034622848033905,-0.0044018346816301,0.974269151687622,0.2253180891275406,0.0018301811936434,-0.0022814398537104,2.2017252053154527e-06,-0.0043719005770981,0.0039343447424471,0.0292481072247028,-0.0054548736661672,0.0017602043226361,0.2184556424617767,0.9758301377296448,-0.002787488903313,-0.0164697061417562,0.6911211972170873,0.2102952599525451,-0.0715653300285339,0.0159101486206054,73,275,-7916,11698
6.0,1788519288298,-2.11267614364624,2.197183132171631,-0.0034622848033905,-0.0044018346816301,0.974269151687622,0.2253180891275406,0.0018301811936434,-0.0022814398537104,2.2017252053154527e-06,-0.0043719005770981,0.0039343447424471,0.0292481072247028,-0.0050783958286046,0.0018691513687372,0.2661094963550567,0.9639276266098022,-0.0043881387162461,0.0006778894518144,0.7197109531348238,0.5242414474487305,-0.3306357860565185,0.1203289031982421,65,260,-7374,11349
6.1,1788519288398,-2.197183132171631,2.11267614364624,-0.0029190462082624,-0.0038678501732647,0.9995304942131042,0.0302542466670274,0.0111591863303326,-0.0077195703448553,4.989326916752926e-06,0.0090374946594238,-0.0249849949032068,0.6008943319320679,-0.0036188662052154,0.001697601750493,0.3180787861347198,0.948055863380432,0.0087289845955395,0.0185660850870467,0.7146564916275906,-0.0439937114715576,-0.2202249765396118,0.1559200286865234,65,260,-7374,11349
6.2,1788519288498,-2.197183132171631,2.11267614364624,-0.0029190462082624,-0.0038678501732647,0.9995304942131042,0.0302542466670274,0.0111591863303326,-0.0077195703448553,4.989326916752926e-06,0.0090374946594238,-0.0249849949032068,0.6008943319320679,-0.0036188662052154,0.001697601750493,0.3180787861347198,0.948055863380432,0.0087289845955395,0.0185660850870467,0.7146564916275906,-0.0439937114715576,-0.2202249765396118,0.1559200286865234,65,260,-7374,11349
6.3,1788519288598,-2.197183132171631,2.11267614364624,-0.0029190462082624,-0.0038678501732647,0.9995304942131042,0.0302542466670274,0.0111591863303326,-0.0077195703448553,4.989326916752926e-06,0.0090374946594238,-0.0249849949032068,0.6008943319320679,-0.0036188662052154,0.001697601750493,0.3180787861347198,0.948055863380432,0.0087289845955395,0.0185660850870467,0.7146564916275906,-0.0439937114715576,-0.2202249765396118,0.1559200286865234,65,260,-7374,11349
6.4,1788519288698,-2.197183132171631,2.11267614364624,-0.0029190462082624,-0.0038678501732647,0.9995304942131042,0.0302542466670274,0.0111591863303326,-0.0077195703448553,4.989326916752926e-06,0.0090374946594238,-0.0249849949032068,0.6008943319320679,-0.0036188662052154,0.001697601750493,0.3180787861347198,0.948055863380432,0.0087289845955395,0.0185660850870467,0.7146564916275906,-0.0439937114715576,-0.2202249765396118,0.1559200286865234,65,260,-7374,11349
6.5,1788519288798,-2.197183132171631,2.11267614364624,-0.0029190462082624,-0.0038678501732647,0.9995304942131042,0.0302542466670274,0.0111591863303326,-0.0077195703448553,4.989326916752926e-06,0.0090374946594238,-0.0249849949032068,0.6008943319320679,-0.0036188662052154,0.001697601750493,0.3180787861347198,0.948055863380432,0.0087289845955395,0.0185660850870467,0.7146564916275906,-0.0439937114715576,-0.2202249765396118,0.1559200286865234,65,260,-7374,11349
6.6,1788519288898,-2.197183132171631,2.11267614364624,0.0031512081623077,0.0057114120572805,-0.982678472995758,0.1852037757635116,0.0091393372206478,-0.00724541492925,-3.436026947159705e-07,-0.0157741643488407,-0.0403879657387733,0.7577183842658997,-0.0063769351691007,-0.0003285054117441,0.5125919580459595,0.8586085438728333,-0.0287208431665782,-0.0307370972392247,0.7073934148884008,-0.2146322727203369,-0.1617719531059265,-0.0598745346069335,65,260,-7374,11349
6.7,1788519288998,-2.197183132171631,2.11267614364624,0.0015256871702149,0.0062414365820586,-0.9761617183685304,0.2169491350650787,0.0007139488786765,-0.0027285292899126,3.79613403184455e-06,-0.0274084657430648,-0.0390625372529029,0.7547171115875244,-0.0063769351691007,-0.0003285054117441,0.5125919580459595,0.8586085438728333,-0.0287208431665782,-0.0307370972392247,0.7073934148884008,-0.2146322727203369,-0.1617719531059265,-0.0598745346069335,65,260,-7374,11349
6.8,1788519289098,-2.985915422439575,2.7323944568634038,0.0001748331123962,0.007202077191323,-0.9654215574264526,0.2605941891670227,0.0009246829914154,-0.0023659039763701,-1.1108791009392732e-06,-0.0222391225397586,-0.0120972022414207,0.7641746997833252,-0.006805489771068,-0.0021453211084008,0.5585832595825195,0.8294178247451782,-0.0067179688528565,-0.022572097225546,0.7786040566616227,-0.1051493883132934,0.2362220883369445,0.1543970108032226,131,352,-10531,15493
6.9,1788519289198,-2.5915493965148926,2.7323944568634038,0.0010799986775964,0.0078395465388894,-0.953826367855072,0.3002542555332184,0.0033528147979145,-0.0041945955474195,1.344950245938738e-06,-0.0187186263501644,0.0299045965075492,0.8879410624504089,-0.006805489771068,-0.0021453211084008,0.5585832595825195,0.8294178247451782,-0.0067179688528565,-0.022572097225546,0.7786040566616227,-0.1051493883132934,0.2362220883369445,0.1543970108032226,77,401,-9578,16164
7.0,1788519289298,-2.5915493965148926,2.7323944568634038,0.0018195037264376,0.0088894106447696,-0.941313087940216,0.3374126851558685,0.0081915548933974,-0.0036346762539673,-2.914233761598369e-06,-0.0036168959923088,-0.0047551370225846,0.7805808186531067,-0.0075316373258829,-0.0009120143949985,0.6450427174568176,0.7641088366508484,0.0384022825530709,-0.0292993941454057,0.8131687041869811,-0.1186696887016296,-0.2529035210609436,0.1001882553100586,77,401,-9578,16164
7.1,1788519289398,-2.8450703620910645,2.8450703620910645,0.0011096319649368,0.0067987591028213,-0.9281912446022034,0.3720398843288421,0.0053332360914429,-0.0080843226228151,-2.1751294645127225e-06,0.0479342564940452,-0.05545449629426,0.7968887686729431,-0.0042267506942152,-0.0009377263486385,0.6760495901107788,0.736843466758728,0.0274186341697431,-0.0090836151964907,0.8755726097469707,-0.3425977230072021,0.4149792790412903,0.8847408294677734,162,420,-11615,17085
7.2,1788519289498,-2.8450703620910645,2.8450703620910645,0.0003382341237738,0.0042767790146172,-0.9133849143981934,0.407074362039566,-0.0036419545765729,-0.0019907836985286,-5.00786631583472e-06,0.0206052605062723,-0.0252203196287155,0.8063327670097351,-0.0039195008575916,-0.0010280506685376,0.710749089717865,0.7034340500831604,-0.0045063649464978,0.0009459636100697,1.0388636683722152,-0.2151417136192321,-0.0894970893859863,-0.3884868621826172,162,420,-11615,17085
7.3,1788519289598,-2.8450703620910645,2.8450703620910645,0.000133269932121,0.0040351436473429,-0.8878634572029114,0.460089236497879,0.010889807757938,0.0025211117984944,4.1845273700219884e-06,-0.0038846302777528,-0.0123708574101328,1.0474343299865725,-0.0042766658589243,-0.0012320522218942,0.7459639310836792,0.6659713983535767,-0.0090750185760955,0.0381862566369052,0.9716278818893032,0.071868360042572,0.0981938242912292,-0.3307504653930664,162,420,-11615,17085
7.4,1788519289698,-3.1549296379089355,3.633802890777588,0.000133269932121,0.0040351436473429,-0.8878634572029114,0.460089236497879,0.010889807757938,0.0025211117984944,4.1845273700219884e-06,-0.0038846302777528,-0.0123708574101328,1.0474343299865725,-0.0042766658589243,-0.0012320522218942,0.7459639310836792,0.6659713983535767,-0.0090750185760955,0.0381862566369052,0.9716278818893032,0.071868360042572,0.0981938242912292,-0.3307504653930664,70,145,-10085,12784
7.5,1788519289798,-3.014084577560425,3.070422649383545,0.000133269932121,0.0040351436473429,-0.8878634572029114,0.460089236497879,0.010889807757938,0.0025211117984944,4.1845273700219884e-06,-0.0038846302777528,-0.0123708574101328,1.0474343299865725,-0.0042766658589243,-0.0012320522218942,0.7459639310836792,0.6659713983535767,-0.0090750185760955,0.0381862566369052,0.9716278818893032,0.071868360042572,0.0981938242912292,-0.3307504653930664,54,178,-8577,11795
7.6,1788519289898,-2.929577350616455,2.901408433914185,0.000133269932121,0.0040351436473429,-0.8878634572029114,0.460089236497879,0.010889807757938,0.0025211117984944,4.1845273700219884e-06,-0.0038846302777528,-0.0123708574101328,1.0474343299865725,-0.0050556436181068,-0.0022308900952339,0.8300954103469849,0.5575940608978271,-0.0076091694258912,-0.01464401815888,0.9765720702982116,0.1661372184753418,-0.284378707408905,-0.2115116119384765,54,178,-8577,11795
7.7,1788519289998,-2.929577350616455,2.901408433914185,0.000133269932121,0.0040351436473429,-0.8878634572029114,0.460089236497879,0.010889807757938,0.0025211117984944,4.1845273700219884e-06,-0.0038846302777528,-0.0123708574101328,1.0474343299865725,-0.0047766305506229,-0.0024869078770279,0.8513579964637756,0.5245574712753296,-0.0026596114079366,-0.0124491687423777,0.8268883979249723,-0.0668907165527343,0.1087562441825866,0.4716348648071289,54,178,-8577,11795
7.8,1788519290098,-2.816901445388794,2.816901445388794,-0.0014242053730413,0.0047430731356143,-0.7576300501823425,0.6526654362678528,0.0039596611177097,0.0005195118686101,9.138109143730628e-07,0.0006922041648067,-0.0392372123897075,0.8789167404174805,-0.0037379525601863,-0.0023502893745899,0.8777439594268799,0.4791097640991211,-0.0040516994709227,0.0107184150827527,0.8766058850835703,0.057705819606781,-0.1147431135177612,0.0616531372070312,99,319,-9424,14163
7.9,1788519290198,-3.2957746982574463,3.2676055431365967,-0.0010698386467993,0.0042265569791197,-0.7301849126815796,0.683235764503479,-0.0044215866529625,-0.0071625743732025,-1.6205157221513108e-06,-0.0022109008859843,0.0029720910824835,0.875243604183197,-0.0032848911359906,-0.0022057546302676,0.8944995403289795,0.4470514059066772,0.0046276358232363,-0.0163479600496294,0.9229696497478248,-0.3305981159210205,0.5544050931930542,0.4668645858764648,99,319,-9424,14163
8.0,1788519290298,-3.2957746982574463,3.2676055431365967,-0.0011693482520058,0.0037987455725669,-0.6972562670707703,0.716810941696167,0.006521654805026,0.0082465890615082,1.00881026302276e-06,-0.0051916530355811,-0.0135519299656152,0.9682657718658448,-0.0027015004307031,-0.0026755556464195,0.9243847727775574,0.3814424574375152,-0.0101677352504993,-0.0207551610363459,1.1412446256077493,1.499218463897705,-0.0929821729660034,-0.3396778106689453,99,319,-9424,14163
8.1,1788519290398,-1.0140844583511353,6.704225540161133,-0.0011693482520058,0.0037987455725669,-0.6972562670707703,0.716810941696167,0.006521654805026,0.0082465890615082,1.00881026302276e-06,-0.0051916530355811,-0.0135519299656152,0.9682657718658448,-0.0028689075261354,-0.0026826234534382,0.9362483620643616,0.3513171374797821,-0.0016678819533464,0.0330445070844468,1.0742552382523918,0.3394273519515991,0.3192518949508667,-0.4867219924926758,99,319,-9424,14163
8.2,1788519290498,1.3239436149597168,8.309859275817871,-0.0011693482520058,0.0037987455725669,-0.6972562670707703,0.716810941696167,0.006521654805026,0.0082465890615082,1.00881026302276e-06,-0.0051916530355811,-0.0135519299656152,0.9682657718658448,-0.0021764189004898,-0.0032481979578733,0.9548990726470948,0.2969049513339996,-0.0235712081287177,-0.1008129672724821,0.8822960515788977,-0.0002043843269348,0.097117006778717,0.0138101577758789,76,255,5804,26847
8.3,1788519290598,1.3239436149597168,8.309859275817871,-0.0022361751180142,0.0037294023204594,-0.5778617858886719,0.8161230683326721,0.1719713391493288,0.0005386824886936,0.0002383200342522,-0.022201370447874,-0.0331724919378757,0.8837146162986755,-0.0035679517313838,-0.0034628147259354,0.9601527452468872,0.2794313728809356,-0.0306813635548911,0.0600754212530764,0.907338397033521,0.2625081539154053,0.575998067855835,-2.2820467948913574,76,255,5804,26847
8.4,1788519290698,1.3239436149597168,8.309859275817871,-0.0022361751180142,0.0037294023204594,-0.5778617858886719,0.8161230683326721,0.1719713391493288,0.0005386824886936,0.0002383200342522,-0.022201370447874,-0.0331724919378757,0.8837146162986755,-0.0068322988227009,-0.005606610327959,0.9753307700157166,0.2205716222524643,-0.0946814305705343,0.055006616362549,0.955658083092406,0.3274956941604614,0.5973271727561951,-0.9609498977661132,76,255,5804,26847
8.5,1788519290798,0.4788732528686523,3.492957830429077,-0.0035923405084758,0.0089964289218187,-0.4961943924427032,0.8681574463844299,0.1517099442531603,0.0066243038322222,-9.651426383535572e-05,-0.0025515912566334,-0.0237893238663673,0.8732005953788757,-0.0068322988227009,-0.005606610327959,0.9753307700157166,0.2205716222524643,-0.0946814305705343,0.055006616362549,0.955658083092406,0.3274956941604614,0.5973271727561951,-0.9609498977661132,74,233,2446,13596
8.6,1788519290898,0.0,1.380281686782837,-0.0022289857733994,0.004516206216067,-0.4679284989833832,0.8837519884109497,0.0803526376568067,0.003162486014395,1.526678651769429e-05,-0.0037088303361088,0.0006401833961717,0.556613564491272,-0.0033810548484325,-0.0032683555036783,0.9891311526298524,0.1469609290361404,0.0073449952109051,-0.0025996047384586,0.3253068041596119,-0.3139705061912536,-0.130980372428894,-0.0729522705078125,74,233,2446,13596
8.7,1788519290998,0.0,0.0,-0.0020474873017519,0.0043081520125269,-0.453969657421112,0.8910043835639954,0.0334538784463256,-0.0009639799363998,4.103439632344632e-06,-0.0009911025408655,-0.0035678383428603,0.2443969547748565,-0.0026878137141466,-0.0028827684000134,0.989544689655304,0.1441732347011566,0.0185421428557103,-0.0221022773766443,0.0129831031799058,0.0936733484268188,0.0205960869789123,0.0407905578613281,86,119,2526,4377
8.8,1788519291098,0.0,0.0,-0.0020474873017519,0.0043081520125269,-0.453969657421112,0.8910043835639954,0.0334538784463256,-0.0009639799363998,4.103439632344632e-06,-0.0009911025408655,-0.0035678383428603,0.2443969547748565,-0.0025874134153127,-0.0028065256774425,0.9895620942115784,0.1440568566322326,0.0006588185084899,-0.0023293037868456,0.0031563129105945,0.0364512801170349,0.0441479086875915,-0.000676155090332,0,0,0,0
8.9,1788519291198,0.0,0.0,-0.0018557542935013,0.0033533661626279,-0.4522724747657776,0.8918716311454773,4.848141108276716e-05,-4.739157542037749e-05,-9.134116624348608e-08,-0.0006130468682385,0.0003133655991405,0.0005321300122886,-0.0025698915123939,-0.0028303181752562,0.989564061164856,0.1440431624650955,4.632590125441593e-06,-0.0007151009942743,0.0006066529131222,0.0161625742912292,0.001333475112915,0.0277948379516601,0,0,0,0
9.0,1788519291298,0.0,0.0,-0.0018722130917012,0.003321302589029,-0.452278733253479,0.8918684720993042,-5.026841066212474e-05,6.045660765838242e-05,1.6867161430532792e-07,0.0004088012210559,-0.0013536070473492,-0.0006233324529603,-0.0025515705347061,-0.0028300005942583,0.9895637035369872,0.1440453082323074,0.0008204909361646,-0.0016850812098157,0.0003521585106876,0.042819857597351,0.0318762063980102,0.0118770599365234,0,0,0,0
9.1,1788519291398,0.0,0.0,-0.0018656745087355,0.0033208001405,-0.4522645175457001,0.891875684261322,0.0002976737343118,0.0001641658905413,-4.520274768287293e-07,0.000278269755654,0.0001135392230935,0.0007377656875178,-0.0025334041565656,-0.0028396397829055,0.9895736575126648,0.1439771056175232,-0.0001339846572511,-0.0012912395378702,0.0010412880345941,0.0263270735740661,-0.0182355642318725,0.0008172988891601,0,0,0,0
9.2,1788519291498,0.0,0.0,-0.0018748783040791,0.003314062487334,-0.4522117078304291,0.8919025659561157,6.721417525607794e-05,-7.344311454586702e-05,-1.8027856727439687e-07,-0.0001894945453386,-0.0004443061479832,0.0007565862615592,-0.0025250203907489,-0.0028531989082694,0.9895725846290588,0.143984779715538,-0.0005645100275954,-0.0016294128336958,0.0002192427276577,0.0009099841117858,-0.0198593139648437,0.0168638229370117,0,0,0,0
9.3,1788519291598,0.0,0.0,-0.0018748783040791,0.003314062487334,-0.4522117078304291,0.8919025659561157,6.721417525607794e-05,-7.344311454586702e-05,-1.8027856727439687e-07,-0.0001894945453386,-0.0004443061479832,0.0007565862615592,-0.0025345338508486,-0.0028704442083835,0.9895700216293336,0.1440017968416214,-0.0008596633641531,0.0003263953676416,-0.0008048160883093,0.0045976042747497,-0.0141467452049255,0.0258855819702148,0,0,0,0
9.4,1788519291698,0.0,0.0,-0.00191816536244,0.0033974098041653,-0.4521961212158203,0.8919100165367126,-7.359749115979896e-05,-0.0003777371538477,-1.6415403380713745e-07,-0.0020513178315013,0.0032154612708836,0.0016373217804357,-0.0025959145277738,-0.0029275193810462,0.989571452140808,0.1439893245697021,-0.0005269747638589,8.228497400712071e-05,-0.0004626639783824,-0.0105211734771728,-0.0254242420196533,0.0221834182739257,0,0,0,0
9.5,1788519291798,0.0,0.0,-0.00191816536244,0.0033974098041653,-0.4521961212158203,0.8919100165367126,-7.359749115979896e-05,-0.0003777371538477,-1.6415403380713745e-07,-0.0020513178315013,0.0032154612708836,0.0016373217804357,-0.0026988973841071,-0.0031311381608247,0.9896843433380128,0.1432057917118072,-0.0101791512731716,0.003167914931014,0.0403922906222793,0.7794157862663269,0.3990330100059509,0.031020164489746,0,0,0,0
9.6,1788519291898,0.0,0.0,-0.00191816536244,0.0033974098041653,-0.4521961212158203,0.8919100165367126,-7.359749115979896e-05,-0.0003777371538477,-1.6415403380713745e-07,-0.0020513178315013,0.0032154612708836,0.0016373217804357,-0.003094570711255,-0.0037088077515363,0.9915050864219666,0.1299780011177063,-0.0061926193170076,-0.0069816403139203,0.4066008353216113,-0.0822196006774902,0.1507044434547424,-0.5071954727172852,0,0,0,0
9.7,1788519291998,2.0,7.352112770080566,-0.00191816536244,0.0033974098041653,-0.4521961212158203,0.8919100165367126,-7.359749115979896e-05,-0.0003777371538477,-1.6415403380713745e-07,-0.0020513178315013,0.0032154612708836,0.0016373217804357,-0.003327889367938,-0.0048334812745451,0.9957559108734132,0.0918466001749038,-0.0230250493503487,-0.0070790257041595,0.7956450871729676,0.3358020186424255,0.1307164430618286,-1.591997146606445,0,0,0,0
9.8,1788519292098,2.197183132171631,8.309859275817871,-0.0035652220249176,0.0052405884489417,-0.3895528018474579,0.9209823608398438,0.1627629630943878,-0.0024825115588224,-4.054667864717542e-05,-0.0176049843430519,0.0147630600258708,0.8209323287010193,-0.003327889367938,-0.0048334812745451,0.9957559108734132,0.0918466001749038,-0.0230250493503487,-0.0070790257041595,0.7956450871729676,0.3358020186424255,0.1307164430618286,-1.591997146606445,70,320,7410,27323
9.9,1788519292198,2.3380281925201416,7.661972045898437,-0.0038825599476695,0.0047339056618511,-0.3508267700672149,0.9364203810691832,0.1746743830281763,0.0014970904141851,1.112702279500024e-05,-0.0034605592954903,-0.018847856670618,0.8714961409568787,0.0026148129254579,0.0047644898295402,-0.9999473690986632,0.0087046669796109,-0.0060955493267689,-0.0143310616593892,0.8135899405761335,0.0347397327423095,-0.141118049621582,-1.0646448135375977,104,227,8414,25306
10.0,1788519292298,2.3380281925201416,7.661972045898437,-0.0038825599476695,0.0047339056618511,-0.3508267700672149,0.9364203810691832,0.1746743830281763,0.0014970904141851,1.112702279500024e-05,-0.0034605592954903,-0.018847856670618,0.8714961409568787,0.0023059817031025,0.0047209616750478,-0.9992665648460388,0.0379317663609981,0.0049570291931608,-0.011379470567234,0.7662036638785885,-1.1090691089630127,0.1569688320159912,0.1439695358276367,104,227,8414,25306
10.1,1788519292398,-0.2253521084785461,3.436619758605957,-0.0038732935208827,0.003308952320367,-0.2550552487373352,0.9669129848480223,0.0503436349346854,-0.0081436046167347,-1.0780209575132935e-05,-0.0056325211189687,-0.0056168772280216,0.6743494272232056,0.0019019413739442,0.0045832842588424,-0.997118592262268,0.0756966769695282,0.009272678129885,-0.033079782254061,0.6239527470916837,-1.2771084308624268,0.5009735822677612,-0.5127229690551758,238,159,-7794,12212
10.2,1788519292498,-2.253521203994751,2.0,-0.0036856750957667,0.0034054014831781,-0.2400684207677841,0.9707430005073548,0.0078669929521962,-0.006168034899302,8.712688229041991e-07,0.0051616746932268,0.0029767372179776,0.6541734337806702,0.0019991928711533,0.0045442506670951,-0.9939073324203492,0.1101066917181015,-0.0045014878013792,0.0083623925673145,0.5835415440934592,0.2813422083854675,-0.1403933763504028,0.1092615127563476,128,176,-9218,9983
10.3,1788519292598,-1.7464789152145386,1.887323975563049,-0.0036685462109744,0.0033217489253729,-0.2118756026029586,0.9772841930389404,-0.0035832345971598,-0.0044399207697292,-1.8062429223120067e-06,-0.0041972701437771,0.0066418377682566,0.5941517949104309,0.0019991928711533,0.0045442506670951,-0.9939073324203492,0.1101066917181015,-0.0045014878013792,0.0083623925673145,0.5835415440934592,0.2813422083854675,-0.1403933763504028,0.1092615127563476,128,176,-9218,9983
10.4,1788519292698,-1.6056338548660278,1.380281686782837,-0.0036093173548579,0.0033764587715268,-0.1981950104236602,0.9801501631736756,0.006767986375021,-0.0048722282320365,-1.2311845252769449e-06,0.0004538370121736,0.0002519784902688,0.5583033561706543,0.0019991928711533,0.0045442506670951,-0.9939073324203492,0.1101066917181015,-0.0045014878013792,0.0083623925673145,0.5835415440934592,0.2813422083854675,-0.1403933763504028,0.1092615127563476,42,249,-5390,9186
10.5,1788519292798,-0.7042253613471985,1.0704225301742554,-0.0035106716677546,0.0032806971576064,-0.1706220060586929,0.9853248596191406,0.0017598230002875,-0.0044557492394706,7.052210213505054e-07,-0.0004358156293164,-0.0046229562722146,0.4697305858135223,0.0022488189861178,0.0043232906609773,-0.9856138229370116,0.1689432114362716,0.0028015111411206,-0.002121273714258,0.3204797880571507,0.4384278059005737,-0.280676782131195,-0.0738687515258789,102,166,-3676,6235
10.6,1788519292898,-0.7042253613471985,1.0704225301742554,-0.0033410142641514,0.0038840144407004,-0.1443535834550857,0.989512860774994,-0.0026653439071797,-0.0001606050814034,1.4759122328870898e-06,0.0009507007780484,0.0100694373250007,0.2388643622398376,0.0024126125499606,0.0043363692238926,-0.9844945669174194,0.1753450036048889,-0.0010766296993346,0.0059207677573517,0.1755011022680076,-0.4415884017944336,-0.071252703666687,-0.0660600662231445,83,324,-3791,6960
10.7,1788519292998,-0.7042253613471985,1.0704225301742554,-0.0032939221709966,0.0040107313543558,-0.1385826766490936,0.9903372526168824,-0.0001028330774768,-0.002443524553685,-2.99265832299123e-06,0.0004012218560092,0.0050906147807836,0.270532876253128,0.0029634498059749,0.0045161331072449,-0.9804028868675232,0.1969287991523742,-0.0017693002467841,-0.0019102017478257,0.2535110194584924,0.1561829447746276,-0.0755357146263122,0.0892419815063476,83,324,-3791,6960
10.8,1788519293098,-0.7605633735656738,0.9295774698257446,-0.0032939221709966,0.0040107313543558,-0.1385826766490936,0.9903372526168824,-0.0001028330774768,-0.002443524553685,-2.99265832299123e-06,0.0004012218560092,0.0050906147807836,0.270532876253128,0.0033249864354729,0.004728159867227,-0.9784088134765624,0.2065981924533844,-0.0045170149134822,0.0275135967590514,0.2673837055078708,-0.1409948468208313,-0.1189295053482055,0.1740121841430664,83,324,-3791,6960
10.9,1788519293198,-0.7042253613471985,0.8169013857841492,-0.0032939221709966,0.0040107313543558,-0.1385826766490936,0.9903372526168824,-0.0001028330774768,-0.002443524553685,-2.99265832299123e-06,0.0004012218560092,0.0050906147807836,0.270532876253128,0.0035502202808856,0.0048417067155241,-0.9771210551261902,0.2125990092754364,-0.0036134333821099,0.0089185010423643,0.2484986127500039,0.1397783160209655,0.0638797283172607,0.0125846862792968,110,328,-4646,9003
11.0,1788519293298,-0.8450704216957092,0.8169013857841492,-0.0035701137967407,0.0054347682744264,-0.0949494019150734,0.9954608678817748,0.0013695563651447,-0.0017152530189798,1.8695586058351596e-06,-0.000982810743153,0.0028480065520852,0.2445115000009536,0.0039664478972554,0.005104630254209,-0.9739961624145508,0.2264722883701324,-0.0007735657154915,0.0014485955835155,0.2423867355869591,0.2472062110900879,-0.0202054381370544,-0.0393247604370117,106,412,-4617,9577
11.1,1788519293398,0.0,1.3239436149597168,-0.0035526293795555,0.0055847009643912,-0.089135892689228,0.995997428894043,0.0008122917017868,-0.0010283677686242,-1.323382318805624e-07,-0.0011977837421,0.0057489401660859,0.2638005018234253,0.0042608240619301,0.0052406266331672,-0.9701058864593506,0.2425881177186966,-0.0042247298036772,0.0015797475536888,0.2902497758438545,0.3924996852874756,0.034479796886444,0.0891075134277343,48,243,-4220,8501
11.2,1788519293498,0.0,1.3239436149597168,-0.0035495953634381,0.0057130153290927,-0.0821114480495452,0.9966004490852356,-0.0001700499390562,-0.0017377565229331,1.1812755405117195e-06,-0.0018532413523644,0.0040625701658427,0.2871561646461487,0.0047224564477801,0.0059013674035668,-0.96720153093338,0.2538979053497314,-0.0171570461786412,0.0135996374211164,0.2625401320650852,1.9172204732894895,-0.2966040372848511,-0.1946525573730468,48,243,-4220,8501
11.3,1788519293598,0.0,1.3239436149597168,-0.0063672051765024,0.0110133988782763,-0.0664997920393943,0.9977053999900818,0.1219737302386013,0.0042140088849394,-0.0003489226979815,-0.089459016919136,0.1525696665048599,0.0461849384009838,0.0047224564477801,0.0059013674035668,-0.96720153093338,0.2538979053497314,-0.0171570461786412,0.0135996374211164,0.2625401320650852,1.9172204732894895,-0.2966040372848511,-0.1946525573730468,48,243,-4220,8501
11.4,1788519293698,0.0,1.3239436149597168,-0.0063672051765024,0.0110133988782763,-0.0664997920393943,0.9977053999900818,0.1219737302386013,0.0042140088849394,-0.0003489226979815,-0.089459016919136,0.1525696665048599,0.0461849384009838,0.0026794308796525,0.0051899747923016,-0.9657710194587708,0.2593302130699157,0.1324793168983765,-0.1278248966272662,0.0590253076475425,-0.4548425674438476,0.5255268812179565,2.025355339050293,48,243,-4220,8501
11.5,1788519293798,5.211267471313477,5.154929637908936,-0.0063672051765024,0.0110133988782763,-0.0664997920393943,0.9977053999900818,0.1219737302386013,0.0042140088849394,-0.0003489226979815,-0.089459016919136,0.1525696665048599,0.0461849384009838,0.0009278003126382,0.0043679093942046,-0.965980589389801,0.2585760056972503,-0.0034574106375839,0.0033373733839306,0.0273585795076258,-0.160917580127716,-0.1576426029205322,0.599365234375,58,258,14243,19403
11.6,1788519293898,5.014084339141846,5.098591327667236,-0.0063672051765024,0.0110133988782763,-0.0664997920393943,0.9977053999900818,0.1219737302386013,0.0042140088849394,-0.0003489226979815,-0.089459016919136,0.1525696665048599,0.0461849384009838,0.0009278003126382,0.0043679093942046,-0.965980589389801,0.2585760056972503,-0.0034574106375839,0.0033373733839306,0.0273585795076258,-0.160917580127716,-0.1576426029205322,0.599365234375,90,248,14612,18741
11.7,1788519293998,5.070422649383545,5.070422649383545,-0.0039522433653473,0.0024352339096367,-0.0622784942388534,0.998047947883606,0.1683312417887149,-0.0013536276876419,-5.527639294070987e-05,0.0072609190829098,0.0104032149538397,0.0026423807721585,0.0009866021573543,0.0045784246176481,-0.965700626373291,0.2596157193183899,-0.0061217563471027,-0.0017800760159037,0.0107525322308388,0.0735695958137512,-0.1087493896484375,-0.3405580520629883,90,248,14612,18741
11.8,1788519294098,5.042253494262695,5.070422649383545,-0.0039522433653473,0.0024352339096367,-0.0622784942388534,0.998047947883606,0.1683312417887149,-0.0013536276876419,-5.527639294070987e-05,0.0072609190829098,0.0104032149538397,0.0026423807721585,0.0002236822620034,0.0041150478646159,-0.9656041860580444,0.2599841058254242,0.0151701545749173,-0.013551359284012,0.0118122095875896,-0.2768000364303589,0.0055746436119079,0.7827548980712891,90,248,14612,18741
11.9,1788519294198,4.366197109222412,4.422535419464111,-0.0037127390969544,0.000825879513286,-0.0623282343149185,0.9980484247207642,0.1633581092037594,-0.0073849315492179,0.0001460986726797,-0.0123386485502123,-0.00799769628793,-0.0298970807343721,0.0002236822620034,0.0041150478646159,-0.9656041860580444,0.2599841058254242,0.0151701545749173,-0.013551359284012,0.0118122095875896,-0.2768000364303589,0.0055746436119079,0.7827548980712891,90,248,14612,18741
12.0,1788519294298,1.4929577112197876,1.4929577112197876,-0.0037127390969544,0.000825879513286,-0.0623282343149185,0.9980484247207642,0.1633581092037594,-0.0073849315492179,0.0001460986726797,-0.0123386485502123,-0.00799769628793,-0.0298970807343721,0.0003775982186198,0.0040107201784849,-0.966325044631958,0.2572929263114929,0.0035937481086385,0.0028264140416428,-0.003358010729575,-1.1936419010162354,-0.1369374990463256,-0.9946374893188475,69,88,2772,7565
12.1,1788519294398,0.0,0.0,-0.0036106570623815,0.0014282912015914,-0.0640296638011932,0.9979404211044312,0.0351327160090455,0.0010627856928978,1.2781408772734585e-06,0.0025963075459003,-0.0064798961393535,0.0148287452757358,-1.1553056538105013e-05,0.0038132555782794,-0.9660089015960692,0.2584809362888336,-0.0013624871037923,-0.0018264991191708,0.0053550541395563,-0.0317437052726745,0.0778882503509521,0.0297584533691406,0,0,0,0
12.2,1788519294498,0.0,0.0,-0.0036243076901882,0.0012432936346158,-0.063282735645771,0.997988224029541,1.3073750511691231e-05,-2.717369837705761e-05,-1.741116112339748e-07,-0.0002331819559913,2.5427923901588656e-05,0.0002392953465459,-1.1553056538105013e-05,0.0038132555782794,-0.9660089015960692,0.2584809362888336,-0.0013624871037923,-0.0018264991191708,0.0053550541395563,-0.0317437052726745,0.0778882503509521,0.0297584533691406,0,0,0,0
12.3,1788519294598,0.0,0.0,-0.0036377802025526,0.0012706710258498,-0.0632855966687202,0.997987985610962,0.0002321851155366,-0.0006844875464279,9.440657553536888e-07,-0.0007044392405077,0.0012292184401303,-0.0001293496170546,6.241537630558014e-05,0.003876382485032,-0.9660065174102784,0.2584884166717529,4.780760537543534e-05,0.0001647106504833,0.000881396223137,-0.0012778639793395,-0.0182724595069885,0.0276927947998046,0,0,0,0
12.4,1788519294698,0.0,0.0,-0.0036377802025526,0.0012706710258498,-0.0632855966687202,0.997987985610962,0.0002321851155366,-0.0006844875464279,9.440657553536888e-07,-0.0007044392405077,0.0012292184401303,-0.0001293496170546,5.7279132306575775e-05,0.0038672564551234,-0.9660057425498962,0.2584916949272156,0.0002993099322997,-0.0002932400392965,0.0001340676481413,0.0165475010871887,0.0031408071517944,0.0260629653930664,0,0,0,0
12.5,1788519294798,1.6619718074798584,0.5070422291755676,-0.0036377802025526,0.0012706710258498,-0.0632855966687202,0.997987985610962,0.0002321851155366,-0.0006844875464279,9.440657553536888e-07,-0.0007044392405077,0.0012292184401303,-0.0001293496170546,0.0003033550456166,0.003900178708136,-0.9661927819252014,0.2577912509441376,0.0050675933371858,0.0181004417135547,-0.0213122025622713,0.924184024333954,0.0002605319023132,0.5688457489013672,0,0,0,0
12.6,1788519294898,1.6619718074798584,0.5070422291755676,-0.0036377802025526,0.0012706710258498,-0.0632855966687202,0.997987985610962,0.0002321851155366,-0.0006844875464279,9.440657553536888e-07,-0.0007044392405077,0.0012292184401303,-0.0001293496170546,0.0003007175400853,0.0042097028344869,-0.9663540720939636,0.2571811974048614,-0.0098823277409329,0.0026240169567628,-0.0208613832641247,0.8486810326576233,-0.1623492836952209,0.918095588684082,0,0,0,0
12.7,1788519294998,5.098591327667236,5.070422649383545,-0.002984024817124,0.0025162319652736,-0.064264677464962,0.9979252219200134,0.1821135724704274,-0.0001661135518165,-3.145123131536687e-05,0.0481383241713047,0.0437879264354705,0.0258380472660064,0.0003007175400853,0.0042097028344869,-0.9663540720939636,0.2571811974048614,-0.0098823277409329,0.0026240169567628,-0.0208613832641247,0.8486810326576233,-0.1623492836952209,0.918095588684082,73,236,14364,18653
12.8,1788519295098,5.042253494262695,5.042253494262695,-0.002984024817124,0.0025162319652736,-0.064264677464962,0.9979252219200134,0.1821135724704274,-0.0001661135518165,-3.145123131536687e-05,0.0481383241713047,0.0437879264354705,0.0258380472660064,0.0022713784128427,0.0034575965255498,-0.9662619233131408,0.2575284540653229,-0.0027728984811284,-0.0091142711475244,0.0069667419422364,0.1300796270370483,0.2733402252197265,-0.8165397644042969,70,316,14476,19055
12.9,1788519295198,5.126760482788086,5.042253494262695,-0.0030082007870078,0.0040430533699691,-0.0651753321290016,0.9978610873222352,0.173244560312328,-0.0049650706541319,6.888155435502733e-06,-0.017369681969285,0.0156807340681552,-0.0247184466570615,0.0022713784128427,0.0034575965255498,-0.9662619233131408,0.2575284540653229,-0.0027728984811284,-0.0091142711475244,0.0069667419422364,0.1300796270370483,0.2733402252197265,-0.8165397644042969,70,316,14476,19055
13.0,1788519295298,4.760563373565674,4.8450703620910645,-0.0074329441413283,0.0089869005605578,-0.0635869577527046,0.9979081749916076,0.1746913488201835,-0.0033259183797135,-0.0002069646624175,-0.0875455662608146,0.0804537832736969,0.0535897687077522,0.0056040398776531,0.0084677971899509,-0.9661330580711364,0.2578446567058563,-0.0483997239445301,0.0419350728602035,0.050283052510899,0.4310239553451538,0.3307089209556579,1.109638214111328,91,492,13805,23289
13.1,1788519295398,4.760563373565674,5.154929637908936,-0.0057128691114485,0.0071080522611737,-0.0597862228751182,0.9981695413589478,0.195582887864581,-0.0043820762853594,0.0002798774930264,0.0993015766143798,-0.0953858196735382,0.0992633327841758,0.0056305453181266,0.0094573404639959,-0.9653041362762452,0.260896235704422,0.0834701200080826,-0.1053838231885667,0.1064202280611306,-0.3157714605331421,-0.079214334487915,-0.8977737426757812,70,313,13496,20030
13.2,1788519295498,4.591549396514893,4.957746505737305,-0.0057128691114485,0.0071080522611737,-0.0597862228751182,0.9981695413589478,0.195582887864581,-0.0043820762853594,0.0002798774930264,0.0993015766143798,-0.0953858196735382,0.0992633327841758,0.0049723926931619,0.0064947251230478,-0.963943898677826,0.2659798264503479,-0.0124708426712038,0.0158872495724342,0.1036191561853611,0.02824467420578,-0.309247076511383,-0.7416906356811523,57,186,12976,16617
13.3,1788519295598,4.507042407989502,4.591549396514893,-0.0057128691114485,0.0071080522611737,-0.0597862228751182,0.9981695413589478,0.195582887864581,-0.0043820762853594,0.0002798774930264,0.0993015766143798,-0.0953858196735382,0.0992633327841758,0.0045770201832056,0.006522374227643,-0.9635750651359558,0.2673192322254181,-0.0029767490968265,-0.0241846106818102,0.011626311303751,-0.1093533039093017,0.1230313777923584,-1.311692237854004,57,186,12976,16617
13.4,1788519295698,4.056337833404541,3.94366192817688,-0.0045012384653091,0.0065505318343639,-0.0525281429290771,0.9985879063606262,0.160780454372881,-0.0011356415966627,-4.062461815334334e-07,-0.0012795616639778,0.003648463403806,0.022703344002366,0.0048907008022069,0.0064410595223307,-0.9632201194763184,0.2685918807983398,-0.0052393781301898,0.0150317672989832,0.0192834152372911,0.0129812359809875,-0.3167209029197693,-0.8944778442382812,77,207,12185,15969
13.5,1788519295798,4.056337833404541,3.94366192817688,-0.0043952316045761,0.0062329252250492,-0.0528683327138423,0.9985723495483398,0.1430293428123194,-0.0046770014794569,2.710352633113001e-05,0.0057489215396344,-0.0142897628247737,-0.0157330501824617,0.0048907008022069,0.0064410595223307,-0.9632201194763184,0.2685918807983398,-0.0052393781301898,0.0150317672989832,0.0192834152372911,0.0129812359809875,-0.3167209029197693,-0.8944778442382812,137,231,13756,16165
13.6,1788519295898,4.056337833404541,3.94366192817688,-0.0047193677164614,0.0062966700643301,-0.057668674737215,0.998304843902588,0.1264740818760217,-0.0021916781345779,0.0002095396351767,-0.0083108227699995,-0.0665875822305679,-0.0581373460590839,0.0044616106897592,0.0064818607643246,-0.964519500732422,0.2638943195343017,-0.0083781311741234,-0.085440748296776,-0.074003747758026,-0.350834846496582,-0.2092851400375366,6.042755126953125,44,243,11615,14649
13.7,1788519295998,3.4084506034851074,3.183098554611206,-0.0040540727786719,0.0055047101341187,-0.0586190074682235,0.998257040977478,0.1176255659887202,-0.0007573141746106,9.958607398821728e-07,0.0137459803372621,-0.0130064254626631,-0.014568967744708,0.0038432022556662,0.0054508540779352,-0.964812695980072,0.2628536224365234,0.0202618793032252,-0.0162750627952762,-0.0195525936134707,-0.2534108161926269,-0.1338990330696106,-1.662067413330078,44,243,11615,14649
13.8,1788519296098,3.0422534942626958,2.1408450603485107,-0.0039556995034217,0.0053966296836733,-0.0661833509802818,0.9977850317955016,0.0902843419817238,0.0006044606794159,-2.049681042041921e-06,0.0045906784944236,0.0060759144835174,-0.1720389872789383,0.0033574728295207,0.0054678451269865,-0.9672976732254028,0.253562867641449,-0.0039722377697891,-0.0120754314907146,-0.1506816062836563,0.2006691694259643,-0.0321693420410156,0.6608982086181641,113,255,10293,11464
13.9,1788519296198,3.126760482788086,2.309859037399292,-0.0041568074375391,0.0049428516067564,-0.0731140226125717,0.997302770614624,0.0964946598763349,-0.0021008523220147,-4.2137846327072e-05,0.0003560367913451,-0.0015422946307808,-0.1496449708938598,0.0031145233660936,0.0053777080029249,-0.9696192741394044,0.2445404082536697,0.0144319323506682,-0.0300489233203774,-0.1212789696940463,-0.1566236019134521,-0.0529214739799499,0.1114044189453125,95,208,10049,9723
14.0,1788519296298,2.901408433914185,1.8028168678283687,-0.0039736195467412,0.0051421681419014,-0.0806176885962486,0.9967238306999208,0.0932562230759069,6.732960408851016e-06,-5.624373085564268e-06,0.0075538377277553,0.0104358345270156,-0.1334726959466934,0.0036256117746233,0.0056640887632966,-0.971408486366272,0.2373193204402923,-0.0063286513847507,0.0155855170249167,-0.183982876362018,-0.3635223507881164,0.0081253051757812,-0.7135963439941406,57,230,8729,9174
14.1,1788519296398,5.042253494262695,3.436619758605957,-0.0039569232612848,0.005274657625705,-0.0885993540287017,0.996045470237732,0.0747795787050665,0.0013834189036975,-5.0673583070489005e-06,0.0096989637240767,0.0026186476461589,-0.1343010365962982,0.0032739862799644,0.0055538238957524,-0.9733226895332336,0.2293499112129211,-0.012395253927863,-0.0158611426114052,-0.2199952858591069,0.8708345293998718,-0.1554825901985168,0.2430267333984375,193,382,16319,16340
14.2,1788519296498,6.169013977050781,4.563380241394043,-0.0042655332945287,0.0050510792061686,-0.0992810949683189,0.9950374364852904,0.176205567507442,-0.0020916734961018,-3.545650204106004e-05,-0.0015446791658177,0.0061026546172797,-0.2456054836511612,0.0032418621703982,0.0054412931203842,-0.975862979888916,0.2182916700839996,0.0089611897411949,0.0060998202814208,-0.2767222095027487,-0.1692940592765808,-0.1634692549705505,0.6174106597900391,65,195,16819,15776
14.3,1788519296598,5.802816867828369,4.535211086273193,-0.0044039576314389,0.0043026558123528,-0.1120971515774726,0.9936782121658324,0.1926183028716414,-0.0014135858781204,0.0001463556647618,-0.0041218921542167,-0.0172278024256229,-0.2963826060295105,0.0026841610670089,0.0055847819894552,-0.9789208173751832,0.2041462808847427,-0.0137275187060485,0.007278202477803,-0.2128138034545167,-0.0406253933906555,0.3061398267745971,0.6163387298583984,62,223,15227,17431
14.4,1788519296698,5.408450603485107,4.507042407989502,-0.004409123212099,0.0043101692572236,-0.1181220784783363,0.992979884147644,0.1791386395173927,-0.0013135763638074,6.153482856132033e-08,0.0006630337447859,0.0014313606079667,-0.2383357882499694,0.0026841610670089,0.0055847819894552,-0.9789208173751832,0.2041462808847427,-0.0137275187060485,0.007278202477803,-0.2128138034545167,-0.0406253933906555,0.3061398267745971,0.6163387298583984,65,259,15446,17520
14.5,1788519296798,5.436619758605957,4.507042407989502,-0.0034229897428303,0.0025023052003234,-0.1263345032930374,0.9919785857200624,0.17215834262778,0.0022481329588829,0.0001201146213681,0.0414711646735668,-0.0551630817353725,-0.1222946271300315,0.0016318652778863,0.0053315134719014,-0.981172740459442,0.1930521130561828,-0.0571844989449144,0.0374630351070022,-0.1403169551889782,0.477067768573761,0.2028619050979614,-0.4685287475585937,85,391,15485,19564
14.6,1788519296898,5.380281925201416,4.563380241394043,-0.0034229897428303,0.0025023052003234,-0.1263345032930374,0.9919785857200624,0.17215834262778,0.0022481329588829,0.0001201146213681,0.0414711646735668,-0.0551630817353725,-0.1222946271300315,0.0043227495625615,0.0092625999823212,-0.9827896952629088,0.1844453513622284,-0.0123691954631932,0.005746205105392,-0.0943246373655933,-0.1313135623931884,0.096766173839569,-0.8695001602172852,58,468,14335,22327
14.7,1788519296998,5.408450603485107,5.323943614959717,-0.0034229897428303,0.0025023052003234,-0.1263345032930374,0.9919785857200624,0.17215834262778,0.0022481329588829,0.0001201146213681,0.0414711646735668,-0.0551630817353725,-0.1222946271300315,0.0061750160530209,0.0117756435647606,-0.9830960035324096,0.1826078295707702,-0.085150854319195,0.0921347521381028,-0.074689085034479,0.3338243365287781,-0.0565494298934936,-0.9766244888305664,46,352,14014,20074
14.8,1788519297098,5.211267471313477,4.957746505737305,-0.0034229897428303,0.0025023052003234,-0.1263345032930374,0.9919785857200624,0.17215834262778,0.0022481329588829,0.0001201146213681,0.0414711646735668,-0.0551630817353725,-0.1222946271300315,0.0032437667250633,0.0069159837439656,-0.9833582043647766,0.1815167963504791,0.1406575059666556,-0.1030797892168437,-0.0263092898214382,-0.3379219770431518,0.3855853676795959,0.992783546447754,34,319,14510,19727
14.9,1788519297198,5.352112770080566,5.126760482788086,-0.0050780549645423,0.0042716059833765,-0.1417372375726699,0.9898821115493774,0.1819984402498084,-0.0025466301467808,2.436846300151669e-05,0.0082611581310629,-0.0048249755054712,0.0134467538446187,0.0015189321711659,0.0055611636489629,-0.9834073185920716,0.1813198775053024,0.012789577296606,-0.0378151491273355,-0.014435011601929,-0.1238967180252075,-0.0182628035545349,0.0200824737548828,70,226,14291,18155
15.0,1788519297298,5.295774459838867,4.957746505737305,-0.0042511885985732,0.0030240551568567,-0.1423389166593551,0.989804208278656,0.1802690491008586,-0.002914262184739,6.017393944109939e-05,0.0342441722750663,-0.014435525983572,-0.0230506360530853,0.0014818431809544,0.0050796167925,-0.9836966395378112,0.1797578483819961,0.0076420916063994,-0.020242535324629,-0.0389815496191762,0.0489348769187927,-0.1646537780761718,-1.071868896484375,77,228,14771,17402
15.1,1788519297398,5.154929637908936,4.873239517211914,-0.0042637400329113,0.0027456821408122,-0.143961489200592,0.9895702600479126,0.1777186348317413,-0.0043435723248556,7.572328211006422e-05,0.0073313084430992,-0.0196603219956159,-0.0391546413302421,0.0006214901804924,0.0047847218811511,-0.9840757846832277,0.1776843667030334,-0.0125647302030936,-0.0227430354880027,-0.0501041441635046,0.1531723737716674,0.2062583565711975,-1.0519027709960938,91,261,15569,18704
15.2,1788519297498,4.901408672332764,5.154929637908936,-0.0044782366603612,0.0020167019683867,-0.1474951207637787,0.9890506267547609,0.1736512272880237,-0.0015472491684712,4.000914460303007e-05,-0.0028306473977863,-0.0049649542197585,-0.0605263300240039,0.0008248342201113,0.0046515157446265,-0.984346091747284,0.1761834472417831,0.0188980529718323,0.0193511086328372,0.0369746741491587,0.0081713795661926,0.0853582620620727,-0.402867317199707,77,300,14475,20079
15.3,1788519297598,5.267605781555176,5.070422649383545,-0.0030566207133233,0.0020746723748743,-0.1449800282716751,0.9894276261329652,0.1846794776977352,-0.0046736232610457,-4.4250304069048094e-06,0.0432427786290645,-0.0028440963942557,0.0724111273884773,0.0010029477998614,0.0040383040904998,-0.98402601480484,0.1779760420322418,0.0377945337653912,0.0037480933224585,0.0616804101569765,-0.0176539421081542,-0.4287273287773132,-1.1487808227539062,105,229,15184,17675
15.4,1788519297698,5.211267471313477,4.901408672332764,-0.0025636730715632,0.0024535923730582,-0.1459822356700897,0.989280879497528,0.1755578676556443,-0.0016359594535528,5.80439629620891e-05,0.017060350626707,0.0176619123667478,-0.0396914146840572,0.0031636673957109,0.0033032307401299,-0.9844506978988647,0.1756020039319992,0.0025518765276864,0.0508627088163923,-0.0425879516725037,-0.195397138595581,0.2045337557792663,1.1790637969970703,60,253,14071,19222
15.5,1788519297798,5.211267471313477,4.901408672332764,-0.0020987009629607,0.0040851105004549,-0.1478713005781173,0.9889959692955016,0.1774395662111386,-0.0052373491295447,-0.0001684843624082,-0.000619375554379,0.0528329350054264,-0.0465767681598663,0.0031636673957109,0.0033032307401299,-0.9844506978988647,0.1756020039319992,0.0025518765276864,0.0508627088163923,-0.0425879516725037,-0.195397138595581,0.2045337557792663,1.1790637969970703,60,253,14071,19222
15.6,1788519297898,5.211267471313477,4.901408672332764,-0.0020987009629607,0.0040851105004549,-0.1478713005781173,0.9889959692955016,0.1774395662111386,-0.0052373491295447,-0.0001684843624082,-0.000619375554379,0.0528329350054264,-0.0465767681598663,-0.0017167050391435,0.0018675439059734,-0.9840856194496156,0.1776767671108245,0.0054851853544874,-0.1037456656817818,0.076719742924903,-0.4574792385101318,0.6180027723312378,1.503148078918457,60,253,14071,19222
15.7,1788519297998,5.211267471313477,4.901408672332764,-0.0020987009629607,0.0040851105004549,-0.1478713005781173,0.9889959692955016,0.1774395662111386,-0.0052373491295447,-0.0001684843624082,-0.000619375554379,0.0528329350054264,-0.0465767681598663,-0.0017167050391435,0.0018675439059734,-0.9840856194496156,0.1776767671108245,0.0054851853544874,-0.1037456656817818,0.076719742924903,-0.4574792385101318,0.6180027723312378,1.503148078918457,60,253,14071,19222
15.8,1788519298098,5.211267471313477,4.901408672332764,-0.0020987009629607,0.0040851105004549,-0.1478713005781173,0.9889959692955016,0.1774395662111386,-0.0052373491295447,-0.0001684843624082,-0.000619375554379,0.0528329350054264,-0.0465767681598663,0.0014037918299436,0.0053466744720935,-0.9814854264259338,0.1914573013782501,-0.0679739457813984,0.0773934043069771,0.0878519064121385,0.1478886604309082,0.2638253569602966,-0.1499996185302734,60,253,14071,19222
15.9,1788519298198,4.507042407989502,5.605633735656738,-0.0050119650550186,0.0035737801808863,-0.1307723373174667,0.991393268108368,0.1628491687655006,0.0013604218362557,-0.000202512012383,-0.085129901766777,0.0883548185229301,0.118066668510437,0.0050525423139333,0.0094907721504569,-0.9807639122009276,0.1949017345905304,-0.08251955825844,0.0870453461799372,0.0493006616904522,-0.0530534386634826,-0.3458271622657776,-0.1793622970581054,53,458,13337,23913
16.0,1788519298298,4.676056385040283,5.915493011474609,-0.0050119650550186,0.0035737801808863,-0.1307723373174667,0.991393268108368,0.1628491687655006,0.0013604218362557,-0.000202512012383,-0.085129901766777,0.0883548185229301,0.118066668510437,0.0016491347923874,0.004773729480803,-0.979200839996338,0.2028308659791946,0.115656284397145,-0.1248375757080343,0.1864544535834254,-0.0731697082519531,0.4992097020149231,0.6959304809570312,53,458,13337,23913
16.1,1788519298398,4.676056385040283,5.915493011474609,-0.0050119650550186,0.0035737801808863,-0.1307723373174667,0.991393268108368,0.1628491687655006,0.0013604218362557,-0.000202512012383,-0.085129901766777,0.0883548185229301,0.118066668510437,0.0023299064487218,0.0063653765246272,-0.9774823784828186,0.2109080404043197,-0.0944244209558525,0.0773627733285057,0.1719033379122259,0.7092753052711487,0.3507003784179687,-1.0774335861206057,53,458,13337,23913
16.2,1788519298498,4.619718074798584,5.88732385635376,-0.0049401866272091,0.0038535560015589,-0.1125781014561653,0.99362313747406,0.171018583832499,-7.646857464880573e-05,-5.112552763166777e-05,-0.0592105016112327,0.0517418682575225,0.1866136491298675,0.0029470473527908,0.0082372520118951,-0.9752760529518129,0.2208167612552642,-0.0041485338373102,0.0042651253809705,0.1217188567158595,-2.317046880722046,-0.1135929226875305,0.0069770812988281,41,145,11187,18048
16.3,1788519298598,4.619718074798584,5.88732385635376,-0.0069242981262505,0.0052795535884797,-0.1037224754691124,0.994568169116974,0.1950010444599296,-0.0034616180220612,4.75011962528145e-05,-0.0200525783002376,-0.0166408121585845,0.1651024222373962,0.0029470473527908,0.0082372520118951,-0.9752760529518129,0.2208167612552642,-0.0041485338373102,0.0042651253809705,0.1217188567158595,-2.317046880722046,-0.1135929226875305,0.0069770812988281,41,145,11187,18048
16.4,1788519298698,1.4929577112197876,3.239436626434326,-0.0050301337614655,0.0057457531802356,-0.0895679891109466,0.9959514737129213,0.0498572983646155,0.0027068521922558,9.973614754917544e-06,0.0053041391074657,-0.0036731821019202,0.216387078166008,0.0040443195030093,0.0068337749689817,-0.969277322292328,0.2458421885967254,-0.0137513312138372,0.0253785535184243,0.2058873616790819,0.8769683837890625,-0.3752919435501098,0.2513570785522461,246,427,11050,18210
16.5,1788519298798,4.619718074798584,6.11267614364624,-0.0050856359302997,0.0059980768710374,-0.0748452544212341,0.9971641302108764,0.1453235120081364,0.0036758735955024,-7.543314770925801e-05,-0.0085324458777904,0.0210160054266452,0.2007877230644226,0.0040443195030093,0.0068337749689817,-0.969277322292328,0.2458421885967254,-0.0137513312138372,0.0253785535184243,0.2058873616790819,0.8769683837890625,-0.3752919435501098,0.2513570785522461,246,427,11050,18210
16.6,1788519298898,4.619718074798584,6.11267614364624,-0.0050856359302997,0.0059980768710374,-0.0748452544212341,0.9971641302108764,0.1453235120081364,0.0036758735955024,-7.543314770925801e-05,-0.0085324458777904,0.0210160054266452,0.2007877230644226,0.0037064673379063,0.0048565696924924,-0.96493399143219,0.2624217271804809,0.0593334417989287,-0.0428188963213972,0.3141274243759918,-0.3060811758041382,-0.1802144646644592,0.4568605422973633,73,326,12705,22421
16.7,1788519298998,4.450704097747803,5.408450603485107,-0.0028408279176801,0.0043569928966462,-0.05123171210289,0.9986732006072998,0.1836302920720893,-0.0002346608988972,-0.0001293958906783,-0.0046810037456452,0.0290712229907512,0.1692539304494857,0.0035845292732119,0.0040980624035,-0.9610552191734314,0.2763029336929321,0.0101635140471684,-0.0048363244331859,0.1783009251333566,0.0576873421669006,0.3516042828559875,-0.164433479309082,83,245,13714,20287
16.8,1788519299098,4.450704097747803,5.408450603485107,-0.0027351554017513,0.004385017324239,-0.0430274754762649,0.9990605115890504,0.1780723817896837,6.687928510129188e-05,-2.474734903774512e-05,0.0041387677192687,-0.0079212253913283,0.1728003770112991,0.0031885365024209,0.0039484202861785,-0.9584290385246276,0.2852858006954193,-0.0122457802035837,-0.009424024575537,0.1326729970343348,0.1675944924354553,-0.3995065689086914,0.8584508895874023,83,245,13714,20287
16.9,1788519299198,4.619718074798584,5.521126747131348,-0.0027351554017513,0.004385017324239,-0.0430274754762649,0.9990605115890504,0.1780723817896837,6.687928510129188e-05,-2.474734903774512e-05,0.0041387677192687,-0.0079212253913283,0.1728003770112991,0.0035102339461445,0.0040258299559354,-0.9568310379981996,0.2905958294868469,-0.0031126653583723,0.0246784600992016,0.1323887294436675,0.0353739261627197,0.019112229347229,0.2004766464233398,48,250,13087,19923
17.0,1788519299298,4.8450703620910645,4.816901206970215,-0.0026603101287037,0.0039926078170537,-0.0277241934090852,0.999604105949402,0.1686985283906436,0.0021025607488908,2.8492326772244488e-05,0.0010400079190731,-0.0214484669268131,0.1306269168853759,0.0035999147221446,0.0055011985823512,-0.9561437368392944,0.2928242087364197,-0.0541066570681042,0.0294316304828889,-0.0233016850512214,0.0924665331840515,-0.2573853731155395,0.1727561950683593,48,250,13087,19923
17.1,1788519299398,4.8450703620910645,4.816901206970215,-0.0026603101287037,0.0039926078170537,-0.0277241934090852,0.999604105949402,0.1686985283906436,0.0021025607488908,2.8492326772244488e-05,0.0010400079190731,-0.0214484669268131,0.1306269168853759,0.0050614327192306,0.0084326500073075,-0.9561346173286438,0.2927626967430115,-0.0465457964504552,0.0694988880062395,0.0338489350851813,0.1946582198143005,0.4307824969291687,-0.3513135910034179,48,250,13087,19923
17.2,1788519299498,3.436619758605957,4.11267614364624,-0.0065870550461113,0.0078114261850714,-0.0275050140917301,0.9995694160461426,0.1781298909535989,-0.0042655319732006,-0.0002293495637758,-0.0431170836091041,0.0679240375757217,0.0307940710335969,0.0050614327192306,0.0084326500073075,-0.9561346173286438,0.2927626967430115,-0.0465457964504552,0.0694988880062395,0.0338489350851813,0.1946582198143005,0.4307824969291687,-0.3513135910034179,48,250,13087,19923
17.3,1788519299598,0.8450704216957092,2.1408450603485107,-0.0063364333473145,0.0081274518743157,-0.0260943975299596,0.9996063709259032,0.1630659405032296,-0.0011004172557211,-0.0002796610895463,0.0077078309841454,0.0104485964402556,0.0472073964774608,0.0025992775335907,0.0057680243626236,-0.9534597992897034,0.3014537990093231,0.0324016925175474,-0.0481248756320538,0.2105282071609253,-0.8651262521743774,0.5747917890548706,-1.8647804260253904,48,250,13087,19923
17.4,1788519299698,0.8450704216957092,2.1408450603485107,-0.0043959347531199,0.0037547894753515,-0.0042581767775118,0.999974250793457,-0.0066979072996319,0.0011875791744988,2.2864004761651755e-06,0.005900296382606,-0.0108425728976726,0.2643045485019684,0.0025992775335907,0.0057680243626236,-0.9534597992897034,0.3014537990093231,0.0324016925175474,-0.0481248756320538,0.2105282071609253,-0.8651262521743774,0.5747917890548706,-1.8647804260253904,48,250,13087,19923
17.5,1788519299798,-0.7605633735656738,0.7042253613471985,-0.0042296606115996,0.0036616513971239,0.0015480670845136,0.9999831318855286,-0.0022842567674492,-0.0021560460010654,-2.8841703959354133e-06,0.0067276451736688,-0.005477818660438,0.2695779502391815,0.0025992775335907,0.0057680243626236,-0.9534597992897034,0.3014537990093231,0.0324016925175474,-0.0481248756320538,0.2105282071609253,-0.8651262521743774,0.5747917890548706,-1.8647804260253904,74,335,-4767,8855
17.6,1788519299898,-0.7605633735656738,0.7042253613471985,-0.0042195259593427,0.0035383258946239,0.0070703160017728,0.9999597668647766,0.0002155866035718,0.0005919661734931,-7.036337132191271e-07,-0.0004227659082971,-0.0059738587588071,0.2249898314476013,0.0018853247165679,0.0050735753029584,-0.939121663570404,0.3435422480106354,0.0002932957590517,0.003536900089682,0.2749689354517408,-0.0536327958106994,0.0020903944969177,-0.0137262344360351,156,302,-5126,7655
17.7,1788519299998,-0.7605633735656738,0.7042253613471985,-0.0042195259593427,0.0035383258946239,0.0070703160017728,0.9999597668647766,0.0002155866035718,0.0005919661734931,-7.036337132191271e-07,-0.0004227659082971,-0.0059738587588071,0.2249898314476013,0.0018845023587346,0.0050019966438412,-0.9362236261367798,0.3513643145561218,0.0012221156929654,-0.0019788997059788,0.275605335838163,-0.0166326761245727,0.0209143161773681,0.1876726150512695,156,302,-5126,7655
17.8,1788519300098,-0.7605633735656738,0.7042253613471985,-0.0041218427941203,0.003133893944323,0.0416542217135429,0.9991186857223512,-0.0008336660661606,-0.0014046884801901,-6.315878730021395e-07,-0.0012413037475198,-0.0104785524308681,0.2753430306911468,0.0018845023587346,0.0050019966438412,-0.9362236261367798,0.3513643145561218,0.0012221156929654,-0.0019788997059788,0.275605335838163,-0.0166326761245727,0.0209143161773681,0.1876726150512695,156,302,-5126,7655
17.9,1788519300198,-0.7605633735656738,0.7042253613471985,-0.0041910428553819,0.0030444609001278,0.0533891171216964,0.9985603094100952,6.128490086272553e-06,-0.0013506720876946,5.691620383465514e-07,-0.0034805706236511,0.0003360710397828,0.258021742105484,0.0015589259564876,0.0049477852880954,-0.9294363260269164,0.3689460754394531,-0.0036936142549916,0.0007753260225081,0.2499931157560465,-0.0584536790847778,-0.0914704203605651,0.0163764953613281,156,302,-5126,7655
18.0,1788519300298,-0.2253521084785461,0.0,-0.0042640194296836,0.0030377660878002,0.0595095120370388,0.9982140064239502,-8.317010029859311e-05,-0.0011290096099741,-1.9738489871793297e-07,-0.0036901151761412,-0.0010829718085005,0.2424059957265854,0.0015589259564876,0.0049477852880954,-0.9294363260269164,0.3689460754394531,-0.0036936142549916,0.0007753260225081,0.2499931157560465,-0.0584536790847778,-0.0914704203605651,0.0163764953613281,0,0,0,0
18.1,1788519300398,-0.2253521084785461,0.0,-0.0027244728989899,0.001720949425362,0.0669345408678054,0.9977521300315856,0.0047285289485768,-0.000520502323457,4.796229316220883e-06,0.0301646366715431,-0.0284721702337265,-0.0289569031447172,0.0015589259564876,0.0049477852880954,-0.9294363260269164,0.3689460754394531,-0.0036936142549916,0.0007753260225081,0.2499931157560465,-0.0584536790847778,-0.0914704203605651,0.0163764953613281,0,0,0,0
18.2,1788519300498,-0.2253521084785461,0.0,-0.0023101328406482,0.001306852675043,0.0657620802521705,0.9978317618370056,0.0058007179877442,-0.0012636060077106,1.4128578839550037e-06,0.0152345616370439,-0.0171948689967393,-0.0461669862270355,0.0015589259564876,0.0049477852880954,-0.9294363260269164,0.3689460754394531,-0.0036936142549916,0.0007753260225081,0.2499931157560465,-0.0584536790847778,-0.0914704203605651,0.0163764953613281,0,0,0,0
18.3,1788519300598,-0.2253521084785461,0.0,-0.0022954861633479,0.0013368218205869,0.0617585629224777,0.9980875849723816,0.0096741626325712,-0.0026800509107431,-2.117113790212591e-06,0.0009878004202619,0.0016686989692971,-0.1768337488174438,0.0003939680755138,0.0024301260709762,-0.9296215176582336,0.3685077428817749,0.0008808099044474,-0.0039147263177215,-0.2040188969748879,0.3838784694671631,-0.1266967058181762,-0.0807027816772461,0,0,0,0
18.4,1788519300698,-0.2253521084785461,0.0,-0.0021164733916521,0.00128691829741,0.0447118543088436,0.998996913433075,0.0022288982063649,0.0005657102473039,-1.558548891767215e-06,0.0033328337594866,0.0001137648796429,-0.2221127599477768,0.0003939680755138,0.0024301260709762,-0.9296215176582336,0.3685077428817749,0.0008808099044474,-0.0039147263177215,-0.2040188969748879,0.3838784694671631,-0.1266967058181762,-0.0807027816772461,0,0,0,0
18.5,1788519300798,0.98591548204422,-0.7887324094772339,-0.0020742632914334,0.0013972850283607,0.0329058468341827,0.9994553327560424,9.037431263276836e-05,-0.0012922521015503,7.019539595763318e-08,0.0013630179455503,0.0028603400569409,-0.2545317411422729,0.0005469545722007,0.0025007585063576,-0.940052330493927,0.3410206437110901,-0.0031279574645899,-0.0050169361350098,-0.2364247329776038,-0.0741289258003234,-0.0289759039878845,-0.0194349288940429,77,224,3841,-9307
18.6,1788519300898,0.8450704216957092,-0.7887324094772339,-0.0020742632914334,0.0013972850283607,0.0329058468341827,0.9994553327560424,9.037431263276836e-05,-0.0012922521015503,7.019539595763318e-08,0.0013630179455503,0.0028603400569409,-0.2545317411422729,0.0005469545722007,0.0025007585063576,-0.940052330493927,0.3410206437110901,-0.0031279574645899,-0.0050169361350098,-0.2364247329776038,-0.0741289258003234,-0.0289759039878845,-0.0194349288940429,77,224,3841,-9307
18.7,1788519300998,0.8450704216957092,-0.7887324094772339,-0.0022561193909496,0.0012742343824356,0.0151049131527543,0.9998825788497924,0.0025043365289982,0.0011376854742591,1.3156229462079516e-06,-0.0011746494565159,0.000974174356088,-0.2222688794136047,0.0005187485367059,0.0026228390634059,-0.9453108310699464,0.3261599838733673,-0.0005163981439792,0.0035201033109967,-0.154754279879677,0.0797305107116699,0.4496594071388244,0.0263519287109375,77,224,3841,-9307
18.8,1788519301098,-0.8450704216957092,0.2253521084785461,-0.0022561193909496,0.0012742343824356,0.0151049131527543,0.9998825788497924,0.0025043365289982,0.0011376854742591,1.3156229462079516e-06,-0.0011746494565159,0.000974174356088,-0.2222688794136047,0.0006637871265411,0.0027001788839697,-0.9450554847717284,0.3268981277942657,-0.0013394091192621,0.0080444522500719,0.0391518778244053,-0.8347901105880737,-0.0778341293334961,0.0075626373291015,77,224,3841,-9307
18.9,1788519301198,-0.8169013857841492,1.380281686782837,-0.0022561193909496,0.0012742343824356,0.0151049131527543,0.9998825788497924,0.0025043365289982,0.0011376854742591,1.3156229462079516e-06,-0.0011746494565159,0.000974174356088,-0.2222688794136047,0.0010633049532771,0.0028115874156355,-0.9380136132240297,0.3465855717658996,0.00476552962248,0.0118975434991615,0.2602728234875289,-0.3479509949684143,-0.1244168281555175,0.0813331604003906,77,224,3841,-9307
19.0,1788519301298,-0.7605633735656738,1.0704225301742554,-0.002363666659221,0.0016644590068608,0.02548742108047,0.9996709227561952,-0.0006552462951631,-0.0016769725221133,-5.595170657330779e-07,0.0008588809869252,0.0024740537628531,0.237772449851036,0.0007907105609774,0.0027662273496389,-0.933405101299286,0.3588130474090576,-0.0029330699914545,-0.0027400209749298,0.2746277400879192,-0.0491116642951965,-0.0892807245254516,-0.0034236907958984,130,217,-5028,7056
19.1,1788519301398,-0.7887324094772339,0.9577465057373048,-0.0023338899482041,0.0016654492355883,0.0380902104079723,0.9992701411247252,-0.0014863863825686,-0.0014722944017391,-1.7590749181537052e-06,0.0003403646987862,-0.0032914790790528,0.257657378911972,0.0006576078012585,0.0028761606663465,-0.9285480380058287,0.3712004721164703,-0.0025212962301473,-0.0025129827947549,0.2545129117948622,0.1224815249443054,0.0337551236152648,-0.0470561981201171,130,217,-5028,7056
19.2,1788519301498,-0.7887324094772339,0.9577465057373048,-0.0023338899482041,0.0016654492355883,0.0380902104079723,0.9992701411247252,-0.0014863863825686,-0.0014722944017391,-1.7590749181537052e-06,0.0003403646987862,-0.0032914790790528,0.257657378911972,0.0005860123783349,0.0027598841115832,-0.9271330237388612,0.3747218549251556,0.002300258297307,-0.0106036963687752,-0.0177409772352275,0.4002540111541748,-0.1246423721313476,0.0540790557861328,130,217,-5028,7056
19.3,1788519301598,-0.7887324094772339,0.9577465057373048,-0.0023932671174407,0.0015342098195105,0.0591448172926902,0.9982454180717468,0.0013215026594901,0.0012213851591606,-2.2007108108537766e-06,0.0047062207013368,-0.0046059819869697,-0.0219889599829912,0.0006733918562531,0.0027687586843967,-0.9271884560585022,0.3745843768119812,0.0011654885460329,0.0039902830505986,-0.0069731624190469,-0.2424182295799255,0.2165995240211486,-0.0550708770751953,130,217,-5028,7056
19.4,1788519301698,0.9295774698257446,-1.1267606019973757,-0.002444171346724,0.0014970053452998,0.0591798201203346,0.99824321269989,0.0003178497553055,-0.0003290112151646,-4.4879003841558366e-07,-0.002076573902741,-0.0013384451158344,0.0013651405461132,0.0006265770643949,0.0028048316016793,-0.9272188544273376,0.3745088875293731,-0.0006243829461334,0.0016136297971537,-0.0073105181579411,0.4909884929656982,-0.1817126274108886,0.0829744338989257,130,217,-5028,7056
19.5,1788519301798,0.3943662047386169,0.0,-0.002444171346724,0.0014970053452998,0.0591798201203346,0.99824321269989,0.0003178497553055,-0.0003290112151646,-4.4879003841558366e-07,-0.002076573902741,-0.0013384451158344,0.0013651405461132,0.0005673486739397,0.0027053710073232,-0.930109202861786,0.367272675037384,0.0027389302167734,-0.0020494988866338,-0.2178565369136808,-0.4215739965438843,0.0275014042854309,0.0331611633300781,66,133,4105,-3430
19.6,1788519301898,0.3943662047386169,0.0,-0.0023634193930774,0.0013460062909871,0.0544382855296134,0.9985134601593018,0.0082003477377871,-0.0003051768018836,5.406428313151499e-07,0.0020457627251744,-0.0022588295396417,-0.1647989302873611,0.0005091959610581,0.0025338064879179,-0.933965265750885,0.3573544025421142,0.0056331969270847,-0.0028951302953387,-0.212054793735303,0.3429298400878906,-0.190143883228302,-0.0398387908935546,66,133,4105,-3430
19.7,1788519301998,0.3943662047386169,0.0,-0.0022759628482162,0.001403029076755,0.0335592404007911,0.999433159828186,0.0034344041922087,0.0027174435763912,9.719963042941615e-07,-0.0004954508622176,0.000760389608331,-0.096784308552742,0.0007132291793823,0.0026629576459527,-0.9366676211357116,0.3502089381217956,-0.0009882660265017,0.0052206669069602,-0.1385279875689719,-0.7379550933837891,0.1932694911956787,0.0396528244018554,66,133,4105,-3430
19.8,1788519302098,0.0,0.0,-0.0023146283347159,0.0015440337592735,0.033249232918024,0.9994432330131532,-0.0044346114009257,0.0021562548595764,-1.1668605503766244e-06,-0.0013138087233528,0.0056125521659851,-0.0121706118807196,0.0007188552990555,0.0026265550404787,-0.9365441799163818,0.350538969039917,0.002518876186211,0.0013940861238151,0.0037624342302806,0.0112059116363525,0.0581485033035278,-0.0330715179443359,0,0,0,0
19.9,1788519302198,0.0,0.0,-0.0022688535973429,0.0016484290827065,0.0345588214695453,0.9993987679481506,-0.0061317979974533,0.0001766539442113,8.426829147525666e-07,0.0012661672662943,0.0059822392649948,0.0504189655184745,0.0007188552990555,0.0026265550404787,-0.9365441799163818,0.350538969039917,0.002518876186211,0.0013940861238151,0.0037624342302806,0.0112059116363525,0.0581485033035278,-0.0330715179443359,0,0,0,0
20.0,1788519302298,-0.9014084339141846,0.3380281627178192,-0.0022688535973429,0.0016484290827065,0.0345588214695453,0.9993987679481506,-0.0061317979974533,0.0001766539442113,8.426829147525666e-07,0.0012661672662943,0.0059822392649948,0.0504189655184745,0.0006938725709915,0.0028189895674586,-0.9319034218788148,0.3626950085163116,-0.0036704139812782,-0.0013433738119942,0.2345796554901545,0.3017041683197021,0.2229365706443786,0.0012187957763671,55,355,-3894,9388
20.1,1788519302398,-0.6760563254356384,0.7605633735656738,-0.0025458910968154,0.0017124182777479,0.052019890397787,0.9986413717269896,0.0013223197386459,-0.0002172905450333,1.0762903216141757e-06,-0.0050716125406324,0.0046848119236528,0.250732421875,0.0007992545142769,0.0030874703079462,-0.9263956546783448,0.3765381276607513,-0.0055132054984529,7.436533183430282e-05,0.2206196005173991,0.0995992422103881,0.0162687897682189,0.0317983627319335,79,226,-4895,7954
20.2,1788519302498,-0.8450704216957092,0.9014084339141846,-0.0025458910968154,0.0017124182777479,0.052019890397787,0.9986413717269896,0.0013223197386459,-0.0002172905450333,1.0762903216141757e-06,-0.0050716125406324,0.0046848119236528,0.250732421875,0.0007992545142769,0.0030874703079462,-0.9263956546783448,0.3765381276607513,-0.0055132054984529,7.436533183430282e-05,0.2206196005173991,0.0995992422103881,0.0162687897682189,0.0317983627319335,79,226,-4895,7954
20.3,1788519302598,0.0,0.0,-0.0026221622247248,0.0017463987460359,0.0700633078813552,0.9975375533103944,0.0042562448633851,-0.0029885523485506,1.17617411014819e-06,0.0022044428624212,-0.0019088487606495,0.255894124507904,0.0007735509425401,0.0028845202177762,-0.922648549079895,0.3856302499771118,0.0030411063181734,-0.0043341072845453,-0.05459184675638,-0.2589807510375976,0.3576077818870544,-0.0473699569702148,79,226,-4895,7954
20.4,1788519302698,0.0,0.0,-0.0026221622247248,0.0017463987460359,0.0700633078813552,0.9975375533103944,0.0042562448633851,-0.0029885523485506,1.17617411014819e-06,0.0022044428624212,-0.0019088487606495,0.255894124507904,0.0006803832948207,0.0028133066371083,-0.9231457114219666,0.3844392597675323,0.0007429156521248,-0.0041331719775108,-0.0530839190317463,0.4319504499435425,-0.4063443541526794,-0.0313825607299804,79,226,-4895,7954
20.5,1788519302798,0.0,0.0,-0.0024021519348025,0.0014854231849312,0.0599933378398418,0.9981947541236876,0.0018659046082062,0.002308916494578,3.0901014071198823e-06,0.0018947675125673,-0.0010030200937762,-0.2279106080532074,0.0006688004359602,0.0027811974287033,-0.924916923046112,0.3801585733890533,0.0013238616016747,-0.0004811861155033,-0.1850612772109982,0.1440429091453552,0.0676038265228271,-0.0593938827514648,79,226,-4895,7954
20.6,1788519302898,0.5633803009986877,-0.9014084339141846,-0.0023451764136552,0.0013952155131846,0.0546300150454044,0.9985029697418212,-0.0011476110002163,0.0026236351329991,1.2080634608339848e-06,0.0024133736733347,-0.0032504578121006,-0.2154846489429474,0.0006341394037008,0.0026158094406127,-0.9320067167282104,0.3624309301376343,0.0018823847254231,0.0064913673141099,-0.2235588617738337,-0.0602073073387146,0.0722441673278808,0.0331325531005859,79,226,-4895,7954
20.7,1788519302998,0.5633803009986877,-0.9014084339141846,-0.0022591482847929,0.0013765966286882,0.0445787124335765,0.9990024566650392,0.0009580306980791,0.0022276668339821,-1.2262738137377432e-06,0.0018621983472257,0.0024759965017437,-0.2260374575853347,0.0007145255804061,0.0026668338105082,-0.9337204098701476,0.3579925000667572,-0.0016506623770282,0.0075860050147283,0.0204406893734834,-0.1264343857765197,-0.2088414430618286,-0.0599403381347656,79,226,-4895,7954
20.8,1788519303098,0.5633803009986877,-0.9014084339141846,-0.0023210290819406,0.0014871202874928,0.0413831546902656,0.9991395473480223,0.0001194465565298,-0.0008716822922264,4.871030137039829e-07,-0.0016957479529082,0.0026590032503008,0.0052093733102083,0.0006976006552577,0.0026625590398907,-0.9336767196655272,0.3581063747406006,0.0010526353573628,0.0011265322289358,0.0038310736917678,0.1220517754554748,-0.1011563539505004,0.0206308364868164,79,226,-4895,7954
20.9,1788519303198,0.0,0.0,-0.0023210290819406,0.0014871202874928,0.0413831546902656,0.9991395473480223,0.0001194465565298,-0.0008716822922264,4.871030137039829e-07,-0.0016957479529082,0.0026590032503008,0.0052093733102083,0.0007103756070137,0.0026354724541306,-0.9336971640586852,0.3580533266067505,9.278198178040852e-05,0.0001378704103755,-0.0013621206118896,-0.0228932499885559,-0.0516594648361206,0.0184059143066406,0,0,0,0
21.0,1788519303298,0.0,0.0,-0.0022700789850205,0.0016025138320401,0.0427682697772979,0.9990811347961426,-0.0055205786921801,0.0011999822233017,5.663112720233213e-07,0.0001051053841365,0.0037199712824076,0.0596800148487091,0.0007224585860967,0.0026230039075016,-0.933679223060608,0.3580999374389648,0.0007976547966507,0.0003366976107726,0.0025091688526798,-0.0262396335601806,0.0145862102508544,-0.006474494934082,0,0,0,0
21.1,1788519303398,-0.8169013857841492,0.6197183132171631,-0.0022700789850205,0.0016025138320401,0.0427682697772979,0.9990811347961426,-0.0055205786921801,0.0011999822233017,5.663112720233213e-07,0.0001051053841365,0.0037199712824076,0.0596800148487091,0.0008611809462308,0.0027920696884393,-0.9286647439002992,0.3709087073802948,0.003556291546735,0.0023229007847301,0.1864414464802549,-0.0290823578834533,-0.3843084573745727,-0.0081653594970703,0,0,0,0
21.2,1788519303498,-0.8169013857841492,0.6197183132171631,-0.0022897773887962,0.0015005340101197,0.0549418330192565,0.998485803604126,-0.0009726497157977,-0.0030739185649476,-1.6778414663690468e-08,0.003660294925794,-0.0055755130015313,0.058704312890768,0.0007696580141782,0.0026912614703178,-0.928751826286316,0.37069171667099,-0.000223056118181,-0.0006034508750503,-0.0020140224712085,-0.1053423881530761,0.0651424527168273,0.0418815612792968,0,0,0,0
21.3,1788519303598,0.0,0.0,-0.0022897773887962,0.0015005340101197,0.0549418330192565,0.998485803604126,-0.0009726497157977,-0.0030739185649476,-1.6778414663690468e-08,0.003660294925794,-0.0055755130015313,0.058704312890768,0.0007696580141782,0.0026912614703178,-0.928751826286316,0.37069171667099,-0.000223056118181,-0.0006034508750503,-0.0020140224712085,-0.1053423881530761,0.0651424527168273,0.0418815612792968,0,0,0,0
21.4,1788519303698,0.0,0.0,-0.0022897773887962,0.0015005340101197,0.0549418330192565,0.998485803604126,-0.0009726497157977,-0.0030739185649476,-1.6778414663690468e-08,0.003660294925794,-0.0055755130015313,0.058704312890768,0.0007696580141782,0.0026912614703178,-0.928751826286316,0.37069171667099,-0.000223056118181,-0.0006034508750503,-0.0020140224712085,-0.1053423881530761,0.0651424527168273,0.0418815612792968,0,0,0,0
21.5,1788519303798,0.0,0.0,-0.0022913420107215,0.0016433667624369,0.0549142509698867,0.9984870553016664,0.0002735262911945,0.0002002653004665,-7.65335149087705e-07,0.0004849801189266,0.0010767598869279,-0.0018431051867082,0.0008304296061396,0.0027200412005186,-0.928766429424286,0.3706547617912292,-0.0010560229693572,0.0014215654251924,-0.001264875620075,0.0056024193763732,-0.0442686080932617,0.0257415771484375,0,0,0,0
21.6,1788519303898,0.0,0.0,-0.0022902789060026,0.0016279072733595,0.0549441128969192,0.9984853863716124,0.0001053092098912,-0.0001203199934859,-1.5673927953486837e-07,6.582024070667103e-06,-0.0006410288042388,0.0012304062256589,0.0008236831054091,0.002719260752201,-0.928761899471283,0.3706660270690918,-0.0008360810015963,-0.0003643799117951,-1.7890154791813742e-05,0.0217727422714233,-0.0225536227226257,-0.0046300888061523,0,0,0,0
21.7,1788519303998,0.0,0.0,-0.0022902789060026,0.0016279072733595,0.0549441128969192,0.9984853863716124,0.0001053092098912,-0.0001203199934859,-1.5673927953486837e-07,6.582024070667103e-06,-0.0006410288042388,0.0012304062256589,0.000791972503066,0.0027441987767815,-0.928740620613098,0.3707191050052643,-0.0010184564429361,-1.3332048680816857e-05,0.0010581591618681,0.0662024021148681,0.0283427238464355,0.0137405395507812,0,0,0,0
21.8,1788519304098,0.0,0.0,-0.0024195464793592,0.0017657243879511,0.0567697547376155,0.998382806777954,0.0011594827396874,-0.0027861143381589,1.106729635053541e-06,-0.0033893566578626,0.0049132420681416,0.0718524381518364,0.0008686864748597,0.0028447974473237,-0.9274209141731262,0.3740074932575226,-0.0028409245708501,0.0040418577639867,0.1420641021350401,0.2826398015022278,-0.0563294887542724,-0.0808629989624023,0,0,0,0
21.9,1788519304198,0.0,0.0,-0.0025156617630273,0.0017932078335434,0.0673212483525276,0.997726559638977,0.0028277688837269,-0.0054034650876585,1.326909906826166e-06,0.0015281621599569,-0.0044062454253435,0.2529839873313904,0.0008686864748597,0.0028447974473237,-0.9274209141731262,0.3740074932575226,-0.0028409245708501,0.0040418577639867,0.1420641021350401,0.2826398015022278,-0.0563294887542724,-0.0808629989624023,21,383,0,12303
22.0,1788519304298,4.02816915512085,5.295774459838867,-0.0027758609503507,0.0018708790885284,0.0739030018448829,0.997259795665741,0.0214697128205205,-0.0010941510971756,1.0407546072981529e-06,-0.0109091540798544,0.0032353915739804,0.2692222893238067,0.0003552883863449,0.0032763266935944,-0.9156777262687684,0.4018997251987457,-0.0105240135424545,-0.0118990837388673,0.2685149482514752,0.8769917488098145,-0.449033260345459,0.1661748886108398,206,299,15649,20717
22.1,1788519304398,4.704225540161133,5.633802890777588,-0.003078389680013,0.0012575845466926,0.0949528738856315,0.9954761862754822,0.1527873109911145,0.0001462887988644,-2.4468637715990583e-06,-0.0110290478914976,-0.0049663349054753,0.1891669034957885,0.0003552883863449,0.0032763266935944,-0.9156777262687684,0.4018997251987457,-0.0105240135424545,-0.0118990837388673,0.2685149482514752,0.8769917488098145,-0.449033260345459,0.1661748886108398,69,221,13574,20082
22.2,1788519304498,4.619718074798584,5.352112770080566,-0.0033265827223658,0.0009970751125365,0.1021525561809539,0.9947627186775208,0.163150828407541,-0.001950207976282,2.8676388182094705e-05,-0.0060647623613476,0.0177440736442804,0.1122789308428764,2.717040479183197e-05,0.0028151702135801,-0.9078028202056884,0.4193878769874573,0.0255328006380194,-0.0087420759761368,0.1638602098163642,0.1403380632400512,0.1674270033836364,0.3218021392822265,66,334,13194,21555
22.3,1788519304598,4.619718074798584,5.352112770080566,-0.0025121362414211,0.0009051352390088,0.1089191138744354,0.994046986103058,0.1703097734525702,-0.0027609977078904,3.092490861495532e-05,0.0261909905821084,-0.0108545636758208,0.1602310687303543,2.717040479183197e-05,0.0028151702135801,-0.9078028202056884,0.4193878769874573,0.0255328006380194,-0.0087420759761368,0.1638602098163642,0.1403380632400512,0.1674270033836364,0.3218021392822265,66,334,13194,21555
22.4,1788519304698,4.619718074798584,5.352112770080566,-0.0039552981033921,0.0020569278858602,0.1129757538437843,0.9935877323150636,0.169671958270198,-0.0011710043048943,-9.738136699044711e-05,-0.007485156878829,0.0225752219557762,0.0528647936880588,0.0007566818967461,0.0044386610388755,-0.9055219888687134,0.4242755174636841,-0.0011815749728797,0.0199646424997312,0.0537628683251673,-0.0827844142913818,-0.3274710774421692,-0.0494232177734375,66,334,13194,21555
22.5,1788519304798,4.873239517211914,5.380281925201416,-0.0039552981033921,0.0020569278858602,0.1129757538437843,0.9935877323150636,0.169671958270198,-0.0011710043048943,-9.738136699044711e-05,-0.007485156878829,0.0225752219557762,0.0528647936880588,0.0001462558284401,0.0042788553982973,-0.9039289951324464,0.4276610612869262,-0.0067561747503786,-0.0109527801265361,0.0629494401120519,0.0533758401870727,-0.1307427883148193,-0.6335325241088867,66,334,13194,21555
22.6,1788519304898,4.8450703620910645,5.239436626434326,-0.0040020141750574,0.0017005781410261,0.1167301386594772,0.9931541085243224,0.1753295837172959,0.0050675185408616,1.575933351658149e-05,-0.0051621831953525,-0.0103297717869281,0.0364685803651809,0.0001462558284401,0.0042788553982973,-0.9039289951324464,0.4276610612869262,-0.0067561747503786,-0.0109527801265361,0.0629494401120519,0.0533758401870727,-0.1307427883148193,-0.6335325241088867,66,250,13848,18954
22.7,1788519304998,4.8450703620910645,5.239436626434326,-0.0040020141750574,0.0017005781410261,0.1167301386594772,0.9931541085243224,0.1753295837172959,0.0050675185408616,1.575933351658149e-05,-0.0051621831953525,-0.0103297717869281,0.0364685803651809,7.327739149332047e-05,0.0044404091313481,-0.9028884172439576,0.4298520684242248,-0.0046322095434984,-0.0029089799245337,-0.0414981869601732,0.477195143699646,-0.4091935157775879,1.8996992111206052,66,250,13848,18954
22.8,1788519305098,4.8450703620910645,5.239436626434326,-0.0040020141750574,0.0017005781410261,0.1167301386594772,0.9931541085243224,0.1753295837172959,0.0050675185408616,1.575933351658149e-05,-0.0051621831953525,-0.0103297717869281,0.0364685803651809,0.00037198420614,0.007196451537311,-0.9095647931098938,0.415499597787857,-0.052963816382642,0.0460706578161877,-0.3591474068343111,-0.1040095090866088,-0.1905434131622314,-0.4132194519042969,66,250,13848,18954
22.9,1788519305198,5.7183098793029785,4.507042407989502,-0.0072266212664544,0.003959815017879,0.0995025858283042,0.9950031638145448,0.1471610312639062,-0.0128577841624279,-0.0002630187294663,-0.0262995604425668,0.077192336320877,-0.2923545837402344,0.0030572358518838,0.012775114737451,-0.9145750403404236,0.4042028784751892,-0.1144215761797877,0.107260636645124,-0.1818975528964497,0.0025322437286376,-0.0360476970672607,-0.7301826477050781,109,376,17403,19465
23.0,1788519305298,5.7183098793029785,4.507042407989502,-0.0111699514091014,0.0055571417324244,0.0856937021017074,0.996243417263031,0.1705517675169877,-0.0117534013790983,0.0001111234695486,-0.0033267769031226,-0.0744650140404701,-0.2012205570936203,0.00270692165941,0.0130801163613796,-0.915887176990509,0.4012134373188019,-0.0190360334456663,-0.0079319471114673,-0.1579377339269864,-0.0464680194854736,-0.3408034443855285,1.2154216766357422,109,376,17403,19465
23.1,1788519305398,5.521126747131348,4.619718074798584,-0.0074814823456108,0.0049086851067841,0.0819867998361587,0.9965932965278624,0.1625596123374832,-0.0136249863347486,3.688885502482284e-05,0.1647344231605529,-0.0417148284614086,-0.1677252948284149,0.0019929781556129,0.0068032359704375,-0.9209797382354736,0.3895459473133087,0.0059802715029145,0.0100372738548332,-0.1811120235222387,0.2767093181610107,0.0219644904136657,-2.1942710876464844,58,331,15300,19626
23.2,1788519305498,5.521126747131348,4.619718074798584,-0.0074814823456108,0.0049086851067841,0.0819867998361587,0.9965932965278624,0.1625596123374832,-0.0136249863347486,3.688885502482284e-05,0.1647344231605529,-0.0417148284614086,-0.1677252948284149,0.0018194112926721,0.0066629936918616,-0.9223452806472778,0.3863051235675812,4.9097022623042966e-05,-0.0094997524849788,-0.0382107901070395,-0.1148211956024169,-0.1824344396591186,-0.783320426940918,58,331,15300,19626
23.3,1788519305598,5.521126747131348,4.619718074798584,-0.0060373530723154,0.0039321412332355,0.0723364502191543,0.9973543286323548,0.1641901145800513,-0.0121533422671907,4.668714835228019e-05,-0.0024341829121112,-0.0078250532969832,-0.0526790991425514,0.0032922131940722,0.0075522260740399,-0.9225836992263794,0.3857089281082153,-0.009353540207662,0.0548844160688523,-0.0219975929930047,0.0821660757064819,-0.159230351448059,-0.8414020538330078,58,331,15300,19626
23.4,1788519305698,5.521126747131348,4.619718074798584,-0.0060579893179237,0.0068141054362058,0.0707246661186218,0.9974542260169984,0.1631434818048995,-0.002851304575816,-0.0001545012818136,0.0006550208199769,0.0780166760087013,-0.0331185422837734,0.0032922131940722,0.0075522260740399,-0.9225836992263794,0.3857089281082153,-0.009353540207662,0.0548844160688523,-0.0219975929930047,0.0821660757064819,-0.159230351448059,-0.8414020538330078,58,331,15300,19626
23.5,1788519305798,5.183098793029785,4.760563373565674,-0.0056841229088604,0.0062709394842386,0.0682141929864883,0.997634768486023,0.1619731156720415,-0.0069626227260171,-1.2947856252803708e-05,-0.0065403338521718,0.0034618803765624,-0.0556645095348358,0.0032922131940722,0.0075522260740399,-0.9225836992263794,0.3857089281082153,-0.009353540207662,0.0548844160688523,-0.0219975929930047,0.0821660757064819,-0.159230351448059,-0.8414020538330078,58,331,15300,19626
23.6,1788519305898,5.183098793029785,4.901408672332764,-0.0056841229088604,0.0062709394842386,0.0682141929864883,0.997634768486023,0.1619731156720415,-0.0069626227260171,-1.2947856252803708e-05,-0.0065403338521718,0.0034618803765624,-0.0556645095348358,0.003721946850419,0.0065228100866079,-0.9246641397476196,0.3807096779346466,0.0517437737064919,-0.0287119355011216,-0.0009380827607048,-0.5743135213851929,-0.1031649112701416,1.7135047912597656,74,258,14354,18010
23.7,1788519305998,3.577464818954468,2.901408433914185,-0.0056841229088604,0.0062709394842386,0.0682141929864883,0.997634768486023,0.1619731156720415,-0.0069626227260171,-1.2947856252803708e-05,-0.0065403338521718,0.0034618803765624,-0.0556645095348358,0.0029565887525677,0.006214190274477,-0.9263527393341064,0.376594215631485,-0.0030705692083679,-0.0163091104026115,-0.1565387621958775,-1.3392800092697144,-0.3284962177276611,0.7571611404418945,5,83,7599,7941
23.8,1788519306098,0.7042253613471985,-0.1971831023693084,-0.0056841229088604,0.0062709394842386,0.0682141929864883,0.997634768486023,0.1619731156720415,-0.0069626227260171,-1.2947856252803708e-05,-0.0065403338521718,0.0034618803765624,-0.0556645095348358,0.0029565887525677,0.006214190274477,-0.9263527393341064,0.376594215631485,-0.0030705692083679,-0.0163091104026115,-0.1565387621958775,-1.3392800092697144,-0.3284962177276611,0.7571611404418945,5,83,7599,7941
23.9,1788519306198,0.5070422291755676,-0.4507042169570923,-0.0049204798415303,0.0049465270712971,0.0501008704304695,0.9987198114395142,0.0031172071878337,0.0005563464805954,-1.3052151681985244e-06,0.0003157992032356,0.0021184666547924,-0.0453699864447116,0.0030738385394215,0.0062527973204851,-0.9318948984146118,0.3626615405082702,-0.0004473268026135,0.0017039645936777,-0.121955608800952,0.8456577658653259,-0.248426616191864,-0.0250205993652343,163,395,5582,-8689
24.0,1788519306298,0.5070422291755676,-0.4507042169570923,-0.0049084341153502,0.0049117999151349,0.0489454343914985,0.9987772703170776,-0.000117765763891,0.0005366308776105,1.4133326451489186e-06,0.0006485922494903,-0.0011899705277755,-0.0460684075951576,0.0033666063100099,0.006479131989181,-0.936622142791748,0.3502651453018188,-0.000377731566524,0.0085748625314566,-0.1970098777777925,-0.9316566586494446,0.3824533224105835,0.2680578231811523,163,395,5582,-8689
24.1,1788519306398,0.5070422291755676,-0.4507042169570923,-0.0050661899149417,0.0052580302581191,0.0330900773406028,0.9994256496429444,-0.0001344817325139,0.0030789073752527,5.814259536636862e-07,-0.0003163784567732,0.0046550375409424,-0.1449225395917892,0.0033875377848744,0.0064685074612498,-0.9365207552909852,0.3505361378192901,0.0010471956741789,0.0009636855765633,0.0192857443739674,0.1131119728088378,-0.0499158501625061,0.0624666213989257,163,395,5582,-8689
24.2,1788519306498,0.0,0.0,-0.0050705363973975,0.0051967995241284,0.0334085226058959,0.999415397644043,-0.002378312060399,0.0012635917856008,-1.4422610780734725e-06,-0.0003258741926401,-0.0025200683157891,0.0128100477159023,0.0034102909266948,0.0064866337925195,-0.9364686608314514,0.3506749272346496,-0.0005526306425539,0.0024361774797543,-0.0005159996542992,0.0311747193336486,0.032986044883728,0.0337209701538085,0,0,0,0
24.3,1788519306598,-0.0563380271196365,0.0281690135598182,-0.0050705363973975,0.0051967995241284,0.0334085226058959,0.999415397644043,-0.002378312060399,0.0012635917856008,-1.4422610780734725e-06,-0.0003258741926401,-0.0025200683157891,0.0128100477159023,0.0033148163929581,0.0064219385385513,-0.9347172379493712,0.3553187847137451,8.640746197398739e-05,-0.0082225850864733,0.1917288129410435,0.1594300270080566,-0.2206043004989624,0.2918453216552734,0,0,0,0
24.4,1788519306698,-0.0563380271196365,0.0281690135598182,-0.0050798058509826,0.0053985039703547,0.0346498601138591,0.9993720054626464,-0.0080311156114524,0.0015210481900494,1.7941055310754644e-06,-0.0008708027889952,0.004008051007986,0.042902186512947,0.0033148163929581,0.0064219385385513,-0.9347172379493712,0.3553187847137451,8.640746197398739e-05,-0.0082225850864733,0.1917288129410435,0.1594300270080566,-0.2206043004989624,0.2918453216552734,0,0,0,0
24.5,1788519306798,-0.0563380271196365,0.0281690135598182,-0.0049543576315045,0.0050089159049093,0.0520605817437171,0.9986190795898438,0.0006130165020192,-0.0020312328891433,1.3449909387957193e-06,0.0013302486622706,-0.0048155686818063,0.2355603128671646,0.0031307898461818,0.0062809297814965,-0.925318956375122,0.3791247010231018,-0.0021033673643922,0.000168823221808,0.2552798782706443,-0.0314835906028747,-0.0255442857742309,-0.0440807342529296,0,0,0,0
24.6,1788519306898,0.0,0.0,-0.0049638450145721,0.0049647688865661,0.0644682571291923,0.997895121574402,0.0006559804560178,-0.0019136084572145,-1.45181786220038e-06,-0.0019638375379145,8.634136611362919e-05,0.2481959164142608,0.0030984282493591,0.0062663787975907,-0.9219664335250854,0.3872066736221313,-0.0001070538131588,-0.0049225577895827,0.1589324866841387,0.2681249380111694,-0.3078698515892029,-0.124786376953125,61,223,-4649,7546
24.7,1788519306998,0.0,0.0,-0.00494164833799,0.0049667404964566,0.0730988383293151,0.9973000288009644,0.0029260675734222,-0.0027339672064544,8.897077240616639e-07,0.0007624392164871,0.0019762529991567,0.0172552578151226,0.0030984282493591,0.0062663787975907,-0.9219664335250854,0.3872066736221313,-0.0001070538131588,-0.0049225577895827,0.1589324866841387,0.2681249380111694,-0.3078698515892029,-0.124786376953125,0,0,0,0
24.8,1788519307098,0.0,0.0,-0.00494164833799,0.0049667404964566,0.0730988383293151,0.9973000288009644,0.0029260675734222,-0.0027339672064544,8.897077240616639e-07,0.0007624392164871,0.0019762529991567,0.0172552578151226,0.0031535634770989,0.0062886252999305,-0.9229596853256226,0.3848324418067932,1.4018100885983965e-05,0.0054128102396502,-0.1515293613831979,-0.3014976382255554,-0.2415832877159118,-0.0838842391967773,0,0,0,0
24.9,1788519307198,0.8732394576072693,-0.6478873491287231,-0.00494164833799,0.0049667404964566,0.0730988383293151,0.9973000288009644,0.0029260675734222,-0.0027339672064544,8.897077240616639e-07,0.0007624392164871,0.0019762529991567,0.0172552578151226,0.0030978890135884,0.0062271496281027,-0.9270355105400084,0.374908983707428,0.0003238825291501,-0.0004477426348556,-0.2178785867074244,0.1811645627021789,-0.1117164492607116,-0.117161750793457,0,0,0,0
25.0,1788519307298,0.8450704216957092,-0.7887324094772339,-0.004918654449284,0.0049105058424174,0.0602554082870483,0.9981587529182434,0.0015019437446907,0.0024451720584268,1.6075166751374778e-06,0.0004249949706718,-0.0004872148274444,-0.21686452627182,0.0031266752630472,0.0062809893861413,-0.9308624863624572,0.3653022944927215,-0.0006124868607257,0.0050251723586694,-0.2596357225311751,-0.0299484133720397,-0.0048211812973022,0.0979061126708984,87,188,3985,-8174
25.1,1788519307398,0.8450704216957092,-0.7887324094772339,-0.0050880550406873,0.0053045465610921,0.0365145169198513,0.99930602312088,-0.0007100189241941,0.001635986557967,8.05622074259288e-07,-0.0012359025422483,0.0063492977060377,-0.2522970736026764,0.0033752908930182,0.0064554475247859,-0.9338628649711608,0.3575571477413177,-0.0019161328792411,0.0135566942833774,-0.2235832365771355,-0.1377908587455749,-0.0830538868904113,0.0271005630493164,87,188,3985,-8174
25.2,1788519307498,0.0,0.0,-0.0050880550406873,0.0053045465610921,0.0365145169198513,0.99930602312088,-0.0007100189241941,0.001635986557967,8.05622074259288e-07,-0.0012359025422483,0.0063492977060377,-0.2522970736026764,0.0035057477653026,0.0065389182418584,-0.9367684125900269,0.3498714864253998,0.0022983007834599,0.0073301884886958,-0.1223607912951421,-0.5501582622528076,0.2941709756851196,-0.0503339767456054,0,0,0,0
25.3,1788519307598,0.0,0.0,-0.0050825821235775,0.0053068958222866,0.0334375388920307,0.999413788318634,0.0005292613355056,-0.0009656013342432,3.998638117863293e-07,-0.0001909665152197,-0.0021516131237149,0.0078696003183722,0.0034445980563759,0.0065303854644298,-0.9365057945251464,0.3505745530128479,-0.0005925161164685,0.0006930733249993,-0.0056492134950264,-0.1236827969551086,-0.1063828468322753,-0.0106353759765625,0,0,0,0
25.4,1788519307698,0.4507042169570923,1.774647831916809,-0.005161088425666,0.0053132977336645,0.0357243344187736,0.9993342757225036,-0.0109922627122975,0.0027482509321803,2.333136023104997e-06,-0.0035562189295887,-8.531151252100244e-05,0.0896129161119461,0.0030331267043948,0.0064307879656553,-0.933306872844696,0.3590092957019806,0.0002827245034156,-0.0201063404310958,0.2372944639912321,1.95832633972168,0.1387749314308166,-0.1909341812133789,281,384,10033,15642
25.5,1788519307798,3.4647886753082275,4.084506988525391,-0.0051835146732628,0.0054817609488964,0.0479965545237064,0.9988189935684204,0.1130272548966452,-0.0011421708874182,-5.028852099912544e-05,-0.0010153526673093,0.0154014816507697,0.0937525480985641,0.0035268012434244,0.0066252341493964,-0.9311922788619996,0.3644512295722961,-0.0005732643453751,0.0122774473442367,0.0926584378777388,0.6971206068992615,-0.0705614686012268,0.3379812240600586,148,342,13210,18280
25.6,1788519307898,5.464788913726807,5.211267471313477,-0.0051835146732628,0.0054817609488964,0.0479965545237064,0.9988189935684204,0.1130272548966452,-0.0011421708874182,-5.028852099912544e-05,-0.0010153526673093,0.0154014816507697,0.0937525480985641,0.0052400333806872,0.0070446906611323,-0.9302300214767456,0.3668720126152038,0.0071273953258836,0.0953332923750841,0.0618090862261061,-0.2987591624259949,-0.6454386711120605,3.896794319152832,148,342,13210,18280
25.7,1788519307998,5.098591327667236,4.957746505737305,-0.0047591417096555,0.0052259573712944,0.0510676801204681,0.998670220375061,0.1837535994303728,-0.0074104680177085,-0.0001688586773761,0.0093780644237995,-0.0343725718557834,0.0423897914588451,0.0024428563192486,0.0060778968036174,-0.9305316209793092,0.3661530911922455,-0.0033817437622403,-0.0217699668418329,-0.0493979709616641,-0.3793900609016418,0.0453481078147888,1.677106857299805,63,250,14391,18470
25.8,1788519308098,4.929577350616455,4.704225540161133,-0.0047692954540252,0.0040144207887351,0.0496770478785038,0.998745858669281,0.1636842132154719,-0.0019374091055127,3.612254692097435e-06,0.0085055530071258,-0.0111728534102439,-0.0094753541052341,0.0015628337860107,0.0062766168266534,-0.9305853247642516,0.366017997264862,-0.0225006136687366,0.0085059439447848,-0.0151009139590442,0.3536113500595093,0.1758505702018737,0.3409547805786133,87,345,14883,20584
25.9,1788519308198,4.929577350616455,4.704225540161133,-0.0047692954540252,0.0040144207887351,0.0496770478785038,0.998745858669281,0.1636842132154719,-0.0019374091055127,3.612254692097435e-06,0.0085055530071258,-0.0111728534102439,-0.0094753541052341,0.001768073067069,0.0078564314171671,-0.931153118610382,0.3645395636558532,-0.023227637523782,0.025137984307774,-0.0215794261831767,0.0800450444221496,-0.3075410723686218,1.8126192092895508,87,345,14883,20584
26.0,1788519308298,4.929577350616455,4.704225540161133,-0.0080472659319639,0.0050798528827726,0.0483937487006187,0.9987830519676208,0.1620455591002956,-0.0016141291121861,-3.85442103304107e-05,-0.0507236160337924,0.0405860505998134,-0.0121391238644719,0.0013505071401596,0.0076238363981246,-0.9310098886489868,0.3649119436740875,0.0028165848803033,-0.0215026395269405,0.0178792395644209,0.1659966111183166,0.4164681434631347,0.1761198043823242,87,345,14883,20584
26.1,1788519308398,5.014084339141846,5.464788913726807,-0.0080472659319639,0.0050798528827726,0.0483937487006187,0.9987830519676208,0.1620455591002956,-0.0016141291121861,-3.85442103304107e-05,-0.0507236160337924,0.0405860505998134,-0.0121391238644719,0.0013505071401596,0.0076238363981246,-0.9310098886489868,0.3649119436740875,0.0028165848803033,-0.0215026395269405,0.0178792395644209,0.1659966111183166,0.4164681434631347,0.1761198043823242,59,274,14519,19357
26.2,1788519308498,5.042253494262695,5.352112770080566,-0.0048360843211412,0.0015161661431193,0.0506233982741832,0.9987049102783204,0.1573150300751742,-0.0019291923726178,0.0001004320635728,0.0109918490052223,-0.0067400825209915,0.0220879223197698,-0.0004665153101086,0.0054858140647411,-0.929529309272766,0.3687073290348053,-0.0275934785960587,-0.010432195624466,0.0345068809501821,0.0064805746078491,0.0742416381835937,1.0250883102416992,65,224,14436,18931
26.3,1788519308598,4.957746505737305,5.126760482788086,-0.0048360843211412,0.0015161661431193,0.0506233982741832,0.9987049102783204,0.1573150300751742,-0.0019291923726178,0.0001004320635728,0.0109918490052223,-0.0067400825209915,0.0220879223197698,-0.0008343588560819,0.0059397984296083,-0.9293755888938904,0.369086742401123,-0.0223204012096995,-0.0070539900602735,0.0162956817027887,-0.0469187498092651,0.1424366235733032,-1.498331069946289,65,224,14436,18931
26.4,1788519308698,4.957746505737305,5.126760482788086,-0.006160547491163,0.0005893458146601,0.0530890263617038,0.9985706210136414,0.163352124736789,-0.003378739895165,9.828865061083324e-05,-0.0115400608628988,-0.0197499133646488,-0.006113545037806,-0.0015943944454193,0.0061944490298628,-0.929185152053833,0.3695594370365143,-0.0096262994339045,-0.0040803357261847,0.0067334276283483,-0.0165033340454101,-0.0016940832138061,-0.001479148864746,65,224,14436,18931
