time_s,timestamp_ms,wheel_vels__velocity_left,wheel_vels__velocity_right,odom__orient_x,odom__orient_y,odom__orient_z,odom__orient_w,odom__lin_x,odom__lin_y,odom__lin_z,odom__ang_x,odom__ang_y,odom__ang_z,imu__orient_x,imu__orient_y,imu__orient_z,imu__orient_w,imu__angvel_x,imu__angvel_y,imu__angvel_z,imu__acc_x,imu__acc_y,imu__acc_z,wheel_status__current_ma_left,wheel_status__current_ma_right,wheel_status__pwm_left,wheel_status__pwm_right
0.0,1788525479118,0.0,0.0,-0.0038415063172578,-0.0005162005545571,0.0153964329510927,0.9998739361763,-0.0002668218405775,0.0004270869140909,1.1861685016727013e-08,0.0006113361450843,0.0016246055020019,-0.0099059920758008,-0.0037470255047082,-0.0008392594754695,0.0841213762760162,0.9964481592178344,0.0013407110912723,-0.0026677983900943,0.0045461926909002,-0.0255987644195556,0.0401057600975036,-0.02337646484375,5,0,0,0
0.1,1788525479218,0.0,0.0,-0.0038415063172578,-0.0005162005545571,0.0153964329510927,0.9998739361763,-0.0002668218405775,0.0004270869140909,1.1861685016727013e-08,0.0006113361450843,0.0016246055020019,-0.0099059920758008,-0.0037470255047082,-0.0008392594754695,0.0841213762760162,0.9964481592178344,0.0013407110912723,-0.0026677983900943,0.0045461926909002,-0.0255987644195556,0.0401057600975036,-0.02337646484375,5,0,0,0
0.2,1788525479318,0.0,0.0,-0.0038415063172578,-0.0005162005545571,0.0153964329510927,0.9998739361763,-0.0002668218405775,0.0004270869140909,1.1861685016727013e-08,0.0006113361450843,0.0016246055020019,-0.0099059920758008,-0.0037470255047082,-0.0008392594754695,0.0841213762760162,0.9964481592178344,0.0013407110912723,-0.0026677983900943,0.0045461926909002,-0.0255987644195556,0.0401057600975036,-0.02337646484375,5,0,0,0
0.3,1788525479418,0.0,0.0,-0.0038415063172578,-0.0005162005545571,0.0153964329510927,0.9998739361763,-0.0002668218405775,0.0004270869140909,1.1861685016727013e-08,0.0006113361450843,0.0016246055020019,-0.0099059920758008,-0.0037470255047082,-0.0008392594754695,0.0841213762760162,0.9964481592178344,0.0013407110912723,-0.0026677983900943,0.0045461926909002,-0.0255987644195556,0.0401057600975036,-0.02337646484375,5,0,0,0
0.4,1788525479518,0.0,0.0,-0.0038415063172578,-0.0005162005545571,0.0153964329510927,0.9998739361763,-0.0002668218405775,0.0004270869140909,1.1861685016727013e-08,0.0006113361450843,0.0016246055020019,-0.0099059920758008,-0.0037470255047082,-0.0008392594754695,0.0841213762760162,0.9964481592178344,0.0013407110912723,-0.0026677983900943,0.0045461926909002,-0.0255987644195556,0.0401057600975036,-0.02337646484375,5,0,0,0
0.5,1788525479618,0.0,0.0,-0.0038415063172578,-0.0005162005545571,0.0153964329510927,0.9998739361763,-0.0002668218405775,0.0004270869140909,1.1861685016727013e-08,0.0006113361450843,0.0016246055020019,-0.0099059920758008,-0.0038900580257177,-0.0010117404162883,0.0841984748840332,0.9964409470558168,-0.0101655058470159,-0.0103669092890545,0.004980832043058,-0.0463858246803283,0.1279530525207519,-0.0731334686279296,7,0,0,0
0.6,1788525479718,0.0,0.0,-0.0039999848231673,-0.0008513609063811,0.015527200885117,0.9998711347579956,-0.0034102381191682,0.0032881798911724,-4.226952662500636e-08,9.414499041460188e-11,-3.389219571658941e-09,1.4460670172411485e-07,-0.0038513271138072,-0.0009885393083095,0.0845680981874466,0.996409833431244,-7.848125244166697e-05,-0.0109638397633185,0.0147151332274035,-0.0796045660972595,-0.0123853683471679,-0.1533422470092773,7,0,0,0
0.7,1788525479818,0.0,0.0,-0.0039999848231673,-0.0008513609063811,0.0155272092670202,0.9998711347579956,0.0,0.0,0.0,7.263079027097774e-11,-3.4862779330069316e-09,1.1156089385622181e-07,-0.0038618212565779,-0.0009509492665529,0.0846555009484291,0.996402382850647,-0.0019641277923076,-0.0005681727193121,0.003846968618302,-0.0798355937004089,-0.0152726173400878,0.0191116333007812,3,0,0,0
0.8,1788525479918,0.0,0.0,-0.0039900499396026,-0.0006826191674917,0.016797998920083,0.9998507499694824,-0.0026478230262791,0.0011533532518562,-7.024347413550891e-08,-0.0018543151672929,0.0008999888668768,0.0262725632637739,-0.0039595244452357,-0.0009610382840037,0.0860366225242614,0.9962837100028992,-0.0010066489853247,-0.0007102493693174,0.027419026725081,0.0604596734046936,-0.0420172214508056,0.0090198516845703,1,0,0,0
0.9,1788525480018,0.0,0.0,-0.0040192594751715,-0.0007468998082913,0.0176665857434272,0.9998356103897096,0.0001394470341618,-0.0005862953017362,1.6166538696836033e-08,-1.3393083463597575e-05,-0.0009694533655419,0.0038448092527687,-0.0039497474208474,-0.0010533751919865,0.0863347798585891,0.996257781982422,2.2879424684797348e-05,-0.0010875432368287,-0.0001095025658686,-0.0079078078269958,0.0116767883300781,0.0305862426757812,5,0,0,0
1.0,1788525480118,0.0,0.0,-0.0041067264974117,-0.0007546048727817,0.0174624416977167,0.9998388290405272,0.0010639211362417,-0.0001353252485737,1.8588075179481703e-09,-0.0034493587445467,-0.0001983837428269,-0.0063097449019551,-0.0040559582412242,-0.0013005677610635,0.0859960839152336,0.996286392211914,-0.0065680499122114,-0.0170444626718398,-0.0123719065447642,-0.0343077778816223,-0.1369167566299438,0.0581645965576171,0,0,0,0
1.1,1788525480218,0.0,0.0,-0.0040761018171906,-0.0009542547049932,0.0175059791654348,0.9998379945755004,0.0006926179787363,-0.0007671743944458,4.4595527400229774e-08,-0.0009600950288586,-0.0020844088867306,0.0056957500055432,-0.0039615044370293,-0.0010659880936145,0.0862328112125396,0.9962666034698486,0.002469161607503,0.0047478949107273,0.0054819342543654,0.0572479963302612,0.0217412114143371,-0.0892724990844726,3,0,0,0
1.2,1788525480318,0.0,0.0,-0.0039556254632771,-0.0007960214279592,0.0175638161599636,0.9998376369476318,0.0002956469844788,-0.0003402213841306,1.1548611621709464e-08,0.0044392365962266,0.002715112408623,0.0034226747229695,-0.00385875813663,-0.0009767217561602,0.0862262621521949,0.996267557144165,0.0025492141730476,0.0042784948743588,-0.0003962941412951,0.0116580724716186,-0.0187021493911743,-0.0108070373535156,3,0,0,0
1.3,1788525480418,0.0,0.0,-0.0039003435522317,-0.000710605236236,0.0175686087459325,0.9998378753662108,6.139860960566927e-05,-7.249652989311897e-05,1.8655479845511244e-08,0.0003899876028299,-0.0001910834398586,0.0007314372342079,-0.0038389675319194,-0.0010030195116996,0.0862042903900146,0.9962695240974426,0.0005431715099949,2.1499110937096957e-05,-0.0020643909902854,0.0182801485061645,0.0276291370391845,-0.0086326599121093,8,0,0,0
1.4,1788525480518,0.0,0.0,-0.0039003435522317,-0.0007106051198206,0.0175686199218034,0.9998378753662108,0.0,0.0,0.0,2.1434141961318431e-10,2.286308475873966e-09,2.194856136839008e-07,-0.0038723172619938,-0.0010230429470539,0.0861548110842704,0.996273636817932,-0.0008893858299397,-0.0011312346149627,-0.001167648574007,0.0215435624122619,-0.021973967552185,-0.0107412338256835,7,0,0,0
1.5,1788525480618,0.0,0.0,-0.003900344017893,-0.000710605236236,0.0175686310976743,0.9998378753662108,0.0,0.0,0.0,1.7820987741057334e-10,1.9959505159761193e-09,2.1898429736211258e-07,-0.0038657486438751,-0.0010268334299325,0.0862520709633827,0.9962653517723083,0.0015832737438413,-0.0026955956825394,0.0070183718526475,0.0233300328254699,0.0713662505149841,-0.0208330154418945,4,0,0,0
1.6,1788525480718,0.0,0.0,-0.003900344017893,-0.0007106051780283,0.0175686329603195,0.9998378753662108,0.0,0.0,0.0,0.0,1.0391136839871251e-09,0.0,-0.0039265342056751,-0.0010099988430738,0.0860886797308921,0.996279239654541,-0.0026384619036614,0.0015836065875377,-0.0073386258452524,-0.024868369102478,0.0112992525100708,1.049041748046875e-05,7,0,0,0
1.7,1788525480818,0.0,0.0,-0.003900344017893,-0.0007106051780283,0.0175686329603195,0.9998378753662108,0.0001435599324944,-0.0001382926895289,-2.211068343760855e-09,0.0,6.17268625102696e-10,0.0,-0.0039342418313026,-0.000957447104156,0.0859941691160202,0.99628746509552,0.0002182687261607,-0.0002938831727444,-0.0047383781190644,0.0049535036087036,0.0634901523590087,-0.0066299438476562,3,0,0,0
1.8,1788525480918,0.0,0.0,-0.003900344017893,-0.0007106051780283,0.0175686329603195,0.9998378753662108,0.0,0.0,0.0,0.0,8.873097812056584e-10,0.0,-0.0039293132722377,-0.0010021859779953,0.0861419364809989,0.9962746500968932,0.0005759064824946,-0.0001087953432104,0.0037021757911458,-0.0049113035202026,0.0508754849433898,-0.0031709671020507,0,0,0,0
1.9,1788525481018,0.0,0.0,-0.003900344017893,-0.0007106051780283,0.0175686329603195,0.9998378753662108,0.0,0.0,0.0,0.0,8.879050827914624e-10,0.0,-0.0039119785651564,-0.0011423472315073,0.0863722935318946,0.9962546229362488,0.0013577562174603,-0.0084485059462873,0.0122790295670461,0.1696469187736511,0.098673403263092,0.0826473236083984,0,0,0,0
2.0,1788525481118,0.0,0.0,-0.003900344017893,-0.0007106051780283,0.0175686329603195,0.9998378753662108,0.0004950341697169,9.416729293021289e-06,-3.479581299126784e-09,0.0,1.0906847647262907e-09,0.0,-0.0039942413568496,-0.0011298647150397,0.0859285145998001,0.9962925910949708,0.0024826017842477,-0.0047667690569653,0.0019867706966136,-0.1026962995529174,-0.2244511842727661,0.0266609191894531,2,0,0,0
2.1,1788525481218,0.0,0.0,-0.003900344017893,-0.0007106051780283,0.0175686329603195,0.9998378753662108,-0.0012445149805977,0.0031422485742155,-4.6766872413370366e-09,0.0,8.669466811106473e-10,0.0,-0.0039111915975809,-0.0011775344610214,0.0863585695624351,0.9962557554244996,0.0019949971865688,-0.0013497004426034,0.0046074012813168,-0.1629409790039062,-0.1684485077857971,0.0177297592163085,2,0,0,0
2.2,1788525481318,0.0,0.0,-0.003900344017893,-0.0007106051780283,0.0175686329603195,0.9998378753662108,-0.0006271342570083,0.0013883339952732,-9.688621382421441e-09,0.0,8.772349513463951e-10,0.0,-0.0039461338892579,-0.0012283120304346,0.0864750072360038,0.9962454438209534,-0.0030280383920894,-0.000928338398132,0.0079125506971566,-0.0037357807159423,-0.2284197807312011,-0.0284414291381835,0,0,0,0
2.3,1788525481418,0.0,0.0,-0.0039575104601681,-0.0008631173986941,0.0177042111754417,0.9998350739479064,0.0007526852214745,-0.0095051225607465,-1.3625112664011521e-08,-2.1296835128747915e-10,-2.271662413733111e-09,-2.1807959171837865e-07,-0.0038605751469731,-0.0016232412308454,0.0866087228059768,0.9962336421012878,-0.0028253675739628,-0.0018281921487426,-0.0002465787425049,0.0528543591499328,0.1062273979187011,0.008453369140625,4,0,0,0
2.4,1788525481518,0.0,0.0,-0.0039876294322311,-0.0012360042892396,0.0180036313831806,0.9998291730880736,-0.0005391095178854,0.0032007537624394,-1.385175308840435e-06,-0.001830696943216,-0.0187422577291727,0.0149559993296861,-0.0040708994492888,-0.0017542270943522,0.0864894315600395,0.9962429404258728,-0.0027918388764992,-0.0105937694411715,-0.0008494202877836,0.0913204550743103,-0.3787336945533752,0.1112537384033203,7,0,0,0
2.5,1788525481618,0.0,0.0,-0.0039876298978924,-0.0012360044056549,0.0180036444216966,0.9998291730880736,-0.003021882842115,0.0025231294000793,3.2732892450950135e-08,-1.8334157303456777e-08,1.449340536474608e-09,2.2261869503381607e-07,-0.0040058363229036,-0.001890861429274,0.0870272517204284,0.9961960911750792,0.0015417961056198,-0.0038162800702761,0.0243772729228289,0.0642910599708557,-0.0339002013206481,-0.0301418304443359,5,0,0,0
2.6,1788525481718,0.0,0.0,-0.0040986174717545,-0.0015412976499646,0.0182406157255172,0.999824047088623,-0.0005024245045876,0.0002773355810772,-3.718582069095224e-07,-0.0058719869703054,-0.0153729794546961,0.0119237937033176,-0.0040290942415595,-0.00195924192667,0.0868243724107742,0.9962135553359984,-0.0020836710861752,0.0038648233309407,-0.0066500725147719,0.0237259268760681,0.0891065597534179,-0.0744075775146484,6,0,0,0
2.7,1788525481818,0.0,0.0,-0.0040986174717545,-0.0015412976499646,0.0182406157255172,0.999824047088623,-0.0005024245045876,0.0002773355810772,-3.718582069095224e-07,-0.0058719869703054,-0.0153729794546961,0.0119237937033176,-0.0041038924828171,-0.0014783777296543,0.0864756107330322,0.9962444305419922,0.0015514184229371,-0.0003224557123977,-0.0022578536145174,-0.2332499623298645,-0.0223834514617919,0.0363531112670898,3,0,0,0
2.8,1788525481918,0.0,0.0,-0.0041510784067213,-0.0013650307664647,0.0183007549494504,0.999823033809662,0.001964982627257,-0.0027624366844291,2.981086952256304e-07,0.002892218530178,-0.0089234225451946,0.0226035267114639,-0.0041038924828171,-0.0014783777296543,0.0864756107330322,0.9962444305419922,0.0015514184229371,-0.0003224557123977,-0.0022578536145174,-0.2332499623298645,-0.0223834514617919,0.0363531112670898,1,0,0,0
2.9,1788525482018,0.0,0.0,-0.0041510788723826,-0.0013650306500494,0.0183007288724184,0.999823033809662,-0.0007919163917803,0.0007626935472823,-2.697622153676445e-08,-4.2618053530674155e-10,1.1648935149821682e-08,-4.364088681541034e-07,-0.0040399422869086,-0.0018679816275835,0.0870895311236381,0.99619060754776,-2.683540465300561e-05,-0.0065480821168466,0.008020892002357,-0.012782871723175,0.0507641434669494,0.0292491912841796,6,0,0,0
3.0,1788525482118,0.0,0.0,-0.0041510788723826,-0.0013650306500494,0.0183007065206766,0.999823033809662,0.0001936150344298,0.0002029683931186,3.1602998026112742e-09,-5.09571052020874e-10,8.153136832333985e-09,-4.472578041259112e-07,-0.004078053869307,-0.0018300022929906,0.0869671702384948,0.9962011575698853,-0.0004836400980788,0.0012854644152297,-0.0035967963055096,-0.0137016773223876,0.0443561673164367,0.016611099243164,0,0,0,0
3.1,1788525482218,0.0,0.0,-0.0041510788723826,-0.0013650306500494,0.0183006841689348,0.999823033809662,0.0,0.0,0.0,-7.397970569478217e-10,-4.734701075648218e-09,-4.545312890513742e-07,-0.0040764473378658,-0.0015742573887109,0.0867845937609672,0.9962174892425536,0.0012973909874052,0.0030258707515025,-0.0004955017929008,0.0794610977172851,-0.0295611023902893,-0.010354995727539,1,0,0,0
3.2,1788525482318,0.0,0.0,-0.0041510788723826,-0.0013650305336341,0.018300661817193,0.999823033809662,0.0009924263095404,-0.0009588219970983,9.742485638973306e-09,-8.90241769191391e-10,-4.629256977750629e-09,-5.469645429911907e-07,-0.0040336120873689,-0.0019287364557385,0.0867457538843154,0.9962204694747924,0.0044175649978603,-0.0066567772773464,0.0034970375143159,0.0454465746879577,0.3365570306777954,0.0010614395141601,0,0,0,0
3.3,1788525482418,0.0,0.0,-0.0042568654753267,-0.0012886993354186,0.0175437629222869,0.9998362064361572,-0.0019425210761368,0.0035034245797692,-7.850870618824436e-08,-0.0040549649856984,0.0031336399260908,-0.0291193667799234,-0.0041698357090353,-0.0016206549480557,0.0861320346593856,0.9962737560272216,-0.0051781008243711,-0.0022298058480804,-0.0229914428453034,-0.058231770992279,-0.3406386971473694,0.0530691146850585,0,0,0,0
3.4,1788525482518,0.0,0.0,-0.0041050338186323,-0.001492420444265,0.0181224644184112,0.9998262524604796,0.001574457080254,-0.0026697355363742,-3.622340984896743e-08,0.0058342800475656,-0.0081804022192955,0.022630862891674,-0.0038935700431466,-0.0017084293067455,0.0867836251854896,0.9962180852890016,0.0025176498756599,0.0021653775913748,-0.0026805697212962,-0.0238683223724365,0.2690569162368774,-0.0376157760620117,3,0,0,0
3.5,1788525482618,0.0,0.0,-0.0040819174610078,-0.0010787851642817,0.0177368521690368,0.9998337626457214,-0.0011240238752793,0.0021077216552631,5.456046807255445e-07,0.0011772074503824,0.0162398237735033,-0.0150368940085172,-0.0039345640689134,-0.0013127848505973,0.0867603793740272,0.9962205290794371,0.0063196983169301,-0.0025542854118879,0.026580352518829,0.2612894177436828,-0.16819828748703,-0.1630277633666992,0,0,0,0
3.6,1788525482718,0.0,0.0,-0.0040095038712024,-0.0010450908448547,0.0176380146294832,0.9998358488082886,0.003824890512423,0.0001403371470585,1.245490854976237e-08,0.000272921344731,-0.0002046811860054,-0.0228812433779239,-0.0039885239675641,-0.0015170741826295,0.0859816521406173,0.9962875843048096,-0.0054063904735762,-0.0133037312269961,-0.0210660176937948,-0.2587277889251709,-1.3011395931243896,0.226445198059082,0,0,0,0
3.7,1788525482818,0.0,0.0,-0.0040664314292371,-0.0010757191339507,0.0149826258420944,0.9998788833618164,0.0027107337274021,0.0103887324278002,-1.5339798934897352e-06,-0.0069346390664577,0.0039414991624653,-0.0922001004219055,-0.0039807287976145,-0.0011909138411283,0.0841267481446266,0.996446430683136,0.0010837366930271,0.0106171267518078,0.0312553574459492,-0.2333249449729919,-0.5299224257469177,0.0254392623901367,4,0,0,0
3.8,1788525482918,0.0,0.0,-0.0040245722047984,-0.0009073421824723,0.0157416574656963,0.9998675584793092,-0.0056481807707417,0.0037947594050177,7.429366544709687e-07,0.0022815642878413,0.0083197867497801,0.038394670933485,-0.0039090979844331,-0.0011578500270843,0.0849872902035713,0.99637371301651,0.0049637389256186,0.0015467210221353,0.0572246739608453,0.1522764563560485,0.1608445644378662,-0.0733709335327148,0,0,0,0
3.9,1788525483018,0.0,0.0,-0.0040245722047984,-0.0009073421824723,0.0157416574656963,0.9998675584793092,-0.0056481807707417,0.0037947594050177,7.429366544709687e-07,0.0022815642878413,0.0083197867497801,0.038394670933485,-0.0039090979844331,-0.0011578500270843,0.0849872902035713,0.99637371301651,0.0049637389256186,0.0015467210221353,0.0572246739608453,0.1522764563560485,0.1608445644378662,-0.0733709335327148,0,0,0,0
4.0,1788525483118,0.0,0.0,-0.004123855382204,-0.0009564335341565,0.0173736829310655,0.9998400807380676,0.0019935058691548,-0.0019261314287771,-2.288040220755582e-08,-3.5841346557319303e-10,-4.778846207642573e-09,-2.4467692583129974e-07,-0.0039960974827408,-0.001445691101253,0.0862390100955963,0.9962654113769532,0.0014523458192398,-0.0090045506475444,0.0265951371205766,0.2125870585441589,-0.1360694169998169,0.0596246719360351,2,0,0,0
4.1,1788525483218,0.0,0.0,-0.0040030349045991,-0.0012232833541929,0.0177589990198612,0.9998335242271424,0.0002612704389101,-0.0021174111062359,-2.789221915400103e-07,0.0033374684862792,-0.0077488240785896,0.0110046295449137,-0.0039095049723982,-0.0014954870566725,0.0864274799823761,0.9962494373321532,0.0017181925682832,-0.0009181430079162,0.0105021511649478,0.0757539272308349,-0.0469505786895751,-0.0698757171630859,0,0,0,0
4.2,1788525483318,0.0,0.0,-0.0040054465644061,-0.0012997935991734,0.0176833700388669,0.9998347163200378,-0.0008622008011218,0.0008885941662406,-4.17314785361306e-08,-0.0001545742561575,-0.00305119715631,-0.0030426911544054,-0.0039248680695891,-0.0015779417008161,0.0863850936293602,0.9962528944015504,-0.000930275602406,-0.0007536041891633,0.0038970985742165,-0.0716578960418701,-0.0720652937889099,-0.0116472244262695,4,0,0,0
4.3,1788525483418,0.0,0.0,-0.0040727402083575,-0.0013802886242046,0.0178320705890655,0.9998317956924438,-0.0018927503266441,0.0046704305872051,-7.79423514201215e-08,-0.0018736316123977,0.002282976405695,-0.0047343191690742,-0.003960276953876,-0.0015890197828412,0.0864970684051513,0.9962429404258728,0.0002874736265531,0.0050662249813223,0.001652398326151,0.1229280829429626,0.0130040049552917,0.0098552703857421,5,0,0,0
4.4,1788525483518,0.0,0.0,-0.0041089411824941,-0.0012905987678095,0.0173437241464853,0.9998403191566468,-0.000818882771933,0.0012835332806765,3.0563533830264985e-08,-0.0011473972117528,-0.0020157808903604,-0.0095164012163877,-0.0039366660639643,-0.0015919934958219,0.0864167138934135,0.9962500333786012,0.0052802787322283,-0.0059008200204727,0.0341887044452802,0.192156970500946,0.1113932132720947,-0.0105857849121093,6,0,0,0
4.5,1788525483618,0.0,0.0,-0.0040599452331662,-0.0012045060284435,0.0174572449177503,0.9998385906219482,0.0001769574670065,0.0020040945122028,1.3453984374778212e-07,-0.000868137110956,0.0046270978637039,-0.0117183802649378,-0.003938459791243,-0.0015126382932066,0.0862241238355636,0.9962668418884276,0.0017461449444894,-0.0023029722847557,0.0064688483489335,-0.0415306687355041,0.1203274726867675,-0.0191097259521484,3,0,0,0
4.6,1788525483718,0.0,0.0,-0.0041163051500916,-0.0012319305678829,0.0173978358507156,0.9998393654823304,-0.00058086044568,0.0018811233579022,-6.59026563005425e-08,-0.0039513241499662,0.0013354808324947,-0.0088246073573827,-0.0040128659456968,-0.001459932886064,0.08609339594841,0.9962778687477112,0.0008798684210458,0.0033119006780851,0.0017084532455997,-0.0027829408645629,-0.0598664283752441,0.0013885498046875,1,0,0,0
4.7,1788525483818,0.0,0.0,-0.0041913017630577,-0.0012879290152341,0.0174456667155027,0.9998381733894348,0.0001166033706005,0.0002120681323326,6.101109084497061e-09,-0.0030641027260571,-0.0031970140989869,0.0037519144825637,-0.0040844501927495,-0.0015672575682401,0.086125761270523,0.996274709701538,3.070417811382305e-05,0.0007640313784263,-0.0011207059364107,-0.0624219179153442,-0.1052165627479553,0.0348567962646484,2,0,0,0
4.8,1788525483918,0.0,0.0,-0.0041749724186956,-0.0012742895632982,0.0174639783799648,0.9998379349708556,6.447876461076025e-05,-7.410888447715335e-05,-3.3053323167217835e-08,0.0006661370862275,0.0005331313004717,0.0007369641098193,-0.0039697363972663,-0.0015432499349117,0.0863051563501358,0.9962596893310548,0.0044486568071046,0.0021540650675665,0.0031872232406744,-0.007861852645874,0.1426126360893249,-0.0277347564697265,7,0,0,0
4.9,1788525484018,0.0,0.0,-0.0040323827415704,-0.0011403243988752,0.0175536349415779,0.9998371005058287,0.0001797140643465,-0.0002080639807679,-1.4726554741088622e-08,0.0005655471468344,0.0015267024282366,0.0020831567235291,-0.0039547234773635,-0.0014105401933193,0.0861514285206794,0.996273159980774,-0.0003009745754093,0.0006055250085095,-0.0041404024244406,-0.0179197192192077,0.0450427532196044,-0.0195283889770507,0,0,0,0
5.0,1788525484118,0.0,0.0,-0.0040890392847359,-0.0010411185212433,0.017191044986248,0.9998433589935304,-0.0004334059394968,0.0009683792576221,-2.983502223556938e-08,-0.0012859728885814,0.0037528821267187,-0.0095621226355433,-0.0040134992450475,-0.0012038284912705,0.0857356339693069,0.9963091015815736,0.0015523180447405,0.0052671479561712,0.0104156677522907,-0.0209881663322448,0.0961058735847473,-0.0174236297607421,5,0,0,0
5.1,1788525484218,0.0,0.0,-0.0041026282124221,-0.000896044424735,0.0170698277652263,0.9998455047607422,0.0006011555196043,-0.0006967158734122,6.078797048050343e-08,0.0003442165325395,0.0047012921422719,0.0069998051039874,-0.0040293717756867,-0.0011893371120095,0.0857511237263679,0.9963077902793884,-0.0024220086024658,0.0011628139680436,-0.007181042112446,-0.0871858596801757,-0.0527556538581848,-0.0080842971801757,5,0,0,0
5.2,1788525484318,0.0,0.0,-0.0041014053858816,-0.0009084934717975,0.0170766934752464,0.9998453855514526,-0.000232539616024,0.0002725716505275,-3.206360652004988e-08,-0.0008117249817587,0.0002930034825112,-0.0027210982516407,-0.0040493970736861,-0.0012238416820764,0.0857935845851898,0.996303915977478,-0.0015389940822508,-0.001338631936213,-0.0046728623560664,-0.0160399079322814,-0.0739330649375915,0.0029773712158203,2,0,0,0
5.3,1788525484418,0.0,0.0,-0.0041419696062803,-0.0009534969576634,0.0171704050153493,0.9998435378074646,-5.606984527290584e-05,6.53959959572675e-05,4.458204908010839e-08,-0.0011875635245814,-0.0008860547677613,-0.0006583799840882,-0.0040792990475893,-0.0012041609734296,0.0858070030808448,0.9963026642799376,3.180614622720714e-05,0.0014854969252963,-0.0011935836227681,-0.0896621346473693,-0.0647339224815368,0.0453453063964843,265,263,9817,-9920
5.4,1788525484518,1.94366192817688,-2.450704336166382,-0.004167768638581,-0.0009885255713015,0.0120098842307925,0.9999186992645264,-0.0046205791200491,0.0025193178091918,2.362974624197259e-07,-0.0004059139464516,-0.0013723379233852,-0.2056795805692672,-0.0040963375940918,-0.0013424279168248,0.0787410214543342,0.9968857765197754,-0.0023184246034641,-0.0090292681362386,-0.4088718437520394,0.8335132598876953,-0.7199581265449524,-0.1998615264892578,209,268,11911,-11441
5.5,1788525484618,3.126760482788086,-3.6056337356567374,-0.0046509811654686,-0.0034563550725579,-0.026870684698224,0.999622106552124,-0.0052527990645723,0.0025452361073943,-6.51915950641865e-06,-0.017612587660551,-0.0751627534627914,-0.8927524089813232,-0.0039892951026558,-0.0081040663644671,0.010915826074779,0.999899685382843,-0.0061446288234092,-0.1540018872685571,-1.0292595632301396,0.0701348781585693,0.4826772212982178,-0.1453180313110351,322,94,16849,-10409
5.6,1788525484718,3.380281686782837,-3.2676055431365967,-0.0048006544820964,-0.0118044139817357,-0.0829098671674728,0.9964755773544312,-0.010993359752909,0.0202627443719445,-6.118155887397577e-05,-0.0121869426220655,-0.1532931327819824,-0.9911805391311646,-0.0036460068076848,-0.0147277675569057,-0.0317200124263763,0.9993816614151,0.0076965424861246,-0.1328565845487173,-0.923423581311927,0.4899569153785705,0.1395673751831054,-0.3461923599243164,350,101,15641,-10203
5.7,1788525484818,5.014084339141846,-1.2394366264343262,-0.0054479055106639,-0.0182587690651416,-0.1293177753686905,0.9914201498031616,-0.0021496115321929,0.0064147777115338,4.023389628434109e-06,-0.0321337319910526,-0.1187660098075866,-0.9514886736869812,-0.0043260911479592,-0.0199450217187404,-0.0752252861857414,0.996957778930664,-0.0212792701551012,-0.089242329107056,-0.9705557123420538,1.0267386436462402,0.0976154804229736,-0.4988384246826172,473,24,23354,-3265
5.8,1788525484918,3.239436626434326,-3.126760482788086,-0.0059036971069872,-0.0193947460502386,-0.1726447641849517,0.9847754836082458,0.0456731004867048,0.006568359652023,-2.7708527580947912e-05,-0.0267890337854623,0.011111993342638,-0.9249916076660156,-0.0044438168406486,-0.0143147464841604,-0.1277045458555221,0.9916990399360656,-0.0429096969430343,0.3368278114802014,-0.9072254192010932,-0.3391398787498474,-0.7264242768287659,0.0648269653320312,286,328,16021,-12738
5.9,1788525485018,2.7887322902679443,-3.014084577560425,-0.0040369201451539,-0.0063994512893259,-0.2157483696937561,0.9764196872711182,0.0021359680716383,-0.0192810471340179,-7.142134087810327e-06,-0.0238853432238101,0.3735201060771942,-0.9946181178092957,-0.0030613811686635,-0.0013941619545221,-0.1708745062351226,0.9852871298789978,-0.0116217634497757,0.0635962574463928,-0.8614767414819879,-0.6935815215110779,-0.2216308712959289,-0.9219121932983398,294,306,16244,-13759
6.0,1788525485118,3.0422534942626958,-3.436619758605957,-0.0037280628457665,-0.0032376402523368,-0.2569547593593597,0.9664108157157898,-0.0129634641346531,0.0091392552875752,-2.3517868343645857e-05,-0.0050593242049217,-0.0972916781902313,-0.901696801185608,-0.0033537773415446,-0.0065893651917576,-0.211174726486206,0.9774203300476074,0.0371634640539409,-0.1275421925195884,-0.84640204086351,0.2517314553260803,0.2213846445083618,1.013906478881836,364,203,16881,-11980
6.1,1788525485218,3.183098554611206,-3.2676055431365967,-0.0062146801501512,-0.0148642668500542,-0.3088015615940094,0.9509899616241456,-0.0022838144094248,0.0093111446763609,-8.156922330828189e-06,-0.0194279141724109,-0.280242770910263,-0.9221814274787904,-0.0065444530919194,-0.0187365375459194,-0.2583084106445312,0.9658585786819458,-0.0366010526320088,-0.1471245192932608,-0.8419234570863191,0.4291763305664062,-0.1963989734649658,-0.7113256454467773,414,253,17583,-12673
6.2,1788525485318,3.2676055431365967,-3.211267709732056,-0.0074966070242226,-0.0153294652700424,-0.3448541760444641,0.9385011196136476,-0.0024432294796518,0.0009525969128939,-1.113988147668788e-05,-0.0399792678654193,0.1015253141522407,-0.8291101455688477,-0.0067614465951919,-0.0154036022722721,-0.2903574705123901,0.9567704200744628,-0.051455904973981,0.0218512207422982,-0.9169562633715328,-0.6587663888931274,-0.5632147789001465,0.0098552703857421,443,341,17911,-14153
6.3,1788525485418,3.014084577560425,-3.3521127700805664,-0.0093955155462026,-0.0161501355469226,-0.38668292760849,0.9220234155654908,-0.0094230637471773,0.0025614657811843,-2.664491855917717e-05,-0.0453888997435569,-0.0556976236402988,-0.9070938229560852,-0.0083622317761182,-0.0156531557440757,-0.3413404524326324,0.9397721886634828,-0.0324509122922517,0.0515243402370301,-0.8850102248130585,-0.216326355934143,-0.2018850445747375,0.3892927169799804,445,301,18875,-13419
6.4,1788525485518,4.169013977050781,-2.253521203994751,-0.0097192963585257,-0.0153515907004475,-0.4234996140003204,0.9057140946388244,-0.0040109326877914,0.007320828405645,-1.4748114458994763e-06,-0.0232875011861324,-0.0167385172098875,-0.9343031644821168,-0.0093203065916895,-0.0164071340113878,-0.3843905031681061,0.9229776859283448,-0.0321354202750792,-0.0208059319334042,-0.9289671533471088,0.4543488621711731,-0.1227244734764099,-0.2374458312988281,457,183,21048,-10341
6.5,1788525485618,4.14084529876709,-2.7323944568634038,-0.0098224971443414,-0.0132069718092679,-0.4715864360332489,0.8816662430763245,0.0174500286913332,-0.0015638884873373,-1.5498798741065642e-05,-0.0398269668221473,0.0987821444869041,-0.9326727390289308,-0.0088888853788375,-0.0138525562360882,-0.4096986949443817,0.9120723605155944,-0.0435089248711709,0.102439776695966,-0.9042275814728336,-0.4656987190246582,0.0409532189369201,0.3597936630249023,373,354,16903,-12847
6.6,1788525485718,3.2957746982574463,-3.323943614959717,-0.0103810150176286,-0.012289110571146,-0.5111982822418213,0.8593122363090515,-0.0109967566094322,0.0032123043630137,2.732705308440028e-07,-0.0347679406404495,0.0080913677811622,-0.9859400391578674,-0.0100122364237904,-0.0127844735980033,-0.4698668718338012,0.8825879693031311,-0.0296135044833889,-0.0014828425699168,-0.9006226023654424,-0.1922787427902221,-0.0962125658988952,0.0315141677856445,279,203,16577,-12554
6.7,1788525485818,3.1549296379089355,-3.239436626434326,-0.0110554601997137,-0.0118556078523397,-0.5514320135116577,0.8340623378753662,-0.0135520637070864,0.0120808872299289,-3.081812114324536e-06,-0.0260904114693403,0.0046102968044579,-0.940969944000244,-0.0104377344250679,-0.012264210730791,-0.5058469772338867,0.8624729514122009,-0.0353244964509178,0.0123944712254812,-0.8734142049598032,-0.0836384296417236,0.0954874753952026,0.0136613845825195,386,248,17263,-12912
6.8,1788525485918,3.0422534942626958,-3.070422649383545,-0.011230862699449,-0.0112207885831594,-0.5845091938972473,0.8112317323684692,-0.0076123550015545,0.0047099790120773,1.024574352667828e-06,-0.0183472838252782,0.0131226107478141,-0.9153118133544922,-0.0106598222628235,-0.0121210720390081,-0.5404167771339417,0.8412426710128784,-0.0204026332460339,-0.0168403819937662,-0.86205260064917,0.0201333761215209,0.2942735552787781,0.0552873611450195,330,192,16061,-10398
6.9,1788525486018,3.577464818954468,-1.774647831916809,-0.0119797922670841,-0.0112472362816333,-0.6233820915222168,0.7817445397377014,0.0142750898682564,0.0021648876754457,2.833418860167649e-06,-0.0251151658594608,0.0078728944063186,-0.7982226610183716,-0.0108753638342022,-0.0114364614710211,-0.5766462087631226,0.8168416023254395,-0.0186770084990401,0.0462645454810903,-0.7065404316094531,-0.0271987318992614,0.3436028361320495,0.0892343521118164,402,196,16568,-7752
7.0,1788525486118,4.253520965576172,-1.4929577112197876,-0.0120887178927659,-0.0104704657569527,-0.6492241621017456,0.7604289650917053,0.0228229631059832,0.0020775098897877,8.979114438426354e-07,-0.0250951219350099,-0.0009606888634152,-0.719699501991272,-0.0129074128344655,-0.0131503175944089,-0.6129804253578186,0.7898831963539124,-0.0180744433719526,-0.1019810031553758,-0.8192552561834365,-0.1017708778381347,-0.0270109772682189,-0.757716178894043,450,167,21760,-7172
7.1,1788525486218,4.535211086273193,-1.2394366264343262,-0.0133610004559159,-0.0113512761890888,-0.6786767840385437,0.7342278361320496,0.0385975804783833,-5.982161704552834e-05,-1.3070037749768205e-05,-0.0257666874676942,0.0286802016198635,-0.780194103717804,-0.0125643126666545,-0.0120695661753416,-0.6312506198883057,0.7753832936286926,-0.0307096579869715,0.0167421454142324,-0.7877180790004864,0.0917052030563354,-0.0515608191490173,-0.3660001754760742,442,281,21263,-7979
7.2,1788525486318,4.985915660858154,-1.3239436149597168,-0.012676759622991,-0.0093631604686379,-0.7055943012237549,0.7084407806396484,0.0544855301190863,-0.0021673795010041,-4.187724078034417e-05,-0.0338988341391086,0.0432329848408699,-0.8455889225006104,-0.0117553547024726,-0.0096945501863956,-0.6633942723274231,0.7481148838996887,-0.0302216851823387,0.035890733734567,-0.8639619859929982,-0.2002819180488586,-0.1340980529785156,0.5388517379760742,441,98,22336,-4941
7.3,1788525486418,5.830986022949219,-0.2535211145877838,-0.0139467064291238,-0.010173694230616,-0.7397907376289368,0.6726154685020447,0.0630988794809648,0.00242021737486,5.546989558868624e-05,-0.0178100559860467,-0.0595069080591201,-0.8493968844413757,-0.0133077809587121,-0.011118191294372,-0.6968019604682922,0.7170539498329163,-0.0181068048660298,-0.0223272466578636,-0.752982506859997,0.5763098001480103,0.0698691010475158,-0.1593141555786132,505,7,25811,0
7.4,1788525486518,6.450704097747803,0.1690140813589096,-0.0134115489199757,-0.0088903382420539,-0.7635767459869385,0.645516574382782,0.084789539678287,-0.0039825037174699,-8.775438809056558e-05,-0.0282184276729822,0.0334622077643871,-0.7970181107521057,-0.0133719677105546,-0.0102566862478852,-0.7214561104774475,0.6922551393508911,-0.0232398402376629,-0.0680584254302506,-0.8286067390039907,0.0581960082054138,0.1244980096817016,0.4141740798950195,549,124,28060,5600
7.5,1788525486618,8.028168678283691,1.042253494262695,-0.0142432730644941,-0.0083614382892847,-0.7875207662582397,0.6160668730735779,0.1197215639757875,-0.0101684953315565,-0.0002631183236411,-0.0444546826183795,0.0878974646329879,-0.7833604216575623,-0.0135833481326699,-0.0083936378359794,-0.7562053203582764,0.6541395783424377,-0.0398842009407519,0.0329186723151295,-0.8772523637000166,-0.0116122961044311,-0.4913972020149231,-0.0098819732666015,482,107,30438,0
7.6,1788525486718,8.478873252868652,1.4929577112197876,-0.013412358239293,-0.0058317175135016,-0.8124731779098511,0.5828151106834412,0.1343457399706344,-0.0087395605325533,-8.798672013417585e-05,-0.0543785691261291,0.072393387556076,-0.96259742975235,-0.0124412002041935,-0.0048447046428918,-0.7847720384597778,0.6196407675743103,-0.0706108546082952,0.0671422124272188,-1.048540747572166,0.210915982723236,-0.1250513792037964,0.23626708984375,405,98,29543,5131
7.7,1788525486818,8.563380241394043,1.7464789152145386,-0.0118246236816048,-0.0033656612504273,-0.8398852944374084,0.5426246523857117,0.1542097101020447,0.0051821500263089,-8.939603229100968e-05,0.0165432393550872,-0.0190763492137193,-0.8777055144309998,-0.0131427040323615,-0.0055289091542363,-0.8095338344573975,0.586899995803833,0.000560436078974,-0.1404685354600826,-0.9452150335224638,-0.3950137495994568,-0.6004782915115356,-0.9338912963867188,377,23,28434,4029
7.8,1788525486918,8.0563383102417,2.08450698852539,-0.0133197642862796,-0.0044757556170225,-0.8651499152183533,0.5013165473937988,0.1466309565414558,-0.0066570909892235,2.8980768288327973e-05,-0.01452839653939,-0.010247210972011,-0.8585207462310791,-0.0130995139479637,-0.0053933477029204,-0.831839919090271,0.55483478307724,-0.0136567735688183,-0.0051778664819743,-0.8229866065395807,-0.0371335744857788,-0.0821121931076049,0.1891260147094726,406,10,27979,5054
7.9,1788525487018,7.633802890777588,2.3380281925201416,-0.0129774129018187,-0.0037422575987875,-0.8844271302223206,0.466482937335968,0.1555744610294998,-0.004937597898012,-4.284465997410978e-05,-0.0140210632234811,0.0075136641971766,-0.7797139883041382,-0.0138517357409,-0.0053001157939434,-0.863257646560669,0.5045456290245056,-0.0141736248382946,-0.07310608073515,-0.8354753732155933,-0.1326372027397155,0.1863583326339721,-0.6963329315185547,303,20,27087,5972
8.0,1788525487118,7.521126747131348,2.507042169570923,-0.0149706285446882,-0.0044222557917237,-0.9000825881958008,0.4354396760463714,0.1542482038867119,-0.0066650945991309,0.0001478360714559,-0.0270583033561706,-0.0686327368021011,-0.7354487776756287,-0.0148863280192017,-0.0052708759903907,-0.8738147020339966,0.4860024750232696,-0.0259268916358487,4.168881832430168e-05,-0.6942679462642496,0.2139840722084045,-0.2715741395950317,0.1437463760375976,359,24,27361,5787
8.1,1788525487218,7.774647712707519,2.450704336166382,-0.0164055023342371,-0.0044274004176259,-0.9175191521644592,0.3973283767700195,0.1530266950230584,-0.0099737961090764,7.17612342427726e-05,-0.018374066799879,-0.0370165556669235,-0.6898660659790039,-0.0154442833736538,-0.0054310699924826,-0.8836827278137207,0.4678001403808594,-0.00777675858815,-0.0220382529939515,-0.6258162525922686,-0.2301298975944519,0.0796562433242797,-0.3049812316894531,351,17,26382,5488
8.2,1788525487318,7.492957592010498,2.507042169570923,-0.0154930735006928,-0.003107362659648,-0.9292776584625244,0.3690439760684967,0.1466916433076165,-0.0072222996784694,-0.0001097594077497,-0.0317988060414791,0.0781404748558998,-0.6656992435455322,-0.0149508100003004,-0.0039154253900051,-0.9036037921905518,0.4280904829502105,-0.025541689108323,0.0904562706513857,-0.6575659455601791,-0.583153486251831,-0.3876798152923584,0.4450559616088867,419,31,27516,5428
8.3,1788525487418,7.633802890777588,2.4788732528686523,-0.0150419510900974,-0.0025265999138355,-0.9415243268013,0.3365997672080993,0.1423824314287572,-0.0034697700500688,-4.68591604584874e-06,-0.0170485060662031,0.0328029952943325,-0.6847766041755676,-0.0148487323895096,-0.0037635285407304,-0.9217562079429626,0.3874673545360565,-0.0057137102876719,-0.0386953386736438,-0.6812606267836999,-0.6000321507453918,-0.4320988655090332,-0.2091693878173828,473,34,28114,5373
8.4,1788525487518,8.22535228729248,1.8028168678283687,-0.0156005276367068,-0.002504346659407,-0.9514464139938354,0.3074084520339966,0.1552841190406484,-0.0065804017834476,5.962922358668564e-05,-0.0289414897561073,-0.0121103227138519,-0.7130606174468994,-0.0141834635287523,-0.002273129299283,-0.9353113174438475,0.3535341918468475,-0.0407518363533812,0.0591999369389751,-0.7758814737881775,0.1948091387748718,-0.244688868522644,-0.1464157104492187,426,42,30086,3476
8.5,1788525487618,8.450704574584961,1.6056338548660278,-0.0134112648665905,0.0002390195149928,-0.9654271602630616,0.2603278756141662,0.1445655588193975,-0.0082426762767926,-9.834825902080544e-05,-0.0467946901917457,0.045032262802124,-0.8777991533279419,-0.0128840999677777,0.0003190264105796,-0.9499551057815552,0.312120646238327,-0.0545604166603042,0.0488194624957168,-0.8980356388837818,0.0263811945915222,-0.2632234692573547,0.104501724243164,470,15,29504,4417
8.6,1788525487718,7.549295902252197,2.5352113246917725,-0.0100200343877077,0.0021144575439393,-0.9747008681297302,0.2232785522937774,0.1500238941296151,0.0006185087811757,-0.0003042715002251,-0.0117253800854086,0.1143135949969291,-0.8129803538322449,-0.0127843497321009,-7.551722228527069e-05,-0.9629814624786376,0.2692641317844391,0.0170357440979593,-0.1185486262509442,-0.8193929585482755,-0.1092496514320373,0.1646548509597778,-1.5815677642822266,432,62,28802,4120
8.7,1788525487818,7.521126747131348,2.7323944568634038,-0.0160325393080711,-0.0001892796717584,-0.982334554195404,0.1864451766014099,0.1517610000421724,0.0021279106522864,0.0003860992629739,0.0059350747615098,-0.1454654335975647,-0.6924318075180054,-0.0165375340729951,-0.0014757318422198,-0.970295548439026,0.2413522452116012,-0.0084383443798853,-0.0051017714603415,-0.5898265326154408,-0.1874051094055175,-0.4088144898414612,0.5631141662597656,409,37,26660,5141
8.8,1788525487918,7.014084339141846,3.014084577560425,-0.0174020770937204,-0.0002905649598687,-0.9870232343673706,0.1596315652132034,0.1525003230568077,-0.0073138988716931,5.412364655553439e-05,-0.0178752988576889,-0.0366850905120372,-0.6225091218948364,-0.0173460394144058,-0.0011298013851046,-0.9766806364059448,0.2139927446842193,-0.0257755488625731,0.0220872007124743,-0.5522554099045854,0.0427945852279663,-0.4222035408020019,0.053079605102539,426,48,27516,6173
8.9,1788525488018,7.295774459838867,2.901408433914185,-0.0157598406076431,0.0008088450413197,-0.991585373878479,0.1284892410039901,0.1504400260040658,-0.008342394934016,-0.0001674818118203,-0.0217891652137041,0.0313686951994895,-0.5477353930473328,-0.0160904396325349,-0.000382381491363,-0.981723129749298,0.1896331906318664,-0.0064923043313951,-0.0299887088106632,-0.4952699722093468,-0.0597233772277832,-0.1563157439231872,0.4844255447387695,424,46,27184,5643
9.0,1788525488118,7.408450603485107,2.7887322902679443,-0.0161131024360656,0.0009571511764079,-0.9948461651802064,0.1001027449965477,0.1525732459956591,-0.0082535438284426,-3.438076255324764e-06,-0.016268441453576,0.0005747872055508,-0.5952700972557068,-0.0161406807601451,-0.0001628752797842,-0.9855059385299684,0.1688714027404785,-0.018315403567855,-0.0003387293068032,-0.6577030249375534,-0.249030590057373,-0.1204386353492736,0.6919641494750977,425,19,26932,6127
9.1,1788525488218,6.929577350616455,3.3521127700805664,-0.0170011967420578,0.0008672203402966,-0.9970667362213136,0.0746197551488876,0.1529001040905093,-0.0084113600127796,0.0001191960924937,-0.0085467118769884,-0.0110517190769314,-0.5250118374824524,-0.0155892362818121,0.0001122942194342,-0.9905298352241516,0.1364099085330963,-0.0241596130522982,0.113827219815102,-0.5137462372586807,-0.0703579187393188,0.0044596195220947,0.4097566604614258,400,16,25178,8231
9.2,1788525488318,6.507042407989502,3.4084506034851074,-0.0148012610152363,0.0014289534883573,-0.998567283153534,0.0514026507735252,0.1394905372559585,-0.0055531295241485,1.0421876457682856e-05,-0.0054361941292881,-0.0172973535954952,-0.4490151107311249,-0.0156528148800134,0.0003876611590385,-0.9933823347091676,0.1137827336788177,-0.0106023303596702,-0.0526803698880613,-0.4315692696081001,-0.2671788930892944,0.0524927377700805,0.0228128433227539,339,26,24639,8863
9.3,1788525488418,6.507042407989502,3.549295663833618,-0.015100092627108,0.0018226780230179,-0.9994688034057616,0.0288230441510677,0.15821726886716,-0.006306822015486,-7.60375020216206e-05,-0.0064765969291329,0.0142153548076748,-0.3512256443500519,-0.0153874680399894,0.0007863957434892,-0.995272696018219,0.0958897471427917,-0.0088806558746668,-0.0206910284685873,-0.3430381058297859,-0.215863823890686,-0.1310576200485229,-0.1813421249389648,337,19,24825,8464
9.4,1788525488518,6.11267614364624,4.197183132171631,-0.0164674371480941,0.0019428392406553,-0.9997795820236206,0.0128778759390115,0.1588937815380201,-0.006603880525568,7.340918809688476e-05,-0.0080358404666185,-0.0427624136209487,-0.3570573031902313,-0.0155208334326744,0.0006777010858058,-0.9971047639846802,0.0744367539882659,0.0033065366254378,0.0575729251946176,-0.2431554163279046,0.132621943950653,0.2037277221679687,-0.1947107315063476,331,55,22662,10347
9.5,1788525488618,5.915493011474609,4.253520965576172,-0.0142238065600395,0.0017592015210539,-0.9998966455459596,0.0011782237561419,0.1687569574941527,-0.0009066370356772,-0.0002501412825878,-0.001132424455136,0.0750584602355957,-0.2124971598386764,-0.0140484431758522,0.0007709190249443,-0.9976244568824768,0.0674359798431396,-0.0014203277832199,0.0210161857933846,-0.203039377115037,0.0270594358444213,-0.0314268469810485,-0.2788333892822265,356,17,22411,9996
9.6,1788525488718,5.943662166595459,4.169013977050781,0.0153030976653099,-0.0016854447312653,0.9998546838760376,0.0073186205700039,0.1482400784305508,0.0003135198782576,9.593030948733906e-05,0.0043992679566144,-0.0487339980900287,-0.1741689443588256,-0.0160334222018718,0.0005225017666816,-0.9981147646903992,0.0592419244349002,0.0025275471224424,-0.0385584176940952,-0.1739485955900444,0.0411949157714843,0.0096808671951293,0.0875959396362304,364,21,23004,10276
9.7,1788525488818,5.97183084487915,4.2816901206970215,0.0155220590531826,-0.0017042686231434,0.99970942735672,0.0183606594800949,0.1581832235269354,-0.0026220002123958,-4.839062117512506e-05,-0.002441115444526,0.0212811082601547,-0.1860387176275253,-0.0155675383284688,0.0006212936714291,-0.9985817074775696,0.0509116277098655,-0.0032937312837576,0.0339401036506921,-0.1744205575349953,-0.0976722836494445,-0.0981100797653198,0.1826696395874023,384,17,23234,9891
9.8,1788525488918,5.7183098793029785,4.422535419464111,0.0164249446243047,-0.0023847129195928,0.9994847774505616,0.02747050113976,0.1605327710759792,-0.000617149347013,9.442570812438812e-05,-0.0306671354919672,-0.0423754975199699,-0.215665116906166,-0.0165400858968496,0.0016448106616735,-0.9991134405136108,0.038679152727127,-0.0285869843379481,0.0034133117285829,-0.2060512053196136,0.1617725491523742,0.0125851035118103,-0.3585977554321289,400,15,22993,10409
9.9,1788525489018,5.7183098793029785,4.676056385040283,0.0154245402663946,-0.0031171739101409,0.9992316365242004,0.0358953960239887,0.1632310318565909,-0.0009192320024272,-3.385469967983261e-05,-0.0049161054193973,0.0325317829847335,-0.1299493610858917,-0.0155445849522948,0.0020493352785706,-0.999317228794098,0.0334558300673961,0.0002730479295883,0.0416952058892859,-0.1188969596351178,-0.3374651074409485,0.1493062973022461,-0.1080846786499023,337,24,20991,11183
10.0,1788525489118,5.380281925201416,4.591549396514893,0.0124850952997803,-0.0034117270261049,0.9990869760513306,0.0407142117619514,0.1580560073597161,0.0012995145305692,-0.0002919750416132,0.0037405835464596,0.0703546479344368,-0.0606736317276954,-0.0130745377391576,0.0022020898759365,-0.9994983077049256,0.0287641957402229,0.0598059100528553,-0.0232880582840686,0.0101808131776763,-0.0355512499809265,-0.2727661728858948,0.4207258224487304,401,18,22784,10854
10.1,1788525489218,5.690140724182129,4.3380279541015625,0.0157739967107772,-0.0020244610495865,0.9989017248153688,0.0440722182393074,0.1478503107703513,0.0015555745351867,7.63752958178794e-05,0.036735501140356,0.0160225536674261,-0.0571416430175304,-0.0155129749327898,0.0010744333267211,-0.9995680451393129,0.0249381996691226,0.0031000165402571,0.0766568833684793,-0.0594188088296184,-0.2392223477363586,0.2936262488365173,0.5438079833984375,513,21,24962,9848
10.2,1788525489318,5.577464580535889,4.591549396514893,0.0169584080576896,-0.0029912488535046,0.9985941052436828,0.0501327961683273,0.1557504476958095,-0.0056452845528239,0.000158786544378,-0.0168473608791828,-0.0355791971087455,-0.1661856472492218,-0.016957726329565,0.0017918962985277,-0.9996790289878844,0.0187395382672548,-0.0071525174561733,0.0221960884171946,-0.1176302348571853,0.334359347820282,0.3445024490356445,0.2270927429199218,347,60,22216,11800
10.3,1788525489418,5.549295902252197,4.591549396514893,0.0174823962152004,-0.0035723177716135,0.9983165860176086,0.0551866367459297,0.1652932346072913,-0.0050515530227751,1.2491237763881108e-05,-0.0126087674871087,-0.0272282175719738,-0.1094545423984527,-0.0190533455461263,0.0026203589513897,-0.9997488260269164,0.0115129901096224,-0.0155830043033116,-0.0426401956053349,-0.0896104937469015,-0.3314712047576904,-0.0969401597976684,0.1624402999877929,364,18,21828,11166
10.4,1788525489518,5.577464580535889,4.647887229919434,0.0183460246771574,-0.0040546720847487,0.9980934262275696,0.0587922595441341,0.1607123918035983,-0.0020539360984727,6.1940944078045935e-06,-0.0127754099667072,0.0124336248263716,-0.0654382929205894,-0.0186237823218107,0.0028004823252558,-0.9997668266296388,0.0105659998953342,-0.012915046217218,0.0289728392187633,-0.0628934055138411,-0.1606165170669555,0.2385507822036743,0.4956026077270508,452,36,21468,11860
10.5,1788525489618,5.239436626434326,5.098591327667236,0.0151360835880041,-0.0039121792651712,0.9981168508529664,0.0593158826231956,0.1606540807688701,-0.0006176837096865,-8.478466589408919e-06,0.0028286417946219,0.0318957827985286,0.0280034989118576,-0.0161021314561367,0.002753535285592,-0.9998172521591188,0.0099336644634604,0.0099004670529829,-0.002558512870402,0.0262439438004973,0.3546991944313049,-0.2178900837898254,0.1974096298217773,383,28,20090,12801
10.6,1788525489718,4.704225540161133,5.295774459838867,0.0147098675370216,-0.0039082881994545,0.9982185363769532,0.0576901100575923,0.1638987883846125,0.0038864908669404,6.219434309242315e-05,0.0021631685085594,-0.0161955896764993,0.0457988493144512,-0.0145674003288149,0.003080952912569,-0.9997981190681458,0.0134927593171596,-0.0109166233254734,0.0215134672407091,0.0871720043824259,-0.0784096717834472,0.1968622803688049,0.211029052734375,311,34,20490,13333
10.7,1788525489818,4.957746505737305,5.211267471313477,0.0147345503792166,-0.0042337058112025,0.9985294342041016,0.0519992560148239,0.1659067312577408,-0.0007306058111802,4.787721103372456e-05,-0.0053373393602669,-0.0151097439229488,0.1071732267737388,-0.0157457720488309,0.0029389737173914,-0.9996792078018188,0.0196236297488212,0.0115711871544314,-0.0323596286313237,0.0740277068618604,0.0791708827018737,0.197120726108551,0.0924434661865234,336,48,20143,13400
10.8,1788525489918,5.014084339141846,5.126760482788086,0.0161002520471811,-0.0040238769724965,0.9987211227416992,0.0477576106786727,0.1682816355393978,0.0012347288178168,0.0002201029880278,0.0081128841266036,-0.0367997400462627,0.1083927452564239,-0.016183478757739,0.0027112588286399,-0.9995927810668944,0.0233451724052429,0.0121120848131582,0.0014682498635744,0.0852603128549898,0.1327676773071289,-0.2125452756881714,-0.0732650756835937,362,22,20913,12603
10.9,1788525490018,5.098591327667236,4.957746505737305,0.0167032741010189,-0.0039526335895061,0.9988280534744264,0.0452536195516586,0.1605958008020383,-0.0011731278981083,8.714113466963198e-05,-0.0004587114963214,-0.0224202591925859,0.0369181558489799,-0.0168757885694503,0.00274751894176,-0.9995324015617372,0.0253505408763885,0.0045424708260556,0.03174005346062,0.0478962204295482,0.2680270671844482,-0.0496904253959655,-0.0043325424194335,404,36,22028,12417
11.0,1788525490118,5.323943614959717,4.929577350616455,0.0166164934635162,-0.0040023336187005,0.9989129900932312,0.0433660522103309,0.1666202186895438,-0.0027878755908771,-6.945601890490386e-06,-0.0023777410387992,0.0015288938302546,0.0315190888941288,-0.0163429845124483,0.0029675550758838,-0.9995197057724,0.0261643230915069,-0.006422217452937,0.0253609298069613,-0.009229468005768,-0.0189977288246154,0.3683408498764038,-0.0915069580078125,364,52,21019,12437
11.1,1788525490218,5.380281925201416,4.816901206970215,0.0146366832777857,-0.0038359484169632,0.9989613890647888,0.0429795682430267,0.1686896258482718,-0.0020777580106914,-0.0001882319954273,0.0058274725452065,0.0367048121988773,0.0060008335858583,-0.0173078477382659,0.0031148521229624,-0.9995314478874208,0.0250537563115358,-0.0143856411262541,-0.1157116096455952,-0.0618436675412453,-0.7332839965820312,0.4784172773361206,0.2614202499389648,310,42,20287,12649
11.2,1788525490318,4.901408672332764,5.154929637908936,0.0181491021066904,-0.0043635577894747,0.9988359212875366,0.0444785133004188,0.1527603661845384,0.0068666424385027,0.0001631006301839,-0.0006835733656771,-0.0569829419255256,-0.0049923020415008,-0.0175178125500679,0.0032421685755252,-0.9995152950286864,0.0255334340035915,-0.0026722748990031,0.0680563676530738,0.0486649923514916,0.506784975528717,-0.0066078901290893,0.0029430389404296,375,43,21277,12930
11.3,1788525490418,4.816901206970215,4.985915660858154,0.0172313582152128,-0.0043187895789742,0.9989506006240844,0.0422157421708107,0.1723715049155774,0.0005612214148051,-0.0001028787694432,0.0022508217953145,0.0152689786627888,0.0740149989724159,-0.0193410832434892,0.003102533519268,-0.99939626455307,0.0286979731172323,-0.0014273677470353,-0.0323393982674158,0.0546161224295105,0.5950068235397339,-0.0180241465568542,0.3841524124145508,342,72,21514,13189
11.4,1788525490518,5.183098793029785,5.014084339141846,0.0190934501588344,-0.0046066269278526,0.9990111589431764,0.0398874729871749,0.1608882840763528,-0.0014899420413727,0.0001408479420096,-0.0056457300670444,-0.0137815559282898,0.0592828318476676,-0.0184880625456571,0.0035024434328079,-0.999367654323578,0.0301721468567848,-0.0120082521162537,0.0422129242911279,0.0362989268748511,0.2119651436805725,-0.0083021521568298,0.4260854721069336,374,45,21886,12878
11.5,1788525490618,4.816901206970215,5.042253494262695,0.0189295969903469,-0.0050504035316407,0.9990277290344238,0.0394961275160312,0.1664084194239379,-0.0039540708787727,1.495876720725562e-05,-0.0100625921040773,2.7843429052154534e-05,-0.0102194361388683,-0.0199677925556898,0.0041235908865928,-0.9993371963500975,0.0301565919071435,-0.0149074720176568,0.001722201020145,0.0060707432300587,0.1999093890190124,0.3134422898292541,-0.2247695922851562,313,55,21378,13166
11.6,1788525490718,5.267605781555176,5.183098793029785,0.0188406016677618,-0.0057025491259992,0.9990693926811218,0.0383774675428867,0.1619310559864046,0.0072447429422811,-3.7847245124083146e-05,-0.0160687062889337,0.041534099727869,0.0444712787866592,-0.0168330129235982,0.0051255356520414,-0.9992699027061462,0.0339147374033927,-0.0238507716179256,0.0737224292424662,0.074849440893056,-0.0769878625869751,-0.2451276183128357,0.3056144714355469,342,18,19586,12512
11.7,1788525490818,5.323943614959717,4.929577350616455,0.0149977253749966,-0.0066804494708776,0.999275267124176,0.0343406274914741,0.1620785679754445,0.0037962374097219,-0.0001504008978851,-0.0171229764819145,0.0565399043262004,0.0488836392760276,-0.0148412715643644,0.0043415408581495,-0.9992005825042723,0.0368652194738388,0.0778940824963351,0.0029509773143474,0.0916200161014547,0.3206614851951599,-0.2775707840919494,-0.6750249862670898,422,17,21572,11839
11.8,1788525490918,5.126760482788086,4.704225540161133,0.0193046424537897,-0.0042320052161812,0.9992740154266356,0.0325706414878368,0.15711689346947,-0.0088526487684707,0.0004348596512153,0.0520050376653671,-0.1786707192659378,0.0028463038615882,-0.0217720512300729,0.0038736118003726,-0.9991747736930848,0.0340721942484378,-0.0158581840057768,-0.1104324826249785,-0.0709882856287344,-0.0181161165237426,-0.023097813129425,-0.2066020965576172,337,85,22019,13328
11.9,1788525491018,5.183098793029785,5.070422649383545,0.0225366987287998,-0.0054466966539621,0.9991077780723572,0.0353010781109333,0.156706441204772,0.001706048024141,0.0002851153309295,-0.0035369689576327,-0.0701415762305259,-0.0079930052161216,-0.0238041020929813,0.0037958361208438,-0.9990224838256836,0.0370533131062984,0.0034714815372365,-0.0514834950703888,0.1208380101762337,0.0027096271514892,-0.1396299600601196,-0.5359477996826172,382,22,22247,12386
12.0,1788525491118,5.211267471313477,4.760563373565674,0.024654783308506,-0.0051688416860997,0.9991790652275084,0.0317262113094329,0.1675996744042485,7.34749099498452e-05,8.817612997867324e-05,0.0108814612030982,-0.0442809835076332,0.0434266850352287,-0.0260997209697961,0.0035370029509067,-0.9989665150642396,0.0370437391102314,-0.0093522597324703,-0.051627841443236,-0.0439628927349732,-0.0800689458847045,0.2811096906661987,-0.1611194610595703,328,39,21476,12718
12.1,1788525491218,4.8450703620910645,4.760563373565674,0.0262880623340606,-0.005506606772542,0.9991230368614196,0.0321219228208065,0.1646180650308108,0.0033683464198977,0.0001935460957864,-0.0065050055272877,-0.0249712876975536,-0.0037608882412314,-0.0256320293992757,0.0035984329879283,-0.9989451169967652,0.0379316247999668,0.0081651488183899,0.064457420721367,0.0404287858373049,0.1468216180801391,0.1521156430244445,-1.2225027084350586,400,54,23049,12866
12.2,1788525491318,5.352112770080566,5.070422649383545,0.0223684087395668,-0.0053922231309115,0.9992517828941344,0.0310869663953781,0.1680009885960101,0.0053384338756519,-0.000289981645577,-0.0022357325069606,0.0889798179268837,0.0119035998359322,-0.0202270746231079,0.0038019390776753,-0.9990472793579102,0.0384852662682533,-0.0012175092303356,0.0641786040088294,-0.0073180839172445,-0.0489312410354614,-0.0385928750038147,-0.0456399917602539,316,41,20026,12979
12.3,1788525491418,5.352112770080566,4.957746505737305,0.0193057097494602,-0.0048342947848141,0.9993478059768676,0.0301308650523424,0.1691630120334875,0.0016293379565918,-9.506952209390092e-05,0.0150607833638787,0.0345617681741714,0.0369421653449535,-0.0198112465441226,0.0028899377211928,-0.99897563457489,0.0405834540724754,0.030050268593611,-0.0151092049554479,0.0655942191269104,0.2771102786064148,-0.3520125150680542,0.1944665908813476,355,17,20060,11778
12.4,1788525491518,4.929577350616455,4.985915660858154,0.0197098143398761,-0.0042560044676065,0.9993941783905028,0.0283663533627986,0.1518444608779018,0.0051924523003449,3.657037542915991e-06,-0.0026758201420307,-0.0024727301206439,0.0188638977706432,-0.02008399926126,0.0029893470928072,-0.9989174604415894,0.0418516211211681,-0.007097311733274,0.0147849748108211,0.0138559977241092,0.8264458775520325,-0.050389289855957,0.1230478286743164,346,59,21327,13252
12.5,1788525491618,5.154929637908936,5.183098793029785,0.0198279991745948,-0.0043764896690845,0.9994127750396729,0.02760043554008,0.1622117253546579,0.0009401832727955,0.0001892758306505,-0.0029336637817323,-0.0035826913081109,0.0221096035093069,-0.0202549658715724,0.0029998756945133,-0.9988746047019958,0.042780864983797,4.682581057949619e-05,-0.0116274963921779,0.0621355601908532,-0.8862085342407227,0.2440775036811828,-0.0107431411743164,346,19,20590,12673
12.6,1788525491718,5.633802890777588,4.450704097747803,0.0213194116950035,-0.0047587351873517,0.9993937611579896,0.0271060224622488,0.1569994473262463,-0.0018056650965687,3.2616821070289443e-05,-0.0187475960701704,-0.0276847034692764,-0.0842432379722595,-0.0210192315280437,0.0031768847256898,-0.9988008737564088,0.0441017374396324,-0.0144077291393374,-0.0177376062350373,-8.510523099228243e-06,-0.0649853348731994,-0.1521952748298645,0.0431365966796875,370,22,22701,11604
12.7,1788525491818,5.802816867828369,4.704225540161133,0.0205951780080795,-0.0047410824336111,0.9992779493331908,0.0315749794244766,0.1669789923910021,-0.0025327968094438,2.6473401243357976e-05,0.0093831429257988,-0.0062648463062942,-0.0681347474455833,-0.0201647151261568,0.0034482395276427,-0.9991490840911864,0.035814382135868,0.0010155079170418,0.0410762242316996,-0.0539784616063393,0.6687389016151428,-0.5939371585845947,0.047408103942871,398,18,21722,10783
12.8,1788525491918,5.802816867828369,4.704225540161133,0.0190574955195188,-0.0048016225919127,0.9992017149925232,0.034780316054821,0.1575601481054503,-0.0006544134627803,-0.0001003957800964,0.0002884816203732,0.0498176105320453,-0.0688653737306594,-0.0190009213984012,0.0034961439669132,-0.9992306232452391,0.0341309122741222,-0.0016960728381755,0.0475308647447696,-0.068139978185532,0.332249641418457,-0.4653446674346924,0.4995222091674804,398,18,21722,10783
12.9,1788525492018,5.295774459838867,4.760563373565674,0.0188491158187389,-0.0047354088164865,0.999137818813324,0.0366864390671253,0.1670199986221293,0.0029485442374038,-7.132545331895904e-05,0.0067293844185769,0.0109123531728982,0.0085067469626665,-0.0193463414907455,0.0036480771377682,-0.9992974400520324,0.0318931825459003,-0.0083955832054606,-0.0135596002506505,-0.0915282176052254,0.3715853691101074,-0.0857341885566711,-0.0163478851318359,369,70,20792,12960
13.0,1788525492118,5.098591327667236,4.788732528686523,0.0186140369623899,-0.004606757313013,0.9991658329963684,0.0360534191131591,0.1692981747465499,-0.0023004672611954,-2.4540959734487634e-05,0.0063331415876746,0.0113786375150084,0.0303357634693384,-0.0192545298486948,0.0033936602994799,-0.9992291927337646,0.0340416170656681,-0.0053891870620841,0.0070079319486298,0.0170494241233709,0.1838269233703613,0.032797634601593,0.1485395431518554,389,49,21729,12735
13.1,1788525492218,5.239436626434326,4.985915660858154,0.0200504399836063,-0.0044826595112681,0.9991920590400696,0.0345420613884925,0.1633196697906621,0.0023195060102084,2.992672088949697e-05,0.0122808124870061,-0.0447413586080074,0.0362064726650714,-0.0202783811837434,0.0028941156342625,-0.9991837739944458,0.034818697720766,0.0064840475202822,0.015554781212837,-0.0046307651394535,-0.0739656686782836,0.1855387091636657,-0.0880880355834961,340,53,21077,12718
13.2,1788525492318,5.211267471313477,4.788732528686523,0.0198289901018142,-0.0038177804090082,0.9992142915725708,0.0341024994850158,0.1666122304710524,0.001727956794333,-2.0050579503098736e-05,0.0227450188249349,0.0101237166672945,0.0250865053385496,-0.0206407979130744,0.0021601933985948,-0.9991551041603088,0.0354737676680088,0.0125042018924539,-0.0205926769897142,-0.0059193704787252,0.1332823038101196,0.1747471094131469,-0.2679862976074219,353,17,21030,11760
13.3,1788525492418,5.126760482788086,4.8450703620910645,0.0204251818358898,-0.0036106933839619,0.9992063641548156,0.0340066663920879,0.1564628680447327,0.0022105014153285,1.9963026292800943e-08,0.0,0.0,0.0,-0.0201825555413961,0.0018410375341773,-0.9991500377655028,0.0358946360647678,0.014895116305062,0.0314417048546094,0.0127763310641451,-0.009234070777893,0.2225548028945922,0.264775276184082,421,26,22009,12435
13.4,1788525492518,5.436619758605957,4.704225540161133,0.0187154840677976,-0.0035217059776186,0.9992389678955078,0.0340413004159927,0.1660652858136603,-0.0009891290078779,-8.095619270632456e-05,-0.012047535739839,0.0450085699558258,-0.0199853293597698,-0.0162492878735065,0.002775402739644,-0.999248504638672,0.0350834354758262,-0.0258324143114322,0.1243195642931562,-0.0180788610011586,-0.6992959976196289,0.1707969307899475,0.526240348815918,403,33,20802,12944
13.5,1788525492618,5.380281925201416,5.042253494262695,0.0157397221773862,-0.0037448827642947,0.9992845058441162,0.0341858491301536,0.1638136065304503,-0.0022687019849698,-0.0002550282149838,-0.0131077533587813,0.1189966946840286,-0.0051425131969153,-0.0165056753903627,0.0013168696314096,-0.9992103576660156,0.0361201055347919,0.039319329637836,-0.1072369190032193,-0.0068367476312282,-0.4413796067237854,-0.2249081134796142,-0.0602970123291015,320,20,20862,11389
13.6,1788525492718,5.098591327667236,4.985915660858154,0.0157397221773862,-0.0037448827642947,0.9992845058441162,0.0341858491301536,0.1638136065304503,-0.0022687019849698,-0.0002550282149838,-0.0131077533587813,0.1189966946840286,-0.0051425131969153,-0.0184667315334081,0.0019211368635296,-0.9992042183876038,0.0353026427328586,-0.0251348948219613,-0.0643501881995927,-0.0008984866557432,-0.2885793447494507,0.1078061461448669,-0.5167741775512695,305,24,21501,12320
13.7,1788525492818,5.295774459838867,4.957746505737305,0.0189595744013786,-0.00383369368501,0.9992469549179076,0.0336375273764133,0.162990461256096,0.0012927651241552,-0.0001521210985279,-0.0180233772844076,-0.0207639951258897,0.0159071739763021,-0.0194713938981294,0.002496138215065,-0.9991633892059326,0.0358767509460449,-7.329360453986237e-05,-0.0713344081775561,0.0143328748528417,0.5653073787689209,-0.5794886350631714,-0.6056919097900391,346,21,20906,12374
13.8,1788525492918,5.070422649383545,4.929577350616455,0.0193888917565345,-0.00429552141577,0.9992596507072448,0.0329521708190441,0.1668795938789606,-0.0001099758565206,-1.1906880823465258e-05,-0.0069786235690116,0.0047575081698596,0.0303820893168449,-0.019244696944952,0.0033994317054748,-0.99913889169693,0.0365994907915592,-0.0174943953741617,0.018659566926394,0.017722473937498,-0.0155724883079528,0.1395853757858276,-0.0611820220947265,321,36,21810,12341
13.9,1788525493018,5.492957592010498,4.873239517211914,0.0136204194277524,-0.0046872184611856,0.9993875622749328,0.0318900793790817,0.1565040488340184,0.0013927071843772,-0.0004723321802187,-0.0097495531663298,0.2073724567890167,0.027397871017456,-0.0175123400986194,0.0033880081027746,-0.9991443753242492,0.037315484136343,0.0048369283074166,0.0930159765796603,0.0388090341454729,0.1220055222511291,0.276681900024414,0.1335821151733398,290,19,20225,12195
14.0,1788525493118,5.154929637908936,4.816901206970215,0.013003840111196,-0.0044004488736391,0.9993790984153748,0.032450508326292,0.163101968925786,-0.0011682679921608,-4.943143477142111e-06,0.0055490899831056,0.0014257570728659,-0.0304206423461437,-0.013969843275845,0.0035655843093991,-0.9992190599441528,0.036790195852518,-0.0037643024254488,-0.0371785610607065,-0.0033479667640446,-0.008979320526123,-0.0957155227661132,0.0059680938720703,325,24,20966,12377
14.1,1788525493218,5.183098793029785,4.985915660858154,0.015183045528829,-0.0045545799657702,0.999337375164032,0.032764833420515,0.1657464828869449,0.000412352699344,0.0001135080650946,0.000590578187257,-0.0444514118134975,-0.0028747122269123,-0.0171790178865194,0.0035241292789578,-0.9991744756698608,0.0366439558565616,-0.0058024348992101,-0.0987517038677112,-0.0082187599456479,0.0241816639900207,0.2744266986846924,-0.5092391967773438,358,25,20968,12092
14.2,1788525493318,5.183098793029785,4.929577350616455,0.0177259612828493,-0.0048214108683168,0.9993058443069458,0.032409768551588,0.159928290379496,0.0055226411189046,0.000165698851648,-0.0039377366192638,-0.0433030128479003,0.0155850034207105,-0.0180911719799041,0.0036636861041188,-0.999110758304596,0.0379073806107044,-0.0084978287912555,-0.005786686696308,0.0324382047098363,0.0963286161422729,-0.2176257967948913,-0.1692609786987304,337,18,21318,12315
14.3,1788525493418,5.014084339141846,4.704225540161133,0.0179773084819316,-0.0050062993541359,0.999330759048462,0.0314627103507518,0.1587870539619891,0.0026012522180538,5.991963782816856e-05,-0.0061509842053055,-0.0112095195800066,0.0150167951360344,-0.0177388861775398,0.0039656059816479,-0.9990930557250975,0.0385064855217933,-0.0004116131544736,0.0359591967022486,-0.0017460571097625,0.0136826038360595,0.4659497737884521,0.3940238952636719,398,62,22044,13123
14.4,1788525493518,5.211267471313477,4.704225540161133,0.017207995057106,-0.004880913067609,0.9993857741355896,0.0301336925476789,0.1683692027728307,0.0026256180258047,-0.0001460373895245,0.0099532660096883,0.0069140805862843,0.025825148448348,-0.0174720082432031,0.0036495355889201,-0.9990658164024352,0.0393577851355075,0.0155363319001379,-0.0319634449170036,0.0195487064245234,-0.1569410562515258,0.1958286762237548,-0.3276185989379883,319,42,21197,12961
14.5,1788525493618,5.211267471313477,4.873239517211914,0.0180102679878473,-0.0046880501322448,0.9993864893913268,0.029670376330614,0.1685419858900217,-0.0016485373900329,-9.31870841729826e-05,0.0063962684944272,-0.0176334884017705,0.009542073123157,-0.0187930930405855,0.0033745700493454,-0.999033510684967,0.0395905636250972,0.0014258919060549,-0.0796409594983683,-0.0121765810477937,-0.0092797875404357,0.203064739704132,-0.003732681274414,370,25,20876,12167
14.6,1788525493718,5.211267471313477,4.901408672332764,0.0198047943413257,-0.0048204106278717,0.9993331432342528,0.030296454206109,0.164664036462785,0.0025265746242909,4.565987152857218e-05,-0.0013646099250763,-0.0200399570167064,0.0003121532790828,-0.02009167522192,0.0034337434917688,-0.9990251064300536,0.0391597338020801,0.0036733538600593,-0.0214228755649787,0.0083148365503898,-0.3230645656585693,0.1988295912742614,0.2024421691894531,363,18,20952,12320
14.7,1788525493818,5.408450603485107,4.985915660858154,0.0196658186614513,-0.0050298343412578,0.9993461966514589,0.0299212429672479,0.1638605495542185,-0.001849655507425,-2.834287297623339e-05,-0.0082150027155876,0.00522356107831,0.0151607543230056,-0.0198496114462614,0.0030482271686196,-0.9990000128746032,0.0399450473487377,0.0326809805944367,-0.0091105164223806,0.0186793121479781,-0.1648223400115966,-0.1479560732841491,0.0870351791381836,395,23,20418,12132
14.8,1788525493918,5.183098793029785,4.732394218444824,0.0194572750478982,-0.0041875154711306,0.9993684887886048,0.029434161260724,0.1541894824184498,0.0045574522532122,-8.716369414778676e-08,0.0,0.0,0.0,-0.0208170022815465,0.0022985683754086,-0.9989866614341736,0.0398375540971756,0.0030595289160333,-0.0404131203319312,-0.0141666007023568,-0.1430185437202453,0.077646791934967,-0.159489631652832,368,50,21421,13050
14.9,1788525494018,5.323943614959717,4.901408672332764,0.019623015075922,-0.0036612967960536,0.9993773102760316,0.0290943291038274,0.1718682393917388,0.0009200514128298,4.579258123488383e-08,0.0067272339947521,0.0017630258807912,0.0173798967152833,-0.0198180451989173,0.0021057911217212,-0.9989846348762512,0.0404042936861515,0.017370898867894,-0.0130582872521326,0.0141368798864102,0.3346983790397644,-0.2453672289848327,-0.2379159927368164,321,20,20491,12273
15.0,1788525494118,5.211267471313477,4.760563373565674,0.0199838764965534,-0.0039429878816008,0.9993447065353394,0.029921531677246,0.1661344219577966,0.0029655790232905,5.461320068539694e-05,-0.0115039553493261,-0.0146695179864764,-0.0329636707901954,-0.0203812438994646,0.003134798258543,-0.9990217685699464,0.0391188822686672,-0.0403040355294235,-0.0098440612712834,-0.0269741523771576,-0.0984984636306762,0.1752030849456787,-0.4122571945190429,326,54,20382,13034
15.1,1788525494218,5.183098793029785,4.8450703620910645,0.0168158747255802,-0.0050664823502302,0.9994180202484132,0.0292417500168085,0.163057545607319,0.0013688962750483,-0.0001702257252385,-0.0118543151766061,0.0749700143933296,0.0289311539381742,-0.0137193333357572,0.0045543117448687,-0.9990748763084412,0.0405043102800846,-0.0272269783932774,0.1631166279415322,0.0189560408593709,0.5569766759872437,-0.2306892871856689,-0.6600618362426758,322,43,20831,12577
15.2,1788525494318,5.323943614959717,4.8450703620910645,0.0090627167373895,-0.0042594126425683,0.9995783567428588,0.0272541772574186,0.1570258100540465,0.0034989825356638,-0.000825085094041,0.0291308928281068,0.168825164437294,0.0559360906481742,-0.0093246242031455,0.0031103854998946,-0.9990472197532654,0.0425214692950248,0.0779827427927933,0.0143967929142211,0.0813036391033561,0.9406967759132384,-0.2565669417381286,-0.1443557739257812,432,21,21661,11521
15.3,1788525494418,4.985915660858154,4.873239517211914,0.0128122232854366,-0.0044653378427028,0.9994913339614868,0.0288591478019952,0.1615522777046491,-0.0002595133223136,0.0001227821357106,-0.0297322198748588,-0.1344287991523742,-0.0701972916722297,-0.019097950309515,0.0029722647741436,-0.9989840984344482,0.0407105833292007,0.0241670499461362,-0.2286574177816713,0.0231143037365302,-0.4450767636299133,-0.1847032904624939,-0.4263772964477539,356,30,21477,12495
15.4,1788525494518,5.126760482788086,4.929577350616455,0.0206309016793966,-0.0041967132128775,0.999383807182312,0.0280832052230834,0.1548653068728016,0.00279403074462,0.0002130209679671,0.0046178987249732,-0.0617954730987548,0.0241202805191278,-0.0223838593810796,0.0027439752593636,-0.998863697052002,0.0419846586883068,0.0014503114542641,-0.0725674856039608,0.024972086484809,0.102135956287384,0.1916525363922119,-0.2285614013671875,422,48,22083,12710
15.5,1788525494618,5.295774459838867,4.901408672332764,0.024383133277297,-0.0042755994945764,0.9993181824684144,0.0273935943841934,0.1656909004107912,-0.0008767975730936,0.0001272762841137,0.0044111590832471,-0.0722026079893112,0.0023777897004038,-0.0260295625776052,0.0026879897341132,-0.9987870454788208,0.0417101383209228,-0.0056777608820778,-0.010450372659791,-0.0114273913614782,0.2205157279968261,0.0871223807334899,0.3919315338134765,295,42,20646,12526
15.6,1788525494718,4.985915660858154,4.760563373565674,0.0248196050524711,-0.00445261830464,0.9993033409118652,0.027515897527337,0.1600811325472294,0.0053076561778972,2.069557607559269e-07,-0.0031005106866359,0.0448630265891552,0.0040624858811497,-0.0246312841773033,0.0027684532105922,-0.9988115429878236,0.041967149823904,-0.0009969451636233,0.0935283817734102,0.0174717757779203,0.9646724462509156,-0.0193138718605041,-1.734113693237305,442,57,21881,13227
15.7,1788525494818,5.408450603485107,4.901408672332764,0.0200963746756315,-0.004467224702239,0.9994208216667176,0.0270945895463228,0.166814794273639,0.0006921036518517,6.545586524078874e-08,0.0,0.0,0.0,-0.0206158608198165,0.0025777956470847,-0.9988783597946168,0.0425483547151088,0.0200709666497051,-0.0340771003574979,0.0123098838841324,-0.1663963198661804,0.0526695251464843,0.127969741821289,310,29,19894,12403
15.8,1788525494918,4.985915660858154,4.816901206970215,0.0204378999769687,-0.0040370696224272,0.999421775341034,0.0268717668950557,0.164413737146115,0.0025678661854114,-2.0345039483794165e-07,0.0,0.0,0.0,-0.0213228911161422,0.0022937096655368,-0.9988467693328856,0.0429573953151702,0.0038522346256831,-0.0258216248316286,0.0087745682269649,0.05378258228302,-0.1043635606765747,-0.535710334777832,362,37,21622,12680
15.9,1788525495018,5.183098793029785,4.873239517211914,0.0204218514263629,-0.0038259271532297,0.9994298815727234,0.0266125444322824,0.164624193155701,0.0015814347510395,-1.2775359508069766e-07,0.0,0.0,0.0,-0.0209249798208475,0.0019514337182044,-0.9988561272621156,0.0429515466094017,0.0040090000925941,-0.0345053983012346,-0.0110989387904317,0.3977725505828857,-0.0630834698677063,-0.1199674606323242,335,45,21098,12446
16.0,1788525495118,5.154929637908936,4.816901206970215,0.0203569754958152,-0.0033225689548999,0.9994394183158876,0.026370845735073,0.1615146873374294,-0.0011901427166732,2.061723581454988e-07,0.0169386714696884,0.0025928935501724,0.0077542536891996,-0.0204601548612117,0.0018567955121397,-0.998863697052002,0.0430045947432518,0.0007952123375266,0.0174479335808692,-0.0014436421693507,-0.4693520069122314,0.1931549310684204,0.4172506332397461,387,40,21247,12814
16.1,1788525495218,5.126760482788086,4.873239517211914,0.0200159344822168,-0.0034628685098141,0.999441146850586,0.0265459977090358,0.1649690194427567,0.0016411838144206,-9.123233003229968e-05,-0.0060941572301089,0.0134734762832522,-0.0068219238892197,-0.0211300682276487,0.0019750269129872,-0.998849093914032,0.0430147275328636,-0.0088732611514529,-0.0365278198777501,-0.0049412913029799,-0.3325203061103821,0.34427011013031,0.2834949493408203,370,36,21391,12639
16.2,1788525495318,5.267605781555176,4.985915660858154,0.0211626645177602,-0.0034360836725682,0.9994192123413086,0.0264869071543216,0.1587370039934438,0.0018627815106328,0.000107875351387,-0.0013585283886641,-0.022700447589159,-0.0063004926778376,-0.0194518342614173,0.0019865240901708,-0.998871922492981,0.0432746782898902,0.0050564358781592,0.0851575908785695,0.020065956822482,0.5727333426475525,-0.244880735874176,0.3788032531738281,343,34,20842,12363
16.3,1788525495418,5.239436626434326,4.957746505737305,0.0192472543567419,-0.0034189305733889,0.999461591243744,0.0263497959822416,0.1683034631224154,0.0014917391215946,-0.00016197234895,-0.0032863582018762,0.0099355708807706,-0.004622574429959,-0.0200419779866933,0.0020962292328476,-0.9988806247711182,0.0427951477468013,-0.0070961722285164,-0.0203154208174185,-0.0224369883250529,-0.4744845032691955,0.5508607029914856,-0.0450067520141601,325,27,20606,12371
16.4,1788525495518,5.183098793029785,4.957746505737305,0.0199763439595699,-0.0034012291580438,0.9994421005249025,0.0265481434762477,0.1558953223336187,-0.0022286739203595,6.009470088345426e-08,0.0,0.0,0.0,-0.0186965391039848,0.0020560091361403,-0.9988497495651244,0.044106088578701,0.006463701212926,0.0302440796911942,0.0451895147685305,0.3693581223487854,-0.1828212738037109,-0.390904426574707,374,29,21271,12557
16.5,1788525495618,4.873239517211914,4.901408672332764,0.0186621788889169,-0.0033627892844378,0.9994935393333436,0.0255556795746088,0.1626344205415118,-0.0009720158098082,8.788462435659583e-10,0.0,0.0,0.0,-0.0193394683301448,0.0022162282839417,-0.9988452792167664,0.0439237579703331,0.0045943081948484,-0.0257390554454538,0.0095952007963115,-0.1018796563148498,0.2000003457069397,0.3388853073120117,405,40,22201,12580
16.6,1788525495718,4.873239517211914,5.295774459838867,0.0198421459645032,-0.003351264167577,0.9994853734970092,0.0249802749603986,0.1585416292055662,0.0023167119001078,0.0001606064372112,0.0022055699955672,-0.0497305691242218,0.0240290593355894,-0.020282607525587,0.0018968181684613,-0.9987924098968506,0.0447072722017765,0.0041402727645975,-0.0173057032476206,0.0157511851209699,-0.5753424167633057,0.4910506010055542,0.2200613021850586,349,48,20315,13573
16.7,1788525495818,4.788732528686523,5.352112770080566,0.0201040338724851,-0.0031054271385073,0.9996016025543212,0.0195645242929458,0.1601591431274084,0.0056014385086924,-0.0001064629859267,0.0015340062091127,0.0346876643598079,0.1188173964619636,-0.0201358757913112,0.0016527464613318,-0.9984938502311708,0.0510098487138748,0.0054365518892842,0.0214374851829705,0.1302443732952929,-0.033271849155426,0.0305867195129394,0.4767370223999023,360,36,20675,13286
16.8,1788525495918,4.957746505737305,5.183098793029785,0.0205178931355476,-0.0030121791642159,0.9996401071548462,0.0170168597251176,0.159573789378286,0.0039041578718257,-3.853292584052068e-06,0.0059846006333827,-0.0164274722337722,0.0997491851449012,-0.0195836015045642,0.0014655096456408,-0.9981992840766908,0.056679468601942,0.0025736693316902,0.04996232642926,0.1222464201724727,-0.1123819351196289,0.0900558829307556,-0.0949831008911132,359,48,19887,13836
16.9,1788525496018,5.211267471313477,5.014084339141846,0.0172758549451828,-0.0034201692324131,0.9997985363006592,0.0096285985782742,0.1644437851612418,0.0021737512414125,-0.000137901704391,-0.021699609234929,0.0655351802706718,0.0597082190215587,-0.0187081769108772,0.0017685927450656,-0.9980809092521667,0.0590027198195457,-0.0080686100703529,0.0347739354994994,0.0915812729897374,-0.1540043354034423,-0.3408506512641907,0.1937141418457031,318,47,19916,13204
17.0,1788525496118,5.408450603485107,4.957746505737305,0.0070865056477487,-0.0031415733974426,0.999955415725708,0.005394457373768,0.1848932454996588,-0.0073213358033787,-0.0004997433940983,0.0051746368408203,0.1443637013435363,0.1038663908839225,-0.0067741768434643,0.0026455633342266,-0.9979161024093628,0.064114935696125,0.0027269326950801,0.026104282056441,-0.0075150515858068,-0.5394760370254517,0.1488779783248901,0.5899257659912109,234,32,18672,12949
17.1,1788525496218,5.014084339141846,5.098591327667236,0.0079535208642482,-0.0033009184990078,0.999951720237732,0.0047288169153034,0.1641055702711838,0.0030610130424468,2.1992955746313152e-08,-0.0055615724995732,-0.032265018671751,0.0246264468878507,-0.0089834434911608,0.0026014102622866,-0.9977810978889464,0.0659204199910163,0.007845333862755,-0.0467232734785043,0.0752536795865836,0.1633167266845703,0.4215146899223327,0.1963968276977539,303,43,19545,12744
17.2,1788525496318,5.239436626434326,5.126760482788086,0.0091049317270517,-0.0031118378974497,0.9999523162841796,0.0016756844706833,0.1531058942204386,0.0052801808257123,6.40751450045559e-06,0.0017352994764223,-0.0043055107817053,0.0573487617075443,-0.0095216557383537,0.002542395144701,-0.9975752830505372,0.068894125521183,-0.0044501391879066,-0.0177695069762783,0.0458801909480471,0.00519859790802,-0.2991153597831726,0.2624588012695312,334,22,20036,12821
17.3,1788525496418,5.239436626434326,5.014084339141846,-0.009955970570445,0.0032043373212218,-0.9999446272850036,0.0011405454715713,0.1656965667779054,-0.0009946731889961,-6.673738591727976e-05,-0.0005428172298707,-0.0167727153748273,0.0401306115090847,-0.0099670970812439,0.0025110803544521,-0.9974559545516968,0.0705402567982673,-0.0130091001902326,-0.0606957876269903,0.0321347919553319,-0.1113418936729431,-0.3036564588546753,-0.3218011856079101,286,30,19270,12990
17.4,1788525496518,4.957746505737305,5.042253494262695,-0.0136362416669726,0.0033044563606381,-0.9998980164527892,0.0026532874908298,0.1652396273956511,0.0029164094205131,0.0002572511803606,-0.001394149614498,-0.078323408961296,0.0421533547341823,-0.0123391840606927,0.0025824047625064,-0.9971664547920228,0.0741633921861648,-0.0010407535848704,0.0832493579357881,0.0765426353621775,-0.085834801197052,0.4490713477134704,0.0674018859863281,414,61,20859,13167
17.5,1788525496618,5.154929637908936,5.014084339141846,-0.0099584283307194,0.0035338494926691,-0.9999254941940308,0.0061243469826877,0.1644213676445575,0.0022737088999056,-0.0001958286970215,-0.003213514573872,0.0912829563021659,0.0588623769581317,-0.0091708125546574,0.003323258832097,-0.9970546960830688,0.0760703459382057,-0.006231977191207,0.0100960915269799,0.0336921398136993,0.2061378955841064,-0.0795186161994934,-0.5320549011230469,292,32,19670,13076
17.6,1788525496718,5.746479034423828,4.2816901206970215,-0.0091340541839599,0.0039644367061555,-0.9999278783798218,0.0067081241868436,0.1621041923776235,0.000926548102435,1.3313746723968655e-09,-0.0042972089722752,-0.0046463571488857,0.0101586775854229,-0.0107903620228171,0.0034767258912324,-0.997028112411499,0.0762010365724563,-0.0136247068769989,-0.0557134309298906,-0.0300347910462637,-0.376091718673706,0.1221278309822082,0.1200809478759765,393,26,23113,9573
17.7,1788525496818,6.0,4.3380279541015625,-0.0108263622969388,0.0045112576335668,-0.9999275207519532,0.0027035539969801,0.1535069302855948,-0.00694286452645,2.0203071651502747e-05,-0.0134733859449625,-0.001525982748717,-0.1565049588680267,-0.0110370321199297,0.0037787184119224,-0.9975326657295228,0.0692281424999237,-0.0017952137541522,0.0058331601420268,-0.1782851864438733,-0.4882641434669494,0.5999897718429565,0.024153709411621,383,21,23111,9645
17.8,1788525496918,5.97183084487915,4.056337833404541,0.010916550643742,-0.0046166912652552,0.9999181032180786,0.0048256539739668,0.1642111162134353,-0.0034877716893845,-1.4714948701992922e-05,-0.0059545533731579,-0.0115377604961395,-0.1582565605640411,-0.0112435901537537,0.0039355987682938,-0.9982112646102904,0.0585873834788799,-0.0114101469764336,0.0126372910209644,-0.1920234796641112,0.081582486629486,0.3584402203559875,0.0421247482299804,432,14,23395,10144
17.9,1788525497018,5.943662166595459,4.197183132171631,0.0108701298013329,-0.0051026702858507,0.9998189210891724,0.0147618046030402,0.1598273034924807,-0.0045834275314027,1.616710112125096e-05,-0.0223310273140668,0.0032057748176157,-0.2051078826189041,-0.0118008218705654,0.0044628661125898,-0.998707950115204,0.0492259785532951,-0.0131462419548987,-0.0463608198876082,-0.2135117537514143,-0.0033884644508361,-0.077917456626892,-0.2467126846313476,353,14,23038,9837
18.0,1788525497118,5.915493011474609,4.169013977050781,0.0116664096713066,-0.0054917493835091,0.9996164441108704,0.0245084892958402,0.1536207152055811,-0.004230574650597,3.58611272180507e-05,-0.0138529120013117,-0.0113759692758321,-0.2200655937194824,-0.0127954753115773,0.0049738399684429,-0.9991289377212524,0.0394072458148002,-0.0185308931024274,-0.0331915069226938,-0.2203246942153446,-0.1368249654769897,-0.2851898670196533,-0.2070274353027343,338,16,22629,10194
18.1,1788525497218,5.690140724182129,4.478873252868652,0.0116062918677926,-0.0059079527854919,0.9992610216140748,0.0361657552421093,0.1597888230216717,-0.0032086152009052,-0.0001468269215578,-0.0050792531110346,0.023600785061717,-0.1796324253082275,-0.0114357033744454,0.0052649984136223,-0.99946528673172,0.0301766209304332,-0.0111981848668525,0.024060121051403,-0.1321767284018165,-0.2594954371452331,-0.1119461059570312,0.3010272979736328,303,25,20614,11754
18.2,1788525497318,5.521126747131348,4.507042407989502,0.0110044339671731,-0.0063832001760602,0.9990634918212892,0.0413568131625652,0.1691233160778643,-0.0008166625952606,-6.346706474406904e-05,-0.015972975641489,0.0069507686421275,-0.111756220459938,-0.0114346463233232,0.0058850944042205,-0.999596357345581,0.0253358427435159,-0.0137009267712765,0.0133099955811421,-0.1077719350220003,-0.3360952138900757,0.3868533372879028,0.1640577316284179,290,37,20754,11605
18.3,1788525497418,5.380281925201416,4.591549396514893,0.0112947225570678,-0.0068188393488526,0.998871684074402,0.0456201955676078,0.1617735166511273,-0.0013425172342755,-5.2888899755285e-05,-0.0068692001514136,-0.0112430211156606,-0.0644519031047821,-0.0134388133883476,0.0059352293610572,-0.9996398687362672,0.0224566236138343,0.0025812945179075,-0.0723653012211454,-0.0560434623041351,0.5319704413414001,-0.257422924041748,-0.245457649230957,396,18,22183,11272
18.4,1788525497518,5.577464580535889,4.450704097747803,0.0133373569697141,-0.0068392199464142,0.9986803531646729,0.0491206832230091,0.1611714312835756,-0.0015786438475515,-3.84571204451063e-05,0.0013366828206926,-0.0073716607876122,-0.0602182894945144,-0.013462895527482,0.0060319602489471,-0.9997118711471558,0.0189380198717117,-0.0095759830351197,0.0248975205661232,-0.0861155648921194,0.0309514999389648,-0.1306034326553344,0.5015020370483398,398,29,22142,11708
18.5,1788525497618,5.408450603485107,4.676056385040283,0.0131244510412216,-0.0069188084453344,0.9984774589538574,0.0531284660100936,0.1656294596598777,-0.0015147368209993,4.533459599885896e-05,0.0021455842070281,-0.023897211998701,-0.0824753791093826,-0.0136230681091547,0.0060194693505764,-0.999774932861328,0.0151091683655977,0.0003164481212138,-0.0082081703099007,-0.1043089979068275,-0.0061567425727844,0.0880648493766784,0.3969678878784179,316,53,20138,13057
18.6,1788525497718,5.352112770080566,4.873239517211914,0.0120565332472324,-0.0062575368210673,0.9984128475189208,0.0546557120978832,0.1644234019972199,0.005534801880556,-0.0001321126172295,0.0338966622948646,0.0264970380812883,0.0218762420117855,-0.0157103296369314,0.0043574953451752,-0.999763250350952,0.0144132450222969,0.0169089577539679,-0.1241011387712337,-0.0339969343819023,-0.1745843291282653,-0.1331369280815124,-0.3011741638183594,280,16,20277,12190
18.7,1788525497818,5.042253494262695,4.816901206970215,0.0172369703650474,-0.005344093311578,0.9982840418815612,0.0557067841291427,0.167897093486964,-0.0036514698640035,0.0002547472360302,0.0124671980738639,-0.1041599214076995,-0.0317732095718383,-0.0182100441306829,0.0037978906184434,-0.999727189540863,0.0141239063814282,0.0012613655761608,0.0261270332946606,0.0230760424884533,0.2672824263572693,0.390728235244751,-0.4096593856811523,334,30,20811,12567
18.8,1788525497918,5.295774459838867,4.8450703620910645,0.0190882720053195,-0.0057149976491928,0.9982670545578004,0.0553694739937782,0.163515200347933,0.0095403030745723,4.909417716072744e-05,-0.0304837524890899,-0.0597175173461437,-0.0022417644504457,-0.0206206683069467,0.004527430050075,-0.9996733665466307,0.0144023494794964,-0.0120376125761854,-0.0133123346995673,-0.001283623554219,-0.1256494522094726,0.511915385723114,0.0795507431030273,353,41,20276,12791
18.9,1788525498018,5.211267471313477,4.760563373565674,0.0212218668311834,-0.0060588493943214,0.9982728958129884,0.054444745182991,0.1650046495666544,0.002046849488823,-2.3299175584518884e-05,-0.0027926336042582,-0.0265816580504179,0.0191349014639854,-0.022897994145751,0.004640482366085,-0.9996199011802672,0.0146362399682402,-0.0073327905589732,-0.0360077063275467,-0.0176117128342873,-0.1394685506820678,0.3570489883422851,0.0482473373413085,318,51,21477,12428
19.0,1788525498118,5.6619720458984375,5.070422649383545,0.0221119839698076,-0.0060819340869784,0.9982585310935974,0.0543504171073436,0.1560263924493049,0.0050602987503578,2.3753699332130892e-05,0.0022466978989541,0.0053247101604938,0.0106408186256885,-0.0186224821954965,0.004797569476068,-0.9996960759162904,0.0154269179329276,-0.0166286196096819,0.1486690987590394,-0.0060524145925791,-0.4293788075447082,0.2038329839706421,0.6791191101074219,343,53,20012,12305
19.1,1788525498218,5.154929637908936,4.760563373565674,0.0183094441890716,-0.0060760732740163,0.9983540773391724,0.0540081262588501,0.1704536194917706,0.0010850893316288,1.1936535804455058e-08,0.0,0.0,0.0,-0.0184283461421728,0.0049739386886358,-0.9997024536132812,0.0151890739798545,-0.0056496820567604,0.0189708653562962,-0.0182970804260302,0.0018872022628784,0.0386119484901428,0.3821916580200195,351,48,21098,13024
19.2,1788525498318,5.070422649383545,4.901408672332764,0.0185691285878419,-0.006283588707447,0.9983437657356262,0.0540876500308513,0.1602367260416679,0.003305288476431,-1.2426048283973986e-07,0.0033101758453994,-0.0248748771846294,0.0099146896973252,-0.0199205335229635,0.0049759382382035,-0.9996639490127563,0.0158229283988475,0.003849061602426,-0.0049464653171576,0.0167140070746841,0.1738636493682861,-0.1331151127815246,0.3868799209594726,339,24,21385,12464
19.3,1788525498418,5.464788913726807,4.873239517211914,0.0199570041149854,-0.0062972758896648,0.9983643889427184,0.0532034710049629,0.1642540897786998,0.0037886056620741,2.256171639941921e-05,0.0038938366342335,-0.0156934168189764,0.0191864687949419,-0.0204417947679758,0.0049108350649476,-0.999642014503479,0.0165467821061611,-0.000733605873022,0.0013735276733277,0.0155470479395428,0.0082027912139892,-0.0625334978103637,0.0859079360961914,347,30,20266,12603
19.4,1788525498518,5.183098793029785,4.873239517211914,0.0201002620160579,-0.0063473721966147,0.9983962178230286,0.0525422655045986,0.1597600846262736,0.0006713375609721,-2.1315924617528387e-05,0.0004728910862468,0.0016213408671319,0.0163538921624422,-0.0202585961669683,0.0049649374559521,-0.9996325373649596,0.0173112675547599,-0.0028826859776363,0.0194975994741286,0.0107538358945846,-0.2422358989715576,0.2070179581642151,0.3226795196533203,320,38,21262,12547
19.5,1788525498618,5.436619758605957,4.591549396514893,0.0200950261205434,-0.006193708628416,0.9984331130981444,0.0518570467829704,0.1664614994373541,-0.0001316143922466,2.6263431704533886e-06,0.0082083130255341,-0.0146867698058485,0.0055869938805699,-0.0213087256997823,0.0047243777662515,-0.9996182918548584,0.0169398877769708,-0.0027362176185359,-0.0198782360681226,-0.037832606278845,-0.1844708323478698,0.2273111939430236,-0.0981941223144531,393,21,22252,11272
19.6,1788525498718,5.690140724182129,4.394366264343262,0.0210515111684799,-0.0062514529563486,0.998284637928009,0.0542732924222946,0.1542320997540816,-0.0049973032166341,-1.9621331754289304e-05,-0.0040688654407858,-0.0038303316105157,-0.0659707635641098,-0.0199282765388488,0.0050491923466324,-0.9996960759162904,0.0136064803227782,-0.0135912017868459,0.1027776629598456,-0.0745793182323324,0.3866522312164306,0.2029640078544616,0.1857748031616211,368,58,21697,12147
19.7,1788525498818,5.88732385635376,4.056337833404541,0.0183186866343021,-0.0060893525369465,0.9981295466423036,0.0580070577561855,0.1630311735322798,-0.0057444186211998,-0.0002484580066977,0.0051296688616275,0.0484716184437274,-0.0708742290735244,-0.0189874917268753,0.0049824779853224,-0.9997736811637878,0.0082096057012677,-0.0161725570982014,-0.0182382401275712,-0.2148927847371385,0.0063245296478271,-0.5144173502922058,-0.2157297134399414,363,23,22879,9681
19.8,1788525498918,5.492957592010498,4.591549396514893,0.0171751696616411,-0.006397561635822,0.9976398348808287,0.0661732703447341,0.1570020490008078,-0.0022131370494471,-9.14314412737588e-05,-0.0137666724622249,0.0481691397726535,-0.1621163338422775,-0.0174842327833175,0.0049390271306037,-0.9998348951339722,0.000359546393156,0.0075354901962014,-0.00135471527983,-0.0818304858492537,-0.0703388452529907,-0.325602650642395,-0.0202922821044921,363,20,22200,11060
19.9,1788525499018,6.197183132171631,4.253520965576172,0.01702699996531,-0.0062787849456071,0.997266173362732,0.0716284811496734,0.1618944986356379,-0.0056747053374908,-9.222259179799356e-05,-0.0078301783651113,0.0124742044135928,-0.11943169683218,0.0177109353244304,-0.0051064202561974,0.9998213648796082,0.0041992738842964,-0.0027763201196895,-0.0076724001585079,-0.0911927174952291,-0.4149851202964782,0.2433040142059326,0.0321865081787109,382,18,22128,9794
20.0,1788525499118,5.97183084487915,4.2253522872924805,0.0174280386418104,-0.0063631781376898,0.996906280517578,0.0763777643442154,0.1598799355509333,-0.0048328405827281,3.5192495052346536e-06,-0.0039958823472261,-0.0051491428166627,-0.1385162323713302,0.0167786180973052,-0.0053687989711761,0.9997867941856384,0.0107763558626174,-0.0106151039759027,0.0624127566557645,-0.146517375608421,0.5169865489006042,-0.065185546875,0.9077672958374025,377,16,23528,9909
20.1,1788525499218,6.11267614364624,4.2253522872924805,0.0169740635901689,-0.0065533639863133,0.9960975646972656,0.0863632261753082,0.1499220328445762,-0.0100014946529468,6.9797905631221e-05,-0.0011771054705604,-0.0014321190537884,-0.1762487590312957,0.0163045339286327,-0.005518346093595,0.9996206760406494,0.0215025302022695,-0.0034796665499586,0.0469171047769853,-0.1758430074658641,-0.0467941164970397,-0.097804307937622,0.1279277801513672,398,15,22967,10125
20.2,1788525499318,5.633802890777588,4.507042407989502,0.0157481171190738,-0.0065824505873024,0.9954204559326172,0.0940580144524574,0.1608550285999988,-0.0026587924936705,-7.207540595638688e-05,-0.0005366952973417,0.015274366363883,-0.1629205197095871,0.0160179082304239,-0.0054083792492747,0.9994847774505616,0.027283763512969,1.948274669693377e-05,0.0109817945010358,-0.1206482544646671,0.1251590847969055,-0.1478849053382873,-0.4481830596923828,338,22,21771,11535
20.3,1788525499418,5.746479034423828,4.507042407989502,0.0130269648507237,-0.0063203484751284,0.994940221309662,0.0994197428226471,0.1608374758082833,0.0022575592818752,-0.0003007908315087,0.0122930696234107,0.0800010412931442,-0.0749057158827781,0.0167510155588388,-0.0052243052050471,0.9992861151695251,0.0334588959813118,-0.0001126898591496,-0.0654786779149983,-0.1300994907187558,0.1453825831413269,0.1913238763809204,0.0039405822753906,295,16,21313,11301
20.4,1788525499518,5.521126747131348,4.478873252868652,0.0156976450234651,-0.0064421920105814,0.9944077730178832,0.1042366996407508,0.1542283082460581,-0.0025319655025112,-3.9964680979623554e-05,-0.0051476904191076,0.0272190924733877,-0.0972407460212707,0.0157330967485904,-0.0054274257272481,0.9991620182991028,0.0373939126729965,-0.0005147868199608,0.0100601412263918,-0.0907150237924724,-0.0389156341552734,0.0016599893569946,0.1300859451293945,448,16,22480,11633
20.5,1788525499618,5.7183098793029785,4.507042407989502,0.0150379417464137,-0.0067924847826361,0.9938172698020936,0.1097955182194709,0.1590687911323063,-0.0043455683581057,-3.28065627531543e-05,-0.0111966608092188,0.0091712297871708,-0.1024746820330619,0.0146253230050206,-0.005410929210484,0.99900484085083,0.0417887978255748,0.0176751945760841,0.0578710932940812,-0.0855328309262902,0.398175299167633,0.1043221950531005,-0.0218505859375,357,19,21611,11445
20.6,1788525499718,5.436619758605957,4.732394218444824,0.0112620340660214,-0.0062772957608103,0.9934513568878174,0.1135265305638313,0.1673085284908977,-0.0032231507201795,-0.0003656497757455,-0.0186308678239583,0.0963904038071632,-0.0839447826147079,0.0128155359998345,-0.0056942999362945,0.9987868666648864,0.0472040474414825,3.597425077980067e-05,-0.0192877363506289,-0.0893744772205521,-0.1053525805473327,0.6258668899536133,0.1734781265258789,298,56,19798,12804
20.7,1788525499818,5.239436626434326,4.901408672332764,0.0123645085841417,-0.006550645455718,0.9930762648582458,0.1166353747248649,0.1668053068671992,0.0023925034427189,1.9406496878604837e-05,-2.6122336294065462e-06,-0.002861144952476,-0.0362647697329521,0.0128872999921441,-0.0059371199458837,0.9987942576408386,0.0469983406364917,-0.0056388461095063,-0.0266289137065847,0.0191260671310793,0.147590160369873,-0.3057276010513305,0.251077651977539,270,26,20140,12495
20.8,1788525499918,5.042253494262695,4.816901206970215,0.0134165566414594,-0.0069482414983212,0.99310564994812,0.1162450909614563,0.1650219728060275,-0.0055836944670843,6.448791899246413e-05,7.054195157252252e-05,-0.0555068403482437,0.0084165828302502,0.0161308646202087,-0.0060612587258219,0.9987770318984984,0.0463427379727363,-0.009451508573056,-0.0786771004148815,0.012111091109711,-0.2006226181983947,0.1353688836097717,-0.1982479095458984,310,34,20858,12773
20.9,1788525500018,4.957746505737305,4.873239517211914,0.0155302379280328,-0.0075867343693971,0.9932308793067932,0.1148635372519493,0.1596034413317909,0.0010664172414349,0.0001050357158231,-0.0149337593466043,-0.0077520916238427,0.0214545503258705,0.0151531649753451,-0.0067249480634927,0.998824179172516,0.0455583184957504,-0.0190503011992886,0.059517932489319,0.0037346146773114,0.2989634871482849,-0.2820398211479187,-0.1342182159423828,338,51,21727,12825
21.0,1788525500118,5.239436626434326,4.957746505737305,0.0133037343621253,-0.007889537140727,0.9932548999786376,0.114914633333683,0.1701829280958516,-0.0042328583847097,-0.0001138007645175,-0.0099195642396807,0.0265854150056839,-0.0044160168617963,0.0129150319844484,-0.0068825352936983,0.9988614320755004,0.0454067327082157,0.0165402888591864,0.0304489516155571,0.0395962062275914,0.1088664531707763,-0.1846190690994262,-0.9947080612182616,288,19,20277,12343
21.1,1788525500218,4.788732528686523,5.014084339141846,0.0114866625517606,-0.0078411661088466,0.9932899475097656,0.1148123368620872,0.1731547354517121,0.0001846127302268,-0.0001046074561617,-0.00605029752478,0.0432008355855941,-0.0012861303985118,0.0112789086997509,-0.0071584088727831,0.9988869428634644,0.0452366434037685,-0.0089754870046223,-0.0106226873334646,0.0153211150761392,0.0030577778816223,-0.1686116456985473,-0.5058059692382812,310,53,20798,13217
21.2,1788525500318,5.183098793029785,5.042253494262695,0.010523491539061,-0.0077193886972963,0.9933952689170836,0.1139977574348449,0.1636301642539772,0.0007782781352112,1.0475143269074608e-05,0.0073818177916109,0.0052054324187338,0.0361096300184726,0.0108945118263363,-0.0068730255588889,0.9989871978759766,0.0431125722825527,0.0004828004999194,-0.0185185215913841,0.0412413039306675,-0.0483328700065612,0.2427518367767334,-0.1729660034179687,318,24,19127,12851
21.3,1788525500418,4.816901206970215,5.183098793029785,0.0109554091468453,-0.0076038255356252,0.993742048740387,0.1109004095196724,0.1607157039077619,0.00186499380607,0.0001394921680943,0.0028439227025955,-0.0248570777475833,0.0620421320199966,0.0108115253970026,-0.0068367030471563,0.9991495013237,0.0391994714736938,-0.0028560750769924,0.0233282677732856,0.1138534144700251,-0.0480029582977294,0.2171016931533813,0.4356956481933594,329,41,19257,13751
21.4,1788525500518,4.985915660858154,5.323943614959717,0.0103065399453043,-0.0078326575458049,0.9942994713783264,0.1058350279927253,0.1592667879976319,0.0036041257848276,3.105378901331278e-05,-0.0090162837877869,0.0014901552349328,0.1027985960245132,0.0108049800619483,-0.0073912171646952,0.999365210533142,0.0331342257559299,-0.0136411308783672,-0.0033141123783534,0.0963652171808008,0.056245744228363,0.0694355368614196,0.0643148422241211,289,30,19274,13221
21.5,1788525500618,5.154929637908936,5.211267471313477,0.0096605345606803,-0.0079827578738331,0.9948287010192872,0.1007909551262855,0.1689916905402438,0.0040355947568122,-5.922997402182549e-05,0.0005842600949108,0.0300368797034025,0.1026476845145225,0.0100531196221709,-0.0071647288277745,0.9995132684707642,0.0286512821912765,-0.0109448250728388,-0.0115521807459559,0.0695634004420088,-0.3358319997787475,0.1511754989624023,0.1202468872070312,305,39,18486,13503
21.6,1788525500718,4.816901206970215,5.295774459838867,0.0102724786847829,-0.0079657500609755,0.9952288866043092,0.0966974645853042,0.1617856874872746,0.0042078691762414,0.0001044952265127,-0.0069701364263892,-0.0452273488044738,0.0773872211575508,0.0120144998654723,-0.007001238875091,0.999616265296936,0.0239596720784902,0.0175786527569218,-0.0546210343666444,0.1286323873281156,0.0108556151390075,-0.1986799240112304,-0.1858396530151367,404,21,19934,13380
21.7,1788525500818,5.436619758605957,4.732394218444824,0.0122553287073969,-0.0076502440497279,0.9958080053329468,0.0903202295303344,0.1657003333486205,0.002830303036214,6.256130213547496e-05,0.0087807141244411,-0.0235240254551172,0.1003854870796203,0.0127320950850844,-0.0068724462762475,0.9997013807296752,0.0196938943117856,-0.0052513970093559,0.0010316671002613,0.0862448511083967,-0.2038242816925048,0.3720855712890625,0.1908683776855468,407,23,22718,10823
21.8,1788525500918,5.690140724182129,4.450704097747803,0.0131460269913077,-0.0079779755324125,0.9957669973373412,0.0906176716089248,0.1613361821440215,-0.0058520010089974,4.739548690138124e-05,-0.0068723522126674,-0.0303451996296644,-0.076284646987915,0.0135655896738171,-0.007093652151525,0.9995111227035522,0.0272623281925916,-0.0076456824198503,0.0220008865459148,-0.2354822257007506,-0.1487843990325927,0.0270507335662841,-0.5201539993286133,371,48,22228,11893
21.9,1788525501018,5.77464771270752,4.394366264343262,0.0108637595549225,-0.0081439306959509,0.995042324066162,0.0985215380787849,0.1579674652946923,-0.0033840845559732,-0.0002506762811166,-0.0152459135279059,0.088688425719738,-0.1057401672005653,0.0094138421118259,-0.0077097099274396,0.9994363188743592,0.0312880836427211,-0.0168676701112812,0.0982619591760304,-0.0947803221106101,0.6215807199478149,-0.1663625240325927,0.0411901473999023,378,34,23083,9258
22.0,1788525501118,5.746479034423828,4.450704097747803,0.006342573557049,-0.0089826742187142,0.9944649934768676,0.1044919788837432,0.1522787299293932,-0.0067821456073595,-0.000182103599897,-0.0421427264809608,0.1123194247484207,-0.1758044958114624,0.0125811910256743,-0.0071813110262155,0.9990482330322266,0.0411439314484596,0.0041837999675079,-0.2910557158896031,-0.2704663006184291,-0.3700398802757263,-0.046865165233612,-1.1655893325805664,424,46,23924,8693
22.1,1788525501218,5.915493011474609,4.309859275817871,0.012453282251954,-0.007889537140727,0.9933289289474488,0.1143694072961807,0.150846273747888,-0.004104924242407,0.0007592431509103,0.007426134776324,-0.118115596473217,-0.2187869697809219,0.0117664840072393,-0.0072689680382609,0.9986913204193116,0.049238808453083,-0.0036870115562108,0.0598478478786288,-0.1445584090775777,0.465777575969696,-0.0213319659233093,0.6208896636962891,348,17,22264,10477
22.2,1788525501318,5.7183098793029785,4.14084529876709,0.0122173456475138,-0.0081429090350866,0.992371678352356,0.1224052682518959,0.1625300362020444,-0.0052839892472717,8.373315391017187e-05,-0.0005747975665144,-0.0322082825005054,-0.1799255609512329,0.0128104127943515,-0.0076234601438045,0.9982150793075562,0.0578311756253242,-0.0201477982365963,0.0065516692297766,-0.1954805051951894,-0.2161659002304077,0.0776139497756958,-0.1469106674194336,395,16,23578,10344
22.3,1788525501418,5.549295902252197,4.422535419464111,0.0110993776470422,-0.0088085336610674,0.9911904335021972,0.1316843032836914,0.1533088928510802,-0.004079063766459,-5.432111371004248e-05,-0.0209598168730735,0.0384676717221736,-0.1744157075881958,0.0097876843065023,-0.0080910241231322,0.9978407621383668,0.0644407197833061,-0.0119031265538835,0.1132364327076462,-0.094120853592593,-0.1229460835456848,0.0306405425071716,0.2109260559082031,313,52,21327,12118
22.4,1788525501518,5.577464580535889,4.591549396514893,0.0085495915263891,-0.0097295176237821,0.9904537796974182,0.1372355073690414,0.1639829015490086,0.0041183106291857,-0.0001088145192974,-0.0239675026386976,-0.0076424707658588,-0.0965005010366439,0.0112209655344486,-0.0090359188616275,0.9974589347839355,0.0697717815637588,0.0159368290563611,-0.0943010634127693,-0.0638423627803883,0.73162442445755,0.0008689165115356,-0.2538328170776367,362,22,20965,11210
22.5,1788525501618,5.211267471313477,4.366197109222412,0.0140399672091007,-0.0100694699212908,0.9899436831474304,0.1404035836458206,0.159639167532894,0.0028586681021037,0.0004219121061441,0.0084184696897864,-0.1263507604598999,-0.0640761777758598,0.0130947884172201,-0.0088614793494343,0.9972674250602722,0.0721638798713684,-0.0019355264457865,0.1276559124027025,-0.030754055502962,1.1167881488800049,0.3436564803123474,1.896596908569336,480,64,23097,12283
22.6,1788525501718,5.6619720458984375,4.619718074798584,0.0135495625436306,-0.0098777301609516,0.9897298216819764,0.1419639736413955,0.1699846935601662,0.0037896935702265,2.978924221118995e-05,0.0006314887432381,-0.024577273055911,-0.0296370778232812,0.0137248691171407,-0.00886364094913,0.9970629811286926,0.074823074042797,-0.0022554910510595,0.026708291651217,-0.0812203325843497,-0.1454558372497558,-0.3268933892250061,-0.0227460861206054,412,24,22292,11145
22.7,1788525501818,5.605633735656738,4.535211086273193,0.0126779237762093,-0.0096036456525325,0.9890993237495422,0.1463884860277176,0.1613637122641265,-0.0021731439783798,-1.7598377679948066e-05,0.0012488850625231,0.019356058910489,-0.0943342596292495,0.0125646796077489,-0.0085602309554815,0.9967027306556702,0.0797034278512001,0.0058967430012545,0.0209440520385292,-0.1008728206540983,-0.0664891004562377,0.0365318655967712,0.1303749084472656,345,19,22120,11174
22.8,1788525501918,5.577464580535889,4.647887229919434,0.0122755207121372,-0.0091951619833707,0.9884331822395324,0.150879293680191,0.1566961767751538,-0.00736611637934,4.797301772916556e-05,0.0106819961220026,-0.0128266531974077,-0.0979703143239021,0.0131475208327174,-0.0082375211641192,0.9961948394775392,0.0857623443007469,0.0071826997625671,-0.0222110425624948,-0.1098273955904541,-0.0896339416503906,-0.1329361796379089,0.2371301651000976,362,24,22001,10976
22.9,1788525502018,5.070422649383545,5.126760482788086,0.0130919450893998,-0.008904080837965,0.987512469291687,0.1567430198192596,0.1640177188578555,-0.0051837354757154,9.074483820623977e-05,0.0107186427339911,-0.0231019873172044,-0.100040815770626,0.0140871424227952,-0.008152506314218,0.9957711696624756,0.0904154404997825,-0.0101540125939436,-0.0280209453484706,-0.1031808563611912,-0.047425627708435,0.3369385004043579,-0.0568408966064453,253,80,19284,13935
23.0,1788525502118,4.507042407989502,5.267605781555176,0.0132845863699913,-0.0089467344805598,0.9871931076049804,0.1587235927581787,0.1562957707060432,-0.0004296492936258,5.520025558825031e-05,0.0043100607581436,0.004495920613408,0.0139113115146756,0.0139111839234828,-0.0078996298834681,0.9960629343986512,0.0871937200427055,0.0150946836899605,-0.0241778625459849,0.1248363592560698,-0.2494043111801147,-0.4028134346008301,-0.1083517074584961,276,70,18204,13538
23.1,1788525502218,4.591549396514893,4.901408672332764,0.0131391622126102,-0.0088053038343787,0.98800390958786,0.1536167412996292,0.1566342205382028,0.0021307860989931,-4.79879885055377e-06,0.0014254710404202,0.0064142541959881,0.0853387117385864,0.0124042751267552,-0.0079077770933508,0.9966402053833008,0.0805734097957611,0.0017684505684418,0.0152706690287991,0.1037058563732598,-0.974746823310852,-0.1484396457672119,0.1054935455322265,285,17,17343,11601
23.2,1788525502318,4.422535419464111,4.704225540161133,0.0109794232994318,-0.0084833148866891,0.9888523817062378,0.1482512801885604,0.1476061111335491,0.0020027626330477,-5.816455140540199e-05,0.0106213083490729,0.0453263670206069,0.1057933717966079,0.0120198596268892,-0.007561364211142,0.9969503283500672,0.0767360106110572,0.0109565892415718,-0.0244440947427351,0.083367376083036,0.0251910090446472,-0.2521729469299316,-0.1859779357910156,308,27,17834,12386
23.3,1788525502418,4.0,4.056337833404541,0.0108776297420263,-0.0085204904899001,0.98939448595047,0.1445944309234619,0.1449404755195301,0.002163518376267,-3.2273324600125114e-05,-0.0121337687596678,0.0243544355034828,0.0702340006828308,0.010386205278337,-0.0076482454314827,0.9972147941589355,0.0734590217471122,0.0039898260770934,0.0473531070330554,0.0558946700670899,0.1402896046638488,0.0382097363471984,0.0762872695922851,322,30,17630,10878
23.4,1788525502518,3.6619718074798575,3.690140962600708,0.010925093665719,-0.0085694501176476,0.9897558093070984,0.142093688249588,0.1321637924436761,0.0035801042039398,4.812703427551095e-05,-0.0017773915315046,-0.039993766695261,0.0235280860215425,0.0121690016239881,-0.0079133259132504,0.9973633289337158,0.0711035206913948,-0.006003992711761,-0.0206515480299912,0.0567947285705009,-0.4308450222015381,0.0617767572402954,0.2447547912597656,239,45,16079,10162
23.5,1788525502618,3.746478796005249,3.774647951126098,0.0123872738331556,-0.0086688743904232,0.9902015328407288,0.1388251632452011,0.116779561802412,0.003626154096642,9.159550903185136e-05,0.0069689555093646,-0.0422318652272224,0.0768316686153411,0.0130526488646864,-0.0078623155131936,0.997544527053833,0.068358339369297,-0.0020662151324203,-0.0072518270571675,0.0560347575887088,0.1234859824180603,-0.0726402401924133,0.2458267211914062,337,66,17075,10296
23.6,1788525502718,3.2676055431365967,3.380281686782837,0.0122285997495055,-0.0086116129532456,0.9904770255088806,0.1368632167577743,0.1260112591210301,-0.0002022271620681,-1.5557909581607055e-05,0.0055880765430629,0.0122124776244163,0.0380090698599815,0.0113133126869797,-0.0076418044045567,0.9976489543914796,0.0671584084630012,0.0008858632007051,0.0507859358134851,0.0097591221567527,-0.0808620452880859,-0.1385595202445984,-0.0712709426879882,294,22,15878,9071
23.7,1788525502818,3.521126747131348,3.2957746982574463,0.0106695387512445,-0.008155251853168,0.9906710982322692,0.1356113106012344,0.1122452136281381,4.747026896676068e-05,-7.402202225191092e-05,0.0077383564785122,0.0123026445508003,0.021569188684225,0.0117319487035274,-0.0073264427483081,0.9977237582206726,0.0660012289881706,0.0059091202041354,-0.0468769411973534,0.0342239416809254,-0.0278974175453186,-0.2174163460731506,0.0094985961914062,256,33,14831,8971
23.8,1788525502918,5.408450603485107,4.563380241394043,0.0112804202362895,-0.0081642437726259,0.9908475875854492,0.1342650651931762,0.1127422073337058,0.0015129604064382,3.2002505010258625e-06,-0.0007665803423151,-0.0026462308596819,0.0353259332478046,0.0145770525559782,-0.0076896492391824,0.9977943897247314,0.0643031671643257,-0.0002623903128638,-0.103283872509408,0.0144911718346682,0.7306233644485474,-0.0689214468002319,-0.1141939163208007,497,78,23715,12791
23.9,1788525503018,6.056337833404541,4.591549396514893,0.0130062140524387,-0.0091852126643061,0.9907813668251038,0.1345316618680954,0.1461074311807316,-0.0045206744449898,1.2518182731926298e-08,-0.0259342268109321,0.0276966374367475,-0.0414601825177669,0.0125116668641567,-0.0072223795577883,0.9977437257766724,0.0655646547675132,0.0771532288193213,0.0105072961524027,0.0304873801311494,1.3613488674163818,-0.5558334589004517,-0.5535860061645508,450,15,24474,9828
24.0,1788525503118,5.239436626434326,4.02816915512085,0.0166161209344863,-0.0077433278784155,0.9899051785469056,0.1405406296253204,0.1638647568951005,-0.0152908185371564,0.000661995760231,0.0224349293857812,-0.1166881546378135,-0.1983531266450882,0.0153378872200846,-0.0060626789927482,0.9969982504844666,0.0756472572684288,0.0117995273896252,0.0282400420788408,-0.1491276992283481,0.478184700012207,-0.3047997951507568,0.4254312515258789,384,26,21664,11016
24.1,1788525503218,5.605633735656738,4.647887229919434,0.0165552161633968,-0.0072793662548065,0.988819658756256,0.1480152308940887,0.1493434575814463,-0.0012675109162766,0.0001601522719702,0.0021903133019804,-0.0638889744877815,-0.1465877890586853,0.0163480434566736,-0.0055343508720397,0.996437668800354,0.0825479552149772,0.0266712441637262,0.0488493332113241,-0.1691796864898331,0.2062615156173706,0.5068566799163818,-0.015167236328125,400,28,22369,11422
24.2,1788525503318,4.169013977050781,3.4084506034851074,0.0145283853635191,-0.0066257128491997,0.9879666566848756,0.15384042263031,0.1621871646660737,-0.0003831628736747,-0.0001567904328139,-0.0065933410078287,0.0597122274339199,-0.1043755561113357,0.0128882676362991,-0.0055559612810611,0.996077299118042,0.0873671099543571,-0.0009695194726475,0.1020065765016862,-0.1114845815657477,-0.9136077761650084,-0.3286124467849731,-0.0678482055664062,91,101,12329,4529
24.3,1788525503418,1.94366192817688,1.6901408433914185,0.0061227492988109,-0.0057497275993227,0.9872624278068542,0.1588784456253051,0.0912352286689439,-0.0033262084058777,-0.0002888718432438,-0.0149545148015022,0.2341087460517883,-0.0901474058628082,-0.0009931763634085,-0.0048692505806684,0.9958205223083496,0.0911968946456909,0.003307456750757,0.1909156168041382,-0.0217651628976877,-0.4182662963867187,-0.2511273622512817,0.0958213806152343,159,53,9535,2926
24.4,1788525503518,1.97183096408844,1.774647831916809,-0.0020390092395246,-0.0045164790935814,0.9870492815971376,0.1603410542011261,0.0562340549116487,-0.0058312754176164,-9.921355412236788e-05,0.0114557743072509,0.0941263437271118,-0.0139802359044551,2.1602027118206024e-05,-0.0038502197712659,0.9957236647605896,0.0923012420535087,0.0266195248868106,-0.0848651582946942,-0.013615680120567,-0.0100554227828979,-0.243734061717987,0.2977380752563476,257,35,11244,3560
24.5,1788525503618,2.366197109222412,1.380281686782837,0.0032513481564819,-0.0042582266032695,0.9867013096809388,0.1624555885791778,0.0534809393113378,-0.0035218804739603,8.88805247131092e-05,0.0062871766276657,-0.1273718476295471,-0.0466509237885475,0.0070864865556359,-0.0044624926522374,0.9954527020454408,0.0948889702558517,-0.0073269429651212,-0.222162756990232,-0.0862459629663449,0.1682171821594238,-0.0332241058349609,0.0758848190307617,416,4,13371,3384
24.6,1788525503718,1.97183096408844,1.408450722694397,0.0151056069880723,-0.0065994849428534,0.9856022596359252,0.168274775147438,0.0591174388136633,-0.0012091091339198,0.000273199891767,-0.0112258624285459,-0.3056370317935943,-0.1684379577636718,0.016028081998229,-0.0057437345385551,0.9945322275161744,0.1030335873365402,-0.0110225487089498,0.0933814995829738,-0.1029810290997039,0.2957371473312378,0.3402517437934875,0.1420803070068359,472,32,15765,4400
24.7,1788525503818,1.7464789152145386,1.3239436149597168,0.015642711892724,-0.0069785504601895,0.9847882986068726,0.172911986708641,0.064506921334844,0.0021695404714025,-5.509417501921764e-05,-0.0087252827361226,0.0202582664787769,-0.0685971826314926,0.0139891467988491,-0.0060743326321244,0.9943283200263976,0.1052557677030563,-0.0124064246366682,0.09988029134924,-0.0397480415477664,-0.1205748915672302,0.0870490074157714,0.2675161361694336,317,4,11170,3962
24.8,1788525503918,1.5774648189544678,1.2394366264343262,0.0133870774880051,-0.0071130567230284,0.9845092296600342,0.1746764928102493,0.051178692695776,-0.0006646488322658,-6.158380713621208e-06,-0.0065964553505182,0.012958338484168,-0.0323288552463054,0.013923886232078,-0.0061573097482323,0.9941774606704712,0.1066738814115524,0.0002845197631298,0.0107035216015894,-0.0136001202712001,0.2032113075256347,0.237233281135559,0.0477457046508789,350,41,11474,4135
24.9,1788525504018,1.8591549396514893,1.380281686782837,0.0135569991543889,-0.0073289303109049,0.984218180179596,0.1762869656085968,0.0465130711040404,0.0013259147682704,3.511604302454785e-06,-0.0093047833070158,-0.003331514308229,-0.0379754900932312,0.0134168546646833,-0.0064613437280058,0.9939717650413512,0.1086210086941719,-0.0071437580580686,0.0220597332017783,-0.0398443569047742,-0.1009435057640075,0.162044882774353,0.1618614196777343,295,33,10960,3965
25.0,1788525504118,1.5211267471313477,1.2957746982574463,0.0128793688490986,-0.0074428264051675,0.9839763641357422,0.1776774823665619,0.0491877637835606,0.001708175863903,3.4593879403356775e-08,-0.0058574536815285,0.0098188398405909,-0.0272524803876876,0.0138467978686094,-0.0064355544745922,0.9939102530479432,0.1091293171048164,0.0057555961239879,-0.0235021740269525,-0.0102812929369326,0.1455195546150207,-0.0423851013183593,-0.1054658889770507,323,16,12178,3942
25.1,1788525504218,1.887323975563049,1.0704225301742554,0.0134268486872315,-0.0073782447725534,0.9837433099746704,0.1789255887269973,0.0489549184953139,-0.0012098829777719,2.910100614048205e-05,0.0052960612811148,-0.0192917361855506,-0.0471940375864505,0.0137264262884855,-0.0064883287996053,0.9935091733932496,0.1127344369888305,-0.0050219300200735,0.0056381044022581,-0.1304110969297661,-0.1329696774482727,0.1028034687042236,0.2279310226440429,358,32,13602,2024
25.2,1788525504318,1.5492957830429075,1.183098554611206,0.0134452916681766,-0.0075615709647536,0.9827455878257751,0.1843181252479553,0.0410135020694199,-0.0035908439504207,7.832734987586212e-06,-0.0051725287921726,-0.0043074055574834,-0.108488842844963,0.013481399975717,-0.0066956132650375,0.9929759502410888,0.1173545196652412,-0.0028526090393896,0.0156226570125647,-0.0251860012146826,-0.2115548253059387,-0.0477984547615051,-0.1078100204467773,218,8,8651,3037
25.3,1788525504418,1.2676056623458862,1.042253494262695,0.013063633814454,-0.0075906347483396,0.9824684858322144,0.185815542936325,0.0372713727107188,0.0012631866901593,-1.7127549315532973e-08,0.0,0.0,0.0,0.0131393102928996,-0.0066762063652276,0.9930012822151184,0.1171801760792732,0.0029475104546298,0.0043120289564512,0.0154178891587078,-0.1660366058349609,-0.1020753979682922,0.0121927261352539,283,7,10362,2259
25.4,1788525504518,2.05633807182312,1.5774648189544678,0.0127099948003888,-0.0076094297692179,0.9823603630065918,0.1864099651575088,0.035161555045465,-0.0047603299193484,9.950797756469618e-08,0.0005808568093925,-0.0001966588024515,-0.0130031518638134,0.0133249424397945,-0.0067847473546862,0.9928359389305116,0.1185461729764938,-0.0038031611152407,-0.0071277017332838,-0.0488165454886634,0.4488356709480285,0.056343138217926,0.1464242935180664,452,152,16182,7163
25.5,1788525504618,4.422535419464111,3.521126747131348,0.0150525234639644,-0.0082460353150963,0.9818932414054872,0.1886559873819351,0.0551166308044747,-0.0002030791546779,8.936593208315542e-05,-0.0066891191527247,-0.0946657136082649,-0.0681507140398025,0.016874773427844,-0.0073168063536286,0.9926783442497252,0.1193797141313552,0.0133772406250536,-0.063446013022506,0.063091329419908,0.8477131724357605,-0.0339890122413635,-0.5371284484863281,492,62,21321,10147
25.6,1788525504718,4.478873252868652,3.690140962600708,0.0148814609274268,-0.0084933117032051,0.98211270570755,0.1875131130218505,0.1279220258354669,0.0051601165816637,5.2357991112622617e-05,-0.0065015922300517,0.029113108292222,0.0335570983588695,0.0143022453412413,-0.0072632571682333,0.9927018284797668,0.1195229664444923,0.0066220682939733,0.0397802567917319,-0.0471967264348765,0.2162692546844482,-0.448904275894165,-0.0930948257446289,314,36,19396,7508
25.7,1788525504818,4.985915660858154,3.2676055431365967,0.012045245617628,-0.0081309340894222,0.9813727736473083,0.1915628463029861,0.1282744786831621,-0.0011595002099325,-0.0001744486118174,-0.0070377043448388,0.0526528321206569,-0.1089768037199974,0.0127413347363471,-0.0073424829170107,0.9919569492340088,0.125718355178833,-0.0049560154063044,-0.0064986882826892,-0.1484650597153191,0.15918630361557,-0.3002965450286865,-0.0341129302978515,390,11,21433,8344
25.8,1788525504918,4.619718074798584,2.5915493965148926,0.0145255494862794,-0.008515877649188,0.9798946976661682,0.1988037526607513,0.1379358196407807,-0.0070325240571229,0.0001440137907817,0.0025437688454985,-0.0928162187337875,-0.1914633065462112,0.0143985776230692,-0.0073627410456538,0.9907528758049012,0.1347116082906723,-0.0033336544237107,0.0841878281090723,-0.2431780165877779,0.0514153838157653,0.0471518039703369,0.7268180847167969,453,12,22442,6397
25.9,1788525505018,6.11267614364624,3.774647951126098,0.015928229317069,-0.0089860502630472,0.9773451685905457,0.2108600437641143,0.1147499254667517,-0.0019651233570191,0.0001676784736758,-0.0129204066470265,-0.0851531028747558,-0.2694115936756134,0.0164190828800201,-0.0080285146832466,0.9887422919273376,0.1485083550214767,-0.006650455474807,-0.0056513012129094,-0.1816524892847145,0.4121001362800598,-0.0208794474601745,-0.9331216812133788,553,56,26308,10584
26.0,1788525505118,6.478873252868652,4.02816915512085,0.0149925202131271,-0.0090705528855323,0.9753485918045044,0.2199728637933731,0.1604625898609373,-0.0098042060624895,-5.704571698143011e-05,-0.008846360258758,0.045341532677412,-0.2024392783641815,0.0154017508029937,-0.0082757845520973,0.9869276881217957,0.1602124869823455,-0.0064922358057246,-0.0264529152791201,-0.2841426203359974,-0.3898400664329529,-0.13753741979599,0.3700141906738281,407,41,24311,8314
26.1,1788525505218,6.253520965576172,3.774647951126098,0.0138505371287465,-0.0092326952144503,0.9712201952934264,0.237601175904274,0.1593975198230943,-0.0045203856264543,-3.1698248201146255e-07,-0.0082124229520559,0.0237649604678154,-0.3160833716392517,0.0142376907169818,-0.0082028592005372,0.9847900867462158,0.1729695200920105,-0.0036952803405816,0.0187624092605572,-0.2919564320712395,-0.1743671298027038,-0.0272569060325622,0.033578872680664,330,14,23833,8944
26.2,1788525505318,5.6619720458984375,4.309859275817871,0.0143157290294766,-0.0090940110385417,0.9677027463912964,0.2515230476856231,0.1585133367384096,-0.0074031414377148,5.65431915705888e-05,0.0007189067546278,-0.0160615034401416,-0.3189048767089844,0.0142574273049831,-0.0077028926461935,0.981648862361908,0.1900078356266021,0.0038556140047593,0.0243142313091932,-0.1498118768091241,0.5717092752456665,0.050314724445343,0.1570625305175781,332,104,20111,12695
26.3,1788525505418,5.436619758605957,4.563380241394043,0.0149794928729534,-0.0087971091270446,0.9655759334564208,0.2595406770706177,0.1605221778018267,0.0040580777750786,7.131684121442374e-05,0.0086158327758312,-0.0484157837927341,-0.1089052557945251,0.015503684990108,-0.0074825109913945,0.9809303283691406,0.1935960203409195,0.0095948268348193,-0.0120235190449721,-0.0567175756243987,-0.1607836484909057,-0.2825251817703247,0.0811843872070312,345,20,20808,11212
