time_s,timestamp_ms,wheel_vels__velocity_left,wheel_vels__velocity_right,odom__orient_x,odom__orient_y,odom__orient_z,odom__orient_w,odom__lin_x,odom__lin_y,odom__lin_z,odom__ang_x,odom__ang_y,odom__ang_z,imu__orient_x,imu__orient_y,imu__orient_z,imu__orient_w,imu__angvel_x,imu__angvel_y,imu__angvel_z,imu__acc_x,imu__acc_y,imu__acc_z,wheel_status__current_ma_left,wheel_status__current_ma_right,wheel_status__pwm_left,wheel_status__pwm_right
0.0,1788429792042,0.0,0.0,0.0019104648381471,-0.002568723866716,0.8157407641410828,0.5784087777137756,-0.0006002739227685,0.0001707662050747,-7.018902729760984e-07,-0.0001404048380209,-0.0003210749709978,1.1709551017702324e-06,0.0004356196150183,-0.0031764050945639,0.4358823299407959,0.8999980092048645,-9.03020814121396e-05,-0.0001850933171716,3.1246306917039404e-10,-0.0215300917625427,-0.0158461332321167,-0.0021247863769531,0,0,0,0
0.1,1788429792142,0.0,0.0,0.0019140997901558,-0.00257801823318,0.815740704536438,0.5784088969230652,0.0,0.0,0.0,-0.0002305485541,-0.0003190597635693,-5.867133495485177e-06,0.000431764870882,-0.003186316229403,0.4358823299407959,0.8999980092048645,-0.000182835122834,-0.0001337191704282,3.6681973185753645e-10,-0.0105798244476318,-0.0149497389793396,-0.0156888961791992,0,0,0,0
0.2,1788429792242,0.0,0.0,0.0019140994409099,-0.0025780180003494,0.815740704536438,0.5784088969230652,0.0,0.0,0.0,1.1631575702608645e-08,2.326315140521729e-08,0.0,0.0004276055842638,-0.0031931214034557,0.4358822703361511,0.899997889995575,-0.0002429626332167,-0.0001442094404685,5.269310623526596e-10,-0.014284074306488,0.0054842829704284,-0.0223608016967773,0,0,0,0
0.3,1788429792342,0.0,0.0,0.0019140994409099,-0.0025780180003494,0.815740704536438,0.5784088969230652,0.0,0.0,0.0,1.1631575702608645e-08,2.326315140521729e-08,0.0,0.0004276055842638,-0.0031931214034557,0.4358822703361511,0.899997889995575,-0.0002429626332167,-0.0001442094404685,5.269310623526596e-10,-0.014284074306488,0.0054842829704284,-0.0223608016967773,0,0,0,0
0.4,1788429792442,0.0,0.0,0.0019140994409099,-0.0025780180003494,0.815740704536438,0.5784088969230652,0.0,0.0,0.0,1.1631575702608645e-08,2.326315140521729e-08,0.0,0.0004276055842638,-0.0031931214034557,0.4358822703361511,0.899997889995575,-0.0002429626332167,-0.0001442094404685,5.269310623526596e-10,-0.014284074306488,0.0054842829704284,-0.0223608016967773,0,0,0,0
0.5,1788429792542,0.0,0.0,0.0019140994409099,-0.0025780180003494,0.815740704536438,0.5784088969230652,0.0,0.0,0.0,0.0,0.0,0.0,0.0003985511139035,-0.0032347906380891,0.4358822107315063,0.8999977707862854,-0.0002166099431424,-0.0002092029342492,6.584462992066922e-10,0.0258864760398864,0.0434675216674804,0.0130510330200195,0,0,0,0
0.6,1788429792642,0.0,0.0,0.0019140994409099,-0.0025780180003494,0.815740704536438,0.5784088969230652,0.0,0.0,0.0,0.0,0.0,0.0,0.0003991313278675,-0.0032528480514883,0.4358822107315063,0.8999977707862854,-9.753285017418908e-05,-0.0002989982416845,-2.0500328860871715e-06,0.0070905089378356,0.0158507227897644,-0.008462905883789,0,0,0,0
0.7,1788429792742,0.0,0.0,0.0019140994409099,-0.0025780180003494,0.815740704536438,0.5784088969230652,0.0,0.0,0.0,0.0,0.0,0.0,0.0004037171602249,-0.0032643284648656,0.4358822107315063,0.8999977707862854,-1.8992238459055351e-06,-0.0002435253358619,6.974117104238207e-12,-0.0070892572402954,0.0044623017311096,-0.0088214874267578,0,0,0,0
0.8,1788429792842,0.0,0.0,0.0019140994409099,-0.0025780180003494,0.815740704536438,0.5784088969230652,0.0,0.0,0.0,0.0,0.0,0.0,0.0004090974107384,-0.0032720332965254,0.4358822107315063,0.8999977707862854,4.130564542740122e-05,-0.0001790385331934,-1.1740761590624066e-10,-0.0212286114692688,0.0203139185905456,-0.0130519866943359,0,0,0,0
0.9,1788429792942,0.0,0.0,0.0019140994409099,-0.0025780180003494,0.815740704536438,0.5784088969230652,0.0,0.0,0.0,0.0,0.0,0.0,0.0004139775410294,-0.0032772049307823,0.4358821511268616,0.8999976515769958,4.286213289099545e-05,-9.335527221689188e-05,-1.980335663877869e-06,-0.0243192911148071,-0.0533209443092346,-0.0152626037597656,0,0,0,0
1.0,1788429793042,0.0,0.0,0.0019140994409099,-0.0025780180003494,0.815740704536438,0.5784088969230652,0.0,0.0,0.0,0.0,0.0,0.0,0.0004151994362473,-0.0032792268320918,0.4358821511268616,0.8999976515769958,8.463106544018618e-06,-2.7069768715795728e-05,-3.5610101720987247e-12,-0.0023013353347778,0.0131915807723999,0.0073652267456054,0,0,0,0
1.1,1788429793142,0.0,0.0,0.0019140994409099,-0.0025780180003494,0.815740704536438,0.5784088969230652,0.0,0.0,0.0,0.0,0.0,0.0,0.0004182681441307,-0.0032786205410957,0.4358821511268616,0.8999976515769958,8.064114065446616e-05,-8.168244915394636e-06,-1.0217517399045719e-11,-0.0093371272087097,-0.0017464756965637,-0.0003337860107421,0,0,0,0
1.2,1788429793242,0.0,0.0,0.0019140994409099,-0.0025780180003494,0.815740704536438,0.5784088969230652,0.0,0.0,0.0,0.0,0.0,0.0,0.0004252716898918,-0.0032757986336946,0.4358821511268616,0.8999976515769958,0.0002252663446323,-3.2528191826310706e-05,-2.0532316526411545e-06,-0.0311437249183654,-0.0227280855178833,-0.0057373046875,0,0,0,0
1.3,1788429793342,0.0,0.0,0.0019140994409099,-0.0025780180003494,0.815740704536438,0.5784088969230652,0.0,0.0,0.0,0.0,0.0,0.0,0.0004400163888931,-0.0032690912485122,0.4358821511268616,0.8999976515769958,0.0003406433698887,7.427990603033319e-06,3.4624745292671595e-11,0.0105311870574951,-0.0183620452880859,-0.0074024200439453,0,0,0,0
1.4,1788429793442,0.0,0.0,0.0019140994409099,-0.0025780180003494,0.815740704536438,0.5784088969230652,0.0,0.0,0.0,0.0,0.0,0.0,0.0004518926143646,-0.0032602529972791,0.4358822107315063,0.8999977707862854,0.000321389811955,9.591490511427313e-05,4.633763702816296e-10,-0.0084463953971862,0.0423882007598876,-0.0106801986694335,0,0,0,0
1.5,1788429793542,0.0,0.0,0.0019140994409099,-0.0025780180003494,0.815740704536438,0.5784088969230652,0.0,0.0,0.0,0.0,0.0,0.0,0.0004622023552656,-0.0032482948154211,0.4358822107315063,0.8999977707862854,0.0002996385358476,0.0001579968388469,7.116162923814326e-10,-0.0131741166114807,-0.0078454613685607,-0.0340147018432617,0,0,0,0
1.6,1788429793642,0.0,0.0,0.0019140994409099,-0.0025780180003494,0.815740704536438,0.5784088969230652,0.0,0.0,0.0,0.0,0.0,0.0,0.0004702266305685,-0.0032300790771842,0.4358822107315063,0.8999977707862854,0.0002048234097683,0.0002332068081313,7.387200698451782e-10,-0.0070319771766662,0.0015147924423217,-0.0033073425292968,0,0,0,0
1.7,1788429793742,0.0,0.0,0.0019668275490403,-0.0025951962452381,0.8157403469085693,0.5784090161323547,0.0,0.0,0.0,0.0001767553767422,0.0002112170186592,-8.292638995044399e-06,0.00047402177006,-0.0032183239236474,0.4358822107315063,0.8999977707862854,0.0002053211270798,0.0001548943631546,4.932495434225658e-10,-0.0218848586082458,0.0118749141693115,0.0016841888427734,0,0,0,0
1.8,1788429793842,0.0,0.0,0.0019672396592795,-0.0025845360942184,0.8157402276992798,0.5784092545509338,0.000491494304271,-0.0001398198767815,5.117460384394728e-07,0.0001849878754001,0.0001102609239751,-5.7525485317455605e-06,0.0004812814295291,-0.0032086996361613,0.4358822703361511,0.899997889995575,0.0002376131248402,9.190915962199904e-05,3.4746001402389805e-10,0.0298666357994079,0.0113354921340942,-0.0036268234252929,0,0,0,0
1.9,1788429793942,0.0,0.0,0.0019737822003662,-0.0025695238728076,0.815740168094635,0.5784093737602234,-0.0006308157468941,0.0001794533174668,-6.665932231155365e-07,0.0005105939926579,7.002978964010254e-05,1.230532348017732e-06,0.000498910434544,-0.0031997282058,0.4358822703361511,0.899997889995575,0.0003466323995106,-4.307590206574535e-05,-1.9418924089154702e-06,0.0269421339035034,-0.0024368166923522,0.0235137939453125,0,0,0,0
2.0,1788429794042,0.0,0.0,0.0019837783183902,-0.0025590765289962,0.8157402276992798,0.5784093737602234,0.0,0.0,0.0,0.0002794951433315,-6.141757330624387e-05,-1.4924440847607912e-06,0.0005162702873349,-0.0031971633434295,0.4358822703361511,0.899997889995575,0.0003457236248976,-0.0001426973531979,-7.672989669174288e-10,0.0026844143867492,0.0027897953987121,0.0038051605224609,0,0,0,0
2.1,1788429794142,0.0,0.0,0.0019837783183902,-0.0025590765289962,0.8157402276992798,0.5784093737602234,0.0,0.0,0.0,0.0,0.0,0.0,0.0005319137126207,-0.0031983833760023,0.4358822703361511,0.899997889995575,0.0002832456233969,-0.0001895424344768,-8.07602286235643e-10,0.0094207525253295,-0.0291987657546997,-0.0248975753784179,0,0,0,0
2.2,1788429794242,0.0,0.0,0.0019837783183902,-0.0025590765289962,0.8157402276992798,0.5784093737602234,0.0,0.0,0.0,0.0,0.0,0.0,0.0005509946495294,-0.0032026171684265,0.4358822703361511,0.899997889995575,0.0002471616760497,-0.0001792580213791,-6.881554711434765e-10,0.0218324065208435,-0.0167911052703857,-0.0117177963256835,0,0,0,0
2.3,1788429794342,0.0,0.0,0.0019837783183902,-0.0025590765289962,0.8157402276992798,0.5784093737602234,0.0,0.0,0.0,0.0,0.0,0.0,0.0005619972944259,-0.0032046576961874,0.4358822703361511,0.899997889995575,0.0001853682679541,-0.000123905621089,-3.10631782542302e-10,-0.0170704126358032,-0.0054813027381896,-0.0131940841674804,0,0,0,0
2.4,1788429794442,0.0,0.0,0.0019837783183902,-0.0025590765289962,0.8157402276992798,0.5784093737602234,0.0,0.0,0.0,0.0,0.0,0.0,0.0005709584802389,-0.0032032430171966,0.4358822703361511,0.899997889995575,0.0002012625087722,-4.71767134664352e-05,-1.427943518175681e-10,-0.0077887177467346,-0.0221220850944519,0.0119485855102539,0,0,0,0
2.5,1788429794542,0.0,0.0,0.0019837783183902,-0.0025590765289962,0.8157402276992798,0.5784093737602234,0.0,0.0,0.0,0.0,0.0,0.0,0.0005816249176859,-0.0032007079571485,0.4358822703361511,0.899997889995575,0.0001591773483055,-6.028700687488493e-05,-1.5313291766483038e-10,-0.0204668045043945,-0.0292539596557617,0.0013284683227539,0,0,0,0
2.6,1788429794642,0.0,0.0,0.0019837783183902,-0.0025590765289962,0.8157402276992798,0.5784093737602234,0.0,0.0,0.0,0.0,0.0,0.0,0.0005866177380084,-0.0031994776800274,0.4358822703361511,0.899997889995575,0.0001710765359832,-2.8775322810755935e-05,-7.384827066045549e-11,0.0138324499130249,0.0046809911727905,0.0012502670288085,0,0,0,0
2.7,1788429794742,0.0,0.0,0.0019837783183902,-0.0025590765289962,0.8157402276992798,0.5784093737602234,0.0,0.0,0.0,0.0,0.0,0.0,0.0005866177380084,-0.0031994776800274,0.4358822703361511,0.899997889995575,0.0001710765359832,-2.8775322810755935e-05,-7.384827066045549e-11,0.0138324499130249,0.0046809911727905,0.0012502670288085,0,0,0,0
2.8,1788429794842,0.0,0.0,0.0019837783183902,-0.0025590765289962,0.8157402276992798,0.5784093737602234,0.0,0.0,0.0,0.0,0.0,0.0,0.0005866177380084,-0.0031994776800274,0.4358822703361511,0.899997889995575,0.0001710765359832,-2.8775322810755935e-05,-7.384827066045549e-11,0.0138324499130249,0.0046809911727905,0.0012502670288085,0,0,0,0
2.9,1788429794942,0.0,0.0,0.0020709589589387,-0.0025135988835245,0.8157398700714111,0.5784097909927368,-0.0006612732946879,0.0001881164733043,-6.883699439459028e-07,9.866064829111563e-06,-0.000213682433241,0.0,0.0006034774705767,-0.0032042972743511,0.4358822107315063,0.8999977707862854,-5.196445532205585e-05,-0.0001447564699883,1.1334568191831655e-10,-0.0071040391921997,-0.0098307728767395,0.0036849975585937,0,0,0,0
3.0,1788429795042,0.0,0.0,0.0020743135828524,-0.0025192585308104,0.8157398700714111,0.5784097909927368,0.0,0.0,0.0,-0.0001065955148078,-0.0002393739268882,0.0,0.0006012702360749,-0.0032131969928741,0.4358822107315063,0.8999977707862854,-0.0001355038008211,-0.0001545862815098,3.2848486491043976e-10,-0.005496323108673,-0.0306661128997802,-0.0085906982421875,0,0,0,0
3.1,1788429795142,0.0,0.0,0.0020761820487678,-0.002527518896386,0.8157398700714111,0.578409731388092,0.0006832420778823,-0.000194366146456,6.845171853038455e-07,0.0,0.0,0.0,0.0005956599488854,-0.0032241307199001,0.4358822107315063,0.8999977707862854,-0.0001753185075767,-0.0001013621686334,1.9804809100068363e-06,0.0072734951972961,-0.0141507387161254,0.0330982208251953,0,0,0,0
3.2,1788429795242,0.0,0.0,0.0020762565545737,-0.0025356353726238,0.8157398104667664,0.5784097909927368,0.0,0.0,0.0,0.0,0.0,0.0,0.0005901008844375,-0.0032321875914931,0.4358822107315063,0.8999977707862854,-0.0001961804001399,-8.440136256925159e-05,2.4878440859032127e-10,-0.0212988257408142,0.0221632719039917,-0.0044574737548828,0,0,0,0
3.3,1788429795342,0.0,0.0,0.0020736518781632,-0.0025514888111501,0.8157398104667664,0.5784096717834473,0.0,0.0,0.0,-0.0002400144730927,-8.294236613437533e-05,2.010724074352765e-06,0.0005850670859217,-0.0032360116019845,0.4358822107315063,0.8999977707862854,-0.0001077928933163,2.2092594952215227e-06,-3.2187524290402352e-12,-0.0206271409988403,0.0034924149513244,0.0047931671142578,0,0,0,0
3.4,1788429795442,0.0,0.0,0.002070422284305,-0.0025536064058542,0.8157398104667664,0.5784096121788025,0.0,0.0,0.0,-0.0001418495521647,5.5607190006412566e-05,3.52740744347102e-06,0.0005778539925813,-0.0032290210947394,0.4358822107315063,0.8999977707862854,-2.7724500691397584e-05,0.0002456978857443,-1.0242730115087083e-10,-0.0347540378570556,-0.020246684551239,-0.004648208618164,0,0,0,0
3.5,1788429795542,0.0,0.0,0.0020628347992897,-0.0025505300145596,0.8157398104667664,0.5784096121788025,0.0006970726085876,-0.0001983008794673,6.844898949337286e-07,0.0,0.0,0.0,0.0005690017715096,-0.0032169176265597,0.4358822107315063,0.8999977707862854,-7.369280496045522e-05,0.0003260776928015,-3.99040143793772e-10,0.002317190170288,0.0251408815383911,0.0045938491821289,0,0,0,0
3.6,1788429795642,0.0,0.0,0.0020509648602455,-0.0025448699016124,0.8157398700714111,0.5784096717834473,0.0,0.0,0.0,0.0,0.0,0.0,0.000558559782803,-0.0032054362818598,0.4358822107315063,0.8999977707862854,-0.0001195059880733,0.0003124121131304,-5.605277415301797e-10,-0.0049965977668762,0.0039971470832824,0.0082006454467773,0,0,0,0
3.7,1788429795742,0.0,0.0,0.0020247148349881,-0.0025379541330039,0.8157398104667664,0.5784097909927368,0.0,0.0,0.0,-0.0002394707116764,0.0004771940293721,0.0,0.0005416618660092,-0.0031959330663084,0.4358822703361511,0.899997889995575,-0.0002348274349516,0.0002231898234513,1.9595444344729685e-06,-0.0071111321449279,-0.0038137435913085,0.0120515823364257,0,0,0,0
3.8,1788429795842,0.0,0.0,0.0020066003780812,-0.0025418219156563,0.8157398700714111,0.5784098505973816,-0.0006459953605401,0.0001837706143553,-6.834487646266809e-07,-0.0004584556154441,0.0003698961518239,-2.520285079299356e-06,0.0005256021395325,-0.0031932769343256,0.4358822703361511,0.899997889995575,-0.0003182997054189,0.0002131598039335,2.110045317375366e-06,0.0197775363922119,-0.0229765176773071,0.0085716247558593,0,0,0,0
3.9,1788429795942,0.0,0.0,0.0019932338036596,-0.0025469604879617,0.8157398104667664,0.5784099102020264,0.0006980835425501,-0.0001985884723038,7.50492645296557e-07,-0.0002019221865339,0.0001330367231275,0.0,0.0005106255412101,-0.003190909512341,0.4358822703361511,0.899997889995575,-0.0002470149812639,0.0001922565957181,-7.131677485601429e-10,0.0145515203475952,0.0091423392295837,-0.0195608139038085,0,0,0,0
4.0,1788429796042,0.0,0.0,0.0019815063569694,-0.0025504352524876,0.8157398700714111,0.5784100294113159,0.0,0.0,0.0,-0.0001212230345117,0.0001103113972931,-4.7066196202649735e-06,0.0004989486187696,-0.0031879330053925,0.4358822703361511,0.899997889995575,-0.000202301304563,0.0001567125644255,1.8914101778300008e-06,0.0001468062400817,0.0253950357437133,-0.0225515365600585,0,0,0,0
4.1,1788429796142,0.0,0.0,0.0019656310323625,-0.0025548869743943,0.8157398104667664,0.5784099698066711,-0.0007865796854074,0.0002237635995255,-8.625196073504138e-07,-0.0002361507213208,0.0001943808165378,3.0687606340507045e-06,0.0004859939217567,-0.0031853010877966,0.4358822703361511,0.899997889995575,-0.0001488689652011,0.0001021333237439,-2.2893980592748158e-10,-0.0378671288490295,-0.005526840686798,-0.004302978515625,0,0,0,0
4.2,1788429796242,0.0,0.0,0.0019563992973417,-0.002557621570304,0.8157398700714111,0.5784100294113159,-0.000645014632831,0.0001834916638878,-7.116682358202463e-07,-0.0002199837763328,0.0001837654417613,-1.2582297586050115e-06,0.0004794290289282,-0.0031837308779358,0.4358822703361511,0.899997889995575,-9.912313949814294e-05,6.242504989243748e-05,-9.326042652376939e-11,0.0048851370811462,-0.0202277898788452,0.0209264755249023,0,0,0,0
4.3,1788429796342,0.0,0.0,0.001952055376023,-0.0025598998181521,0.8157398104667664,0.5784100294113159,0.0007144028528667,-0.0002032309776717,7.93258906735549e-07,-8.525911107426509e-05,3.97171825170517e-05,0.0,0.0004730690270662,-0.0031849071383476,0.4358822703361511,0.899997889995575,-7.829688763155995e-05,-9.958829763986928e-06,1.1695631255976403e-11,0.0079126358032226,0.0209943652153015,0.0193748474121093,0,0,0,0
4.4,1788429796442,0.0,0.0,0.0019497030880302,-0.0025627352297306,0.8157398104667664,0.5784100294113159,0.0,0.0,0.0,-4.1373903513886034e-05,-1.3789802324026825e-05,0.0,0.0004712296649813,-0.0031887395307421,0.4358822703361511,0.899997889995575,-7.792299978658272e-05,-6.892873853369465e-05,7.83578866172195e-11,0.0129240155220031,0.0085035562515258,0.0174064636230468,0,0,0,0
4.5,1788429796542,0.0,0.0,0.0019513387233018,-0.0025690605398267,0.8157398104667664,0.5784100890159607,-0.0008009233963773,0.0002278440273637,-8.832597757961527e-07,-6.300707173068076e-05,-0.0001308476930717,0.0,0.0004715211689472,-0.0031944811344146,0.4358822703361511,0.899997889995575,-5.1208265019291385e-05,-0.0001357819266342,1.1076032946636879e-10,0.0157632231712341,0.0049331188201904,-0.0154314041137695,0,0,0,0
4.6,1788429796642,0.0,0.0,0.0019565962720662,-0.0025764771271497,0.8157397508621216,0.5784100294113159,-0.0004472890697207,0.0001272433390877,-4.886678961047883e-07,-6.571897392859682e-05,-0.0001899619819596,0.0,0.0004731342196464,-0.0032061841338872,0.4358822703361511,0.899997889995575,-7.866739129049896e-05,-0.0002260201853449,2.6646378440002826e-10,-0.0101716518402099,-0.0217522978782653,0.0165185928344726,0,0,0,0
4.7,1788429796742,0.0,0.0,0.0019616384524852,-0.0025843561161309,0.8157397508621216,0.5784100294113159,0.000714244863064,-0.0002031860273877,7.616620082990502e-07,-8.563210576539859e-05,-0.0001502507657278,0.0,0.0004724487662315,-0.0032165674492716,0.4358822703361511,0.899997889995575,-9.32434326389726e-05,-0.0001812495170726,2.589207259560906e-10,-0.002856969833374,-0.0073034763336181,0.0038738250732421,0,0,0,0
4.8,1788429796842,0.0,0.0,0.0019664079882204,-0.002594833727926,0.8157394528388977,0.578410267829895,0.0,0.0,0.0,-0.0001140437016147,-0.0001976519561139,-1.2888155652035492e-05,0.0004702415317296,-0.0032245898619294,0.4358822107315063,0.8999977707862854,-0.0001612982645068,-0.0001019186280699,2.346400624038631e-10,-0.0129813551902771,0.0203567147254943,-0.0125017166137695,0,0,0,0
4.9,1788429796942,0.0,0.0,0.0019650305621325,-0.0026026454288512,0.8157391548156738,0.578410804271698,0.0,0.0,0.0,-0.0001307676138821,-3.5681016015587375e-05,-5.740535470977193e-06,0.0004632910713553,-0.0032291933894157,0.4358822107315063,0.8999977707862854,-0.000141907848532,2.7466408887296184e-05,-5.875426195160316e-11,0.005877137184143,0.0131744146347045,0.0101661682128906,0,0,0,0
5.0,1788429797042,0.0,0.0,0.0019597020000219,-0.0026076971553266,0.81573885679245,0.5784111618995667,0.0,0.0,0.0,-0.0001256259565707,5.194640107220039e-05,-1.0866579941648524e-05,0.0004593934863805,-0.0032294057309627,0.4358822107315063,0.8999977707862854,-0.0001031776389412,4.593273850210622e-05,-7.409718594188789e-11,0.0257379412651062,-0.0139733552932739,-0.0189418792724609,0,0,0,0
5.1,1788429797142,0.0,0.0,0.0019555622711777,-0.0026097036898136,0.8157389163970947,0.5784111022949219,0.0,0.0,0.0,-7.70225451560691e-05,5.5196745961438864e-05,3.0112662443571026e-06,0.000455348752439,-0.003229153342545,0.4358822107315063,0.8999977707862854,-0.0001088722468133,7.035346270609402e-05,1.5857050781543505e-06,-0.0260514020919799,0.0238323807716369,-0.0158233642578125,0,0,0,0
5.2,1788429797242,0.0,0.0,0.0019469636026769,-0.0026096603833138,0.8157389760017395,0.5784111618995667,0.0,0.0,0.0,-0.0001402540801791,0.0002189432416344,0.0,0.000444340519607,-0.0032233214005827,0.4358822107315063,0.8999977707862854,-0.0001373856762519,0.0001638129393954,-3.068989990051351e-10,0.001723289489746,0.0259596705436706,-0.0292320251464843,0,0,0,0
5.3,1788429797342,0.0,0.0,0.0019379185978323,-0.0026106908917427,0.8157389163970947,0.5784111618995667,0.0,0.0,0.0,-0.0001206005690619,0.0001224832085426,-2.3859154225647217e-06,0.0004335986450314,-0.0032208142802119,0.4358822107315063,0.8999977707862854,-0.0001688580142188,0.0001124025314856,-2.847117326313427e-10,-0.0075171589851379,0.0012974143028259,-0.0150375366210937,0,0,0,0
5.4,1788429797442,0.0,0.0,0.0019280975684523,-0.0026143912691622,0.8157389163970947,0.5784111618995667,0.0,0.0,0.0,-0.0001793929404811,0.0001250217028427,8.482562634526403e-07,0.0004260828718543,-0.003219399601221,0.4358822107315063,0.8999977707862854,-0.0001101664025652,8.68256728324907e-05,-1.5228474701495788e-10,0.0193069577217102,-0.0277762413024902,0.0077276229858398,0,0,0,0
5.5,1788429797542,0.0,0.0,0.0019226184813305,-0.0026158606633543,0.8157386183738708,0.5784114599227905,0.0,0.0,0.0,-6.977401062613353e-05,6.622811633860692e-05,-1.024877292366e-05,0.0004213321954011,-0.003217457793653,0.4358822703361511,0.899997889995575,-4.706820468323404e-05,8.436629893820045e-05,2.05196235969137e-06,0.0157023072242736,0.0039575695991516,0.0079288482666015,0,0,0,0
5.6,1788429797642,0.0,0.0,0.0019189571030437,-0.0026154373772442,0.8157385587692261,0.5784116387367249,0.0,0.0,0.0,-1.3326045518624596e-05,4.78577239846345e-05,2.395693627477158e-06,0.0004184450954198,-0.0032131867483258,0.4358822703361511,0.899997889995575,-1.0553395778810995e-05,0.0001453085682912,-2.305670301874352e-11,0.0038760304450988,-0.0087575912475585,0.0101480484008789,0,0,0,0
5.7,1788429797742,0.0,0.0,0.0019189571030437,-0.0026154373772442,0.8157385587692261,0.5784116387367249,0.0,0.0,0.0,0.0,0.0,0.0,0.0004136674106121,-0.0032056653872132,0.4358822703361511,0.899997889995575,-3.714756802823476e-05,0.0001579023266035,-8.819803405647213e-11,-0.0138666629791259,0.0112481713294982,-0.0091142654418945,0,0,0,0
5.8,1788429797842,0.0,0.0,0.0019189571030437,-0.0026154373772442,0.8157385587692261,0.5784116387367249,0.0,0.0,0.0,0.0,0.0,0.0,0.0004099998623132,-0.0031997207552194,0.4358822703361511,0.899997889995575,-1.2857769370848716e-05,0.0001324445243795,-2.5563992033999444e-11,-0.0176689624786376,-0.0086029171943664,-0.0092172622680664,0,0,0,0
5.9,1788429797942,0.0,0.0,0.0019189571030437,-0.0026154373772442,0.8157385587692261,0.5784116387367249,0.0,0.0,0.0,0.0,0.0,0.0,0.0004060165956616,-0.0031978320330381,0.4358822703361511,0.899997889995575,-7.088136623458721e-05,3.190941587789763e-05,-3.5995879539891116e-11,0.0067643523216247,0.0044100284576416,-0.0128650665283203,0,0,0,0
6.0,1788429798042,0.0,0.0,0.0019189571030437,-0.0026154373772442,0.8157385587692261,0.5784116387367249,0.0,0.0,0.0,0.0,0.0,0.0,0.0004035038873553,-0.0032043969258666,0.4358822703361511,0.899997889995575,-9.377908351115722e-05,-0.0001306684621776,1.7715675766218152e-10,-0.0106632709503173,0.0189601778984069,-0.0126867294311523,0,0,0,0
6.1,1788429798142,0.0,0.0,0.0019189571030437,-0.0026154373772442,0.8157385587692261,0.5784116387367249,0.0,0.0,0.0,0.0,0.0,0.0,0.0004025157541036,-0.0032117431983351,0.4358822703361511,0.899997889995575,-0.0001098046445212,-0.0001235910175199,2.0465332184030532e-10,0.0144537687301635,0.0103548169136047,-0.014327049255371,0,0,0,0
6.2,1788429798242,0.0,0.0,0.0019189571030437,-0.0026154373772442,0.8157385587692261,0.5784116387367249,0.0,0.0,0.0,0.0,0.0,0.0,0.000401864759624,-0.0032244985923171,0.4358822703361511,0.899997889995575,-0.0001162970365915,-0.0002297208189849,4.011719492437331e-10,-0.0064442157745361,-0.0020614862442016,-0.0112085342407226,0,0,0,0
6.3,1788429798342,0.0,0.0,0.0019189571030437,-0.0026154373772442,0.8157385587692261,0.5784116387367249,0.0,0.0,0.0,0.0,0.0,0.0,0.0004021059721708,-0.0032380567863583,0.4358822107315063,0.8999977707862854,-0.0001313103352856,-0.0002957407697449,5.834296921096595e-10,-0.0017604231834411,-0.0179608464241027,-0.0168962478637695,0,0,0,0
6.4,1788429798442,1.0985915660858154,1.7183098793029783,0.0019189571030437,-0.0026154373772442,0.8157385587692261,0.5784116387367249,0.0,0.0,0.0,0.0,0.0,0.0,0.0003819148987531,-0.0032515181228518,0.4358600676059723,0.9000084400177002,-0.0009336294054642,0.0001626377704468,-0.0011068972331705,0.0148619413375854,0.0317188501358032,-0.0212459564208984,231,150,6834,7271
6.5,1788429798542,2.816901445388794,4.02816915512085,0.0019962023943662,-0.0026907071005553,0.8163229823112488,0.5775859951972961,0.0577252951137916,-0.0008455073078773,2.87754000808412e-05,-0.0006991955451667,-0.0055279289372265,0.0519715510308742,0.0004663439467549,-0.0028513604775071,0.4403114914894104,0.8978403806686401,0.015642783911062,0.0020052217413882,0.1693101522809365,0.7737630009651184,0.2437707185745239,0.2291526794433593,105,222,11877,15603
6.6,1788429798642,4.197183132171631,6.535211086273193,0.0015066306805238,-0.0020508891902863,0.8215329647064209,0.5701553225517273,0.1329243364749852,0.0039817357458047,-3.5781366829630665e-05,0.005225580651313,0.0117044877260923,0.2021132707595825,0.0005399221554398,-0.0026410110294818,0.4502800107002258,0.89288330078125,0.0003950487478992,-0.0018679514115542,0.3008848279398002,0.2202110886573791,0.5952039361000061,0.1723794937133789,150,179,12117,19348
6.7,1788429798742,4.084506988525391,6.394366264343262,0.0019131505396217,-0.0019568686839193,0.8298726081848145,0.5579462647438049,0.1638874583828598,0.005633284164232,5.66521518613586e-05,0.0096724480390548,-0.0115216998383402,0.3579214811325073,0.0009240619838237,-0.0033145686611533,0.4645768702030182,0.885526180267334,-0.0054309953163496,-0.0689095098924987,0.3294731384542881,-0.0139627456665039,0.2391195893287658,0.4642562866210937,94,143,11234,17973
6.8,1788429798842,3.070422649383545,5.211267471313477,0.0019639679230749,-0.0023643274325877,0.8395606279373169,0.5432572960853577,0.1644623924395317,0.0032656450929286,-0.0001427273231426,-0.0033840455580502,0.0136259784922003,0.3615506589412689,0.0005849739536643,-0.003012603148818,0.4825073778629303,0.8758864998817444,0.0017571563663155,-0.0237460225938394,0.3017228195080033,-0.3049253225326538,-0.1367813944816589,-0.4654302597045898,19,28,8576,12372
6.9,1788429798942,1.774647831916809,2.6478872299194336,0.0019556297920644,-0.0023585541639477,0.8476380109786987,0.5305660963058472,0.1295299848737574,0.0002929154449931,-1.4923629595337464e-05,0.0017809552373364,-0.0017748487880453,0.2812767922878265,0.0005536498501896,-0.0033136075362563,0.4909814000129699,0.8711636066436768,-0.002509791013278,-0.0170201842427538,0.1602618060335487,-0.5955108404159546,-0.3601399660110473,0.6493120193481445,11,33,2961,4994
7.0,1788429799042,0.0,0.0,0.0019363397732377,-0.0024519453290849,0.8517531156539917,0.523934006690979,0.0371545722658421,-0.0023914681676941,-7.32730246990753e-06,0.0022068568505346,0.0035170884802937,0.1162724196910858,0.0005070930346846,-0.0030831042677164,0.4943115711212158,0.8692792057991028,-0.0006568871042533,0.0007790723543333,0.037401259150889,-0.238787829875946,-0.1565695405006408,-0.0649318695068359,41,3,564,0
7.1,1788429799142,0.0,0.0,0.0019141398370265,-0.0024419529363512,0.8519222140312195,0.5236591696739197,-0.0026773548872723,0.0006384639777788,-1.685216777485376e-07,0.0,0.0,0.0,0.0006282879039645,-0.0033052423968911,0.494059681892395,0.8694215416908264,0.0016328583518353,0.0083897741225665,0.0102715059188466,0.084926962852478,0.080545961856842,-0.0498275756835937,0,0,0,0
7.2,1788429799242,0.0,0.0,0.0019141398370265,-0.0024419529363512,0.8519222140312195,0.5236591696739197,0.001666498781748,-0.0007566492432596,3.1837352472069485e-06,0.0,0.0,0.0,0.0005167108029127,-0.0032285237684845,0.4943504333496094,0.8692565560340881,-0.0029661102378206,0.0046016796511599,0.004869031670105,0.0855069756507873,-0.2273570895195007,0.0104427337646484,0,0,0,0
7.3,1788429799342,0.0,0.0,0.0019141398370265,-0.0024419529363512,0.8519222140312195,0.5236591696739197,0.0007794737405215,-0.0007439615564315,-1.431327220753533e-07,0.0,0.0,0.0,0.0005811918526887,-0.0032289018854498,0.4943501651287079,0.8692566752433777,0.0011219806868778,-0.0055019638252789,-0.0013868982645433,0.0525528788566589,0.0392192006111145,-0.0104398727416992,0,0,0,0
7.4,1788429799442,0.0,0.0,0.0019141398370265,-0.0024419529363512,0.8519222140312195,0.5236591696739197,-0.0001499492445967,0.0001375164761296,1.1690467876928538e-06,0.0,0.0,0.0,0.0005182614549994,-0.0031667780131101,0.4943220913410187,0.8692728281021118,-0.0001175900917573,0.0003421241079193,-0.0002961685559756,-0.0248075723648071,-0.0375440120697021,-0.0106678009033203,0,0,0,0
7.5,1788429799542,0.0,0.0,0.0019141398370265,-0.0024419529363512,0.8519222140312195,0.5236591696739197,0.0,0.0,0.0,0.0,0.0,0.0,0.0005269041284918,-0.003180656582117,0.4943480193614959,0.8692581653594971,0.0018298608176488,0.0005228272237429,0.001653902795215,-0.0215411782264709,-0.0052757263183593,0.0091724395751953,0,0,0,0
7.6,1788429799642,0.0,0.0,0.0019141398370265,-0.0024419529363512,0.8519222140312195,0.5236591696739197,0.0,0.0,0.0,0.0,0.0,0.0,0.000542789697647,-0.0032086614519357,0.4943337142467499,0.869266152381897,-0.0004691838303098,-0.000523772111398,-0.0029423107989921,0.0478755235671997,-0.0304166674613952,0.0073375701904296,0,0,0,0
7.7,1788429799742,0.0,0.0,0.0020126230083405,-0.0025450480170547,0.8521324396133423,0.5233161449432373,-8.287343469312601e-05,8.382721793462477e-05,6.948493618049331e-07,3.363636278663762e-05,0.0006244932883419,-0.0009132782579399,0.0005294671282172,-0.0032074553892016,0.4943937063217163,0.8692319393157959,-0.0001199090226959,-6.911258444238323e-06,0.000585057812588,-0.0113636255264282,0.037672221660614,-0.015202522277832,0,0,0,0
7.8,1788429799842,0.0,0.0,0.0019952512811869,-0.0025435364805161,0.8521270751953125,0.5233249068260193,-0.0002587728583312,0.0002786905273312,2.208852759921352e-06,9.20127858989872e-05,0.0009454490500502,-0.0029018556233495,0.0005149561911821,-0.0032131168991327,0.49443119764328,0.8692107200622559,-0.0022574730844711,-0.000908041764237,0.0054012272065017,0.9281476736068726,0.0508666038513183,0.0329656600952148,279,239,8097,9893
7.9,1788429799942,3.0422534942626958,3.746478796005249,0.0020554570946842,-0.0026350633706897,0.8532198071479797,0.5215408205986023,0.060705076947521,0.0013495750891062,3.218829632346458e-05,-0.0022890116088092,-0.0039644432254135,0.0820971876382827,0.0006579346954822,-0.0033571496605873,0.4978940784931183,0.8672311305999756,0.0093035043415523,-0.0317753330899056,0.1119020085303294,0.7232024669647217,0.021105408668518,0.1262464523315429,131,215,11908,14044
8.0,1788429800042,4.619718074798584,5.943662166595459,0.0026192611549049,-0.0025408007204532,0.8560165762901306,0.5169355273246765,0.140688166161217,0.0013953321030167,-1.4589333916239376e-05,0.0119856838136911,-0.017838355153799,0.1351702213287353,0.0013100113719701,-0.0035679386928677,0.5033473968505859,0.864075779914856,0.0092060296460164,0.0089782498043277,0.1505111503965686,0.1424182057380676,0.0342198610305786,-0.629979133605957,120,89,14564,16064
8.1,1788429800142,4.873239517211914,5.605633735656738,0.0030856218654662,-0.0025120570790022,0.8601044416427612,0.5101024508476257,0.1763320213570433,-0.002679620892888,-2.549440733563623e-05,-0.0030412834603339,-0.0026246719062328,0.1563968956470489,0.0016395132988691,-0.0042432220652699,0.5114631652832031,0.8592931628227234,-0.0013639346356206,-0.0380653952493765,0.1414618374709788,0.1313278675079345,0.2901060581207275,-0.2089242935180664,78,100,12599,16091
8.2,1788429800242,4.2253522872924805,5.633802890777588,0.0032327477820217,-0.0028637547511607,0.8641025424003601,0.5032973289489746,0.1654938941408419,0.002350183405701,-4.2187099153772217e-05,-0.0019642126280814,0.0048421151004731,0.1395366191864013,0.0009404830634593,-0.0034731142222881,0.5170159339904785,0.855968177318573,-0.0103170696620389,0.0590533082457414,0.148681054454962,-0.1970512866973877,0.0931178331375122,-0.0839710235595703,65,190,12605,18203
8.3,1788429800342,4.253520965576172,6.0,0.0018157893791794,-0.0024376646615564,0.868445873260498,0.4957747757434845,0.1599868093701417,0.0036357205376327,-7.508810088604654e-05,-0.0050114849582314,0.0283126253634691,0.2164319604635238,1.337006688117981e-05,-0.0025944784283638,0.5261129140853882,0.8504107594490051,-0.0074737683974923,0.034430956941318,0.2828269459346705,0.1130429506301879,0.0291966795921325,-0.4020919799804687,137,119,12514,17126
8.4,1788429800442,3.9718310832977295,5.943662166595459,-0.0014815835747867,-0.0008373553864657,0.8749365210533142,0.484234482049942,0.1628442240806005,0.0008729645344835,-0.0001388881073438,-0.0004613698401954,0.1194260492920875,0.2537265419960022,-0.0010785711929202,-0.000708969309926,0.5395532250404358,0.841950535774231,0.0096951326658986,-0.1510515724978379,0.287608818115119,0.3629950284957886,0.2567924857139587,-1.3947858810424805,157,81,14990,15550
8.5,1788429800542,5.267605781555176,5.126760482788086,-0.0013558079954236,-0.0008080620318651,0.8806619644165039,0.4737426340579986,0.1658601803595759,0.0020359111400223,-9.951359385031572e-05,-0.0048601999878883,0.045044545084238,0.2109761536121368,-0.000774348154664,-0.0010838825255632,0.5448576807975769,0.838527500629425,-0.001235891558339,-0.028686636620233,0.046219598258944,0.4666305780410766,0.0632538795471191,-0.545684814453125,100,84,14302,14467
8.6,1788429800642,5.239436626434326,4.901408672332764,1.5708210412412882e-05,-0.0017382594523951,0.882223904132843,0.4708268344402313,0.1608083575460717,0.000219877982777,0.0001124445317412,-0.0114848967641592,-0.0112252887338399,0.0623171292245388,-0.0005292380228638,-0.0017814580351114,0.5470054149627686,0.8371270298957825,0.0032644180431504,-0.0109015286304825,0.1005131509910004,0.4181975722312927,-0.2014765739440918,0.394810676574707,208,63,15707,13975
8.7,1788429800742,5.492957592010498,4.901408672332764,0.0008459270466119,-0.0014065683353692,0.8818724155426025,0.4714852571487427,0.1539179653535921,-0.0084652406406622,-0.0001140070293871,0.0233332756906747,0.003912990912795,-0.0841913744807243,0.0004442725330591,-0.0010234089568257,0.5437760353088379,0.8392297029495239,0.0308818868263746,0.0106252191581305,-0.0633560820628864,-0.2028567194938659,0.0651440024375915,-0.2476930618286132,145,116,14722,14009
8.8,1788429800842,4.563380241394043,5.352112770080566,0.001462637563236,-0.000938635377679,0.880953311920166,0.4731999933719635,0.1574948085401382,-0.0021332639151313,0.0001323857877407,0.0071883155032992,-0.0273153074085712,-0.0087348893284797,0.0025109807029366,-0.0017554033547639,0.5458334684371948,0.8378880620002747,0.0590414748461292,-0.0681809040139577,0.0937680758338964,-0.0160874128341674,0.1340605020523071,-0.1610078811645507,85,70,15548,14495
8.9,1788429800942,5.267605781555176,5.126760482788086,0.0026328656822443,-0.0001981660025194,0.8825311064720154,0.4702466130256653,0.1611492501806949,-0.0049123169935323,-3.910351365637192e-05,-0.0098190931603312,0.010749839246273,0.0165545344352722,0.0019060308113694,-0.0015392359346151,0.5463319420814514,0.8375652432441711,-0.0003269548206403,-0.0009561280467143,-0.0089255782800091,-0.0221300721168518,-0.1771122217178344,-0.5085382461547852,111,110,14359,14652
9.0,1788429801042,5.436619758605957,4.957746505737305,0.0027389195747673,-0.000467883714009,0.8827205896377563,0.4698901176452636,0.1641099144069736,-0.0048684790378291,-9.850216970021188e-05,-0.0074112908914685,-0.0087105268612504,0.0160121209919452,0.0020617693662643,-0.0016404092311859,0.5465153455734253,0.8374449610710144,-0.0011864840317056,0.0074889985988168,-0.0194832789686297,-0.2933642864227295,-0.0605372190475463,0.3969297409057617,168,100,14850,14167
9.1,1788429801142,5.380281925201416,4.8450703620910645,0.0026453137397766,-0.0007097518537193,0.8820655345916748,0.4711187183856964,0.1645259551017401,-0.0021590176446194,7.887194379324378e-06,-0.0098070716485381,-0.0076944753527641,-0.0436627343297004,0.0025655645877122,-0.0023568104952573,0.5445854067802429,0.8386980891227722,0.0115397466668128,-0.0341771107780939,-0.0470649744988844,0.3021198511123657,0.0008633136749267,-0.0282926559448242,76,102,14897,14413
9.2,1788429801242,5.211267471313477,4.873239517211914,0.0040669166482985,-0.0011402224190533,0.8807342648506165,0.4735918343067169,0.160648168474828,-0.0015011544823889,4.523372177346166e-05,0.0027802016120404,-0.0341344363987445,-0.0539446212351322,0.0024878215044736,-0.0031682224944233,0.5424067974090576,0.8401063084602356,-0.0388148724819281,0.0203611104227384,-0.0634777197798448,-0.0966828465461731,-0.3678205013275146,0.4592428207397461,50,121,15210,14408
9.3,1788429801342,5.267605781555176,4.985915660858154,0.0021925140172243,-0.0027243676595389,0.8783745765686035,0.4779601693153381,0.1582551343991905,-0.0143066648453859,4.0549124430595175e-05,-0.0593621358275413,0.0230431426316499,-0.1067707762122154,-0.0005057714879512,-0.0053078141063451,0.5373376607894897,0.8433504104614258,-0.0723730925512738,-0.077872769260951,-0.0788010703968461,0.3974211812019348,-0.5141236186027527,-0.7496891021728516,42,141,14886,14805
9.4,1788429801442,5.042253494262695,4.873239517211914,0.001297183916904,-0.0049038985744118,0.8769463896751404,0.4805614054203033,0.1638516049237206,-0.0040403121432186,0.0001276404674189,-0.0303530748933553,0.0027672373689711,-0.0407832711935043,-0.000933856703341,-0.0053289644420146,0.5367648005485535,0.8437145352363586,-0.0048990627754864,-0.0145079783189549,0.0019248692006348,0.7788776159286499,0.0602391958236694,-1.2797555923461914,77,111,15680,14753
9.5,1788429801542,5.267605781555176,5.211267471313477,0.0015360789839178,-0.0050915470346808,0.8765504956245422,0.4812805950641632,0.1599143677264591,-0.0002255167927171,2.588488394507948e-05,-0.0005793729214929,-0.011756706982851,-0.0351144298911094,-0.0013927798718214,-0.0049343528226017,0.5355325937271118,0.8444989919662476,-0.0029758336820545,0.0007340903332622,-0.0088875781340227,-0.2502117156982422,0.0891039967536926,-0.015625,62,133,13121,15817
9.6,1788429801642,4.647887229919434,5.070422649383545,0.0011678994633257,-0.0052381022833287,0.8772993087768555,0.4799136221408844,0.1636122467530532,0.0008506156332084,1.2268709524394684e-05,-0.0079668816179037,-0.0050340644083917,0.0683057382702827,-0.0018387595191597,-0.0054582338780164,0.5378515720367432,0.8430198431015015,-0.0139755789374919,-0.0034009265304527,-0.0028281424372741,-0.0061901211738586,0.0673235654830932,0.2718753814697265,107,113,13725,14813
9.7,1788429801742,4.873239517211914,5.042253494262695,0.0012894959654659,-0.0059661837294697,0.8774989247322083,0.4795397520065307,0.1612782312972847,-0.0032685210190514,2.0454367717353385e-06,-0.0073666735552251,-0.011122970841825,-0.0116695296019315,-0.0020374292507767,-0.0058782557025551,0.5370917916297913,0.8435009121894836,-0.0110844904575699,0.0046493056590696,-0.0231730587825985,0.0194972157478332,-0.0374984145164489,0.0004949569702148,79,121,15612,15013
9.8,1788429801842,4.760563373565674,5.633802890777588,0.0012944859918206,-0.0064789080061018,0.8769913911819458,0.4804606735706329,0.1624944459533898,-0.0027199779538176,5.50144132648967e-05,-0.0082405898720026,-0.0106315864250063,-0.018014557659626,-0.0017715068534016,-0.0066896714270114,0.5376870036125183,0.8431161642074585,-0.0014001035145419,-0.0296641663168796,0.0719164985104228,-0.0219933986663818,0.2758001685142517,0.6444549560546875,52,177,12202,16640
9.9,1788429801942,4.901408672332764,5.211267471313477,0.0017849439755082,-0.0070948777720332,0.8804588913917542,0.4740660786628723,0.158893213977184,0.0024813247607537,2.7748375092287456e-06,0.0012335098581388,-0.006706875283271,0.206280380487442,-0.0014796238392591,-0.0071172416210174,0.5457994937896729,0.8378843665122986,0.0046171459567663,-0.0473340717972341,0.0652120974186543,0.1593499183654785,-0.0601148605346679,0.2162857055664062,169,69,14968,15108
10.0,1788429802042,4.704225540161133,5.126760482788086,0.0023337337188422,-0.0067327306605875,0.8823055028915405,0.4706231951713562,0.1552551577180244,-0.0021396434503575,4.210533418843708e-05,0.0075143962167203,-0.0195492766797542,0.0362290255725383,-0.0013135438784956,-0.0068082371726632,0.546748161315918,0.8372684717178345,-0.0056030537354666,0.0146210291199978,0.0231405227882922,-0.2289088368415832,0.0623454451560974,0.5845947265625,96,114,16240,14571
10.1,1788429802142,5.211267471313477,5.014084339141846,0.0016051474958658,-0.0062155434861779,0.8830422163009644,0.4692495167255401,0.1635751190961678,-0.0046954470039925,-6.753355761588742e-05,0.0049202935770154,0.0331911109387874,0.0447859056293964,-0.0018393630161881,-0.005193849094212,0.5478206872940063,0.8365776538848877,0.0124289064768465,0.0620621472587815,0.0265049143019303,-0.0724470615386962,-0.0606045722961425,-0.3535652160644531,79,118,14621,14920
10.2,1788429802242,5.267605781555176,4.985915660858154,-0.0004593789344653,-0.0050297724083065,0.8830359578132629,0.4692780971527099,0.1621136083695965,-0.0042951326456606,-0.0001336410536743,-0.0086147682741284,0.0544895529747009,-0.0084761949256062,-0.0020713051781058,-0.0053162015974521,0.5472131967544556,0.8369737863540649,-0.0129245408733806,-0.1088217674910548,-0.0055653297165819,1.2285056114196775,-0.5104038715362549,-0.8805246353149414,97,106,14415,15016
10.3,1788429802342,5.577464580535889,4.816901206970215,-0.0002683422062546,-0.0054179667495191,0.8820859789848328,0.4710571765899658,0.1622717408843623,-0.0042503383466466,-0.0001185824078194,-0.0124571816995739,0.0464916042983531,-0.0790312588214874,-0.0033244853839278,-0.0041732657700777,0.5444133281707764,0.8388001918792725,-0.0081909528898522,0.0277270981438561,-0.0639439107880932,-0.3118210434913635,0.311899185180664,1.0499753952026367,92,112,14532,14683
10.4,1788429802442,5.605633735656738,5.014084339141846,-0.0015463017625734,-0.0050429864786565,0.8806678652763367,0.4737047851085663,0.1649158706650858,-0.0035521170032552,-6.419037580289275e-05,-0.0038745165802538,0.0311262868344783,-0.0551616176962852,-0.0038675684481859,-0.003656081855297,0.5424128174781799,0.8400952816009521,-0.0045812657358671,0.016289504483678,-0.0491066742708636,0.0530454516410827,-0.2009497284889221,-0.7814502716064453,84,112,12960,15135
10.5,1788429802542,5.295774459838867,5.098591327667236,-0.0010004482464864,-0.0054959710687398,0.8797958493232727,0.4753188788890838,0.160730586618502,0.0056876097029462,6.409831335504654e-05,-0.0019806891214102,-0.0244763772934675,-0.0228622127324342,-0.0034690555185079,-0.0048210658133029,0.541519820690155,0.8406670093536377,-0.0218520931473984,-0.0847367119607732,-0.0300264483486785,0.5123827457427979,-0.1417300105094909,0.0990610122680664,105,156,13122,15817
10.6,1788429802642,4.478873252868652,5.295774459838867,-0.0003727086586877,-0.0053014336153864,0.8801604509353638,0.4746464788913727,0.1706684373436286,-0.002411954267466,0.0001685271728935,0.0131411924958229,-0.0266464576125144,0.0182365402579307,-0.0025229947641491,-0.004391704685986,0.5438775420188904,0.8391493558883667,0.0165740465977369,0.0109216266457784,0.0810489422251605,0.0230467915534973,0.1841004490852356,-0.2937469482421875,156,68,16868,13900
10.7,1788429802742,4.873239517211914,5.154929637908936,-3.393122460693121e-05,-0.0046048448421061,0.8814100623130798,0.4723294377326965,0.1576880381185653,-0.0037727928132409,-4.562126827285119e-05,0.0080883903428912,0.0293437764048576,0.0239050276577472,-0.0025866525247693,-0.0032834988087415,0.5442572832107544,0.8389080166816711,0.0172034649449589,0.0553222971647274,-0.0040425530288722,-0.342462420463562,-0.0788035988807678,-0.019866943359375,135,117,15756,14486
10.8,1788429802842,5.014084339141846,4.901408672332764,-0.0006864479510113,-0.0039309980347752,0.8810699582099915,0.4729692339897156,0.1688031311192327,-0.0025015023070393,-2.156361341721313e-05,0.010521194897592,0.0221222881227731,-0.0136388856917619,-0.0019903080537915,-0.0032119126990437,0.5438839793205261,0.839151918888092,0.0134400704962895,-0.0465722215043764,-0.0081232011338046,0.8470510244369507,0.0174370408058166,-1.0628128051757812,174,82,16498,13974
10.9,1788429802942,4.816901206970215,4.8450703620910645,-0.000706780469045,-0.0033082030713558,0.8797179460525513,0.4754838943481445,0.1661606204318801,-0.003262952778893,-6.345835757457848e-05,0.0071223359555006,0.013373821042478,-0.0993197932839393,-0.002138078212738,-0.0023691430687904,0.5405564904212952,0.841301679611206,0.0050607933369207,-0.0197780305277317,-0.0434320256673793,0.1486081480979919,-0.0747920274734497,0.8207683563232422,128,91,16879,14556
11.0,1788429803042,5.014084339141846,4.929577350616455,-0.0010748445056378,-0.0028145287651568,0.8786069750785828,0.477535992860794,0.1663283318345332,-0.0055603651205917,-6.856484272459207e-05,0.0036907121539115,0.0178662128746509,-0.046094324439764,-0.0022643152624368,-0.0016945768147706,0.5385410189628601,0.842594563961029,0.0067780968762674,0.0217520198732765,-0.0571367156155962,0.0138808488845825,-0.0062160491943359,0.1096134185791015,161,107,16233,14141
11.1,1788429803142,4.816901206970215,4.929577350616455,-0.0007710186182521,-0.0027248880360275,0.8773645758628845,0.4798160195350647,0.1613875163563347,-0.0077422483459884,0.0001074207292759,0.0007011691341176,-0.0250625666230916,-0.0551683045923709,-0.0020003262907266,-0.0021846080198884,0.5363302230834961,0.8440030217170715,-0.0018625819622352,-0.0237543670393168,-0.0610498472941106,-0.2616864442825317,-0.0383470058441162,1.7492971420288086,115,120,16732,14115
11.2,1788429803242,5.183098793029785,4.957746505737305,-0.0009169489494524,-0.0026092985644936,0.8762013912200928,0.4819371998310089,0.1624701653910343,-0.0015361310486465,-4.364300430063337e-05,0.0052411472424864,0.0129981441423296,-0.0461263693869113,-0.0015667388215661,-0.0004997681826353,0.534482479095459,0.845177948474884,-0.0017683248562255,0.0138922225429369,-0.0594061774531279,-0.3620295524597168,0.0868275165557861,0.6628828048706055,95,102,15841,14022
11.3,1788429803342,4.957746505737305,4.957746505737305,-0.0011332987342029,-0.0011874666670337,0.8751866817474365,0.4837826192378998,0.1588337210285426,-0.0046504715410037,7.924682276296174e-05,0.0003359169350005,0.0043900478631258,-0.0564098134636879,-0.0014473488554358,-0.0003423793241381,0.5324097275733948,0.8464854955673218,0.0152157936980084,0.0037540388252974,-0.0509096007643983,-0.3943415880203247,0.0361577272415161,0.4371414184570312,83,116,16360,14120
11.4,1788429803442,4.929577350616455,4.901408672332764,-0.0009982953779399,-0.0014307751553133,0.8739482164382935,0.4860160052776336,0.1618557158300961,-0.0045118615325292,-9.765740286417516e-05,-0.0059912926517426,0.0021412423811852,-0.0477629825472831,-0.0018176371231675,-0.000449925661087,0.5306990146636963,0.847558319568634,-0.007046104611481,0.0227470738982572,-0.0286793016985459,0.0483375787734985,0.0823259353637695,0.2982397079467773,94,111,16286,14331
11.5,1788429803542,4.647887229919434,4.929577350616455,-0.0010217467788606,-0.0012877726694568,0.8731669783592224,0.4874184727668762,0.1588606890046348,-0.0073753088393514,2.5306482872390114e-06,0.0026607008185237,-0.0056120338849723,-0.021433962509036,-0.0014606369659304,-0.0004579443484544,0.529427707195282,0.8483536839485168,0.008412743727479,0.006167751185682,-0.0361564541296637,-0.1316484808921814,-0.1830894351005554,-0.5590658187866211,163,114,17437,14264
11.6,1788429803642,4.676056385040283,5.070422649383545,-0.0017454717308282,-0.0009900063741952,0.8721240162849426,0.4892807304859161,0.1576116260209263,-0.0027121023112908,-3.301872391110059e-05,-0.0059629366733133,0.0317810364067554,-0.058398138731718,-0.0032522603869438,0.0020824940875172,0.5276075005531311,0.8494795560836792,0.0066383208844917,0.1412232954804364,-0.0022436819569244,-1.0079656839370728,-0.2352177500724792,1.4379892349243164,104,122,15979,15013
11.7,1788429803742,4.8450703620910645,5.239436626434326,-0.0032458768691867,-0.0001884098164737,0.8719648122787476,0.4895575940608978,0.1619675897303357,-0.0048191848496124,6.8457041448129e-05,-0.0033399802632629,-0.0221699476242065,0.0169827863574028,-0.0028700726106762,0.0014113951474428,0.528313398361206,0.8490434885025024,0.0176030823931176,-0.0257960425560251,0.0392025201623923,0.2149468064308166,0.1196304559707641,-0.1665210723876953,47,112,14271,15457
11.8,1788429803842,4.760563373565674,5.492957592010498,-0.0037116750609129,-7.72417988628149e-05,0.8731492161750793,0.4874388873577118,0.1704030210690603,0.0007958828902729,3.0561935614829124e-06,-0.0121229877695441,0.0117473788559436,0.0524787791073322,-0.0034091202542185,0.0020470973104238,0.5331411957740784,0.8460169434547424,0.0102517660819337,-0.0136372563691317,0.1778485087226421,0.2582155466079712,0.2847874760627746,-0.0564260482788085,121,139,12430,16795
11.9,1788429803942,4.647887229919434,5.183098793029785,-0.0017082629492506,-0.0010710144415497,0.8760773539543152,0.4821662902832031,0.1580200522705636,0.0075158075118421,9.8534998368036e-05,0.0013346828054636,-0.1331330686807632,0.126433327794075,-0.0006341068074107,-0.0028721494600176,0.5363741517066956,0.8439751863479614,-0.0003969077954536,-0.0512168678123696,0.0466775211179414,0.9970531463623048,0.0544224381446838,0.8950319290161133,80,115,15807,15527
12.0,1788429804042,5.492957592010498,4.929577350616455,0.0007904688827693,-0.0029364330694079,0.8765754699707031,0.4812549948692322,0.1626045586379449,-0.0067356534875004,-0.0002743804950704,-0.0079029211774468,0.0180451292544603,-0.0069746491499245,-0.0007659159600734,-0.0030253389850258,0.5349155068397522,0.8448998332023621,0.0015340846934973,0.0283169901637957,-0.0599074698313863,-0.3939552903175354,-0.0626387000083923,-0.3449964523315429,62,116,14565,14169
12.1,1788429804142,5.239436626434326,4.929577350616455,0.0014174070674926,-0.0035663354210555,0.8751562833786011,0.4838249683380127,0.1630933534878722,0.0003676595173122,2.631712291911137e-05,-0.0074900491163134,-0.0198213700205087,-0.0709652081131935,-1.836474984884262e-05,-0.0040626553818583,0.532259464263916,0.8465716242790222,0.0130594700689761,0.0040344769967673,-0.0442173725891026,0.1589172482490539,-0.1190145611763,0.6681747436523438,75,96,15378,14252
12.2,1788429804242,5.464788913726807,4.985915660858154,0.0019474031869322,-0.0033958132844418,0.8738894462585449,0.486109048128128,0.1708153875402308,-0.0025292452583451,2.2628130868165817e-06,0.0070128431543707,0.0031937696039676,-0.0478229783475399,-1.033209264278412e-05,-0.0036788852885365,0.5304068326950073,0.8477352261543274,-0.001826489095154,0.017375764139087,-0.0441255319115279,-0.1669923663139343,0.0935965180397033,0.1369218826293945,72,108,14681,14083
12.3,1788429804342,4.591549396514893,5.380281925201416,0.0021967163775116,-0.0032009240239858,0.8729453086853027,0.4878025949001312,0.1584077308707109,-0.0033931973244749,2.1621102498319777e-05,0.0089167822152376,-0.0148531440645456,-0.060778833925724,0.0012660259380936,-0.0048764664679765,0.5293973088264465,0.8483590483665466,0.0049820456469534,-0.0751268011100983,0.0114150668091674,0.2992252111434936,0.2544211745262146,-0.2017202377319336,64,131,14963,15181
12.4,1788429804442,5.154929637908936,5.295774459838867,0.0024804049171507,-0.0038467347621917,0.8738565444946289,0.4861622154712677,0.1626681039460141,0.0071580613089166,-0.0002015649352351,-0.0173309165984392,0.0204142425209283,0.07552170753479,0.0002709943801164,-0.0048132268711924,0.5319669842720032,0.8467513918876648,0.0067671286757854,-0.0799772348811528,0.0288971739086954,0.1221302151679992,0.2021504044532776,-0.1391334533691406,124,112,13549,15144
12.5,1788429804542,4.535211086273193,5.239436626434326,0.0018180875340476,-0.0041675260290503,0.8748180866241455,0.4844303131103515,0.1647015408283663,-0.0016352291199255,0.0001737901209664,-0.013200051151216,-0.0115341264754533,0.0570408478379249,0.0008638883009552,-0.0056810844689607,0.5344805121421814,0.8451611995697021,0.0035145848472546,-0.048324815095983,0.0930866896758196,0.8744264245033264,0.2266781330108642,-1.5000734329223633,122,110,15652,15306
12.6,1788429804642,4.8450703620910645,5.211267471313477,0.0030453668441623,-0.0043901577591896,0.8765575289726257,0.4812674224376678,0.1663107991662283,-0.0004687693795274,-0.0001030538304143,-0.0001221417478518,0.0124099152162671,0.06654554605484,0.0005519306287169,-0.0056903045624494,0.5367063283920288,0.8437497615814209,-0.0136203717202674,-0.0235419907942721,0.0457327659391505,-0.1505362391471862,-0.0278919339179992,1.1948728561401367,57,120,14677,15397
12.7,1788429804742,5.070422649383545,5.183098793029785,0.0030596177093684,-0.004887718707323,0.8776059150695801,0.4793480932712555,0.1624784017399259,-0.0009725558649545,-7.039094936163861e-05,-0.0116337798535823,-0.0002655287680681,0.0692582428455352,0.0001629507169127,-0.0055131409317255,0.5385037064552307,0.8426051139831543,-0.0027935413331249,0.0237465937722767,0.044883822399875,-0.1163925528526306,0.1533978581428527,0.9959182739257812,149,118,13930,15421
12.8,1788429804842,4.591549396514893,5.492957592010498,0.0028558147605508,-0.0050874790176749,0.8787081837654114,0.4773236513137817,0.155919915923087,-0.0045174298156837,0.0001352027970126,-0.010044602677226,-0.0169409103691577,0.0588339939713478,-6.66612759232521e-05,-0.0049117086455225,0.5430189371109009,0.8397061228752136,0.0448182229058739,0.0882664217108881,0.1898022090398541,-0.242002248764038,-0.0512965321540832,0.8425703048706055,143,98,15371,14826
12.9,1788429804942,5.098591327667236,5.267605781555176,0.0023535662330687,-0.0034793214872479,0.8821244239807129,0.4709976315498352,0.1566840618689987,0.0015289842577616,-0.0001763782656154,0.0386524684727191,0.0351541303098201,0.1642664074897766,0.0003708116710186,-0.0036529153585433,0.5461874604225159,0.8376549482345581,0.0087506049985372,0.0093884579964586,0.0039850208563586,0.0419189929962158,-0.358067512512207,0.4645366668701172,158,124,14302,14850
13.0,1788429805042,4.591549396514893,5.211267471313477,0.0021482119336724,-0.0029107322916388,0.8823596239089966,0.4705619812011719,0.1639318791881432,-0.0015197339420793,-2.230730937829656e-06,0.0052639399655163,-0.0001226299355039,0.0026911324821412,0.0003239614889025,-0.0032580755650997,0.5467144846916199,0.8373126983642578,0.0050633346706877,0.0063016708756475,0.0317528135112002,0.3094137907028198,0.0053907632827758,0.2769088745117187,156,143,15687,15590
13.1,1788429805142,4.732394218444824,5.183098793029785,0.0011037762742489,-0.00245789764449,0.8835042119026184,0.4684153795242309,0.1698186668649808,-0.0022767668552482,-3.610093986442092e-06,-0.0056936931796371,0.0133600123226642,0.053579069674015,-0.0005230018869042,-0.0027687596157193,0.5489888191223145,0.8358249068260193,-0.0095218470899515,-0.0044342092573005,0.0353929409256937,0.0249339938163757,0.2121539115905761,0.1084299087524414,137,130,14966,15468
13.2,1788429805242,4.760563373565674,5.549295902252197,0.000819198670797,-0.0031059961766004,0.8840857148170471,0.4673137664794922,0.1599651639847326,-0.000416028046217,1.6910004283751534e-05,-0.0193372499197721,-0.0071914647705852,0.0190611332654953,-0.0012090932577848,-0.003245479427278,0.5511548519134521,0.8343958258628845,-0.0101400397024084,0.0020013283623152,0.1178507637205484,-0.4119211435317993,0.1755688190460205,0.4908037185668945,55,187,12257,16858
13.3,1788429805342,4.478873252868652,5.267605781555176,0.0007227030582726,-0.0038736420683562,0.8873589634895325,0.4610624611377716,0.1697063676212143,0.0057444694676241,6.311499071697102e-06,-0.0136356251314282,-0.0100346524268388,0.1882692277431488,-0.0009904420003294,-0.0041453633457422,0.5577267408370972,0.8300136923789978,0.0027820303695112,-0.0288004317450051,0.147589705932758,0.3316798210144043,-0.0207496285438537,-0.9408397674560548,177,91,16078,14973
13.4,1788429805442,4.647887229919434,5.126760482788086,0.0017440472729504,-0.004558618646115,0.8894895911216736,0.4569292664527893,0.1599275488667973,-0.0024946455574379,5.392099318953417e-05,-0.0048681073822081,-0.0270438510924577,0.0487761236727237,-0.000651434995234,-0.0047231214120984,0.5599305033683777,0.8285258412361145,-0.0008488187867312,0.0423862704449144,0.0446809543000761,0.0507612824440002,-0.1322504878044128,0.2101774215698242,51,128,15409,15570
13.5,1788429805542,5.352112770080566,5.098591327667236,0.0022561433725059,-0.0043561523780226,0.8900539875030518,0.4558286666870117,0.1650200874594707,-0.0020765400603565,4.1649881966616886e-05,0.0100087448954582,-0.0250048115849494,0.007214865181595,-0.0001874696463346,-0.004313233308494,0.5597074031829834,0.8286791443824768,0.0236174487288277,-0.0095679691719719,-0.021217036633251,0.1887502074241638,0.0689120292663574,0.415435791015625,89,109,14244,14545
13.6,1788429805642,5.492957592010498,5.154929637908936,0.0008690687827765,-0.003650028957054,0.8892690539360046,0.4573691785335541,0.1580754499171222,-0.0026733084828508,-0.0002112639720535,-0.0019731998909264,0.0346487909555435,-0.0588062405586242,-0.0019337804988026,-0.0029360828921198,0.5575792789459229,0.830116331577301,-0.0270630075059428,0.0771513617310708,-0.0736340036796218,-0.5172790884971619,0.0641741752624511,1.1083240509033203,57,142,12170,15708
13.7,1788429805742,4.3380279541015625,5.211267471313477,-0.0012733831536024,-0.0024866769090294,0.8885998129844666,0.4586748778820038,0.1596096692756653,0.0035226663501731,-7.901257160558251e-05,0.0157577525824308,0.0554361753165721,0.015782106667757,-0.0009140921756625,-0.003067260608077,0.5593249201774597,0.8289424180984497,-0.0060209564348655,-0.1176355429167659,0.0816033162188183,0.0588127970695495,-0.3018540143966675,6.337806701660156,224,124,16613,15364
13.8,1788429805842,4.901408672332764,5.042253494262695,0.0004104920662939,-0.0028420097660273,0.8900890350341797,0.455777645111084,0.1684739635671042,0.0044226399876594,0.0002188915777932,-0.0027134409174323,-0.013610653579235,0.0457362383604049,-0.0010916721075773,-0.0022744685411453,0.5608315467834473,0.8279261589050293,0.0124254753530943,0.0207291998991001,0.0438605712848447,-0.506914496421814,-0.2917191386222839,2.2029762268066406,90,67,15490,14713
13.9,1788429805942,5.014084339141846,4.760563373565674,-0.0002720296615734,-0.0023282975889742,0.8906238675117493,0.4547345340251922,0.1585044374368813,-0.006095179310495,-4.927242473772064e-05,-0.0054936744272708,0.0292022824287414,0.0031440786551684,-0.0018839938566088,-0.0019558826461434,0.5601804852485657,0.8283661007881165,-0.0163936530138846,-0.0069563625341232,-0.0638994456603909,-0.1638121008872985,-0.2184192538261413,0.3604707717895508,87,101,16156,14826
14.0,1788429806042,4.929577350616455,4.929577350616455,-0.00088854029309,-0.0023750471882522,0.889448881149292,0.4570276141166687,0.1582853613815614,-0.0037614553085621,-7.422031494725501e-05,-0.0009457262931391,0.0135704521089792,-0.0413989350199699,-0.001841559074819,-0.0017861193045973,0.5577486753463745,0.830005943775177,0.0033150452378163,-0.0015729123453873,-0.0608366532850637,-0.4381584525108337,0.0043706893920898,0.0232734680175781,91,100,16448,14244
14.1,1788429806142,5.042253494262695,4.873239517211914,-6.221461808308959e-05,-0.0023992671631276,0.8883658647537231,0.4591299891471863,0.1726824743110938,-0.0078794771827548,8.407409488786168e-05,0.0123248901218175,-0.0196833275258541,-0.0368570610880851,-0.000645131804049,-0.0023008733987808,0.5558913350105286,0.8312515020370483,0.0006239904602994,-0.0136912867823816,-0.0528200644645448,0.0862119197845459,0.2733753323554992,0.3672027587890625,107,101,15921,14033
14.2,1788429806242,4.985915660858154,4.8450703620910645,4.1746185161173344e-05,-0.0027003253344446,0.8868526816368103,0.4620444178581238,0.1567701044687347,-0.0044801759861227,-2.960432042241125e-07,-0.0123983062803745,0.001311391708441,-0.0501257702708244,-0.0015438655391335,-0.0026654517278075,0.5535944700241089,0.832780659198761,-0.027887455627588,0.0012401719522662,-0.0519194497433685,0.1729207634925842,0.1118332147598266,-0.8598880767822266,78,140,16182,14673
14.3,1788429806342,5.098591327667236,4.929577350616455,-0.0005215392448008,-0.0029194715898483,0.8858423829078674,0.4639766216278076,0.1595803920921635,-0.0055393953241529,-2.4213036041671404e-05,1.0799746632983442e-05,0.0130590796470642,-0.0315385088324546,-0.0021420633420348,-0.0020242044702172,0.550589382648468,0.8347709774971008,-0.0070280965048755,0.0102869955970399,-0.0697034148207163,-0.3926107883453369,-0.084003210067749,0.2547836303710937,117,112,16056,14431
14.4,1788429806442,4.873239517211914,4.8450703620910645,-0.0005995596875436,-0.0028106225654482,0.8843343257904053,0.46684530377388,0.15894527137726,-0.0062671808032394,1.740247609973187e-05,0.0040103741921484,-0.0080613754689693,-0.0484604723751544,-0.001946716569364,-0.0025157304480671,0.5487021803855896,0.8360119462013245,-0.0154246644689884,-0.0113462863681124,-0.0540514166807384,-0.2252411842346191,-0.0505177974700927,0.2297601699829101,63,141,16439,14536
14.5,1788429806542,5.380281925201416,4.704225540161133,-0.0004965456319041,-0.0031505450606346,0.8831384778022766,0.4691015481948852,0.1795660204759621,-0.0058424629501039,1.1649888382011472e-05,-0.0018716208869591,0.0022613033652305,-0.0457928851246833,-0.0019116550683975,-0.0027235969901084,0.54658043384552,0.8374000787734985,-0.0040306321826655,-0.0287931485716567,-0.0722435257235704,0.2811708450317383,0.1934664845466613,-0.0603723526000976,94,49,17060,12847
14.6,1788429806642,5.436619758605957,4.478873252868652,-0.0003679152578115,-0.0039290436543524,0.8804609179496765,0.4741023182868957,0.1651971637211541,-0.0008486798585367,2.2244206064456625e-05,-0.015692600980401,-0.0097185801714658,-0.1226348578929901,-0.0024775099009275,-0.0048889070749282,0.5397340059280396,0.8418178558349609,-0.0597309311152861,-0.0627817503403391,-0.1587903168208687,0.2327824234962463,0.1664645075798034,0.5577001571655273,110,141,16490,13609
14.7,1788429806742,5.549295902252197,4.591549396514893,-0.0002013251651078,-0.0043456167913973,0.8774318099021912,0.4796815812587738,0.1525220934072984,0.0020241754490256,-5.653135796667922e-05,0.0358366332948207,0.0398841463029384,-0.1169746816158294,-0.0022028787061572,-0.0035573411732912,0.5349108576774597,0.8448982238769531,0.001240496584439,0.0134816515390182,-0.1378640933030468,0.1458253264427185,0.2009235024452209,-0.6188859939575195,80,88,16560,13317
14.8,1788429806842,5.352112770080566,4.422535419464111,-0.0001027968246489,-0.0042527867481112,0.873914897441864,0.486060231924057,0.1596633850285615,-0.0011640548088958,3.972057192339651e-05,-0.0018177630845457,0.0011266084620729,-0.1577215492725372,-0.0019382676109671,-0.0042912252247333,0.5286826491355896,0.8488065600395203,-0.0079110325613574,-0.0471419997011204,-0.1672756082683935,0.2272987961769104,-0.2094214558601379,-0.5479698181152344,166,114,17020,13881
14.9,1788429806942,5.77464771270752,4.647887229919434,-8.942687418311834e-05,-0.0045141126029193,0.8695307374000549,0.493858128786087,0.1588642863311886,-0.0074669517606207,-6.313776656138314e-05,-0.0007545145926997,0.0107771418988704,-0.1592034250497818,-0.0022806525230407,-0.0038535939529538,0.5206781625747681,0.8537412881851196,0.0044612532099182,0.0108933715901731,-0.1615127309809049,-0.184788167476654,-0.0280792117118835,-0.2172021865844726,163,113,15629,13257
15.0,1788429807042,5.492957592010498,4.563380241394043,0.0003210022114217,-0.0047898450866341,0.8659161925315857,0.500166118144989,0.1727126671659737,-0.0005352838637524,0.0001089707595656,-0.0022570961154997,-0.0175400841981172,-0.1484408676624298,-0.0015858644619584,-0.0048497896641492,0.514860212802887,0.8572590351104736,0.0104230299725179,-0.0630537969548961,-0.1777515700858203,0.4501990675926208,-0.0776876807212829,-0.5277252197265625,66,93,16459,13316
15.1,1788429807142,5.323943614959717,4.619718074798584,0.0008197268471121,-0.0053512598387897,0.8619148135185242,0.5070242285728455,0.174258211390323,0.0035816239540718,-4.696960361845621e-05,-0.0127572063356637,-0.0040027070790529,-0.1811633110046386,-0.0019922722131013,-0.0050285449251532,0.5085392594337463,0.861021876335144,-0.0054579431606785,0.0179172766093117,-0.1293103389025929,0.2260062098503112,0.2201290726661682,-0.0133123397827148,118,120,17004,13316
15.2,1788429807242,5.802816867828369,4.563380241394043,0.0005909462925046,-0.0047116307541728,0.858528733253479,0.5127435326576233,0.169023991479134,0.0009059187122623,-8.934231245551585e-05,0.0147794410586357,0.0111512215808033,-0.1247832253575325,-0.0016193781048059,-0.0042194090783596,0.5032079219818115,0.8641536235809326,0.0087069598014269,-0.003730621913134,-0.1529647535572044,0.1115391850471496,-0.0140712857246398,0.1349925994873047,163,114,15563,13599
15.3,1788429807342,5.549295902252197,4.394366264343262,0.0003246699925512,-0.0037338491529226,0.8548564314842224,0.5188510417938232,0.1768515657566899,-0.0024433522865065,7.023696324013763e-05,0.0097788348793983,-9.066226630238816e-05,-0.1428088843822479,-0.0021783597767353,-0.0023574028164148,0.4954461753368377,0.8686326742172241,0.0020872601192173,0.1168361256989253,-0.1615908352420411,0.9153807163238524,0.0321724414825439,-1.132863998413086,80,159,16485,14176
15.4,1788429807442,5.154929637908936,4.450704097747803,-0.0020004697144031,-0.0025275093503296,0.850707471370697,0.5256296396255493,0.1801810714883079,4.723085114534e-05,-0.0008535595603912,-0.0042076702229678,0.0615825913846492,-0.1370140016078949,-0.0028169313445687,-0.0014743842184543,0.4900121390819549,0.8717098236083984,0.0016821658708648,-0.0175375734195882,-0.1490098067232533,0.7769094705581665,0.083706796169281,-2.833695888519287,139,125,17800,13927
15.5,1788429807542,5.943662166595459,4.507042407989502,-0.0010389753151685,-0.0031608627177774,0.8469377756118774,0.5316817164421082,0.1702474626942047,0.0020251123847524,0.0001417344127206,-0.0085694994777441,-0.0388918966054916,-0.1616130471229553,-0.0022525256499648,-0.0025506261736154,0.4815230965614319,0.8764268159866333,0.0033160287473416,-0.0137799231730294,-0.1644596622518412,-0.0405901074409484,0.1910188794136047,0.3598108291625976,147,74,16966,11740
15.6,1788429807642,6.563380241394043,3.690140962600708,-0.0011442457325756,-0.0034473757259547,0.8413026332855225,0.5405521988868713,0.1788780535075719,0.0001301355343981,3.057326524521059e-05,-0.0126873347908258,0.0078483549878001,-0.2495037168264389,-0.0029480336233973,-0.0024580238386988,0.4679448008537292,0.8837493658065796,-0.0073597259926328,0.0013419507241291,-0.4156293770837308,0.2752886414527893,-0.0321638584136962,0.56951904296875,123,145,17373,11871
15.7,1788429807742,6.704225540161133,3.746478796005249,-0.0018392831552773,-0.0035021430812776,0.8307397961616516,0.5566468834877014,0.1731117176332191,5.154057363801904e-05,-1.4909951659569794e-05,-0.0074791451916098,0.0175662208348512,-0.3759116232395172,-0.003411803394556,-0.0025329310446977,0.4530224204063415,0.8914889693260193,-0.0152778847641271,-0.0306851578140079,-0.3477290827389853,0.3308995366096496,-0.2235823273658752,0.0787591934204101,134,100,16035,12451
15.8,1788429807842,5.690140724182129,4.253520965576172,-0.0018302102107554,-0.0034316249657422,0.8204697370529175,0.5716766715049744,0.1757707747428981,-0.0021419999623695,-0.0001238226673863,0.0089180888608098,0.0046986015513539,-0.3087795376777649,-0.0037305997684597,-0.0013892203569412,0.4377903938293457,0.8990682363510132,-0.0093096934021316,0.0574557532339601,-0.2607537928130674,-0.1772819757461547,-0.0093274116516113,-0.4615192413330078,157,107,17789,12518
15.9,1788429807942,5.605633735656738,4.253520965576172,-0.0025515535380691,-0.0029866313561797,0.8140944242477417,0.5807192921638489,0.1667085651274036,0.0007420335290708,5.2301698729504384e-05,0.0024083170574158,-0.0001084024552255,-0.2264096736907959,-0.0028975876048207,-0.0018177106976509,0.4279383718967438,0.9038015007972716,0.0361056660872572,-0.0424546116438012,-0.2569355501499458,-0.3437147140502929,-0.1544083356857299,-0.034520149230957,75,90,18263,12354
16.0,1788429808042,6.197183132171631,3.88732385635376,0.0001667636679485,-0.0021499700378626,0.8076152205467224,0.589705765247345,0.1804005753412579,-0.0065550122629738,0.0001579252920795,0.0667378008365631,-0.0356520898640155,-0.2013131380081176,-0.0014417553320527,-0.0019575133919715,0.4174681305885315,0.9086883068084716,-0.0283451739817988,-0.0183115538053098,-0.358034222458316,0.2032424807548523,-0.5658350586891174,0.1172313690185546,95,159,16224,13456
16.1,1788429808142,5.77464771270752,4.2816901206970215,-0.0006892811506986,-0.0055849449709057,0.7972133159637451,0.6036714911460876,0.1823646905704502,-0.0067649188932572,0.0001047752986585,-0.1030287146568298,-0.0809424743056297,-0.2993533909320831,-0.0035212533548474,-0.0034556593745946,0.4020527005195617,0.9156032204627992,0.0376294028479582,0.1067673946272463,-0.1827603588075693,0.3797550201416015,-0.2510498166084289,-2.802123546600342,108,207,14832,14942
16.2,1788429808242,5.77464771270752,4.732394218444824,-0.0018358014058321,-0.0048051923513412,0.79134202003479,0.6113522052764893,0.1766644537043179,-0.0009117971682142,-0.0001615304192393,0.0009267863933928,0.0330826379358768,-0.15518519282341,-0.0037299068644642,-0.0032893549650907,0.3967373073101043,0.9179186820983888,-0.0016185425063251,-0.0143041715992314,-0.1049363132723212,0.2536494135856628,0.0979465842247009,-0.0101432800292968,117,80,15481,13149
16.3,1788429808342,5.323943614959717,4.563380241394043,-0.0016092166770249,-0.0045715603046119,0.7880419492721558,0.6156025528907776,0.1776113873196027,-0.0010651534555884,2.948574273240448e-05,0.0076925125904381,-0.0202631931751966,-0.1300161033868789,-0.0036246431991457,-0.0030748257413506,0.3902106583118438,0.9207134246826172,0.0081169242828116,-0.0254146804306307,-0.1492883095420983,-0.3114200234413147,0.0625544190406799,-0.2834529876708984,116,89,16963,13536
16.4,1788429808442,5.802816867828369,4.478873252868652,-0.0017755279550328,-0.0043148421682417,0.7836635112762451,0.6211680173873901,0.1736121772709996,-0.0012686520577199,5.874327339551992e-05,-5.846292697242461e-05,0.0065860743634402,-0.1329362690448761,-0.0031927106902003,-0.0033937767148017,0.3844499886035919,0.9231340289115906,0.017134991492715,-0.0169344630963306,-0.1621585531204283,0.2338462471961975,-0.2621082067489624,0.1756963729858398,122,109,15472,13638
16.5,1788429808542,5.408450603485107,4.394366264343262,-0.0009960138704627,-0.0045354575850069,0.7786090970039368,0.6274920105934143,0.1716944991067956,0.0005192780060013,0.000139182975123,0.0019368502544239,-0.0112934671342372,-0.1483986526727676,-0.0029925238341093,-0.003059696406126,0.3760687708854675,0.9265819191932678,0.009345054276989,0.0290377432768641,-0.1600947078710594,-0.425038993358612,-0.0078415274620056,0.0683164596557617,97,93,16857,14014
16.6,1788429808642,5.323943614959717,4.591549396514893,-0.0012443844461813,-0.0041622398421168,0.7737680673599243,0.6334542036056519,0.1775813434297123,0.0005322829595441,-4.986496324638151e-05,-0.0006448511849157,0.0101577574387192,-0.1545232683420181,-0.0031015863642096,-0.0032981457188725,0.3699394762516022,0.9290449023246764,-0.0090728325089293,-0.0039636456711822,-0.1327170904259752,-0.1468966603279113,0.1482554674148559,-0.6136817932128906,173,107,17127,13395
16.7,1788429808742,6.2816901206970215,4.2816901206970215,-0.0010249784681946,-0.0046951272524893,0.769212007522583,0.6389756202697754,0.1722296629284016,0.0037344759214187,8.654480371569573e-05,-0.0032828412950038,-0.0222674068063497,-0.1679518520832061,-0.0030303942039608,-0.0037902649492025,0.3620521128177643,0.9321452975273132,0.0014267372445309,-0.0238253749449347,-0.2266987779478659,0.5647229552268982,-0.1301438808441162,0.1240882873535156,137,66,16268,11876
16.8,1788429808842,6.760563373565674,3.7183098793029785,-0.0006585482042282,-0.0048420587554574,0.7610536813735962,0.6486706137657166,0.1745714010704624,-0.0018793943885156,-3.480933659847194e-05,0.0010907910764217,-0.002870196243748,-0.2795526683330536,-0.0030455831438302,-0.0037123812362551,0.3498390913009643,0.9367974996566772,-0.0041769236790343,0.0184252637136586,-0.2932057972316295,0.0714033246040344,-0.1424565911293029,-0.3269233703613281,132,107,16824,11717
16.9,1788429808942,6.563380241394043,3.91549301147461,-0.0005735787563025,-0.0046734679490327,0.7485014200210571,0.663116455078125,0.1667118624339586,-0.003190813198734,-7.11014557860502e-05,0.0087072188034653,-0.0005374316242523,-0.4229496717453003,-0.0027274889871478,-0.0035296352580189,0.3269185125827789,0.945042073726654,0.0001726500151861,0.0073102824337671,-0.363720605832434,0.0506831407546997,0.044112741947174,0.7601404190063477,119,83,17080,11422
17.0,1788429809042,6.647887229919434,3.859154939651489,-0.0010778872529044,-0.0038987705484032,0.7351518273353577,0.6778903603553772,0.1804713913134134,-0.0007482480203338,-8.008177749586957e-05,0.0021013885270804,0.0167047344148159,-0.34754678606987,-0.0030317837372422,-0.0014792839065194,0.3120761513710022,0.9500511884689332,0.0158744717717756,0.0952613468691971,-0.343802185353294,-2.8374722003936768,0.3606436848640442,4.659198760986328,128,79,16629,11399
17.1,1788429809142,6.169013977050781,3.9718310832977295,-0.000301064690575,-0.0043918462470173,0.7242873311042786,0.6894842982292175,0.1766165213729374,-0.0047140757709993,0.0002379639963847,-0.0330087058246135,-0.0658793374896049,-0.3601106405258178,-0.0026361709460616,-0.0023628016933798,0.2963241934776306,0.9550808668136596,0.013203143622097,0.1032264768652442,-0.3779033008290905,-0.153601586818695,-0.1516761779785156,-3.1955466270446777,46,126,16226,13316
17.2,1788429809242,6.14084529876709,4.197183132171631,-0.000911857932806,-0.0036214236170053,0.7130353450775146,0.7011181712150574,0.1728363178281118,-0.0018194859961184,-4.705816666283475e-05,0.007743879687041,0.0144270900636911,-0.2746439576148987,-0.0022453712299466,-0.0020746737718582,0.2812870442867279,0.9596187472343444,0.0120566642892198,0.0636276156974057,-0.218751991626045,-0.135669469833374,-0.0987433195114135,-1.5735712051391602,160,110,16291,12742
17.3,1788429809342,5.690140724182129,4.169013977050781,-0.0006197810871526,-0.0027030445635318,0.7047131657600403,0.7094870209693909,0.1696015403439079,0.0010971601226525,0.0001979755966474,0.0150156021118164,-0.0016227279556915,-0.2467050105333328,-0.0015387060120701,-0.0025044893845915,0.2706146836280823,0.9626832604408264,0.0035687507686171,-0.0297511121466947,-0.2597406923814048,0.5629289746284485,-0.2715687155723572,-0.9361591339111328,132,91,18151,12513
17.4,1788429809442,5.915493011474609,4.197183132171631,-3.2406533136963844e-05,-0.0029030693694949,0.6948320269584656,0.7191661596298218,0.1782452541987365,0.0008465888028798,5.68352239995611e-05,0.0042047812603414,-0.0037742084823548,-0.2570181488990783,-0.00132901314646,-0.0032306564971804,0.2555185258388519,0.9667978882789612,-0.0035011296544577,0.0055092935951215,-0.2594114104479836,0.0051150321960449,0.0334010124206543,-1.167180061340332,77,97,17071,12347
17.5,1788429809542,5.295774459838867,4.619718074798584,0.0005879128584638,-0.0040989592671394,0.6872370839118958,0.7264214158058167,0.1694188315786255,0.0016396588086091,7.83911686535308e-05,-0.0150148505344986,-0.0281893070787191,-0.1875174939632415,-0.0022390559315681,-0.0049339765682816,0.2482103705406189,0.9686910510063172,-0.0523229642140807,-0.0347007396343273,-0.1530531501657402,-0.6956599950790405,-0.1240447163581848,1.4224510192871094,124,86,16753,13511
17.6,1788429809642,5.915493011474609,4.507042407989502,0.0004214949440211,-0.0043992334976792,0.6828300952911377,0.730563759803772,0.1674977728637438,-0.0004516306249443,3.8711451532114144e-05,0.0230851024389266,0.0273285880684852,-0.0954866185784339,-0.0016051977872848,-0.0041139833629131,0.2431489676237106,0.969978928565979,-0.0090029595312728,-0.0142906441839612,-0.1478558207969601,0.11644047498703,0.2363502979278564,-0.5432577133178711,111,90,15536,13147
17.7,1788429809742,5.633802890777588,4.591549396514893,0.000442896853201,-0.0043975729495286,0.6772301197052002,0.7357580065727234,0.1737243370134053,-0.0008833619558842,-4.231876993918538e-05,-0.0020449112635105,-0.0064776078797876,-0.1462012529373169,-0.0017755180597305,-0.0041957693174481,0.234666422009468,0.972065269947052,-0.0025182558059166,0.0127884410482369,-0.1776414332729313,-0.3088579177856445,0.031096875667572,0.1278448104858398,56,110,15931,13317
17.8,1788429809842,5.267605781555176,4.591549396514893,0.0004562749527394,-0.0047027179971337,0.6712033748626709,0.7412581443786621,0.1748504490171036,-0.0021417875728863,-2.544253927261931e-05,-0.0041374284774065,0.0150202820077538,-0.1426401138305664,-0.0018037809059023,-0.0058449730277061,0.2285210192203521,0.973519802093506,-0.0170280980209601,-0.0994419276953681,-0.1389422827139421,0.41577810049057,-0.2924345135688782,-0.3735427856445312,64,151,15163,15509
17.9,1788429809942,5.267605781555176,4.957746505737305,0.0013607628643512,-0.0059018181636929,0.6677981615066528,0.7443177103996277,0.17731163027381,0.0029811671255408,7.839580325154398e-05,0.0023578645195811,-0.0455272644758224,-0.0540601462125778,-0.0009149108082056,-0.0059070391580462,0.2262561917304992,0.9740495681762696,0.0454912500170176,0.0160443927498084,0.0058307492823051,-0.1823611259460449,0.007227599620819,0.1425199508666992,186,75,15130,13985
18.0,1788429810042,5.211267471313477,4.901408672332764,0.0018527115462347,-0.005076955538243,0.6664276719093323,0.7455500960350037,0.1707829648396949,0.0005420195816913,-5.259941932701661e-05,-0.0019492130959406,0.0269270669668912,-0.0724431946873664,-0.0009007258340716,-0.0048516979441046,0.2233306318521499,0.9747303128242492,-0.0006666855695022,0.076381421380241,-0.0396260449910193,-0.2592604160308838,0.337058961391449,-0.2412452697753906,189,113,15726,14535
18.1,1788429810142,5.323943614959717,4.873239517211914,0.0021746028214693,-0.0051196212880313,0.6651108860969543,0.7467238306999207,0.1778870719908296,-0.0021776102539108,9.794442344401483e-05,0.0069007389247417,-0.0219466369599103,-0.0272383000701665,-0.0007761130109429,-0.0053248312324285,0.2211075276136398,0.9752345681190492,-0.0084146697315226,-0.0471119973006082,-0.0725734686622318,0.4026947617530823,-0.0702896118164062,0.1118535995483398,181,109,15353,14562
18.2,1788429810242,5.154929637908936,4.816901206970215,0.0016795857809484,-0.0040575247257947,0.6628393530845642,0.748748779296875,0.173328398975323,-0.0036570849877644,-8.010777531515249e-05,0.0167212169617414,0.0148987416177988,-0.0368953235447406,-0.0005145044997334,-0.0039381869137287,0.2186800241470337,0.9757885336875916,-0.0026435637793176,0.041475222496274,-0.0657090650440294,-0.2363106608390808,0.2581501603126526,-0.6618680953979492,176,110,15728,14593
18.3,1788429810342,5.070422649383545,4.957746505737305,0.0015398571267724,-0.003726502880454,0.6605525612831116,0.7507689595222473,0.1781554497881386,-0.0025828148278048,-4.7900603786865095e-05,0.0008919021929614,0.0073256753385066,-0.0505553930997848,-0.0005291970446705,-0.0038447082042694,0.2155954241752624,0.9764751195907592,-0.0024211402987136,0.0072167200844175,-0.0509550816618768,0.1206759214401245,0.0030715465545654,0.6289749145507812,159,99,16061,14274
18.4,1788429810442,5.014084339141846,4.732394218444824,0.001438237261027,-0.0035058995708823,0.6584974527359009,0.7525733709335327,0.1749427584580516,-4.999497873580758e-05,3.11552956164891e-05,0.0037992764264345,0.0013387628132477,-0.0736339911818504,-0.0003647431731224,-0.0040178745985031,0.212752878665924,0.9770976901054382,0.0045858048931817,-0.0091772118293192,-0.0592816804113426,-0.1148122549057006,-0.0565246939659118,-0.2800426483154297,151,118,16113,14990
18.5,1788429810542,4.732394218444824,5.098591327667236,0.0012620022753253,-0.0029995434451848,0.6565907001495361,0.754240095615387,0.170887601140209,-0.0010860574320101,-5.617698513045451e-05,0.0036305210087448,0.0216979291290044,-0.0345010496675968,-0.000402882695198,-0.0029907394200563,0.2115229815244674,0.977368414402008,-0.0013591449788383,0.0157929829156505,-0.0098590039713893,0.0663835406303405,-0.001152753829956,0.5354433059692383,132,104,16085,15082
18.6,1788429810642,4.8450703620910645,5.098591327667236,0.0009550135582685,-0.0023416387848556,0.6569922566413879,0.7538930773735046,0.1822617718878197,-0.0026140445443848,-2.262999595917045e-05,-0.0008043000707402,0.0044326507486402,0.0113745145499706,-0.0003707390278577,-0.0020219814032316,0.212064191699028,0.9772536754608154,-0.0008344416767524,0.0129298028014142,0.0063059183643603,0.1507940292358398,0.0765937566757202,-0.0522413253784179,84,101,15699,14837
18.7,1788429810742,4.732394218444824,5.126760482788086,0.0004773992113769,-0.0018475987017154,0.6568527817726135,0.7540164589881897,0.1772953744551639,-0.0016406776392289,2.8848056826226077e-06,0.0,-1.4479344390139202e-09,0.0,-0.0006855772808194,-0.0020794589072465,0.2120187878608703,0.9772632122039796,-0.0053160535276941,-0.0255198434078829,0.0079803728053189,0.0054271221160888,-0.0068621635437011,0.0849027633666992,115,102,15831,14610
18.8,1788429810842,5.070422649383545,5.126760482788086,0.0004773992113769,-0.0018475987017154,0.6568527817726135,0.7540164589881897,0.1775880688922979,0.0003629824092895,2.1900578883436647e-06,0.0,-1.168318108923927e-09,0.0,-0.0010789828374981,-0.0008448474109172,0.211910530924797,0.9772880673408508,0.0007525040192747,0.0597134668300286,-0.0104805181979424,-1.2423728704452517,-0.1841098666191101,1.436960220336914,31,135,13708,15660
18.9,1788429810942,5.464788913726807,5.239436626434326,0.0013368369545787,-0.0037628198042511,0.6575302481651306,0.7534174919128418,0.1725908828574731,0.0018533123981584,0.0004327983431394,-0.0102867241948843,-0.0784233137965202,0.0418823473155498,-0.0008133864030241,-0.0036529507488012,0.2139992266893386,0.9768267273902892,-0.0040965175624872,-0.0818009597805098,0.017749685211158,0.1587874889373779,-0.1321043372154235,0.496713638305664,97,73,13510,14207
19.0,1788429811042,5.211267471313477,5.014084339141846,0.0015253605088219,-0.0039039393886923,0.658150315284729,0.7528748512268066,0.1786139467726969,-0.0031505945650445,0.0003058029864615,0.0023614671081304,-0.04905641451478,-0.0022526155225932,-0.0005412511527538,-0.0036774277687072,0.2134567350149154,0.9769455194473268,0.0046629688475431,0.0377874184199211,-0.0138874756423101,-0.4204360246658325,0.1772220730781555,1.5298986434936523,160,115,14333,14832
19.1,1788429811142,4.704225540161133,5.267605781555176,0.0013363055186346,-0.0035530445165932,0.6579883694648743,0.7530184984207153,0.1698867372011348,-0.0017768418321993,3.857351918996927e-06,0.0,0.0,0.0,-0.0001657847315073,-0.0043819993734359,0.2139046937227249,0.9768447279930116,0.01064534205111,-0.0301242464921593,0.0354785592815416,0.1091407537460327,0.060446560382843,-0.7288913726806641,128,131,14841,15348
19.2,1788429811242,5.014084339141846,4.985915660858154,0.0026076002977788,-0.0040778801776468,0.6592885255813599,0.751874566078186,0.1774648909742618,0.0046954065063346,4.5081094024715e-05,0.0166370421648025,-0.0237076897174119,0.0446031391620636,-0.0004279259592294,-0.004726412706077,0.2146114706993103,0.976688027381897,-0.0412233261603915,0.029972246349595,-0.0331087724255311,0.1156854033470153,-0.0864937901496887,-0.8324317932128906,50,107,14931,15082
19.3,1788429811342,5.154929637908936,5.154929637908936,0.0020906650461256,-0.0058013959787786,0.6583344340324402,0.7527002692222595,0.1777641150900406,0.0006981303216389,0.0001167009573711,-0.0381110794842243,-0.0460899882018566,-0.031098086386919,-0.0009044921025633,-0.0055282535031437,0.2140645533800125,0.9768035411834716,0.0256440375045208,0.0220097653485896,0.0220352345533673,0.2444034814834594,0.0149168372154235,0.0862627029418945,82,104,14420,14753
19.4,1788429811442,4.985915660858154,5.267605781555176,0.0014583074953407,-0.0052957087755203,0.6586246490478516,0.7524516582489014,0.1762647163566564,-0.0028855009294898,-1.5688654434954998e-05,-0.0074865878559648,0.0051642223261296,0.013648210093379,-0.0012014331296086,-0.0050115408375859,0.2147706598043441,0.9766509532928468,0.0141455007817422,0.0240225423929138,0.0339431580838802,-0.2905269861221313,0.0386611819267272,1.0990934371948242,162,108,14296,15431
19.5,1788429811542,5.014084339141846,5.211267471313477,0.0012907175114378,-0.0047963066026568,0.6600213050842285,0.7512305378913879,0.1755946440389278,0.0007001222006905,-3.331555171176122e-06,-0.0043509127572178,0.0010335168335586,0.035749115049839,-0.0009739138185977,-0.0050084954127669,0.2176360040903091,0.9760167002677916,-0.0008329462080225,-0.0185376727536596,0.0413797029497521,-0.0121062397956848,0.3041867017745971,-0.0277976989746093,154,111,14149,15328
19.6,1788429811642,4.619718074798584,5.267605781555176,0.0017174117965623,-0.0047237128019332,0.6619082689285278,0.7495680451393127,0.1749437249840236,0.0010594104080919,3.542761229160594e-05,0.0087985023856163,-0.0103343436494469,0.0536024123430252,-0.0001603672280907,-0.0047333063557744,0.2196946591138839,0.975557267665863,0.0343762201852787,0.0182658202829401,0.0485187549583841,0.012926161289215,-0.1240578293800354,-1.029252052307129,152,123,15561,15050
19.7,1788429811742,4.732394218444824,5.098591327667236,0.0028875949792563,-0.0047398852184414,0.6634464859962463,0.7482032179832458,0.1837250712117476,0.0024352787666946,0.0001056455625669,0.0128914648666977,-0.0322943031787872,0.0390949733555316,0.00118790846318,-0.0059896670281887,0.2221008390188217,0.9750045537948608,0.0447112315559871,-0.0502916264870863,0.0937799955480105,0.0847604274749755,-0.1239317655563354,1.2685613632202148,74,94,14550,15941
19.8,1788429811842,4.253520965576172,5.6619720458984375,0.0018548768712207,-0.0044532185420393,0.6664738059043884,0.7455129027366638,0.1765668695575419,0.0022566893472515,-0.0003212343451736,-0.0366669967770576,0.0404237061738967,0.0790727883577346,-0.0007777716964483,-0.0044090077280998,0.2285775691270828,0.9735153913497924,-0.0031278555254197,0.0085154440824221,0.1805895405767958,0.2479419708251953,0.1285148859024047,0.4408235549926758,144,119,14287,16334
19.9,1788429811942,5.183098793029785,5.154929637908936,0.0008550677448511,-0.0040032677352428,0.6723208427429199,0.7402485609054565,0.174303907284584,0.0018953096402315,-5.661278344132853e-05,-0.0118574136868119,0.0251454133540391,0.1671802997589111,-0.0014300551265478,-0.003793210722506,0.2345299273729324,0.9721004962921144,-0.0091637588107889,0.0220073467659418,0.0643009144775132,0.0545167326927185,-0.1291984319686889,0.5136451721191406,128,107,14798,14367
20.0,1788429812042,5.098591327667236,5.014084339141846,0.0006737521616742,-0.0040201703086495,0.673690915107727,0.739001989364624,0.176061924777068,-0.0042784622778368,1.3837517262528453e-06,0.0010886950185522,0.0087452372536063,-0.0182004384696483,-0.0010388102382421,-0.0041294153779745,0.2336939871311187,0.9723008871078492,0.0148711831963049,-0.0272907204287555,-0.0125609790489646,0.2780567407608032,0.1780092120170593,0.2541141510009765,184,119,14849,14907
20.1,1788429812142,4.816901206970215,4.901408672332764,0.0011145571479573,-0.0033740885555744,0.6734651923179626,0.7392104864120483,0.1809579942313326,-0.0010078849351003,6.88365407640571e-07,0.0143440309911966,-0.0005095944507047,0.0017581626307219,-0.0004787500947713,-0.0031947791576385,0.23371422290802,0.9723000526428224,0.0031683433851986,0.0155583880232978,-0.0038912898286212,-0.2866315245628357,0.0048393011093139,-0.3896236419677734,160,113,15767,15289
20.2,1788429812242,4.873239517211914,5.014084339141846,0.0010381122119724,-0.0029211114160716,0.6734309792518616,0.7392435073852539,0.1727814140813475,-0.0033668555245166,-6.945576593501216e-05,0.0070224120281636,0.0109236678108572,-0.001351399696432,-0.0004887897521257,-0.0029745968058705,0.2331350147724151,0.972439706325531,0.0030853932501394,-0.0075952499783974,-0.0224277925749068,0.1162716746330261,0.0286734700202941,-0.2080545425415039,88,132,14378,16114
20.3,1788429812342,4.8450703620910645,5.070422649383545,0.0003694923361763,-0.0026447842828929,0.673357367515564,0.7393124103546143,0.1706994716186499,0.0006315153149202,-4.6610706036968896e-05,-0.0157209672033786,0.0296108350157737,0.0205281786620616,-0.001286900602281,-0.0023367274552583,0.2343212068080902,0.9721555709838868,-0.0143337353383123,0.0132406381877898,0.0274698461347029,-0.2217556238174438,-0.0850729346275329,-0.0648384094238281,119,109,15556,14896
20.4,1788429812442,4.901408672332764,5.211267471313477,-1.0851072147488594e-06,-0.0026676598936319,0.6739280819892883,0.7387921810150146,0.171351104396478,0.0006717478563283,-1.8087169144731325e-07,0.0,-1.453260844996862e-09,0.0,-0.0011648563668131,-0.0023413943126797,0.2355892956256866,0.971849262714386,0.0180095453437198,-0.0083917185665074,0.0652299295869958,0.1260578036308288,0.0633715987205505,0.0039005279541015,49,81,15001,14369
20.5,1788429812542,5.549295902252197,5.098591327667236,-0.0002095762174576,-0.0020770449191331,0.6754504442214966,0.7374024987220764,0.1773297886712298,-0.0003067442337295,-0.000102499504107,0.0056479685008525,0.0250696782022714,0.0366127304732799,-0.0013516740873456,-0.0011396622285246,0.2363487929105758,0.9716666340827942,-0.0018945094131977,0.0303217088942482,-0.0005858241396679,0.259563148021698,-0.0755634903907775,-0.5245370864868164,123,116,12641,15190
20.6,1788429812642,4.619718074798584,5.154929637908936,-0.0025584334507584,9.03347972780466e-06,0.6762904524803162,0.7366305589675903,0.1764040149981902,0.0007866235629461,-0.0004689207336796,-0.0079596685245633,0.0776543542742729,0.0334953367710113,-0.0014273831620812,-0.0018677012994885,0.2383610010147094,0.971173882484436,0.0029833448934426,-0.2189906123186174,0.0646708387587377,0.1609478592872619,-0.27618408203125,1.8871145248413088,212,110,16520,14500
20.7,1788429812742,4.676056385040283,5.042253494262695,-0.0005851431633345,-0.001996605657041,0.6773561239242554,0.7356522679328918,0.172395307285371,-0.0008646630906457,-0.0003732986614542,0.0041248211637139,0.0832770690321922,0.0211005322635173,-0.0015528900548815,-0.0013749692589044,0.2397342175245285,0.9708364009857178,-0.0064824794415662,0.0860733424410779,0.0076870955328653,-1.1542233228683472,-0.0354238748550415,2.329306602478028,123,110,16447,14818
20.8,1788429812842,5.464788913726807,5.014084339141846,-0.0004415547009557,-0.0021847675088793,0.6780659556388855,0.7349977493286133,0.1752850387032476,-0.0020000448760943,4.117972979641422e-06,-0.0006168343825265,-0.0010925150709226,0.0022475775331258,-0.0012416327372193,-0.0018333550542593,0.2394069284200668,0.9709168076515198,0.0029181349790367,-0.0249501763500568,-0.025264541994335,0.2950117588043213,0.0214597582817077,-0.9955835342407228,103,92,15461,13892
20.9,1788429812942,4.957746505737305,5.239436626434326,1.9074417650699612e-05,-0.0024734395556151,0.6772956848144531,0.7357067465782166,0.1775378938319091,-0.001372064528044,-4.2479543800721095e-06,-0.0007628581952303,-0.013965961523354,-0.0268158707767725,-0.0014322195202112,-0.0017345426604151,0.2388695627450943,0.9710490703582764,-0.0146076061037878,0.0233925962440101,0.0175166383395146,-0.1240894198417663,0.2734096646308899,0.0347890853881835,137,143,13971,15502
21.0,1788429813042,4.591549396514893,5.239436626434326,-0.0004627445014193,-0.0027977107092738,0.6785598397254944,0.7345396876335144,0.1743954050283516,0.002993353603013,6.158922509108409e-05,-0.0159249920397996,-0.0102433860301971,0.0624062679708004,-0.0019892500713467,-0.0020398441702127,0.24306121468544,0.9700067639350892,-0.0148682442704321,0.0042668249627436,0.0752563453030458,0.140900433063507,-0.1244168281555175,0.0770416259765625,87,99,15374,15268
21.1,1788429813142,4.507042407989502,5.239436626434326,-0.0009846223983913,-0.0037777922116219,0.681003212928772,0.7322700023651123,0.1777217098720115,-0.0002007416820782,3.952681875618391e-05,-0.0411418005824089,-0.0287038590759038,0.0295739490538835,-0.0027574049308896,-0.0021160673350095,0.2448201179504394,0.969562292098999,0.0260989251458331,0.0328503011288211,0.0623427800855285,0.1036750078201294,0.1265398859977722,0.3548145294189453,71,128,15750,15493
21.2,1788429813242,5.126760482788086,5.183098793029785,-0.0014895719941705,-0.0025660146493464,0.6832908987998962,0.730140209197998,0.174155581177323,-0.0010363524863189,-0.0001221869192183,0.0121064716950058,0.0176396649330854,0.0711449906229972,-0.0023456765338778,-0.0011265240609645,0.2479983121156692,0.9687570333480836,0.0179643219502298,0.0251233703015073,0.0745071838948022,-0.163465142250061,-0.2473146915435791,0.477391242980957,104,122,13727,15494
21.3,1788429813342,4.957746505737305,5.211267471313477,-0.0011227747891098,-0.0021233060397207,0.6858100891113281,0.7277765274047852,0.1805249073549614,0.0034399604913291,9.62504899284301e-05,0.0083524277433753,-0.012855633161962,0.0639382228255271,-0.0013657361268997,-0.0010453341528773,0.2509992122650146,0.96798574924469,0.0258145841317295,0.0081454877030132,0.0095909796834317,0.0581629872322082,-0.1964677572250366,-0.4148426055908203,181,86,15472,14082
21.4,1788429813442,4.957746505737305,5.070422649383545,-0.0002901715924963,-0.0016611581668257,0.686274528503418,0.7273406982421875,0.1768072170737423,-0.0018277865816992,2.1004134154201626e-07,0.0181594379246234,-0.006263583432883,-0.006029350683093,0.0004073241725564,-0.0024753222241997,0.2508248686790466,0.968029260635376,0.0660931472619725,-0.0833123490553337,0.0172887412616479,-0.0672186017036438,-0.1912192702293396,0.3739871978759765,138,70,15302,14348
21.5,1788429813542,4.760563373565674,5.098591327667236,0.0005504986038431,-0.0025190133601427,0.6855379939079285,0.7280322909355164,0.1720446924719233,-0.001456337445783,-0.0001209705794201,-0.052620280534029,0.026628240942955,-0.0622871927917003,-0.0010822834447026,-0.0023668445646762,0.2493025660514831,0.9684221148490906,-0.0081262433300153,0.0275229536501013,-0.0043349515867339,-0.4778231382369995,-0.2824210524559021,0.8079099655151367,115,136,15657,14980
21.6,1788429813642,4.788732528686523,4.985915660858154,0.0004459104966372,-0.0030463761650025,0.6854559779167175,0.7281075716018677,0.1763142607234459,-0.0012167405487184,5.73829571251598e-05,-0.0049347965978085,-0.0103008337318897,0.0050838640891015,-0.0008593956008553,-0.0029906658455729,0.249715968966484,0.9683142304420472,0.0123467873390807,-0.0105358163657313,0.0098627887970909,0.2125015258789062,-0.2108350992202758,-1.2374935150146484,113,93,15550,15095
21.7,1788429813742,5.126760482788086,5.014084339141846,0.0007563796825706,-0.0029036295600235,0.6859157085418701,0.7276748418807983,0.1742735715853978,0.0009828363909829,0.0001249731427779,0.0048526739701628,-0.0049637872725725,0.0120373181998729,-0.0005304012447595,-0.0028799464926123,0.2501543164253235,0.9682016372680664,0.0116365439923151,-0.0083663164543566,0.0083989435445188,0.3393450975418091,-0.3018660545349121,-0.1746959686279297,201,118,14726,14949
21.8,1788429813842,4.957746505737305,5.042253494262695,0.0009699973161332,-0.0027543641626834,0.6856794357299805,0.7278977036476135,0.1762519044491677,-0.0014263376249462,-8.533442598178516e-05,0.0034015376586467,0.0028720642440021,-0.004812161438167,-0.0007455069571733,-0.0027370508760213,0.2496208250522613,0.9683395624160768,-0.0149093236874911,0.0137352977163016,-0.0170050239342252,-0.1921356320381164,0.0861627459526062,0.0290088653564453,137,133,15283,14884
21.9,1788429813942,4.788732528686523,5.014084339141846,0.0005891033215448,-0.0028541241772472,0.6855675578117371,0.728003203868866,0.1732509641239995,-0.0017802281756948,-2.829655265204021e-06,-0.0052822437137365,0.0028880417812615,0.0086868833750486,-0.0011565908789634,-0.0028512179851531,0.2498113065958023,0.9682896137237548,-0.0013268202233039,0.0181919311585318,0.00351579046687,-0.1886207461357116,0.2036499381065368,0.3706092834472656,115,134,13295,14710
22.0,1788429814042,3.0985915660858154,5.014084339141846,2.009898889809847e-05,-0.0022241063416004,0.6865334510803223,0.727094829082489,0.1605314021054838,0.0017383880008845,-5.227103300395098e-05,0.012310947291553,0.0358137041330337,0.0494012795388698,-0.0012793941423296,-0.0019528502598404,0.2557450532913208,0.9667414426803588,-0.0104703652608913,0.015299358191716,0.2192726146720984,-0.6143839955329895,-0.0567696690559387,0.3320140838623047,37,120,10200,15335
22.1,1788429814142,2.676056385040283,4.760563373565674,0.0002102598082274,-0.0020535776857286,0.6962356567382812,0.7178102731704712,0.1347714336032908,-0.0001752686376123,4.957926990250148e-05,0.0193321797996759,-0.0034103102516382,0.3402107357978821,-0.0004699770361185,-0.0021658269688487,0.2702851891517639,0.9627777338027954,0.0101126701712279,-0.0230370043156903,0.3034296166099464,-0.2846821546554565,0.0915929675102233,0.8803329467773438,72,89,10155,13297
22.2,1788429814242,3.577464818954468,4.788732528686523,0.0003109984099864,-0.0018981110770255,0.7073259949684143,0.7068848609924316,0.129324269608992,-0.0027271067614878,3.415471468416262e-05,-0.0020350830163806,0.0114468084648251,0.2586824893951416,-0.0008072070777416,-0.001911555416882,0.2829237580299377,0.9591401815414428,-0.0084845343628597,0.0209774569731056,0.1283178254169423,-0.4194194674491882,-0.2764753699302673,0.1393346786499023,94,121,12600,13916
22.3,1788429814342,2.7887322902679443,3.802816867828369,0.000123438599985,-0.0018272560555487,0.7120845913887024,0.7020912170410156,0.1304431622414442,-0.0003166764028508,-4.532062863089392e-06,0.0053143897093832,0.0111620835959911,0.1288779377937317,-0.0009071342647075,-0.0021467693150043,0.2881166040897369,0.95759254693985,-0.012897876670497,-0.0449380868757333,0.1019540497609798,0.8970492482185364,0.1673669815063476,-0.0279417037963867,53,84,9537,11953
22.4,1788429814442,4.8450703620910645,5.492957592010498,-0.0003236977499909,-0.0020063663832843,0.716769814491272,0.6973068714141846,0.1379083269553393,0.0007672052112844,-3.1486566088108894e-05,-0.0068175056949257,0.0195245016366243,0.1545711755752563,-0.0009302450343966,-0.0024107713252305,0.2946281135082245,0.9556085467338562,0.0036506404342263,-0.1071982798254195,0.134365466503302,1.0896207094192505,0.0642051100730896,-4.509380340576172,143,108,15119,15917
22.5,1788429814542,4.647887229919434,5.239436626434326,-0.0001671751961112,-0.0026652368251234,0.719688892364502,0.6942915320396423,0.182164689422015,0.0011233804917915,-0.0002208725457289,-0.0115922670811414,0.0199149176478385,0.0413274951279163,-0.0014243200421333,-0.0022590095177292,0.2974125742912292,0.954745352268219,-0.010381658315359,0.0399703143025896,0.0476301867569049,0.535991907119751,0.1609554886817932,-1.786442756652832,92,111,15347,15216
22.6,1788429814642,5.098591327667236,5.239436626434326,-0.0006120507605373,-0.0022312763612717,0.7218902111053467,0.6920037269592285,0.1770381883700765,6.221905574001739e-05,-8.438365539898124e-05,-0.0004636184603441,0.0242710057646036,0.0660038143396377,-0.0013011144474148,-0.0016806740313768,0.3002414107322693,0.953860878944397,0.013086255119207,0.003580867201953,0.0635032987482883,0.1233405470848083,-0.192172884941101,0.67852783203125,86,113,13713,15265
22.7,1788429814742,5.183098793029785,5.183098793029785,-0.0002430313033983,-0.0022028530947864,0.7236414551734924,0.6901726126670837,0.1745563635712415,0.0045516021135853,3.920578015714745e-05,0.0002432155015412,-0.0233574490994215,0.0398995950818061,-0.0011866884306073,-0.001567774452269,0.3024429976940155,0.9531654119491576,0.006127157042192,0.0070254962148019,0.043930903908455,-0.0385360717773437,0.069564938545227,0.4959354400634765,87,104,13518,15347
22.8,1788429814842,5.267605781555176,4.957746505737305,-0.0002086259773932,-0.0017189749050885,0.7251461148262024,0.688592791557312,0.1728489011482608,0.0012070743233654,-7.221746362591176e-06,0.0086991246789693,0.0038200593553483,0.0401748605072498,-0.0007543163374066,-0.0018886588513851,0.3042146563529968,0.9526013135910034,0.0048080730909036,-0.0456046498868255,0.0292292504533021,0.0772116780281066,-0.0542392134666442,-0.5478496551513672,178,93,14471,15037
22.9,1788429814942,5.014084339141846,5.239436626434326,0.0002887049340642,-0.0021779425442218,0.7254335284233093,0.6882887482643127,0.1797926925152146,-0.0018220976556096,3.414777243357852e-05,-0.0034981127828359,-0.0113621605560183,-0.0111145330592989,-0.0007933489978313,-0.0028374455869197,0.3032556474208832,0.9529047608375548,0.0018363039118476,-0.051874824351456,-0.022696476443235,0.1959186792373657,-0.0717324018478393,0.3484706878662109,143,89,14816,13989
23.0,1788429815042,4.619718074798584,5.014084339141846,8.390005677938461e-05,-0.0030289106070995,0.7247565984725952,0.688998281955719,0.1785711487142705,-0.0010979078695731,1.3767693327028704e-05,-0.0441049188375473,-0.0063283811323344,-0.0489071421325206,-0.0012826267629861,-0.0022354228422045,0.3028665482997894,0.953029453754425,0.0388189542480892,0.1120642159847392,0.0299693143636147,0.0541087985038757,0.0692524313926696,-0.6463088989257812,180,140,16229,15097
23.1,1788429815142,4.8450703620910645,5.126760482788086,2.8031645342707634e-06,-0.0026672182139009,0.7247442007064819,0.6890128254890442,0.1773499419760708,-0.0004509136715478,-4.751440169204149e-06,0.0,-6.70617061881984e-10,0.0,-0.001094558276236,-0.002212256193161,0.3028384149074554,0.95303875207901,0.0101136650985973,-0.0221028891830579,-0.010093515252884,0.5492640733718872,-0.177703857421875,-1.0257596969604492,74,124,15635,14675
23.2,1788429815242,5.549295902252197,5.154929637908936,0.0001956564374268,-0.0021393296774476,0.7248089909553528,0.688946545124054,0.1759943380604819,-0.0021823465015845,1.868910531274335e-05,0.0093341181054711,-0.0046755950897932,0.0028668094892054,-0.0021418929100036,-0.001182441599667,0.3021570742130279,0.9532550573349,-0.0263207911232655,-0.0097005649172144,-0.0189749092288877,0.2651169896125793,-0.1067937016487121,0.3695077896118164,130,173,15900,15789
23.3,1788429815342,5.267605781555176,4.985915660858154,-0.0016555871115997,-0.0018935184925794,0.7244114875793457,0.6893631815910339,0.1772158555798076,0.0007680105416433,-8.008886396135047e-05,-0.0225113034248352,0.0137398224323987,-0.0039271651767194,-0.0026737246662378,-0.0011025620624423,0.3027088046073913,0.9530786871910096,-0.0130832314789753,0.0023713762581297,-0.0019597120997831,0.2083931565284729,-0.0101441144943237,-1.2214298248291016,142,108,14041,15077
23.4,1788429815442,4.394366264343262,5.492957592010498,-0.0016545879188925,-0.0020991247147321,0.7246261239051819,0.6891370415687561,0.1800133671761319,-0.0007528622278777,6.184167448671367e-07,0.0,-3.391851910450327e-09,0.0,-0.0028595365583896,-0.0005716402083635,0.3053765892982483,0.9522272348403932,-0.0088942753295303,0.0236775071662535,0.146298423615231,-0.5953357219696045,0.165136456489563,0.4187879562377929,78,169,13550,17036
23.5,1788429815542,4.985915660858154,5.183098793029785,-0.0022820434533059,-0.0017139096744358,0.7293723821640015,0.6841108798980713,0.174506110387443,0.0002357155233864,-3.084028140434306e-05,0.0039825243875384,0.0076541546732187,0.2095129638910293,-0.0028660651296377,-0.000264105387032,0.3118292987346649,0.9501338005065918,-0.0010053903956827,0.0208139972360119,0.0505723592983892,-0.5027334094047546,-0.3771624565124511,-0.3387184143066406,91,73,15388,13997
23.6,1788429815642,5.380281925201416,4.985915660858154,-0.0020303651690483,-0.0018201668281108,0.7309051752090454,0.6824737191200256,0.175373412101823,-0.0064417890497316,4.263934130311946e-05,0.0038719021249562,-0.012276167050004,-0.0111559210345149,-0.0025970013812184,-0.0013345461338758,0.3100772202014923,0.950706958770752,-0.0227085280946641,-0.0698232506198134,-0.0353051160613017,0.7259787321090698,0.1747176051139831,-1.3445320129394531,73,143,12749,16041
23.7,1788429815742,4.901408672332764,5.183098793029785,-0.0018045358592644,-0.00202939636074,0.7305571436882019,0.682846188545227,0.1757010762280739,0.0020708590047413,-9.967867008045624e-05,0.0072300657629966,0.0092111146077513,0.0387913882732391,-0.0027357898652553,-0.0002061761915683,0.3120171427726745,0.9500725269317628,0.0016718177994802,0.0490836886500058,0.0680472524369673,0.3026866912841797,-0.0851097702980041,-1.8608202934265137,178,113,13663,16263
23.8,1788429815842,4.760563373565674,5.408450603485107,-0.0025969252455979,-0.0011404433753341,0.7340967059135437,0.6790390014648438,0.1790622154885811,0.0009614581125142,-5.452043613110931e-05,0.0030331613961607,0.0138336215168237,0.1119472086429596,-0.0028498247265815,0.0004502013325691,0.3177157938480377,0.9481816291809082,0.0023480126503665,0.0184375620585973,0.0645856936442044,-0.6314342021942139,-0.4384938478469848,0.692051887512207,74,98,14901,14551
23.9,1788429815942,4.478873252868652,5.549295902252197,-0.0026265955530107,-0.000881002342794,0.7375568747520447,0.675279438495636,0.17190199109485,-0.0050374281610695,1.38115126501859e-05,0.0078091020695865,0.0076008294709026,0.1694952696561813,-0.0025023501366376,0.0001753782853484,0.3241862058639526,0.945990025997162,0.0030558953661538,-0.0381109030425097,0.1816244549761754,0.4718616604804992,0.0330090522766113,-0.1775350570678711,155,124,13574,16471
24.0,1788429816042,4.563380241394043,5.211267471313477,-0.0023923041298985,-0.0008679982856847,0.74324631690979,0.6690130829811096,0.1782463026385949,0.0034790256845605,2.863571041326663e-05,0.0023021348752081,-0.0041482369415462,0.1673140376806259,-0.0025594141334295,0.0010159518569707,0.3325086534023285,0.9430962204933168,0.0054674368344193,-0.0096109059461327,0.1504388487134606,0.3357918262481689,0.0900274515151977,-1.098796844482422,235,46,17635,13465
24.1,1788429816142,5.97183084487915,4.478873252868652,-0.0037915636785328,0.0010781892342492,0.7468876242637634,0.6649385690689087,0.1873190085991311,-6.27427720018711e-05,-0.0002051710805089,0.0144845759496092,0.0692842975258827,0.0693956166505813,-0.0019887816160917,0.0007918765768408,0.331333577632904,0.9435112476348876,0.0038551008521612,-0.1082909773623712,-0.1440923830319503,-0.8257031440734863,0.1090834736824035,6.2163496017456055,160,70,15512,12931
24.2,1788429816242,5.408450603485107,4.591549396514893,-0.0023208064958453,-0.0005979242851026,0.7401512265205383,0.6724361181259155,0.1662042368618577,-0.0009582878217487,-0.0002491014391272,-0.0153133021667599,0.0567465312778949,-0.2367003411054611,-0.0017344066873192,-0.0005796225741505,0.3218218684196472,0.94679856300354,0.0126550125550393,-0.1002396670847729,-0.2113014554973493,0.4636890292167663,-0.4737963676452636,-0.2381248474121093,54,110,16830,13225
24.3,1788429816342,5.85915470123291,4.591549396514893,-0.0011776096653193,-0.0012713599717244,0.7345448136329651,0.6785579919815063,0.1776111615250808,0.0052745220282412,8.676286358076736e-05,0.0093689626082777,-0.0363596938550472,-0.167507529258728,-0.0016634464263916,-0.0001604761928319,0.3126066029071808,0.9498811960220336,0.00400311170651,-0.02193888877245,-0.153084578450924,0.332567036151886,-0.1800673007965088,-0.7349386215209961,151,107,15200,13253
24.4,1788429816442,5.267605781555176,4.563380241394043,-0.0009898361749947,-0.0008200016454793,0.7293420433998108,0.6841479539871216,0.171426997256579,0.0003748355902738,1.9456231098646348e-05,0.0137754501774907,-0.0098625905811786,-0.1525683850049972,-0.0009104907512664,-0.0002230620011687,0.3059838712215423,0.9520362615585328,0.0115044983898153,-0.0014909293302773,-0.1488018898685617,-0.1312877535820007,-0.0890812277793884,-0.9072799682617188,77,103,17353,13323
24.5,1788429816542,5.408450603485107,4.450704097747803,-0.0004394523857627,-0.0009679697686806,0.7241653800010681,0.6896255612373352,0.1744849172748425,0.0006432121841875,2.3934516574760613e-05,-0.0016089557902887,-0.0154551118612289,-0.1624833941459655,-0.0008255597203969,-0.0010145502164959,0.2990656495094299,0.9542316794395448,-0.0025090809142477,-0.0173494103228995,-0.1513113153110162,-0.0251696705818176,0.0619446039199829,0.9431276321411132,152,93,16676,13714
24.6,1788429816642,5.802816867828369,4.591549396514893,-8.848891593515873e-05,-0.0026168744079768,0.7183415293693542,0.695685625076294,0.1728344107507559,0.0006815361934381,0.0001313642772839,-0.0265921168029308,-0.0357253924012184,-0.1502623856067657,-0.0015309946611523,-0.0025391867384314,0.2904609739780426,0.9568822979927064,-0.0082642079520192,0.0298679539329689,-0.1570377268532595,-0.685447096824646,0.1454898715019226,-0.037445068359375,176,102,15265,13336
24.7,1788429816742,5.154929637908936,4.788732528686523,0.0004840928595513,-0.0047217910178005,0.713050127029419,0.7010969519615173,0.17543062200086,0.0011851922020668,0.000198571678596,-0.0291159637272357,-0.0561168044805526,-0.1541540920734405,-0.0017066672444343,-0.0034455861896276,0.2856554985046386,0.958324670791626,0.0256697357976016,0.0058767158942172,-0.0430364243152161,-0.2514438033103943,0.0988729596138,1.735422134399414,66,154,15091,15225
24.8,1788429816842,4.422535419464111,5.6619720458984375,-0.0002036484656855,-0.0031971894204616,0.7122759222984314,0.7018923163414001,0.1751880785158391,-0.0012926841441562,-0.0001247652564633,0.0014624932082369,0.0312417298555374,-0.0002743485674727,-0.0013431217521429,-0.0018043871968984,0.2860999703407287,0.9581972360610962,0.0203197130984893,0.0585386455138378,0.0422005752615933,-0.153329849243164,0.1937659382820129,-1.617776870727539,119,109,13490,16462
24.9,1788429816942,5.154929637908936,5.126760482788086,0.000920825114008,-0.0021544792689383,0.716640830039978,0.6974384784698486,0.1714798680119491,0.0036699242259292,9.3047912792035e-05,0.0359588116407394,-0.0108891939744353,0.1978457272052765,-0.0006227418780326,-0.0014165313914418,0.2937059700489044,0.9558945298194884,-0.0168808305119386,0.1393074959171391,-0.0317364866826146,-1.2938369512557983,0.1330270767211914,3.4538726806640625,67,207,12241,17411
25.0,1788429817042,4.0,5.746479034423828,-0.0001664429437369,-0.0020237443968653,0.7189547419548035,0.6950538754463196,0.1756747379260952,0.0005409525377243,-0.00013180354214,-0.0172021444886922,0.0220998097211122,0.0257759392261505,-0.0013369992375373,-0.001404620707035,0.2980081439018249,0.9545613527297974,-0.0096276176238133,0.0132732704471116,0.1986732389124806,-0.5144481658935547,0.4491578936576843,0.9439706802368164,93,165,13283,18065
25.1,1788429817142,4.253520965576172,5.830986022949219,-0.0002431829925626,-0.0023883786052465,0.7253673076629639,0.6883578896522522,0.170571407010058,0.0025475298956169,5.447680477597087e-05,0.0079200500622391,0.0033580577000975,0.226437896490097,-0.001148547977209,-0.0029907515272498,0.3088019490242004,0.9511210322380066,-0.0061842713324333,-0.0686792310305545,0.2932660334114778,0.7274742126464844,0.458684504032135,-1.0347929000854492,219,98,14245,15736
25.2,1788429817242,4.816901206970215,5.380281925201416,0.000249165459536,-0.0032181292772293,0.7338846325874329,0.6792665123939514,0.1744571265371049,-0.0010811343570091,4.861422293585354e-05,-2.4346118152607232e-05,-0.0186363663524389,0.2040023207664489,-0.0012848554179072,-0.0034128278493881,0.3193357586860657,0.9476345777511596,0.0147636093987021,-0.0865582444348946,0.175912066584656,0.2373625636100769,0.0461200475692749,0.2949609756469726,77,130,12525,16786
25.3,1788429817342,4.253520965576172,5.521126747131348,-0.0002749550621956,-0.003216115059331,0.7397285103797913,0.6728976964950562,0.177404770656695,0.0031087021779632,-0.0001816523929299,-0.0069633056409657,0.0209988169372081,0.1718340367078781,-0.0016125589609146,-0.0018884157761931,0.3266603648662567,0.9451385736465454,0.0298245276417277,0.0542078890237745,0.1712876661184617,-0.0256828665733337,-0.0313068032264709,-2.3259644508361816,90,148,14002,17092
25.4,1788429817442,4.169013977050781,5.690140724182129,0.0003386342432349,-0.0027071915101259,0.7467330098152161,0.665118396282196,0.1774066614759319,0.0025929177974962,0.0001189974952077,0.0135455951094627,-0.0214853640645742,0.2272057831287384,-0.0012168437242507,-0.0020432472229003,0.3366295397281647,0.9416341781616212,-0.0008142669789705,0.0326710149302462,0.2414111357516544,-0.2200203537940979,-0.0665305256843566,-0.0235137939453125,207,75,14986,15587
25.5,1788429817542,4.985915660858154,5.6619720458984375,-0.0002916757948696,-0.0021137334406375,0.7519935965538025,0.6591668725013733,0.1690951297116848,0.0028483259888737,-6.094123753492421e-05,0.0041704541072249,0.0398138388991355,0.1466985344886779,-0.0013488084077835,-0.0011854898184537,0.3449377417564392,0.9386239051818848,-0.0028421435547005,0.0933778430547272,0.1309735415262444,-0.2676178812980652,-0.1642628312110901,-0.2483339309692382,111,116,12203,15892
25.6,1788429817642,4.8450703620910645,5.633802890777588,3.96528048440814e-05,-0.0020628031343221,0.7566946744918823,0.6537651419639587,0.1754315095279723,0.0034182556001187,6.360555286892249e-05,0.0063252644613385,-0.0137018887326121,0.1372715234756469,-0.0010060751810669,-0.0018331110477447,0.3507010638713836,0.9364851713180542,-0.0078324686833726,-0.0285467461978161,0.1345569393932192,0.3591982126235962,0.256844162940979,0.8557672500610352,120,109,12592,16000
25.7,1788429817742,4.535211086273193,5.436619758605957,-0.0001597984228283,-0.0021643708460032,0.761512041091919,0.6481471657752991,0.1785980435415961,0.0053534783444329,1.506074648802518e-05,-0.0006677210913039,-0.0007596486248075,0.1396550238132476,-0.001140403561294,-0.0020627956837415,0.3567306995391845,0.9342042207717896,-0.0042294345188853,-0.0130009879206561,0.1714332813572675,0.1679636240005493,-0.0157117843627929,-0.4812660217285156,58,99,13563,16628
25.8,1788429817842,4.056337833404541,5.521126747131348,-0.0008728896500542,-0.0014750452246516,0.7654621005058289,0.6434786915779114,0.1742446002909037,0.0024898819954937,-9.132784675697677e-05,0.0039580487646162,0.0507693625986576,0.1515334993600845,-0.0005495697259902,-0.0033454466611146,0.3652822077274322,0.930890679359436,-0.0181613335179336,-0.1319975827866586,0.1524749154721967,0.0147868990898132,0.136271595954895,-0.0263881683349609,181,175,15558,16699
25.9,1788429817942,4.478873252868652,5.577464580535889,-0.0007151300669647,-0.0021894827950745,0.7706962823867798,0.6371984481811523,0.1728738588122596,0.0057523269193563,-0.0001054782146206,-0.0181833505630493,0.0939758867025375,0.1375201344490051,-0.0013995124027132,-0.0024715838953852,0.3714232742786407,0.9284593462944032,0.0258017879427054,-0.091014264196094,0.1364624635281165,0.108485996723175,0.2731523513793945,1.4359121322631836,44,116,13597,16209
26.0,1788429818042,4.816901206970215,5.211267471313477,-0.0005072852363809,-0.0021308427676558,0.7756775617599487,0.6311254501342773,0.1716792039425823,0.0023855715327347,-0.0001794417404382,0.0080529619008302,0.0223658643662929,0.1586670279502868,-0.001682236790657,-0.0009658904746174,0.3774798810482025,0.9260157346725464,0.0016808969849569,0.0530705318007148,0.1130624159435415,-0.0210608839988708,-0.158838152885437,-0.4745540618896484,166,100,15087,15047
26.1,1788429818142,4.901408672332764,4.929577350616455,-0.0010062644723802,-0.0014867407735437,0.7780669331550598,0.6281788349151611,0.1748793289123209,-0.0002258552137566,-4.264733730228567e-06,0.0050972611643373,0.0027077938430011,0.0501420609652996,-0.0015100613236427,-0.0007467372342944,0.3785498142242431,0.9255793690681458,0.0087566865712602,-0.0025266456601064,-0.0514605044217179,0.1109722852706909,-0.4565626382827759,-0.3890628814697265,153,91,16889,13839
26.2,1788429818242,4.957746505737305,4.901408672332764,-0.0008994461968541,-0.0011733779683709,0.7765026688575745,0.6301122903823853,0.1773784701905489,-0.0021231286584994,-3.647134250752072e-05,0.0075708469375967,-0.0014805395621806,-0.0857969373464584,-0.0016318568959832,-0.0003547184169292,0.3751269578933716,0.926971971988678,-0.0148109997896884,0.0166039730391791,-0.0877418731855441,-0.0716745853424072,0.0767187476158142,0.11334228515625,126,127,16333,14335
26.3,1788429818342,4.957746505737305,4.929577350616455,-0.0015510281082242,-0.0002949099289253,0.7751001119613647,0.6318365335464478,0.174741681589384,-0.0011964889828638,-0.00013402370538,0.0175464358180761,0.0404015555977821,-0.0155122280120849,-0.001605350524187,0.0003248080611228,0.3734376430511474,0.9276539087295532,0.0011455318302663,-0.0010977675913582,-0.0606861557635758,-0.2212745547294616,-0.1087732911109924,0.2852563858032226,114,93,16350,14267
26.4,1788429818442,5.014084339141846,4.929577350616455,-0.0014072051271796,-0.0005118880071677,0.7732057571411133,0.6341533660888672,0.174468539190428,0.0012452633566785,3.630518760601563e-06,0.0032549109309911,-0.0052118361927568,-0.0716186985373497,-0.0016819881275296,0.0004698177799582,0.3708484172821045,0.928691864013672,-0.0061350866874158,0.0250994016740578,-0.0667725333978309,-0.3186739683151245,0.0717090964317321,0.0953025817871093,154,144,15020,14559
26.5,1788429818542,5.070422649383545,4.873239517211914,-0.0010042248759418,-0.0018891890067607,0.7708218097686768,0.6370471715927124,0.171131186712493,0.0009260927183621,0.0001229458062015,-0.0162758789956569,-0.0573762282729148,-0.0772023797035217,-0.0035145208239555,0.0009452188387513,0.3662124872207641,0.9305241107940674,-0.0393271347497737,0.0698082632537911,-0.0794564055839903,0.0602002739906311,-0.0976506471633911,0.8440828323364258,73,147,16044,15241
26.6,1788429818642,5.126760482788086,4.8450703620910645,-0.0031592552550137,-0.0005185012705624,0.7691301703453064,0.6390841603279114,0.1817784920281037,-0.0002296264852716,-7.05129097783118e-05,0.0164127480238676,-5.516687815543264e-05,-0.0304397139698267,-0.0033750981092453,0.0014666337519884,0.3649776875972748,0.93100905418396,-0.0127096703065527,0.0344787887572005,-0.060492357172717,-0.5403164029121399,0.2672458291053772,1.1106595993041992,99,118,15637,14631
26.7,1788429818742,4.732394218444824,5.183098793029785,-0.0038440776988863,-0.0006654715398326,0.7675014138221741,0.6410354971885681,0.171509585026526,-0.0026611205919001,0.0001233270623827,-0.0126882856711745,-0.0032872895244508,-0.0473702885210514,-0.004046537913382,0.0011411318555474,0.3635401725769043,0.9315690398216248,-0.025486147525165,0.0222428387237083,0.0409487856307715,-0.541387140750885,0.3443210124969482,0.5792570114135742,100,115,14372,15735
26.8,1788429818842,4.816901206970215,5.211267471313477,-0.0039988085627555,-0.0010556122288107,0.7685230374336243,0.6398088335990906,0.1667552718344278,0.0062038301881053,-9.800478162728834e-05,-0.0042030466720461,0.006288384553045,0.0642040520906448,-0.0041940212249755,0.001505029387772,0.3660843074321747,0.9305710196495056,0.004124838241306,0.0051534972872639,0.0479977855710606,-0.388129711151123,-0.0624635815620422,0.8980159759521484,51,105,14516,15497
26.9,1788429818942,5.267605781555176,5.267605781555176,-0.0049148346297442,-0.0003990132827311,0.7702488899230957,0.6377243399620056,0.1745823444612776,0.0006509465288841,-9.328979653359812e-05,-0.0039591137319803,0.0233630742877721,0.0581184513866901,-0.0048334058374166,0.0018482087180018,0.3685835897922516,0.9295802712440492,-0.0200933796195592,0.0101905572260955,0.0562191475105741,-0.0158852338790893,-0.0160529017448425,0.3182210922241211,116,129,13290,14739
27.0,1788429819042,4.929577350616455,4.873239517211914,-0.004803386516869,-0.000993566121906,0.7713770270347595,0.6363593935966492,0.1814796689615021,-0.0008488293753007,-2.112623982142554e-05,-0.0021622977219522,-0.0154815427958965,0.0023758984170854,-0.0044147903099656,0.0012422278523445,0.3683594167232513,0.9296721816062928,0.00784116512842,-0.0215439436269678,-0.0221748415748802,0.2341272830963134,0.0261744856834411,0.0973882675170898,156,107,15407,15201
27.1,1788429819142,4.732394218444824,5.098591327667236,-0.0045312475413084,-0.0008545074379071,0.770781934261322,0.6370824575424194,0.1694375579391992,0.0005791310662967,-1.4929220588133607e-05,0.0049073295667767,0.0080784112215042,-0.0075081791728734,-0.0045429468154907,0.0012543303892016,0.3683294355869293,0.9296833872795104,0.0014829743567583,-0.0096467748868147,0.0093177125435706,0.1116122603416442,-0.0286512374877929,-0.7666940689086914,134,105,15853,14821
27.2,1788429819242,5.436619758605957,5.126760482788086,-0.0046966522932052,-0.0012511087115854,0.7709263563156128,0.6369057297706604,0.1791975535781543,-0.0001935042846976,4.658520098224575e-05,-0.0078420592471957,-0.0023701731115579,0.0066866120323538,-0.0045648282393813,0.0016646664589643,0.3684346377849579,0.9296409487724304,0.0202666520449961,0.017808349373569,0.0034544171813952,0.2017534375190735,-0.039392352104187,-0.3787050247192383,145,110,16565,14805
