time_s,timestamp_ms,wheel_vels__velocity_left,wheel_vels__velocity_right,odom__orient_x,odom__orient_y,odom__orient_z,odom__orient_w,odom__lin_x,odom__lin_y,odom__lin_z,odom__ang_x,odom__ang_y,odom__ang_z,imu__orient_x,imu__orient_y,imu__orient_z,imu__orient_w,imu__angvel_x,imu__angvel_y,imu__angvel_z,imu__acc_x,imu__acc_y,imu__acc_z,wheel_status__current_ma_left,wheel_status__current_ma_right,wheel_status__pwm_left,wheel_status__pwm_right
0.0,1788445432068,0.0,0.0,-0.0034547676332294,0.0002289486583322,0.5379962921142578,0.8429401516914368,8.453477283486892e-05,-8.957391051489668e-05,-1.44934743384934e-07,0.0001063902600435,-0.0020140390843153,0.0007509702118113,-0.003289183601737,0.0010489597916603,0.3209663331508636,0.9470843076705932,-0.0002285887683737,-0.0011972841433225,-0.0004950015061756,-0.0113540887832641,-0.0092878341674804,0.0269203186035156,0,0,0,0
0.1,1788445432168,0.0,0.0,-0.0034547676332294,0.0002289486583322,0.5379962921142578,0.8429401516914368,8.453477283486892e-05,-8.957391051489668e-05,-1.44934743384934e-07,0.0001063902600435,-0.0020140390843153,0.0007509702118113,-0.003289183601737,0.0010489597916603,0.3209663331508636,0.9470843076705932,-0.0002285887683737,-0.0011972841433225,-0.0004950015061756,-0.0113540887832641,-0.0092878341674804,0.0269203186035156,0,0,0,0
0.2,1788445432268,0.0,0.0,-0.0034547676332294,0.0002289486583322,0.5379962921142578,0.8429401516914368,8.453477283486892e-05,-8.957391051489668e-05,-1.44934743384934e-07,0.0001063902600435,-0.0020140390843153,0.0007509702118113,-0.003289183601737,0.0010489597916603,0.3209663331508636,0.9470843076705932,-0.0002285887683737,-0.0011972841433225,-0.0004950015061756,-0.0113540887832641,-0.0092878341674804,0.0269203186035156,0,0,0,0
0.3,1788445432368,0.0,0.0,-0.0034547676332294,0.0002289486583322,0.5379962921142578,0.8429401516914368,8.453477283486892e-05,-8.957391051489668e-05,-1.44934743384934e-07,0.0001063902600435,-0.0020140390843153,0.0007509702118113,-0.003289183601737,0.0010489597916603,0.3209663331508636,0.9470843076705932,-0.0002285887683737,-0.0011972841433225,-0.0004950015061756,-0.0113540887832641,-0.0092878341674804,0.0269203186035156,0,0,0,0
0.4,1788445432468,0.0,0.0,-0.0034547676332294,0.0002289486583322,0.5379962921142578,0.8429401516914368,8.453477283486892e-05,-8.957391051489668e-05,-1.44934743384934e-07,0.0001063902600435,-0.0020140390843153,0.0007509702118113,-0.003289183601737,0.0010489597916603,0.3209663331508636,0.9470843076705932,-0.0002285887683737,-0.0011972841433225,-0.0004950015061756,-0.0113540887832641,-0.0092878341674804,0.0269203186035156,0,0,0,0
0.5,1788445432568,0.0,0.0,-0.0034547676332294,0.0002289486583322,0.5379962921142578,0.8429401516914368,8.453477283486892e-05,-8.957391051489668e-05,-1.44934743384934e-07,0.0001063902600435,-0.0020140390843153,0.0007509702118113,-0.003289183601737,0.0010489597916603,0.3209663331508636,0.9470843076705932,-0.0002285887683737,-0.0011972841433225,-0.0004950015061756,-0.0113540887832641,-0.0092878341674804,0.0269203186035156,0,0,0,0
0.6,1788445432668,0.0,0.0,-0.0034547676332294,0.0002289486583322,0.5379962921142578,0.8429401516914368,8.453477283486892e-05,-8.957391051489668e-05,-1.44934743384934e-07,0.0001063902600435,-0.0020140390843153,0.0007509702118113,-0.003289183601737,0.0010489597916603,0.3209663331508636,0.9470843076705932,-0.0002285887683737,-0.0011972841433225,-0.0004950015061756,-0.0113540887832641,-0.0092878341674804,0.0269203186035156,0,0,0,0
0.7,1788445432768,0.0,0.0,-0.0034547676332294,0.0002289486583322,0.5379962921142578,0.8429401516914368,8.453477283486892e-05,-8.957391051489668e-05,-1.44934743384934e-07,0.0001063902600435,-0.0020140390843153,0.0007509702118113,-0.003289183601737,0.0010489597916603,0.3209663331508636,0.9470843076705932,-0.0002285887683737,-0.0011972841433225,-0.0004950015061756,-0.0113540887832641,-0.0092878341674804,0.0269203186035156,0,0,0,0
0.8,1788445432868,0.0,0.0,-0.0034547676332294,0.0002289486583322,0.5379962921142578,0.8429401516914368,8.453477283486892e-05,-8.957391051489668e-05,-1.44934743384934e-07,0.0001063902600435,-0.0020140390843153,0.0007509702118113,-0.003289183601737,0.0010489597916603,0.3209663331508636,0.9470843076705932,-0.0002285887683737,-0.0011972841433225,-0.0004950015061756,-0.0113540887832641,-0.0092878341674804,0.0269203186035156,0,0,0,0
0.9,1788445432968,0.0,0.0,-0.0034547676332294,0.0002289486583322,0.5379962921142578,0.8429401516914368,8.453477283486892e-05,-8.957391051489668e-05,-1.44934743384934e-07,0.0001063902600435,-0.0020140390843153,0.0007509702118113,-0.003289183601737,0.0010489597916603,0.3209663331508636,0.9470843076705932,-0.0002285887683737,-0.0011972841433225,-0.0004950015061756,-0.0113540887832641,-0.0092878341674804,0.0269203186035156,0,0,0,0
1.0,1788445433068,0.0,0.0,-0.0034547676332294,0.0002289486583322,0.5379962921142578,0.8429401516914368,8.453477283486892e-05,-8.957391051489668e-05,-1.44934743384934e-07,0.0001063902600435,-0.0020140390843153,0.0007509702118113,-0.003289183601737,0.0010489597916603,0.3209663331508636,0.9470843076705932,-0.0002285887683737,-0.0011972841433225,-0.0004950015061756,-0.0113540887832641,-0.0092878341674804,0.0269203186035156,0,0,0,0
1.1,1788445433168,0.0,0.0,-0.0034547676332294,0.0002289486583322,0.5379962921142578,0.8429401516914368,8.453477283486892e-05,-8.957391051489668e-05,-1.44934743384934e-07,0.0001063902600435,-0.0020140390843153,0.0007509702118113,-0.003289183601737,0.0010489597916603,0.3209663331508636,0.9470843076705932,-0.0002285887683737,-0.0011972841433225,-0.0004950015061756,-0.0113540887832641,-0.0092878341674804,0.0269203186035156,0,0,0,0
1.2,1788445433268,0.0,0.0,-0.0034547676332294,0.0002289486583322,0.5379962921142578,0.8429401516914368,8.453477283486892e-05,-8.957391051489668e-05,-1.44934743384934e-07,0.0001063902600435,-0.0020140390843153,0.0007509702118113,-0.003289183601737,0.0010489597916603,0.3209663331508636,0.9470843076705932,-0.0002285887683737,-0.0011972841433225,-0.0004950015061756,-0.0113540887832641,-0.0092878341674804,0.0269203186035156,0,0,0,0
1.3,1788445433368,0.0,0.0,-0.0034547676332294,0.0002289486583322,0.5379962921142578,0.8429401516914368,8.453477283486892e-05,-8.957391051489668e-05,-1.44934743384934e-07,0.0001063902600435,-0.0020140390843153,0.0007509702118113,-0.003289183601737,0.0010489597916603,0.3209663331508636,0.9470843076705932,-0.0002285887683737,-0.0011972841433225,-0.0004950015061756,-0.0113540887832641,-0.0092878341674804,0.0269203186035156,0,0,0,0
1.4,1788445433468,0.0,0.0,-0.0034547676332294,0.0002289486583322,0.5379962921142578,0.8429401516914368,8.453477283486892e-05,-8.957391051489668e-05,-1.44934743384934e-07,0.0001063902600435,-0.0020140390843153,0.0007509702118113,-0.003289183601737,0.0010489597916603,0.3209663331508636,0.9470843076705932,-0.0002285887683737,-0.0011972841433225,-0.0004950015061756,-0.0113540887832641,-0.0092878341674804,0.0269203186035156,0,0,0,0
1.5,1788445433568,0.0,0.0,-0.0034547676332294,0.0002289486583322,0.5379962921142578,0.8429401516914368,8.453477283486892e-05,-8.957391051489668e-05,-1.44934743384934e-07,0.0001063902600435,-0.0020140390843153,0.0007509702118113,-0.003289183601737,0.0010489597916603,0.3209663331508636,0.9470843076705932,-0.0002285887683737,-0.0011972841433225,-0.0004950015061756,-0.0113540887832641,-0.0092878341674804,0.0269203186035156,0,0,0,0
1.6,1788445433668,0.0,0.0,-0.0034547676332294,0.0002289486583322,0.5379962921142578,0.8429401516914368,8.453477283486892e-05,-8.957391051489668e-05,-1.44934743384934e-07,0.0001063902600435,-0.0020140390843153,0.0007509702118113,-0.003289183601737,0.0010489597916603,0.3209663331508636,0.9470843076705932,-0.0002285887683737,-0.0011972841433225,-0.0004950015061756,-0.0113540887832641,-0.0092878341674804,0.0269203186035156,0,0,0,0
1.7,1788445433768,0.0,0.0,-0.0034547676332294,0.0002289486583322,0.5379962921142578,0.8429401516914368,8.453477283486892e-05,-8.957391051489668e-05,-1.44934743384934e-07,0.0001063902600435,-0.0020140390843153,0.0007509702118113,-0.003289183601737,0.0010489597916603,0.3209663331508636,0.9470843076705932,-0.0002285887683737,-0.0011972841433225,-0.0004950015061756,-0.0113540887832641,-0.0092878341674804,0.0269203186035156,0,0,0,0
1.8,1788445433868,0.0,0.0,-0.0034547676332294,0.0002289486583322,0.5379962921142578,0.8429401516914368,8.453477283486892e-05,-8.957391051489668e-05,-1.44934743384934e-07,0.0001063902600435,-0.0020140390843153,0.0007509702118113,-0.003289183601737,0.0010489597916603,0.3209663331508636,0.9470843076705932,-0.0002285887683737,-0.0011972841433225,-0.0004950015061756,-0.0113540887832641,-0.0092878341674804,0.0269203186035156,0,0,0,0
1.9,1788445433968,0.0,0.0,-0.0034547676332294,0.0002289486583322,0.5379962921142578,0.8429401516914368,8.453477283486892e-05,-8.957391051489668e-05,-1.44934743384934e-07,0.0001063902600435,-0.0020140390843153,0.0007509702118113,-0.003289183601737,0.0010489597916603,0.3209663331508636,0.9470843076705932,-0.0002285887683737,-0.0011972841433225,-0.0004950015061756,-0.0113540887832641,-0.0092878341674804,0.0269203186035156,0,0,0,0
2.0,1788445434068,0.0,0.0,-0.0034547676332294,0.0002289486583322,0.5379962921142578,0.8429401516914368,8.453477283486892e-05,-8.957391051489668e-05,-1.44934743384934e-07,0.0001063902600435,-0.0020140390843153,0.0007509702118113,-0.003289183601737,0.0010489597916603,0.3209663331508636,0.9470843076705932,-0.0002285887683737,-0.0011972841433225,-0.0004950015061756,-0.0113540887832641,-0.0092878341674804,0.0269203186035156,0,0,0,0
2.1,1788445434168,0.0,0.0,-0.0034547676332294,0.0002289486583322,0.5379962921142578,0.8429401516914368,8.453477283486892e-05,-8.957391051489668e-05,-1.44934743384934e-07,0.0001063902600435,-0.0020140390843153,0.0007509702118113,-0.003289183601737,0.0010489597916603,0.3209663331508636,0.9470843076705932,-0.0002285887683737,-0.0011972841433225,-0.0004950015061756,-0.0113540887832641,-0.0092878341674804,0.0269203186035156,0,0,0,0
2.2,1788445434268,0.0,0.0,-0.0034547676332294,0.0002289486583322,0.5379962921142578,0.8429401516914368,8.453477283486892e-05,-8.957391051489668e-05,-1.44934743384934e-07,0.0001063902600435,-0.0020140390843153,0.0007509702118113,-0.003289183601737,0.0010489597916603,0.3209663331508636,0.9470843076705932,-0.0002285887683737,-0.0011972841433225,-0.0004950015061756,-0.0113540887832641,-0.0092878341674804,0.0269203186035156,0,0,0,0
2.3,1788445434368,0.0,0.0,-0.0034547676332294,0.0002289486583322,0.5379962921142578,0.8429401516914368,8.453477283486892e-05,-8.957391051489668e-05,-1.44934743384934e-07,0.0001063902600435,-0.0020140390843153,0.0007509702118113,-0.003289183601737,0.0010489597916603,0.3209663331508636,0.9470843076705932,-0.0002285887683737,-0.0011972841433225,-0.0004950015061756,-0.0113540887832641,-0.0092878341674804,0.0269203186035156,0,0,0,0
2.4,1788445434468,0.0,0.0,-0.0034547676332294,0.0002289486583322,0.5379962921142578,0.8429401516914368,8.453477283486892e-05,-8.957391051489668e-05,-1.44934743384934e-07,0.0001063902600435,-0.0020140390843153,0.0007509702118113,-0.003289183601737,0.0010489597916603,0.3209663331508636,0.9470843076705932,-0.0002285887683737,-0.0011972841433225,-0.0004950015061756,-0.0113540887832641,-0.0092878341674804,0.0269203186035156,0,0,0,0
2.5,1788445434568,0.0,0.0,-0.0034547676332294,0.0002289486583322,0.5379962921142578,0.8429401516914368,8.453477283486892e-05,-8.957391051489668e-05,-1.44934743384934e-07,0.0001063902600435,-0.0020140390843153,0.0007509702118113,-0.003289183601737,0.0010489597916603,0.3209663331508636,0.9470843076705932,-0.0002285887683737,-0.0011972841433225,-0.0004950015061756,-0.0113540887832641,-0.0092878341674804,0.0269203186035156,0,0,0,0
2.6,1788445434668,0.0,0.0,-0.0034547676332294,0.0002289486583322,0.5379962921142578,0.8429401516914368,8.453477283486892e-05,-8.957391051489668e-05,-1.44934743384934e-07,0.0001063902600435,-0.0020140390843153,0.0007509702118113,-0.003289183601737,0.0010489597916603,0.3209663331508636,0.9470843076705932,-0.0002285887683737,-0.0011972841433225,-0.0004950015061756,-0.0113540887832641,-0.0092878341674804,0.0269203186035156,0,0,0,0
2.7,1788445434768,0.0,0.0,-0.0034547676332294,0.0002289486583322,0.5379962921142578,0.8429401516914368,8.453477283486892e-05,-8.957391051489668e-05,-1.44934743384934e-07,0.0001063902600435,-0.0020140390843153,0.0007509702118113,-0.003289183601737,0.0010489597916603,0.3209663331508636,0.9470843076705932,-0.0002285887683737,-0.0011972841433225,-0.0004950015061756,-0.0113540887832641,-0.0092878341674804,0.0269203186035156,0,0,0,0
2.8,1788445434868,0.0,0.0,-0.0034547676332294,0.0002289486583322,0.5379962921142578,0.8429401516914368,8.453477283486892e-05,-8.957391051489668e-05,-1.44934743384934e-07,0.0001063902600435,-0.0020140390843153,0.0007509702118113,-0.003289183601737,0.0010489597916603,0.3209663331508636,0.9470843076705932,-0.0002285887683737,-0.0011972841433225,-0.0004950015061756,-0.0113540887832641,-0.0092878341674804,0.0269203186035156,0,0,0,0
2.9,1788445434968,0.0,0.0,-0.0034547676332294,0.0002289486583322,0.5379962921142578,0.8429401516914368,8.453477283486892e-05,-8.957391051489668e-05,-1.44934743384934e-07,0.0001063902600435,-0.0020140390843153,0.0007509702118113,-0.003289183601737,0.0010489597916603,0.3209663331508636,0.9470843076705932,-0.0002285887683737,-0.0011972841433225,-0.0004950015061756,-0.0113540887832641,-0.0092878341674804,0.0269203186035156,0,0,0,0
3.0,1788445435068,0.0,0.0,-0.0034547676332294,0.0002289486583322,0.5379962921142578,0.8429401516914368,8.453477283486892e-05,-8.957391051489668e-05,-1.44934743384934e-07,0.0001063902600435,-0.0020140390843153,0.0007509702118113,-0.003289183601737,0.0010489597916603,0.3209663331508636,0.9470843076705932,-0.0002285887683737,-0.0011972841433225,-0.0004950015061756,-0.0113540887832641,-0.0092878341674804,0.0269203186035156,0,0,0,0
3.1,1788445435168,0.0,0.0,-0.0034547676332294,0.0002289486583322,0.5379962921142578,0.8429401516914368,8.453477283486892e-05,-8.957391051489668e-05,-1.44934743384934e-07,0.0001063902600435,-0.0020140390843153,0.0007509702118113,-0.003289183601737,0.0010489597916603,0.3209663331508636,0.9470843076705932,-0.0002285887683737,-0.0011972841433225,-0.0004950015061756,-0.0113540887832641,-0.0092878341674804,0.0269203186035156,0,0,0,0
3.2,1788445435268,0.0,0.0,-0.0034547676332294,0.0002289486583322,0.5379962921142578,0.8429401516914368,8.453477283486892e-05,-8.957391051489668e-05,-1.44934743384934e-07,0.0001063902600435,-0.0020140390843153,0.0007509702118113,-0.003289183601737,0.0010489597916603,0.3209663331508636,0.9470843076705932,-0.0002285887683737,-0.0011972841433225,-0.0004950015061756,-0.0113540887832641,-0.0092878341674804,0.0269203186035156,0,0,0,0
3.3,1788445435368,0.0,0.0,-0.0034547676332294,0.0002289486583322,0.5379962921142578,0.8429401516914368,8.453477283486892e-05,-8.957391051489668e-05,-1.44934743384934e-07,0.0001063902600435,-0.0020140390843153,0.0007509702118113,-0.003289183601737,0.0010489597916603,0.3209663331508636,0.9470843076705932,-0.0002285887683737,-0.0011972841433225,-0.0004950015061756,-0.0113540887832641,-0.0092878341674804,0.0269203186035156,0,0,0,0
3.4,1788445435468,0.0,0.0,-0.0034547676332294,0.0002289486583322,0.5379962921142578,0.8429401516914368,8.453477283486892e-05,-8.957391051489668e-05,-1.44934743384934e-07,0.0001063902600435,-0.0020140390843153,0.0007509702118113,-0.003289183601737,0.0010489597916603,0.3209663331508636,0.9470843076705932,-0.0002285887683737,-0.0011972841433225,-0.0004950015061756,-0.0113540887832641,-0.0092878341674804,0.0269203186035156,0,0,0,0
3.5,1788445435568,0.0,0.0,-0.0034547676332294,0.0002289486583322,0.5379962921142578,0.8429401516914368,8.453477283486892e-05,-8.957391051489668e-05,-1.44934743384934e-07,0.0001063902600435,-0.0020140390843153,0.0007509702118113,-0.003289183601737,0.0010489597916603,0.3209663331508636,0.9470843076705932,-0.0002285887683737,-0.0011972841433225,-0.0004950015061756,-0.0113540887832641,-0.0092878341674804,0.0269203186035156,0,0,0,0
3.6,1788445435668,0.0,0.0,-0.0034547676332294,0.0002289486583322,0.5379962921142578,0.8429401516914368,8.453477283486892e-05,-8.957391051489668e-05,-1.44934743384934e-07,0.0001063902600435,-0.0020140390843153,0.0007509702118113,-0.003289183601737,0.0010489597916603,0.3209663331508636,0.9470843076705932,-0.0002285887683737,-0.0011972841433225,-0.0004950015061756,-0.0113540887832641,-0.0092878341674804,0.0269203186035156,0,0,0,0
3.7,1788445435768,0.0,0.0,-0.0034547676332294,0.0002289486583322,0.5379962921142578,0.8429401516914368,8.453477283486892e-05,-8.957391051489668e-05,-1.44934743384934e-07,0.0001063902600435,-0.0020140390843153,0.0007509702118113,-0.003289183601737,0.0010489597916603,0.3209663331508636,0.9470843076705932,-0.0002285887683737,-0.0011972841433225,-0.0004950015061756,-0.0113540887832641,-0.0092878341674804,0.0269203186035156,0,0,0,0
3.8,1788445435868,0.0,0.0,-0.0034547676332294,0.0002289486583322,0.5379962921142578,0.8429401516914368,8.453477283486892e-05,-8.957391051489668e-05,-1.44934743384934e-07,0.0001063902600435,-0.0020140390843153,0.0007509702118113,-0.003289183601737,0.0010489597916603,0.3209663331508636,0.9470843076705932,-0.0002285887683737,-0.0011972841433225,-0.0004950015061756,-0.0113540887832641,-0.0092878341674804,0.0269203186035156,0,0,0,0
3.9,1788445435968,0.0,0.0,-0.0034547676332294,0.0002289486583322,0.5379962921142578,0.8429401516914368,8.453477283486892e-05,-8.957391051489668e-05,-1.44934743384934e-07,0.0001063902600435,-0.0020140390843153,0.0007509702118113,-0.003289183601737,0.0010489597916603,0.3209663331508636,0.9470843076705932,-0.0002285887683737,-0.0011972841433225,-0.0004950015061756,-0.0113540887832641,-0.0092878341674804,0.0269203186035156,0,0,0,0
4.0,1788445436068,0.0,0.0,-0.0034547676332294,0.0002289486583322,0.5379962921142578,0.8429401516914368,8.453477283486892e-05,-8.957391051489668e-05,-1.44934743384934e-07,0.0001063902600435,-0.0020140390843153,0.0007509702118113,-0.003289183601737,0.0010489597916603,0.3209663331508636,0.9470843076705932,-0.0002285887683737,-0.0011972841433225,-0.0004950015061756,-0.0113540887832641,-0.0092878341674804,0.0269203186035156,0,0,0,0
4.1,1788445436168,0.0,0.0,-0.0034471293911337,0.0002166025806218,0.5379781126976013,0.8429517149925232,-6.168061890051284e-05,6.536222697557905e-05,1.1149861707124285e-07,-4.75192018711823e-06,-0.0004307933559175,-0.0006429931963793,-0.003289183601737,0.0010489597916603,0.3209663331508636,0.9470843076705932,-0.0002285887683737,-0.0011972841433225,-0.0004950015061756,-0.0113540887832641,-0.0092878341674804,0.0269203186035156,0,0,0,0
4.2,1788445436268,0.0,0.0,-0.0034328505862504,0.0002085788873955,0.5379624366760254,0.842961847782135,-8.265439557962473e-05,8.758033115314309e-05,1.5182318713728886e-07,0.0003097945300396,-0.0005747477407567,-0.0007461614441126,-0.0032756002619862,0.0010244632139801,0.3209516108036041,0.947089433670044,0.0005121042987473,-0.00028393444133,-0.0007838208781594,-0.0100499987602233,-0.0020755529403686,-0.003584861755371,0,0,0,0
4.3,1788445436368,0.0,0.0,-0.0034313271753489,0.0001956672640517,0.5379825830459595,0.8429489731788635,8.06532306287471e-05,-8.545351118854868e-05,-1.491373832236863e-07,-0.0002224858326371,-0.0004585799470078,0.0009301144164055,-0.0033094249665737,0.0010473327711224,0.3209486901760101,0.947090208530426,-0.0013735585995354,0.0017280156829257,-0.0009854575673312,-0.0094883441925048,-0.008635938167572,-0.0233631134033203,0,0,0,0
4.4,1788445436468,0.0,0.0,-0.0034647672437131,0.0002174227265641,0.5379711389541626,0.8429561257362366,-7.468347047990363e-05,5.946581574123855e-05,3.111645463696849e-08,-0.0007367582875303,0.0016280555864796,-0.0006017157575115,-0.0032944874837994,0.0010585943236947,0.3209604620933532,0.9470862746238708,0.0005194991407128,0.0006415365365624,4.2705198858078176e-05,0.0212833881378173,-0.0108546614646911,-0.0179414749145507,0,0,0,0
4.5,1788445436568,0.0,0.0,-0.0034829173237085,0.0002540873829275,0.5379865765571594,0.8429461121559143,0.0,0.0,0.0,-0.0005781942163594,0.0010227153543382,-8.339620399056002e-05,-0.0032963855192065,0.0010299198329448,0.3209995031356811,0.9470730423927308,0.0001330542881033,-0.0026241643464869,0.0018678459657406,-0.0061774253845214,-0.008871853351593,-0.0089893341064453,0,0,0,0
4.6,1788445436668,0.0,0.0,-0.0034829173237085,0.0002540873829275,0.5379865765571594,0.8429461121559143,0.0,0.0,0.0,0.0,0.0,0.0,-0.0032962933182716,0.0010454822331666,0.3209734559059143,0.9470818638801576,0.0002051107871482,0.0005902252079789,-0.0010956556533393,0.001274287700653,0.0160916447639465,0.0126762390136718,0,0,0,0
4.7,1788445436768,0.0,0.0,-0.0034565101377665,0.0002319170162081,0.5380021929740906,0.8429363369941711,0.0,0.0,0.0,0.0,0.0,0.0,-0.0032805651426315,0.0010884497314691,0.3210082352161407,0.9470701813697816,0.0017707349109104,0.0002004212439643,0.0005877967825816,-0.0195428133010864,-0.002360463142395,-0.0053834915161132,0,0,0,0
4.8,1788445436868,0.0,0.0,-0.0034662671387195,0.0002562137087807,0.538020133972168,0.8429248929023743,8.116067849348399e-05,-8.6007443347446e-05,-1.4613970166100276e-07,0.0001883529039332,0.0010065969545394,0.0008378965430893,-0.0032476261258125,0.0010469816625118,0.3210301697254181,0.947062849998474,0.0009463460667708,-0.0003719403368089,0.0013644953436095,0.011856198310852,-0.0115815997123718,-0.030522346496582,0,0,0,0
4.9,1788445436968,0.0,0.0,-0.003403729526326,0.0002405683044344,0.5380471348762512,0.8429078459739685,0.0001644955857661,-0.0001743263123669,-2.850428012523745e-07,0.0006136625888757,-0.0007775444537401,0.0017006460111588,-0.0032601039856672,0.0010170424357056,0.3210173845291137,0.947067141532898,-0.0010688399052558,-0.0012142168611162,-0.0006786968493984,0.0023792386054992,0.0121244192123413,-0.0124750137329101,0,0,0,0
5.0,1788445437068,0.0,0.0,-0.0034038228914141,0.0001695125829428,0.5380198955535889,0.8429251313209534,-1.6159748219519876e-05,3.4810594898525603e-05,1.286177961196362e-07,0.0001878877810668,-0.0016282689757645,-0.0002194787230109,-0.0032840352505445,0.0009836545214056,0.3210082352161407,0.9470701813697816,-1.3753207652024372e-05,0.0011985623115591,0.0007191706756792,-0.0070741176605224,-0.0411376357078552,-0.0001068115234375,0,0,0,0
5.1,1788445437168,0.0,0.0,-0.0034284256398677,0.0001720886211842,0.5380379557609558,0.8429136872291565,8.284806364916454e-05,-8.780296197562325e-05,-1.6071184703751373e-07,-0.0007763659232296,0.0006143951322883,0.0008541622664779,-0.003312355838716,0.0010554753243923,0.321003645658493,0.9470715522766112,0.0002188662316022,0.0019517230848933,-0.0001088397518441,-0.0342915654182434,-0.01233571767807,0.003580093383789,0,0,0,0
5.2,1788445437268,0.0,0.0,-0.0034618214704096,0.0002228075172752,0.5380242466926575,0.8429222106933594,0.0,0.0,0.0,0.0,0.0,0.0,-0.0032847924157977,0.0010129800066351,0.3210333287715912,0.9470616579055786,0.0005115324970157,-0.001922952031464,0.0003985722552551,0.0042751431465148,0.0305579304695129,-0.0033798217773437,0,0,0,0
5.3,1788445437368,0.0,0.0,-0.0034618214704096,0.0002228075172752,0.5380242466926575,0.8429222106933594,0.0,0.0,0.0,0.0,0.0,0.0,-0.0032824594527482,0.0010523162782192,0.3210078775882721,0.947070300579071,0.0006411580695072,0.0010196861882507,0.0005440542127742,-0.0039764642715454,0.0015373229980468,-0.003493309020996,0,0,0,0
5.4,1788445437468,0.0,0.0,-0.0034618214704096,0.0002228075172752,0.5380242466926575,0.8429222106933594,0.0,0.0,0.0,0.0,0.0,0.0,-0.0033028637990355,0.0010273028165102,0.3210070729255676,0.9470704793930054,-0.00055205332849,0.0010973424902685,0.0004018663632478,-0.0132824182510375,-0.0068923234939575,-0.0053272247314453,0,0,0,0
5.5,1788445437568,0.0,0.0,-0.0034618214704096,0.0002228075172752,0.5380242466926575,0.8429222106933594,0.0,0.0,0.0,0.0,0.0,0.0,-0.0032375436276197,0.0009893160313367,0.3210012912750244,0.9470727443695068,0.0013948035466149,-0.0033202595062043,-0.0008564837585709,0.0125398635864257,-0.016859233379364,-0.0017356872558593,0,0,0,0
5.6,1788445437668,0.0,0.0,-0.0034618214704096,0.0002228075172752,0.5380242466926575,0.8429222106933594,0.0,0.0,0.0,0.0,0.0,0.0,-0.0032334588468074,0.0010236948728561,0.3210340738296509,0.9470615983009338,-0.0007069908497634,0.0012372677169971,3.844705162742619e-05,0.0185639858245849,0.0170029997825622,-0.006972312927246,0,0,0,0
5.7,1788445437768,0.0,0.0,-0.0034618214704096,0.0002228075172752,0.5380242466926575,0.8429222106933594,0.0,0.0,0.0,0.0,0.0,0.0,-0.0032307626679539,0.001071167178452,0.3210307955741882,0.947062611579895,0.001048927741768,0.0007390306977748,0.0009435414682267,0.0194382667541503,0.0166535377502441,-0.0051679611206054,0,0,0,0
5.8,1788445437868,0.0,0.0,-0.0034618214704096,0.0002228075172752,0.5380242466926575,0.8429222106933594,0.0,0.0,0.0,0.0,0.0,0.0,-0.0032692542299628,0.0010991403833031,0.3209969401359558,0.9470739364624025,-0.0008403509157594,0.0013557510839791,-0.0012853785987429,0.00043386220932,0.0009810924530029,0.0091257095336914,0,0,0,0
5.9,1788445437968,0.0,0.0,-0.0034618214704096,0.0002228075172752,0.5380242466926575,0.8429222106933594,0.0,0.0,0.0,0.0,0.0,0.0,-0.0032090125605463,0.0011001545935869,0.3210253715515136,0.9470645785331726,-0.0004075287828028,0.000239632762064,-0.0013167489383239,0.0306283831596374,0.0070753693580627,0.0002145767211914,0,0,0,0
6.0,1788445438068,0.0,0.0,-0.0034618214704096,0.0002228075172752,0.5380242466926575,0.8429222106933594,0.0,0.0,0.0,0.0,0.0,0.0,-0.0032427972182631,0.0011713169515132,0.3210188150405884,0.947066605091095,0.0003241473300289,0.0012670277405173,0.0003965290496733,0.010633111000061,-0.0016866326332092,-0.0088109970092773,0,0,0,0
6.1,1788445438168,0.0,0.0,-0.0034618214704096,0.0002228075172752,0.5380242466926575,0.8429222106933594,0.0,0.0,0.0,0.0,0.0,0.0,-0.0032217539846897,0.0011804001405835,0.3210180699825287,0.947066843509674,0.0012166946543296,0.0009311594468236,0.0002250783544338,0.0017160773277282,0.0248756408691406,-0.0266714096069335,0,0,0,0
6.2,1788445438268,0.0,0.0,-0.0034618214704096,0.0002228075172752,0.5380242466926575,0.8429222106933594,0.0,0.0,0.0,0.0,0.0,0.0,-0.0032058143988251,0.0011800732463598,0.3210508823394775,0.9470557570457458,0.000157365537607,3.992931685791467e-05,-0.0001372456292716,0.0069726705551147,0.0047210454940795,-0.0015888214111328,0,0,0,0
6.3,1788445438368,0.0,0.0,-0.0034618214704096,0.0002228075172752,0.5380242466926575,0.8429222106933594,0.0,0.0,0.0,0.0,0.0,0.0,-0.0032058143988251,0.0011800732463598,0.3210508823394775,0.9470557570457458,0.000157365537607,3.992931685791467e-05,-0.0001372456292716,0.0069726705551147,0.0047210454940795,-0.0015888214111328,0,0,0,0
6.4,1788445438468,0.0,0.0,-0.0034618214704096,0.0002228075172752,0.5380242466926575,0.8429222106933594,0.0,0.0,0.0,0.0,0.0,0.0,-0.0032317843288183,0.001258042640984,0.3210480809211731,0.947056531906128,0.0004177225252287,0.001412117020653,-0.000137763147899,-0.0291131138801574,0.0029138326644897,0.0001916885375976,0,0,0,0
6.5,1788445438568,0.0,0.0,-0.0034618214704096,0.0002228075172752,0.5380242466926575,0.8429222106933594,0.0,0.0,0.0,0.0,0.0,0.0,-0.0032771434634923,0.0012625409290194,0.3210174143314361,0.947066843509674,-0.0007351838898623,0.0021778774985837,-0.0006677205175063,-0.0233795046806335,-0.032277762889862,0.0216341018676757,0,0,0,0
6.6,1788445438668,0.0,0.0,-0.0034618214704096,0.0002228075172752,0.5380242466926575,0.8429222106933594,0.0,0.0,0.0,0.0,0.0,0.0,-0.0032039545476436,0.0012586051598191,0.3210394382476806,0.9470596313476562,0.001569118345562,-0.0010859261905211,-0.0001395437706177,0.019228458404541,-0.0047810673713684,-0.0033388137817382,0,0,0,0
6.7,1788445438768,0.0,0.0,-0.0034118939656764,0.0004564945120364,0.5380557775497437,0.8429022431373596,0.0,0.0,0.0,0.0,0.0,0.0,-0.0032039545476436,0.0012586051598191,0.3210394382476806,0.9470596313476562,0.001569118345562,-0.0010859261905211,-0.0001395437706177,0.019228458404541,-0.0047810673713684,-0.0033388137817382,0,0,0,0
6.8,1788445438868,0.0,0.0,-0.0034569748677313,0.0004150614840909,0.5380486249923706,0.8429065346717834,-1.647039570058939e-05,3.548677823314346e-05,1.1353524333566401e-07,-0.002472637919709,-0.0004367174988146,-0.0003484379558358,-0.0032525705173611,0.0012302156537771,0.3210333883762359,0.9470614790916444,-0.0003566582023287,-0.0007760941890517,3.504051508959957e-05,0.0082205533981323,-0.0252875089645385,0.0091533660888671,0,0,0,0
6.9,1788445438968,0.0,0.0,-0.00345697440207,0.0004150612512603,0.5380486249923706,0.8429065346717834,0.0,0.0,0.0,0.0,0.0,0.0,-0.0032572327181696,0.0012475289404392,0.3210325539112091,0.9470617771148682,-0.0001306042682933,0.0003018972395091,-0.0007975363846285,0.0085821151733398,0.0052480101585388,0.005681037902832,0,0,0,0
7.0,1788445439068,0.0,0.0,-0.00345697440207,0.0004150612512603,0.5380486249923706,0.8429065346717834,0.0,0.0,0.0,0.0,0.0,0.0,-0.0032388949766755,0.0012804884463548,0.3210539817810058,0.9470544457435608,0.0005068631334477,-0.0006686690727973,0.0007591869314159,0.0054988265037536,0.0298611521720886,0.0021896362304687,0,0,0,0
7.1,1788445439168,0.0,0.0,-0.0034782090224325,0.0004860333865508,0.5380409359931946,0.8429113626480103,0.0,0.0,0.0,0.0002565273607615,-2.1734116671723317e-05,-3.4142045478802174e-05,-0.0032533667981624,0.0012784861028194,0.3210259079933166,0.9470639824867249,-0.0005969709399814,-0.0029643841967776,0.0004086158836669,-0.01778244972229,-0.0021346807479858,-0.0087404251098632,0,0,0,0
7.2,1788445439268,0.0,0.0,-0.0034792204387485,0.0004202760756015,0.5380345582962036,0.8429154753684998,-5.556681452463869e-05,4.425778578364867e-05,-1.4231225112935852e-08,-0.0011925131548196,-0.0009649284766055,-0.0003693173639476,-0.0032786792144179,0.0012329593300819,0.3210149705410003,0.9470676779747008,-0.000889020671147,-0.001188531795076,-0.0003376954231175,0.0084447264671325,-0.0068376064300537,0.0110378265380859,0,0,0,0
7.3,1788445439368,0.0,0.0,-0.0034852095413953,0.000463014584966,0.5380429029464722,0.84291011095047,1.5978901018457908e-05,-3.442325970283987e-05,-1.151960669534159e-07,0.0007132895989343,0.0015607695095241,0.0004008603864349,-0.0032922085374593,0.0012755366042256,0.3210191428661346,0.9470661282539368,-0.0018972066414862,-0.0011405519169533,-0.0013425984821261,0.0308926105499267,-0.0068017244338989,0.0003004074096679,0,0,0,0
7.4,1788445439468,0.0,0.0,-0.0035321842879056,0.0004497334593906,0.538032054901123,0.8429168462753296,-6.871713621169622e-05,0.0001480535927134,4.775569885563558e-07,-0.002550057368353,-0.0004468142578843,-0.0010418293531984,-0.0033299215137958,0.0012859804555773,0.3210095763206482,0.9470692276954652,-0.0021181460586343,0.0014424645791954,-0.0006597650266403,0.0169610381126403,-0.0205166339874267,-0.0033588409423828,0,0,0,0
7.5,1788445439568,0.0,0.0,-0.0035321842879056,0.0004497334593906,0.538032054901123,0.8429168462753296,-6.871713621169622e-05,0.0001480535927134,4.775569885563558e-07,-0.002550057368353,-0.0004468142578843,-0.0010418293531984,-0.0033291410654783,0.0012638000771403,0.3210347890853882,0.9470606446266174,-2.227645732343103e-05,-0.0001346329014197,0.0003871068910611,-0.0085983872413635,0.0191366672515869,-0.0050249099731445,0,0,0,0
7.6,1788445439668,0.0,0.0,-0.0035363850183784,0.0004344974877312,0.5380542874336243,0.8429027199745178,7.944984052336958e-05,-6.327901816860292e-05,1.2568036037545591e-08,0.0002348703710595,-9.957480506272988e-05,0.0007934932946227,-0.0033291410654783,0.0012638000771403,0.3210347890853882,0.9470606446266174,-2.227645732343103e-05,-0.0001346329014197,0.0003871068910611,-0.0085983872413635,0.0191366672515869,-0.0050249099731445,0,0,0,0
7.7,1788445439768,0.0,0.0,-0.0035585728473961,0.0004703128943219,0.5380534529685974,0.8429031372070312,4.022170875153452e-05,-4.26305423657942e-05,-5.3372420278712953e-08,0.0002825755800586,0.0009327987208962,0.0004187562444712,-0.0033291410654783,0.0012638000771403,0.3210347890853882,0.9470606446266174,-2.227645732343103e-05,-0.0001346329014197,0.0003871068910611,-0.0085983872413635,0.0191366672515869,-0.0050249099731445,0,0,0,0
7.8,1788445439868,0.0,0.0,-0.0035585728473961,0.0004703128943219,0.5380534529685974,0.8429031372070312,4.022170875153452e-05,-4.26305423657942e-05,-5.3372420278712953e-08,0.0002825755800586,0.0009327987208962,0.0004187562444712,-0.0033648582175374,0.0012950841337442,0.321022093296051,0.9470648765563964,-0.0003053036671711,-0.0002386336757542,-0.0003608264722673,0.0047677755355834,-0.0001332163810729,-0.0050506591796875,0,0,0,0
7.9,1788445439968,0.0,0.0,-0.0035585728473961,0.0004703128943219,0.5380534529685974,0.8429031372070312,4.022170875153452e-05,-4.26305423657942e-05,-5.3372420278712953e-08,0.0002825755800586,0.0009327987208962,0.0004187562444712,-0.0033484073355793,0.0012381374835968,0.3209982812404632,0.9470731019973756,-2.59079655503505e-05,0.0030358313063875,-0.0006605067541614,-0.0377651453018188,-0.0128016471862792,0.0361661911010742,0,0,0,0
8.0,1788445440068,0.0,0.0,-0.0035357298329472,0.0004000479821115,0.538030207157135,0.8429180979728699,0.0,0.0,0.0,0.0,0.0,0.0,-0.0033333869650959,0.0012129470705986,0.321003794670105,0.9470712542533876,-0.0014993784436281,-0.0005299134927433,-0.0012137312746034,-0.0005510449409484,-0.0091309547424316,-0.0122585296630859,0,0,0,0
8.1,1788445440168,0.0,0.0,-0.0035357298329472,0.0004000479821115,0.538030207157135,0.8429180979728699,0.0,0.0,0.0,0.0,0.0,0.0,-0.0033337585628032,0.0012015448883175,0.321003645658493,0.947071373462677,9.882661487772552e-05,-0.0007962956441676,-5.940015359905359e-06,-0.0043566226959228,0.0071189999580383,-0.0121898651123046,0,0,0,0
8.2,1788445440268,0.0,0.0,-0.0035357298329472,0.0004000479821115,0.538030207157135,0.8429180979728699,0.0,0.0,0.0,0.0,0.0,0.0,-0.0033704545348882,0.0011884709820151,0.3209899961948395,0.9470758438110352,-0.0005654491415158,0.0009279064529198,3.974145996497931e-05,-0.0133726000785827,-0.0137195587158203,0.0020961761474609,0,0,0,0
8.3,1788445440368,0.0,0.0,-0.0035357298329472,0.0004000479821115,0.538030207157135,0.8429180979728699,0.0,0.0,0.0,0.0,0.0,0.0,-0.0033933855593204,0.001150450669229,0.3210107088088989,0.9470687508583068,-0.0014254061651645,-0.0007761913333997,-0.000788384586204,0.0291898846626281,-0.011187195777893,-0.013991355895996,0,0,0,0
8.4,1788445440468,0.0,0.0,-0.0035357298329472,0.0004000479821115,0.538030207157135,0.8429180979728699,0.0,0.0,0.0,0.0,0.0,0.0,-0.0033757938072085,0.0010826792567968,0.3210022747516632,0.9470717906951904,-0.0005686713690918,-0.001411357529465,-0.000786844386906,-0.0099333524703979,0.0175802707672119,0.0058422088623046,0,0,0,0
8.5,1788445440568,0.0,0.0,-0.0035357298329472,0.0004000479821115,0.538030207157135,0.8429180979728699,0.0,0.0,0.0,0.0,0.0,0.0,-0.0033400524407625,0.0010379077866673,0.3210344314575195,0.9470611214637756,0.0014721826552634,-0.0021440452043441,0.0010411907878318,-0.0253955125808715,0.0170968174934387,0.0309686660766601,0,0,0,0
8.6,1788445440668,0.0,0.0,-0.0035357298329472,0.0004000479821115,0.538030207157135,0.8429180979728699,0.0,0.0,0.0,0.0,0.0,0.0,-0.0033507356420159,0.0010566366836428,0.3210013508796692,0.9470722675323486,-2.7946858946937577e-05,0.0012093636578902,-0.0013005695011958,-0.0231636762619018,-0.0115064978599548,0.0182952880859375,0,0,0,0
8.7,1788445440768,0.0,0.0,-0.0035357298329472,0.0004000479821115,0.538030207157135,0.8429180979728699,0.0,0.0,0.0,0.0,0.0,0.0,-0.0033251317217946,0.0010518254712224,0.3210247457027435,0.9470644593238832,0.0006693374295796,-0.0003795654542042,0.0007291016272416,-0.0072472095489501,0.011390745639801,0.020207405090332,0,0,0,0
8.8,1788445440868,0.0,0.0,-0.0035357298329472,0.0004000479821115,0.538030207157135,0.8429180979728699,0.0,0.0,0.0,0.0,0.0,0.0,-0.0033703614026308,0.0010926239192485,0.3210269808769226,0.947063446044922,-0.0007453352570082,0.0018167482655214,-0.0004873764337851,0.001018464565277,0.0066789388656616,-0.0013294219970703,0,0,0,0
8.9,1788445440968,0.0,0.0,-0.0035357298329472,0.0004000479821115,0.538030207157135,0.8429180979728699,0.0,0.0,0.0,0.0,0.0,0.0,-0.0034184455871582,0.0011465474963188,0.3210445046424866,0.94705730676651,-0.0007144702508218,0.0015981101696147,0.0017435295481763,-0.0120539665222167,-0.0107676982879638,0.0093755722045898,0,0,0,0
9.0,1788445441068,0.0,0.0,-0.0035357298329472,0.0004000479821115,0.538030207157135,0.8429180979728699,0.0,0.0,0.0,0.0,0.0,0.0,-0.0034291306510567,0.0011387513950467,0.3209949731826782,0.947074055671692,-0.0002646524765073,-0.0002033241977858,-0.0015129642354147,0.0112685561180114,-0.0337154865264892,-0.0283880233764648,0,0,0,0
9.1,1788445441168,0.0,0.0,-0.0035357298329472,0.0004000479821115,0.538030207157135,0.8429180979728699,0.0,0.0,0.0,0.0,0.0,0.0,-0.0034168437123298,0.0011392077431082,0.321032166481018,0.9470614194869996,-0.0003899267015668,-0.0012006575827388,3.382376598818575e-05,-0.0121877193450927,0.0162040591239929,0.0077075958251953,0,0,0,0
9.2,1788445441268,0.0,0.0,-0.0035357298329472,0.0004000479821115,0.538030207157135,0.8429180979728699,0.0,0.0,0.0,0.0,0.0,0.0,-0.0033872472122311,0.0011394210159778,0.3210206627845764,0.9470654129981996,0.0014418106737378,-0.0002879368783053,4.044262620289071e-05,0.0002471208572387,0.0085961818695068,-0.0246267318725585,0,0,0,0
9.3,1788445441368,0.0,0.0,-0.0035357298329472,0.0004000479821115,0.538030207157135,0.8429180979728699,0.0,0.0,0.0,0.0,0.0,0.0,-0.0033237850293517,0.0011118445545434,0.3210369944572449,0.9470601677894592,0.000411444700536,-0.0015726181217279,-0.0007782532444556,-0.0024755001068115,0.0326888561248779,-0.0137519836425781,0,0,0,0
9.4,1788445441468,2.7887322902679443,-2.6478872299194336,-0.0035357298329472,0.0004000479821115,0.538030207157135,0.8429180979728699,0.0,0.0,0.0,0.0,0.0,0.0,-0.0033237850293517,0.0011118445545434,0.3210369944572449,0.9470601677894592,0.000411444700536,-0.0015726181217279,-0.0007782532444556,-0.0024755001068115,0.0326888561248779,-0.0137519836425781,195,172,14169,-11577
9.5,1788445441568,3.94366192817688,-2.873239517211914,-0.0040209172293543,0.0004670460475608,0.4960139393806457,0.8683051466941833,0.0123065529694353,0.0095321562839878,-1.7393453451401745e-06,-0.0086274920031428,0.0078439796343445,-1.075222134590149,-0.0037979893386363,0.0014100391417741,0.2673145532608032,0.9636008739471436,-0.0025526877274384,0.0018247147046564,-1.1043855315576383,0.0043789744377136,-0.1320224404335022,-0.4157066345214844,98,126,13065,-12678
9.6,1788445441668,3.577464818954468,-3.2957746982574463,-0.0039234049618244,0.0005062266718596,0.453848272562027,0.8910701870918274,0.0082571306193525,0.0117389790809507,5.706485284382761e-07,0.0060941851697862,0.0059373951517045,-1.0101503133773804,-0.0037078503519296,0.0014098146930336,0.2410926073789596,0.9704939723014832,0.0058845519974828,0.002765114284605,-1.0771662544029483,-0.0933421850204467,0.0712219476699829,-0.1545982360839843,91,71,12546,-9791
9.7,1788445441768,3.183098554611206,-2.901408433914185,-0.0039234049618244,0.0005062266718596,0.453848272562027,0.8910701870918274,0.0082571306193525,0.0117389790809507,5.706485284382761e-07,0.0060941851697862,0.0059373951517045,-1.0101503133773804,-0.0033426210284233,0.0023384457454085,0.1660834699869156,0.9861032962799072,0.0078261725486119,0.0330678938435309,-0.9215449730538352,-0.0148223042488098,0.0725284218788147,-0.4059181213378906,65,85,10854,-9696
9.8,1788445441868,3.211267709732056,-2.309859037399292,-0.003646743716672,0.0019045036751776,0.3652908205986023,0.9308843612670898,0.0121203655389957,0.0029696071688452,3.98474147068118e-06,0.0086259897798299,0.0066638602875173,-0.8956976532936096,-0.0030901180580258,0.0027239480987191,0.1313551813364029,0.9913268089294434,0.0085139868295846,0.0052551131400009,-0.8918496946465734,-0.125538945198059,0.370348572731018,0.0369787216186523,65,120,10118,-10877
9.9,1788445441968,3.211267709732056,-2.309859037399292,-0.0032375387381762,0.0016003751661628,0.3232875764369964,0.9462939500808716,0.0048928321808658,-0.0021500220540383,2.791330264826508e-07,0.0160119757056236,-0.0034061954356729,-0.9219810962677002,-0.0027170861139893,0.0024318806827068,0.0822499319911003,0.996605098247528,0.012056320931527,0.0088730862026582,-0.8936545523072035,-0.0490432977676391,0.1649080514907837,0.5912141799926758,73,72,10304,-10484
10.0,1788445442068,3.211267709732056,-3.4084506034851074,-0.0032709396909922,0.0026309688109904,0.3013415932655334,0.9535070657730104,0.0010713635330842,0.0110557325064716,9.329406914282566e-07,0.0141388187184929,0.041058249771595,-0.9069675803184508,-0.001699099317193,-7.978640496730804e-05,0.0191257204860448,0.9998156428337096,0.0179121175178177,-0.008321627316357,-1.0921936479066732,0.126906931400299,0.1961158514022827,-1.305194854736328,61,87,10864,-11695
10.1,1788445442168,3.0422534942626958,-3.183098554611206,-0.0019591031596064,-0.0003433739766478,0.2741476595401764,0.9616855382919312,-0.0086740242402047,0.0061692873241051,-3.991198192654224e-05,0.0151781104505062,-0.106045201420784,-0.9518921971321106,-0.0023369463160634,-0.001019200310111,-0.015363048762083,0.9998787641525269,-0.0234796949934241,-0.0207951411582922,-0.9683457545620432,-0.3960130214691162,-0.3799633383750915,0.2850370407104492,84,127,10972,-12056
10.2,1788445442268,3.323943614959717,-3.126760482788086,-0.0020700409077107,-0.001744810026139,0.1805840283632278,0.9835559129714966,-0.0094578508183753,0.0039080647889552,-3.971870593180751e-06,0.000908414251171,-0.0166308917105197,-1.0217843055725098,-0.0023886589333415,-0.0011508725583553,-0.0654275491833686,0.9978537559509276,0.0017775764385241,-0.0037012234094707,-1.0193065145790898,-0.0289010405540466,-0.2789728045463562,0.1188945770263671,82,83,10415,-12501
10.3,1788445442368,3.126760482788086,-3.070422649383545,-0.0006678289500996,-0.0031077368184924,0.1309116333723068,0.9913889169692992,-0.0100891475869361,0.0069017914707233,-6.55723508990935e-06,0.0340702608227729,-0.053495530039072,-1.014266848564148,-0.0015414208173751,-0.0027115223929286,-0.1056107133626937,0.9944026470184326,0.0375567919010735,-0.0611755894609769,-0.9874147096980652,-0.0983897447586059,-0.1222583651542663,-0.2611751556396484,68,102,10665,-11902
10.4,1788445442468,3.239436626434326,-3.3521127700805664,-0.0001463552180211,-0.0031188675202429,0.1048833504319191,0.9944795966148376,-0.0130383515588476,0.004199355222232,-1.4969455725441792e-06,0.0170703437179327,-0.0020449289586395,-1.024545669555664,-0.0014323964715003,-0.0023769587278366,-0.1789467334747314,0.9838549494743348,-0.0137386498857656,0.0112082566945595,-0.9143998993105824,-0.1811261773109436,-0.4863331317901611,-0.3345985412597656,54,100,10327,-10578
10.5,1788445442568,3.2676055431365967,-3.549295663833618,-0.0001463552180211,-0.0031188675202429,0.1048833504319191,0.9944795966148376,-0.0130383515588476,0.004199355222232,-1.4969455725441792e-06,0.0170703437179327,-0.0020449289586395,-1.024545669555664,-0.0020067384466528,-0.0024886755272746,-0.2225624471902847,0.9749132394790648,-0.0111179038504835,-0.003057127881805,-0.9298407720519678,-0.2034220099449157,-0.4083800911903381,0.1937618255615234,78,100,11049,-11582
10.6,1788445442668,3.4084506034851074,-3.3521127700805664,-0.0014020832022652,-0.0028509739786386,0.0077719390392303,0.9999647736549376,-0.0093566946601145,-0.003487108958655,2.5677117771466843e-06,-0.0076875849626958,0.0041161994449794,-0.9503271579742432,-0.0022429646924138,-0.0019524870440363,-0.2707263529300689,0.9626518487930298,-0.0076896331248928,0.0165767794701245,-0.9898800762101844,-0.1726335883140564,-0.3324583768844604,0.2928333282470703,88,54,10212,-10658
10.7,1788445442768,3.4084506034851074,-3.3521127700805664,-0.0018534221453592,-0.0030672019347548,-0.0671916380524635,0.9977335929870604,-0.0026960171424022,0.009129508123272,-9.894354894590344e-07,-0.0080731706693768,-0.020746050402522,-1.034931778907776,-0.0024396516382694,-0.0023594107478857,-0.2997563481330871,0.9540097117424012,-0.0045873635225449,-0.012858153112593,-0.9706579251879685,-0.1431896686553955,0.1799108982086181,0.573369026184082,88,54,10212,-10658
10.8,1788445442868,3.633802890777588,-2.6478872299194336,-0.00210682163015,-0.0032094849739223,-0.1137029826641082,0.9935073852539062,0.0066952916182602,0.0066465554093875,1.568883634688221e-06,-0.0136559847742319,-0.0058802841231226,-1.027717113494873,-0.0029352391138672,-0.0023769168183207,-0.3707627356052398,0.928719997406006,-0.0099279683995868,0.0169872482403051,-0.954448844533716,-0.0497493147850036,-0.2406967878341674,-0.0477924346923828,101,108,11573,-10491
10.9,1788445442968,3.4647886753082275,-2.6478872299194336,-0.0026534597855061,-0.0029789207037538,-0.16987244784832,0.9854580163955688,0.0063785732842683,0.0054017074243684,6.105495158006556e-07,-0.017397629097104,0.0001234060764545,-0.9105393290519714,-0.0043115764856338,-0.0003761621192097,-0.4271872043609619,0.904152810573578,-0.0613897029461996,0.0494347819944189,-0.9739973440944922,-0.2880308628082275,-0.3929957747459411,-0.2966547012329101,91,80,12277,-10494
11.0,1788445443068,3.549295663833618,-3.3521127700805664,-0.0043301722034811,-0.0011411793529987,-0.2138587236404419,0.9768543839454652,0.0077436031101666,0.0090410708760286,-1.5537043577187696e-06,-0.0346163548529148,0.0315013714134693,-1.0152034759521484,-0.0041498467326164,-0.0016617598012089,-0.4698001742362976,0.8827614784240723,0.0536119959989758,-0.0411494499292338,-1.017536936449075,-0.4506207704544067,-0.488946795463562,-1.6136674880981443,125,118,11992,-10089
11.1,1788445443168,4.169013977050781,-3.2676055431365967,-0.0030610412359237,-0.0037121446803212,-0.2663061022758484,0.963876485824585,-0.0099233137987021,0.0046495922596771,-1.4976320062622817e-05,0.0452088378369808,-0.0452878698706626,-1.1098099946975708,-0.0039411298930644,-0.0028731878846883,-0.4846274256706238,0.874707043170929,0.0510018641582247,-0.0653910335922364,-1.2111745812296968,0.3335768580436706,0.0259331464767456,0.3347349166870117,72,19,12076,-5908
11.2,1788445443268,4.507042407989502,-1.8309859037399288,-0.0032812957651913,-0.0035428376868367,-0.3075710833072662,0.95151287317276,0.0239719940109902,0.0031753319357795,-6.351622498365034e-06,-0.0109440796077251,0.0011654180707409,-0.9128220081329346,-0.0040193041786551,-0.0024363799020648,-0.5423218607902527,0.8401576280593872,-0.0099287844471284,0.0081046986265339,-0.9677646927059363,-0.1905384063720703,-0.2683515548706054,0.2681922912597656,111,102,12991,-8680
11.3,1788445443368,7.070422649383545,0.0,-0.003722355235368,-0.0035161718260496,-0.3543181717395782,0.9351109266281128,0.0585958715195038,0.0087101653442349,1.211859083124458e-06,-0.0219797100871801,-0.019475620239973,-1.036872148513794,-0.0047255679965019,-0.0023943092674016,-0.5885820984840393,0.8084201812744141,-0.0162866600610365,0.0005506050241099,-1.0136901543479708,0.5602404475212097,-0.1300978660583496,-0.2277088165283203,179,41,16788,-5291
11.4,1788445443468,7.97183084487915,1.0704225301742554,-0.0016513332957401,-0.0026831119321286,-0.4062521159648895,0.9137555956840516,0.1371896783813732,0.0050191399182008,-0.000133667086911,0.0650684982538223,0.0695866718888282,-1.002193570137024,-0.0020484356209635,-0.0022880285978317,-0.6165522336959839,0.7873079776763916,0.0482004759568414,0.0721930803621315,-1.0627618923699858,0.5006577968597412,-0.2140531539916992,0.0608196258544921,156,121,25315,7790
11.5,1788445443568,8.22535228729248,1.5774648189544678,-0.0012878120178356,-0.0025206671562045,-0.4296748042106628,0.9029792547225952,0.1899218731097653,-0.0098013305719119,5.034411621716528e-05,0.0075669442303478,0.0124751683324575,-1.0514731407165527,-0.0010580755770206,-0.0014239447191357,-0.6411539912223816,0.767410159111023,0.0018821172423125,0.0993255204575238,-1.0545683276297155,-0.4373725056648254,-0.0584924817085266,-0.8074264526367188,97,67,24188,7311
11.6,1788445443668,8.338027954101562,1.7183098793029783,-0.0016764826141297,-0.0036927892360836,-0.4907263815402984,0.8713043332099915,0.1859919949937331,-0.0148553173553584,9.710162099548422e-05,-0.004192947410047,-0.0005018486408516,-0.9541360139846802,-0.0019404990598559,-0.0026129772886633,-0.7028748393058777,0.711306095123291,-0.0047866267858133,0.0280614915204549,-1.0534426806716686,-1.0526875257492063,-0.2976729273796081,0.2291860580444336,41,58,20564,6226
11.7,1788445443768,5.267605781555176,0.7605633735656738,-0.0014001500094309,-0.0028316359966993,-0.5311546325683594,0.8472689986228943,0.1052572244371607,0.0029641495467141,2.3798648253876148e-05,-0.0074273757636547,-0.034587524831295,-0.7841750979423523,-0.0016753207892179,-0.0013895770534873,-0.7303618788719177,0.6830570101737976,-0.0156623426782143,0.0317720681490194,-0.5269717212635087,-1.0064295530319214,-0.1246959567070007,-0.1851558685302734,41,58,20564,6226
11.8,1788445443868,3.577464818954468,0.5070422291755676,-0.0010790529195219,-0.0010783087927848,-0.5531152486801147,0.8331032991409302,0.0577411721278598,-0.0019112411883831,-3.0566493431590365e-05,-0.0086869206279516,0.0281588360667228,-0.3456332981586456,-0.0012883665040135,-0.0005408357828855,-0.737906277179718,0.6749017834663391,-0.016351006150521,0.0194270462980416,-0.2534462357110435,-0.4355514049530029,0.4037646055221557,-0.8667392730712891,9,123,6825,6184
11.9,1788445443968,0.0,0.0,-0.0012189547996968,-0.0006929330993443,-0.5574767589569092,0.830191433429718,0.0304217171701169,0.004290713858766,-2.506714704841317e-06,-0.0135082639753818,0.009814097546041,-0.2098393440246582,-0.0013549495488405,-0.0004286058247089,-0.7399413585662842,0.6726698875427246,0.0029716862256563,-0.0072187967403267,0.0155873762377613,-0.3396827578544616,0.2767842411994934,0.1350927352905273,13,5,0,0
12.0,1788445444068,0.0,0.0,-0.001204494619742,-0.0007873158901929,-0.5573066473007202,0.8303054571151733,0.0014462337434851,-0.0025677285438193,-9.889275622972946e-07,0.0023610368371009,0.0009126948425546,0.007730514742434,-0.0014025196433067,-0.0004544667899608,-0.7396731972694397,0.6729646325111389,-0.0006431746100131,-0.0027467044063632,0.0207175333937517,0.1946401000022888,-0.2599914669990539,-0.0136146545410156,0,0,0,0
12.1,1788445444168,0.0,0.0,-0.0012443420710042,-0.0007745666662231,-0.5573974251747131,0.8302444815635681,0.0,0.0,0.0,-0.0002358045603614,0.002306159120053,4.9552192649571225e-05,-0.001434288918972,-0.0004803296178579,-0.7397046089172363,0.672930121421814,-0.0007071028674841,-0.0015688495697598,-0.0050765897341586,-0.0032978653907775,-0.1521081924438476,0.0422353744506835,0,0,0,0
12.2,1788445444268,0.0,0.0,-0.0012106886133551,-0.0007814570562914,-0.5574630498886108,0.8302004337310791,-0.0001444158009028,0.0001396771817859,5.564516103804764e-07,0.0010870823170989,0.000983927049674,-0.0013885784428566,-0.0013535916805267,-0.0004884842783212,-0.7396519184112549,0.6729881167411804,0.0009627068140048,-0.0003043017593624,0.0032180764046621,-0.0685897469520568,-0.0062173604965209,0.0193824768066406,0,0,0,0
12.3,1788445444368,0.0,0.0,-0.0011785980314016,-0.0008063414134085,-0.5573909282684326,0.8302489519119263,0.0003223271844338,-0.0003418407313046,-1.242664945067937e-06,0.0016565681435167,-0.0001149444069596,0.0035409105475991,-0.0013469466939568,-0.000490034930408,-0.739662766456604,0.6729760766029358,0.0001099402570041,0.0023550773471742,0.0017408018298328,-0.0256164669990539,-0.094088613986969,0.0334587097167968,0,0,0,0
12.4,1788445444468,0.0,0.0,-0.0011553671211004,-0.0008127316832542,-0.5574158430099487,0.8302322626113892,-2.593638334574609e-05,6.184112499783967e-05,1.3083332845073126e-07,8.891989273251966e-05,-0.0003899758157785,-0.0005053037893958,-0.0012867171317338,-0.0004514073953032,-0.7396870851516724,0.672949492931366,-0.0011233872502036,0.0023756797075344,-0.0022761229335334,-0.018850564956665,-0.1069107055664062,0.0370044708251953,0,0,0,0
12.5,1788445444568,0.0,0.0,-0.0011342351790517,-0.0007486016838811,-0.5574400424957275,0.8302161693572998,-8.040837193105073e-05,9.18837699436226e-05,3.051044073932094e-07,-0.0005222100298851,0.0018619069596752,-0.0008301582420244,-0.0012726057320833,-0.0004367297515273,-0.7396402955055237,0.6730010509490967,-6.359640537650482e-05,0.0010141238393154,0.003481596892838,-0.0436247587203979,-0.0117757320404052,0.0588998794555664,42,6,1912,407
12.6,1788445444668,2.901408433914185,0.0,-0.0011401359224691,-0.0007306925836019,-0.5574073195457458,0.8302381038665771,0.0001315566881235,-0.0001758931794662,-5.143479470792288e-07,-0.0005858851363882,0.000456552428659,0.0015562231419607,-0.0010830713436007,-0.0003519719466567,-0.74403977394104,0.6681343913078308,0.0002823611134582,0.0148220327965375,-0.2944060945839868,0.8224032521247864,-0.4529173374176025,-0.0189723968505859,95,103,7611,3400
12.7,1788445444768,2.901408433914185,0.0,-0.0011401359224691,-0.0007306925836019,-0.5574073195457458,0.8302381038665771,0.0001315566881235,-0.0001758931794662,-5.143479470792288e-07,-0.0005858851363882,0.000456552428659,0.0015562231419607,-0.0007382202893495,0.0002015577629208,-0.7584152221679688,0.6517712473869324,-0.0070227589338673,0.0124988397222522,-0.5389810145854306,0.5423107743263245,-0.533832311630249,0.8550052642822266,198,287,13635,7150
12.8,1788445444868,2.901408433914185,0.0,-0.0003591296554077,0.0002766047255136,-0.6003734469413757,0.7997195720672607,0.1287704385562795,-0.0043221952977411,-3.54468794962246e-05,0.0139383170753717,0.0175728779286146,-0.7596496343612671,-0.0007382202893495,0.0002015577629208,-0.7584152221679688,0.6517712473869324,-0.0070227589338673,0.0124988397222522,-0.5389810145854306,0.5423107743263245,-0.533832311630249,0.8550052642822266,198,287,13635,7150
12.9,1788445444968,8.732394218444824,2.450704336166382,-0.0003591296554077,0.0002766047255136,-0.6003734469413757,0.7997195720672607,0.1287704385562795,-0.0043221952977411,-3.54468794962246e-05,0.0139383170753717,0.0175728779286146,-0.7596496343612671,-0.0003121765330433,-0.0021453807130455,-0.8043481707572937,0.5941543579101562,0.0389031428592082,-0.0292090004760081,-0.908123558536598,-0.1805863380432129,-0.2736793160438537,-1.2137336730957031,102,49,23980,3377
13.0,1788445445068,7.690140724182129,2.197183132171631,0.000191819272004,-0.0021933161187916,-0.6430689692497253,0.7658051252365112,0.1853511337407215,-0.0101858697245952,0.0002879129737345,0.0330890789628028,-0.037491887807846,-0.9607721567153932,-0.0001612612977623,-0.0021733660250902,-0.8328895568847656,0.5534350872039795,2.0893827760038947e-05,-0.0096608852494929,-0.9827360892775822,0.1040146946907043,-0.2122927904129028,-0.3761281967163086,99,47,23521,6694
13.1,1788445445168,7.690140724182129,2.197183132171631,0.000191819272004,-0.0021933161187916,-0.6430689692497253,0.7658051252365112,0.1853511337407215,-0.0101858697245952,0.0002879129737345,0.0330890789628028,-0.037491887807846,-0.9607721567153932,0.000829430297017,-0.001958348788321,-0.8521804213523865,0.5232437252998352,0.0072493629225303,0.0222663378190989,-0.8938296464887266,-0.0657863616943359,-0.1821154356002807,0.5433788299560547,99,47,23521,6694
13.2,1788445445268,7.633802890777588,2.6478872299194336,0.0013099614297971,-0.0018014059169217,-0.7086567878723145,0.7055498361587524,0.1785612073056236,-0.0082043528626327,-7.26406885041462e-05,0.0099270995706319,0.0135436067357659,-0.8821715116500854,0.0009323135018348,-0.0018364079296588,-0.8818251490592957,0.4715721607208252,0.0042035749460884,-0.0124228205546334,-0.8229673337573796,0.1534529328346252,-0.0100988149642944,-0.9482355117797852,99,47,23521,6694
13.3,1788445445368,6.901408672332764,2.985915422439575,0.0013791702222079,-0.0014616616535931,-0.7513700723648071,0.6598779559135437,0.1751468026740297,-0.0062538697172487,3.650113174852983e-05,0.000945032283198,-0.0014628963544964,-0.7759951949119568,0.0014058500528335,-0.0013744411990046,-0.9026148915290833,0.4304445385932922,-0.0018831942412067,0.0184490538073571,-0.7485072634905684,-0.1034906506538391,-0.15291428565979,0.338632583618164,49,139,19456,11443
13.4,1788445445468,6.985915660858154,3.436619758605957,0.0015856265090405,-0.0010372244287282,-0.7735790014266968,0.6336970925331116,0.181805696052441,-0.0082596533705851,-3.134319440851144e-05,-0.002851924393326,0.0153079982846975,-0.7620790004730225,0.0014058500528335,-0.0013744411990046,-0.9026148915290833,0.4304445385932922,-0.0018831942412067,0.0184490538073571,-0.7485072634905684,-0.1034906506538391,-0.15291428565979,0.338632583618164,49,139,19456,11443
13.5,1788445445568,6.929577350616455,3.183098554611206,0.0010698018595576,-0.000897174293641,-0.800883412361145,0.5988186597824097,0.1770793052643719,-0.0010252534820264,1.2537679859293118e-05,-0.0016697966493666,-0.0162071008235216,-0.5461531281471252,0.0014058500528335,-0.0013744411990046,-0.9026148915290833,0.4304445385932922,-0.0018831942412067,0.0184490538073571,-0.7485072634905684,-0.1034906506538391,-0.15291428565979,0.338632583618164,79,147,19030,10972
13.6,1788445445668,5.97183084487915,4.02816915512085,0.0003513514238875,-0.0010719238780438,-0.8127617835998535,0.5825950503349304,0.1832641595584985,-0.0050249627912457,2.4447190275876447e-05,-0.0075787296518683,-0.0089498003944754,-0.3572825491428375,3.540143370628357e-05,-0.0011017583310604,-0.9288517236709596,0.3704501986503601,-0.0080927270949141,-0.0048367557583043,-0.3238401421764105,-0.1712563037872314,0.2800934314727783,0.6778402328491211,63,76,16226,14521
13.7,1788445445768,5.605633735656738,4.929577350616455,-0.000352406874299,-0.0011940253898501,-0.8175144195556641,0.5759067535400391,0.1804107509210729,-0.0033855988703198,0.0001202307806812,-0.0092337522655725,-0.0192020665854215,-0.2416312545537948,-0.0005569830536842,-0.0010362407192587,-0.9324536323547364,0.361287772655487,-0.0009110547115161,-0.0015915901800286,-0.2032903574290865,0.1534222960472107,-0.2832628488540649,-1.3068780899047852,41,128,15327,13264
13.8,1788445445868,5.380281925201416,4.901408672332764,0.0012202737852931,0.0002044784196186,-0.8228622078895569,0.568239688873291,0.1751614348886651,-0.0053404122686777,-7.127424436152672e-05,-0.0032984467688947,0.0342211611568927,-0.1226107850670814,0.0014179404824972,-3.6872923374176025e-05,-0.9349575638771056,0.3547567725181579,0.001353775537766,0.0412604836886878,-0.126379684801736,0.1909119486808776,-0.2062900066375732,-1.022801399230957,64,108,16686,12831
13.9,1788445445968,5.605633735656738,4.309859275817871,0.0039441809058189,0.0017567292088642,-0.8263578414916992,0.5631288290023804,0.1850573065289601,-0.0050851481075759,-0.0002226097407578,0.0084286658093333,0.0720507428050041,-0.1321242749691009,0.0033298674970865,0.0005553495138883,-0.9363030791282654,0.351176768541336,0.0040686151938521,0.0665914083705666,-0.1276090492964418,0.1954253911972046,0.0141767263412475,0.803065299987793,123,42,16175,14455
14.0,1788445446068,5.605633735656738,4.309859275817871,0.0003379409317858,-0.0006673985044471,-0.830186128616333,0.5574856996536255,0.1767934813492887,-0.0087951350147234,0.000270762754488,-0.0242390502244234,-0.0455993637442588,-0.1509891152381897,3.339722752571106e-05,-0.0005331756547093,-0.9397268891334534,0.3419255018234253,-0.0174597228211872,-0.0150793509030309,-0.1472091257085826,-0.8413890600204468,-0.1424316763877868,7.001114845275879,123,42,16175,14455
14.1,1788445446168,5.7183098793029785,4.788732528686523,0.0003379409317858,-0.0006673985044471,-0.830186128616333,0.5574856996536255,0.1767934813492887,-0.0087951350147234,0.000270762754488,-0.0242390502244234,-0.0455993637442588,-0.1509891152381897,-0.0014901384711265,-0.0015755323693156,-0.9413859248161316,0.3373246192932129,0.0172048952963705,-0.011896016969326,-0.0963418671542324,0.6577160954475403,-0.317152202129364,0.0336666107177734,135,94,16034,12836
14.2,1788445446268,5.633802890777588,4.788732528686523,-0.0013733739033341,-0.0021267468109726,-0.8348955512046814,0.5504025220870972,0.1821146476304273,-0.0046351950990122,1.7024612311362538e-05,0.0067555303685367,-0.0079668890684843,-0.131421223282814,-0.0018851123750209,-0.0017634974792599,-0.9421629309654236,0.3351452052593231,0.0026065599703984,-0.028324001083296,-0.1498025323098559,-0.2081566452980041,-0.2413774728775024,0.4100589752197265,70,118,16301,12549
14.3,1788445446368,5.352112770080566,4.704225540161133,-0.0009531885734759,-0.0021085017360746,-0.8369117379188538,0.5473329424858093,0.1819602623082167,-0.0069885205816283,-6.089212564006721e-05,0.0084636583924293,0.014562951400876,-0.1498071402311325,-0.0002181166782975,-0.0018222890794277,-0.945273458957672,0.3262742459774017,0.0079658243388085,0.0329143574443462,-0.1471437877701107,0.0079658031463623,0.0783367753028869,-1.3055286407470703,116,53,17104,13157
14.4,1788445446468,5.098591327667236,4.3380279541015625,0.0003713951446115,-0.0015295187477022,-0.8406861424446106,0.541520357131958,0.1776582776243255,-0.0054693025250989,-7.038296293456414e-05,-0.0017899331869557,0.024647606536746,-0.1429405659437179,-0.0002262210473418,-0.001118017360568,-0.9469168782234192,0.3214764893054962,-0.0238455871781825,0.0168642006214257,-0.0742104700532186,-0.2464302778244018,-0.2236990928649902,0.2446823120117187,56,139,15735,16632
14.5,1788445446568,5.408450603485107,4.535211086273193,-0.0004028970142826,0.0016040552873164,-0.8446390628814697,0.5353337526321411,0.1768456796312841,-0.0014203312005318,-0.0001225393008452,-0.0581600032746791,0.0196172129362821,-0.0983489006757736,-0.0005554482340812,0.0014704344794154,-0.9481320977211,0.3178727626800537,-0.0165337318989841,-0.0316409835129919,-0.0592171552067933,0.1882001161575317,-0.582832932472229,-0.2754430770874023,89,90,14504,16974
14.6,1788445446668,5.014084339141846,5.549295902252197,-0.0018432200886309,-0.0012807262828573,-0.8443735837936401,0.535750150680542,0.1822400559989484,0.0079350558385714,-2.248814899849527e-06,0.0384876318275928,0.0127921504899859,0.027772819623351,-0.0018469272181391,-0.0019001848995685,-0.947467803955078,0.3198401927947998,0.0588002166123423,0.0056059924413577,0.071233398515425,0.0109278559684753,0.0706387758255004,-0.8043632507324219,79,58,14674,12933
14.7,1788445446768,5.014084339141846,5.014084339141846,-0.000213160412386,-0.0017134748632088,-0.8436135649681091,0.5369481444358826,0.1714035835220707,0.0007696889931787,-9.168041019909826e-05,-0.0144583471119403,0.0556412190198898,-0.0253367479890584,-0.0012096390128135,-0.0022183582186698,-0.9471785426139832,0.3206966817378998,0.0246412420798099,0.024389227188013,0.0437873756392659,0.1468451619148254,0.0205073952674865,0.2894563674926758,79,58,14674,12933
14.8,1788445446868,5.380281925201416,5.295774459838867,-0.000213160412386,-0.0017134748632088,-0.8436135649681091,0.5369481444358826,0.1714035835220707,0.0007696889931787,-9.168041019909826e-05,-0.0144583471119403,0.0556412190198898,-0.0253367479890584,0.0002002632245421,-0.0012089200317859,-0.947875678539276,0.3186380267143249,-0.0132297367870335,0.0192159372224523,-0.0636153090370592,-0.2341557145118713,-0.5045017004013062,0.6513128280639648,60,103,15523,12879
14.9,1788445446968,5.323943614959717,5.154929637908936,-0.0003711888275574,-0.0008571332436986,-0.8453583121299744,0.5341988205909729,0.1745062185192631,-0.0051437698226342,3.351250462614103e-06,-0.0183788537979125,7.266252214321867e-05,-0.0579093620181083,-0.0004208507016301,-0.0011843144893646,-0.94805508852005,0.3181039094924927,-0.0088159752372365,-0.0232032452444672,-0.0224399624209538,0.112678587436676,-0.1600987911224365,0.0442457199096679,138,40,15521,13104
15.0,1788445447068,4.985915660858154,4.647887229919434,-0.0005356093170121,-0.0005774405435658,-0.8461267948150635,0.5329811573028564,0.1844110614384684,-0.0060764410179803,-6.851663338679472e-05,-0.0154694151133298,0.000459199945908,-0.0684428885579109,-0.0014019254595041,-0.0007259780541062,-0.9489742517471312,0.3153496384620666,0.006869181661816,-0.0121248281597668,0.0206660043641585,-0.1013042330741882,0.0517545342445373,1.084733009338379,62,70,15195,16276
15.1,1788445447168,5.098591327667236,5.126760482788086,-0.0010156842181459,-0.0008312974241562,-0.8460761904716492,0.5330604314804077,0.1787423042638073,-0.0067132143907309,8.193715755172289e-05,-0.0017729804385453,0.0099802464246749,0.008177232928574,-0.0010512517765164,-0.0005393903702497,-0.9489473700523376,0.3154323399066925,-0.0052832998707442,0.0369620845162131,-0.0030551268620664,-0.1754103302955627,-0.1844236850738525,0.210759162902832,78,68,14970,14808
15.2,1788445447268,5.098591327667236,5.211267471313477,-0.0007374821580015,-0.0005941579584032,-0.8460077047348022,0.5331698656082153,0.1773585849542931,-0.0011433630897559,-6.684183237920044e-07,-0.0020798225887119,0.0144236544147133,0.0051467348821461,-0.0007054954767227,-0.0002278182655572,-0.9490156769752502,0.3152278661727905,-0.0043464400426856,0.0270590845982451,-0.0103005848244102,-0.2142565846443176,-0.0509644150733947,-2.1758265495300293,107,124,15165,14788
15.3,1788445447368,4.8450703620910645,5.690140724182129,-0.0006306168506853,-0.0003898045106325,-0.8461944460868835,0.5328736901283264,0.1841796040379853,-0.0012635577724854,-0.00010883077435,-0.0037867955397814,0.0236890092492103,-0.0026209361385554,-0.0016129044815897,-0.0006833393126726,-0.9485942125320436,0.3164901733398437,0.0011835987883851,-0.0469338884281852,0.0472555469857897,-0.1151314973831176,-0.3620932698249817,0.3843975067138672,90,151,14470,14092
15.4,1788445447468,4.929577350616455,5.070422649383545,-0.0012615113519132,-0.0008961238199844,-0.8448713421821594,0.534967303276062,0.1782526424659074,-0.0024191605474339,4.331392495951784e-05,-0.0025169581640511,-0.0034329490736126,0.070929504930973,-0.0015184171497821,-0.000610826537013,-0.9480282664299012,0.3181819915771484,0.0025991978396538,-0.0089835158591661,0.0505473107373935,0.1527086496353149,-0.3563315272331238,-0.8617429733276367,126,37,16827,12724
15.5,1788445447568,5.211267471313477,5.183098793029785,-0.0013885383959859,-0.0011682728072628,-0.8456211686134338,0.5337803363800049,0.1782507804157247,-0.000357106116637,2.0002060464175336e-05,0.0091933049261569,0.0033836623188108,-0.0521991550922393,-0.0016274834051728,-0.000802619382739,-0.9486757516860962,0.3162451386451721,0.0117405417549529,0.0092764054272105,-0.0482183936500978,0.0083858370780944,-0.4378346800804138,-0.0773258209228515,102,119,15912,13372
15.6,1788445447668,5.464788913726807,5.549295902252197,0.0009656629408709,0.000331308459863,-0.8467413783073425,0.5320038795471191,0.1801919968902513,-0.0067470473096976,-0.0001902469176977,-0.004000857938081,0.0945880860090255,-0.0442056618630886,0.0006555030122399,-2.3809261620044708e-05,-0.9492934942245485,0.3143905103206634,-0.0065686229949034,0.0848069982770405,-0.0427009372268374,0.4607283473014831,0.1903038024902343,0.5901899337768555,49,141,13933,13318
15.7,1788445447768,5.126760482788086,5.014084339141846,-0.0011486166622489,-0.0007017519092187,-0.847745954990387,0.5304007530212402,0.1743034027182856,-0.006104388248234,0.0001595662206177,-0.0066777481697499,-0.0218884907662868,-0.0172100197523832,-0.0016135964542627,6.689131259918213e-05,-0.9500664472579956,0.3120433986186981,-0.0405895052235841,0.0120260013519739,-0.0207631908627231,0.0531741976737976,0.229337990283966,-2.6018261909484863,66,135,14812,15199
15.8,1788445447868,5.295774459838867,4.422535419464111,-0.0022385602351278,-0.0006631212891079,-0.8491910696029663,0.5280805230140686,0.1953896089057518,-0.0008270233826538,0.0002221615363225,0.0617669858038425,-0.0799470245838165,-0.0112823685631155,-0.0016135964542627,6.689131259918213e-05,-0.9500664472579956,0.3120433986186981,-0.0405895052235841,0.0120260013519739,-0.0207631908627231,0.0531741976737976,0.229337990283966,-2.6018261909484863,84,145,15558,17286
15.9,1788445447968,4.732394218444824,4.507042407989502,-0.0018340164097025,-0.0013685220619663,-0.8486852049827576,0.5288933515548706,0.1769036989004661,-5.123345655421376e-05,1.1749567092159853e-05,0.0075116106308996,0.0118061387911438,-0.0068523129448294,-0.0018307026475667,-0.000673527829349,-0.9503469467163086,0.3111863434314728,-0.0129615282673198,-0.0033804622770989,0.0215398512125888,0.7164425849914551,0.1794866323471069,0.4289922714233398,83,36,14247,13408
16.0,1788445448068,4.816901206970215,5.295774459838867,-0.0012255741748958,-0.0006967211957089,-0.8484910130500793,0.5292080044746399,0.1845039262781911,0.0024334710814991,-0.0001321790504975,-0.0072823241353034,0.0281091481447219,-0.0019791016820818,-0.0014355517923831,-0.0005462551489472,-0.9503710865974426,0.3111149370670318,0.0001317110333025,0.0298130877122073,-0.0054169945221118,-0.0902366042137146,-0.3218801617622375,-0.3751869201660156,62,82,14086,17067
16.1,1788445448168,5.323943614959717,4.507042407989502,-0.0013565750559791,-0.0005351590225473,-0.8479150533676147,0.5301300287246704,0.1826097760273964,-0.0006798208721143,-1.5669884085102066e-06,0.0005001228419132,0.0044901059009134,0.0250169225037097,-0.001522859558463,-0.0002358797937631,-0.9502344727516174,0.3115317821502685,-0.007012247144043,-0.0226064226003079,0.0288378402590086,-0.0911184549331665,-0.3387179374694824,-0.8745965957641602,133,65,15570,15404
16.2,1788445448268,5.211267471313477,5.098591327667236,-0.002793994732201,-0.0008467384031973,-0.8492456674575806,0.5279898047447205,0.1821380741985201,-0.0017938174718358,9.01884641870762e-05,-0.0140513172373175,-0.0446563586592674,-0.0700716599822044,-0.0034691402688622,-0.000135825946927,-0.9509330987930298,0.3093772530555725,-0.0171373430205687,-0.0582356835778582,-0.0513733136001213,0.0517497062683105,0.1600387096405029,1.3369569778442385,82,47,14592,14292
16.3,1788445448368,4.901408672332764,5.605633735656738,-0.0026161826681345,-0.0017907473957166,-0.849780797958374,0.5271267294883728,0.1663187218784032,-0.0086446839411874,-0.000223725196702,0.0525268241763114,0.0315879844129085,0.010327223688364,-0.0030739000067114,-0.0015247631818056,-0.9511436223983764,0.308729887008667,0.0478573477468225,-0.0341509254181801,0.0031303297948808,0.2565442323684692,0.332617700099945,0.495640754699707,96,110,15976,12763
16.4,1788445448468,5.014084339141846,4.478873252868652,-0.0023656403645873,-0.0028919400647282,-0.8499386310577393,0.526868462562561,0.1847821131559217,-0.0022551602508675,4.729468186546623e-06,0.0463073328137397,-0.0159559566527605,-0.0132821854203939,-0.0029825316742062,-0.0020182700827717,-0.9512819051742554,0.3083013296127319,0.0233692052368454,-0.0030835298549865,-0.021290885276218,-0.4307634234428406,-0.3648384213447571,0.4363718032836914,96,110,15976,12763
16.5,1788445448568,5.070422649383545,4.535211086273193,-0.0015135953435674,-0.0009826715104281,-0.8510339260101318,0.5251076221466064,0.1847932437664135,-0.0020599386593791,-1.1003032473957292e-06,0.000239335669903,-0.0052400473505258,-0.0291698966175317,-0.0017607416957616,-0.0005881553515791,-0.9519315361976624,0.3063053488731384,-0.000871753415956,-0.0114641054197052,-0.0292161120079646,-0.1562527418136596,-0.1391124129295349,1.3497390747070312,86,50,15938,15724
16.6,1788445448668,5.070422649383545,5.408450603485107,-0.0014896462671458,-0.0007261848659254,-0.8517205119132996,0.5239936709403992,0.1809102434778429,-0.0038167101738358,-2.412598177430221e-07,-0.0069203521125018,0.0004513954918365,-0.0417172238230705,-0.0015899473801255,-0.0002597086131572,-0.9524763226509094,0.3046085238456726,-0.0079289817803759,0.0017536924975309,-0.0533176770368387,-0.1386790871620178,-0.0392107963562011,0.0766763687133789,86,91,16245,13173
16.7,1788445448768,5.070422649383545,5.408450603485107,-0.0014755227603018,-0.0006039197323843,-0.8527112603187561,0.5223801136016846,0.1741887825524093,-0.0021724832345486,1.2594896321921026e-05,0.0022771295625716,0.0074241878464818,-0.0283607393503189,-0.0017903950065374,-0.0002546682953834,-0.9526324272155762,0.304118663072586,-0.0042449942993513,-0.0120691556965609,-0.0327759857307592,-0.1345921754837036,-0.1179765462875366,1.960493087768555,86,91,16245,13173
16.8,1788445448868,5.183098793029785,4.563380241394043,-0.0009061729651875,-0.0005060363328084,-0.8530592918395996,0.5218127965927124,0.1880736230448153,-0.0038973710645575,-5.416655883937787e-05,0.0094508910551667,0.0238285642117261,-0.0295544806867837,-0.0008771670982241,-5.339831113815308e-05,-0.9535318613052368,0.3012911081314087,-0.0134325914582406,0.0042322624242611,-0.0682008447370201,0.0174149274826049,0.0024490356445312,0.3248529434204101,84,104,16072,15633
16.9,1788445448968,5.154929637908936,4.704225540161133,-0.0009774951031431,-0.00021026347531,-0.8543418645858765,0.5197105407714844,0.1783495410530988,-0.0016390091890063,7.918154999930279e-06,-0.0082689682021737,-0.0009984617354348,-0.0497058182954788,-0.001129200682044,0.000176359899342,-0.9541375041007996,0.2993667423725128,-0.0081846705657214,0.0037136456006785,-0.0389233335740139,-0.1040027141571044,0.1334174275398254,1.8587980270385744,77,89,15853,15206
17.0,1788445449068,5.126760482788086,4.507042407989502,-0.0007236499222926,-0.0001378452725475,-0.854482114315033,0.519480288028717,0.177539634838802,-0.0032501653439599,-9.070203861082366e-07,0.0030792076140642,0.0112311728298664,-0.0118927042931318,-0.0008123535662889,0.002548387274146,-0.9548248052597046,0.297157347202301,-0.0369126621301933,0.0284040531563134,-0.044088174297624,0.0790992975234985,-0.6427782773971558,-0.114542007446289,77,89,15853,15206
17.1,1788445449168,4.901408672332764,5.380281925201416,-0.0015772464685142,-3.300001844763756e-05,-0.8546207547187805,0.5192502737045288,0.1867612381259283,-0.0049287739546029,0.0002637812952212,0.046566080302,-0.0266353245824575,0.1005992367863655,-0.0016970159485936,8.798018097877502e-05,-0.9536342024803162,0.3009636104106903,0.003452567976791,-0.0046180516628171,0.0579340939688271,-0.3416007161140442,-0.3208673000335693,-0.0284290313720703,69,46,13541,13854
17.2,1788445449268,4.732394218444824,5.154929637908936,-0.000807634787634,5.820230580866337e-05,-0.8534616231918335,0.521155059337616,0.1680015187004168,-0.0040872901052588,-0.0001297028054629,0.0028939796611666,0.026118079200387,0.0437873974442482,0.0001317644491791,0.0004684310406446,-0.952915608882904,0.3032353818416595,0.0029633429288436,0.0621759525054311,0.0497660360946883,0.245312213897705,0.0369235277175903,0.0015573501586914,135,57,15222,15510
17.3,1788445449368,5.154929637908936,4.760563373565674,-0.0018259219359606,-0.0014067493611946,-0.852338433265686,0.5229855179786682,0.1846399155765437,-0.0028887921308495,-2.28203396093647e-05,0.0197858717292547,-0.0776238292455673,0.0293109416961669,-0.0029763048514723,-0.0007631722837686,-0.9527081251144408,0.3038713932037353,-0.0070496639870357,-0.1075188512919676,-0.0075577021210594,0.5363282561302185,0.2832491993904114,0.3564777374267578,113,104,15436,16112
17.4,1788445449468,5.154929637908936,4.619718074798584,-0.0018051040824502,-0.0008173151873052,-0.8528897166252136,0.5220872759819031,0.1692628461358415,-0.0036285193228031,0.0001089143955178,-0.0223095808178186,0.0147135537117719,-0.0475566647946834,-0.0021948181092739,0.0001218244433403,-0.953474760055542,0.3014647364616394,-0.000190193490271,-0.0007616606067899,-0.0381857871312209,-0.3158954381942749,0.2843964695930481,-1.9119319915771484,113,104,15436,16112
17.5,1788445449568,5.070422649383545,5.126760482788086,-0.0022136950865387,7.59027898311615e-05,-0.8542155623435974,0.5199143886566162,0.184146004906734,-0.0066442613554981,-0.0001635561194267,-0.0031168740242719,0.0296890065073966,-0.02722829580307,-0.0022103721275925,0.0006788112223148,-0.9538393020629884,0.3003085553646087,-0.0019490033141459,0.0127815608162466,-0.0573885516040209,-0.3081144690513611,0.1436289548873901,1.586501121520996,113,104,15436,16112
17.6,1788445449668,4.957746505737305,5.6619720458984375,-0.0012967863585799,0.0004534581385087,-0.8544691801071167,0.5195003747940063,0.1815015632529796,-0.0015885575984218,-2.9047310464569714e-06,0.0004031318239867,0.0212802626192569,-0.0057894703932106,0.0007814029231667,0.0016816314309835,-0.9539790153503418,0.2998676598072052,-0.014677826888971,0.0619667748424697,-0.0084573180656418,-0.0950014591217041,-0.218359887599945,0.9295663833618164,69,84,14904,14047
17.7,1788445449768,4.901408672332764,5.042253494262695,5.56735903955996e-05,0.0015165678923949,-0.8546583652496338,0.519188642501831,0.1852292561213714,-0.0012579388633336,-0.0001921394022691,-0.0082591250538825,0.0684545338153839,-0.0145313311368227,0.0011328589171171,0.0018786815926432,-0.9540236592292786,0.2997234165668487,-0.0051986414326447,0.0248742474658274,-0.0094918692266009,0.1045392751693725,0.2661101222038269,-1.0008630752563477,92,25,15268,15273
17.8,1788445449868,5.014084339141846,4.788732528686523,0.0008093258365988,0.0028439497109502,-0.8536250591278076,0.5208794474601746,0.1739421143590004,0.0004074148881688,8.87096907833212e-05,-0.0101066259667277,-0.0095005137845873,0.0527032800018787,0.0015687495470046,0.0026531880721449,-0.9533107876777648,0.3019752204418182,-0.0133365727816648,0.0249973005243846,0.0547687710900661,-0.0001230835914611,0.0448843240737915,-0.003788948059082,62,103,13439,17180
17.9,1788445449968,5.126760482788086,5.577464580535889,-0.0002482678974047,0.0030500716529786,-0.8528457283973694,0.5221539735794067,0.184947407292035,-0.0026714110519551,7.768689919429632e-05,-0.0119651984423398,-0.0175216011703014,0.006166226696223,0.0002942001447081,0.003253654576838,-0.9529531598091124,0.3031001687049866,-0.0296854176372256,-0.0291898823261367,-0.0139063569025087,0.201028823852539,0.0239959955215454,-0.0359144210815429,58,34,14934,15656
18.0,1788445450068,5.098591327667236,5.492957592010498,0.0020466288551688,0.0027413009665906,-0.8520634770393372,0.5234272480010986,0.183812195871348,-0.0042300598167524,-2.529097677899561e-05,0.0149098262190818,0.0042794272303581,0.018238540738821,0.0027242871001362,0.0020503802224993,-0.952405571937561,0.304814726114273,0.0683225148063979,0.0603596811245907,0.0783225158838127,0.1193830966949462,0.4438206553459167,-1.166712760925293,130,31,15731,15214
18.1,1788445450168,5.070422649383545,4.901408672332764,0.0027862156275659,0.0022103656083345,-0.8521834015846252,0.523231029510498,0.1786096100294202,0.0057462641578186,-9.664831478517828e-05,-0.0282807312905788,0.0393219031393528,-0.064286932349205,0.0027163233608007,0.0015516085550189,-0.9526314735412598,0.3041109442710876,0.0040818316110958,-0.0263780611945201,0.0106043743960842,-0.1098264455795288,0.0598021745681762,0.0379600524902343,57,126,15336,15676
18.2,1788445450268,5.126760482788086,5.183098793029785,0.0019604745320975,0.0023577215615659,-0.8524758815765381,0.5227575898170471,0.1835749964155509,0.0002738512291295,6.327694515896373e-05,-0.0153761953115463,-0.0241701696068048,-0.0058064060285687,0.0028484091162681,0.0030338009819388,-0.952949583530426,0.3031002879142761,-0.0462134565858298,0.0190255233267404,-0.0380311807227143,0.2284318208694458,-0.0251491069793701,0.13494873046875,57,126,15336,15676
18.3,1788445450368,4.816901206970215,5.295774459838867,0.0010767425410449,0.0033805218990892,-0.853085994720459,0.5217582583427429,0.1952419908721515,0.0008999891549321,9.920139486537678e-05,0.0330569148063659,-0.0678044706583023,0.0087655279785394,0.0015022894367575,0.0024092486128211,-0.9525038599967957,0.3045131862163543,0.0118444927367327,-0.0087791085930885,0.0855613938716312,-0.2848078608512878,0.3216925859451294,0.7337102890014648,49,103,14533,15723
18.4,1788445450468,4.8450703620910645,5.436619758605957,0.0005448970478028,0.0025934898294508,-0.8518832921981812,0.5237249135971069,0.1879917781935955,0.0066394517600107,5.1112134456224666e-05,0.0010657978709787,-0.029221586883068,0.0193147342652082,0.001078225672245,0.0026633609086275,-0.9521335363388062,0.3056690990924835,-0.0153874348135717,-0.0478589874428101,0.0254556690279507,-0.0807773470878601,0.1419799923896789,1.1894474029541016,68,41,15037,13681
18.5,1788445450568,5.070422649383545,4.985915660858154,0.0002831709571182,0.0027894671075046,-0.8514893054962158,0.5243644714355469,0.1759919868781175,5.23679456803053e-05,-1.7449722845357251e-06,0.0,-1.6949750492045723e-09,0.0,0.0010133795440196,0.0028585838153958,-0.952090620994568,0.3058012127876282,0.0007996473702406,-0.0057229384538801,0.0110470507398067,-0.2310585975646972,-0.0573437213897705,0.9028081893920898,77,26,15125,15108
18.6,1788445450668,5.183098793029785,5.070422649383545,1.7305370420217514e-05,0.0029100212268531,-0.8510745763778687,0.5250367522239685,0.1783129712451242,-0.0032129280252486,2.7222585414864904e-05,-0.003542058635503,-0.0052094045095145,0.0151582984253764,0.0003895228728652,0.002825029194355,-0.951826274394989,0.3066244423389435,-0.003707551637439,-0.0158501188087513,0.0100384365886732,0.3038026094436645,-0.0216529965400695,0.4274835586547851,105,92,14555,14217
18.7,1788445450768,5.154929637908936,5.042253494262695,-0.001267489278689,0.002966035157442,-0.8519206047058105,0.5236611366271973,0.1794743210833433,-0.0080966773201172,2.0276969077279367e-06,-0.0130292642861604,-0.0079739037901163,-0.0306537356227636,-0.0005511948838829,0.0032079890370368,-0.952381193637848,0.3048926293849945,-0.0157520763478284,-0.0075420705019393,-0.0315384585450341,0.2877789735794067,0.0714470744132995,-0.5761919021606445,118,103,16143,13787
18.8,1788445450868,5.042253494262695,4.788732528686523,-0.0010715532116591,0.0032370602712035,-0.8529241681098938,0.522023618221283,0.1859805323112131,-0.0053676335502182,2.947805882389056e-05,-0.0042147021740674,-0.0011788536794483,-0.0615685544908046,-0.0004725418984889,0.0033750748261809,-0.9529454112052916,0.3031230270862579,-0.005408280717285,-0.0154723357951781,-0.047670013923318,-0.0098209381103515,-0.2400582432746887,-0.8077068328857422,59,90,15080,13478
18.9,1788445450968,5.098591327667236,5.295774459838867,-0.0002185156336054,0.0040104063227772,-0.8533009886741638,0.5214031934738159,0.1803092393510169,-0.0013676764056639,-4.058008778951787e-05,-0.0123426830396056,0.0133569864556193,-0.0136299654841423,-0.0004725418984889,0.0033750748261809,-0.9529454112052916,0.3031230270862579,-0.005408280717285,-0.0154723357951781,-0.047670013923318,-0.0098209381103515,-0.2400582432746887,-0.8077068328857422,62,115,14943,13715
19.0,1788445451068,4.985915660858154,4.732394218444824,-0.0031951712444424,0.0027596955187618,-0.8535874485969543,0.5209324359893799,0.1768485216998883,-0.0069116862758353,0.0003999529925898,-0.0059920172207057,-0.1586835086345672,-0.0008534287335351,-0.0028161918744444,0.0034235259518027,-0.9526783227920532,0.3039480745792389,-0.002242113503687,-0.0129905951109169,0.0702339726332864,-0.1275040507316589,-0.0036574006080627,1.0916547775268557,121,93,15713,16503
19.1,1788445451168,5.211267471313477,4.760563373565674,-0.00314273359254,0.0029600663110613,-0.8526181578636169,0.5225164890289307,0.1810777764210502,-0.0049625987983797,1.1061668081695283e-06,0.0,0.0,0.0,-0.0015469519421458,0.003789278678596,-0.9525882005691528,0.3042351901531219,0.0022758807096106,0.0192487265742685,0.0150559108366519,0.0051258206367492,-0.0045157074928283,0.4667387008666992,68,73,14849,16392
19.2,1788445451268,4.985915660858154,5.6619720458984375,-0.002579283202067,0.003271582070738,-0.8524231910705566,0.5228358507156372,0.1783816142042815,-0.0007810084019256,6.644903278477739e-07,0.0011463152477517,0.0251585263758897,0.0147754354402422,-0.0013075238093733,0.0035325642675161,-0.952448070049286,0.3046776354312897,0.0211569262094417,0.0098543829378815,0.0309528873179488,0.1090849041938781,-0.0527952313423156,0.139749526977539,89,78,15295,12774
19.3,1788445451368,4.957746505737305,4.619718074798584,-0.0012540146708488,0.0029645692557096,-0.851983368396759,0.5235588550567627,0.1832809605072819,0.0002619041010002,-1.4441456546266914e-06,0.0100565375760197,0.0554059334099292,-0.0123874135315418,-0.0006290962919592,0.0031122472137212,-0.9524462819099426,0.3046902418136596,1.895827937038801e-05,-0.0264724812320643,0.0005614420802903,-0.0562389492988586,0.0852178931236267,-1.6847238540649414,92,78,15602,16307
19.4,1788445451468,4.929577350616455,5.85915470123291,-0.0012540146708488,0.0029645692557096,-0.851983368396759,0.5235588550567627,0.1835337964572033,-0.0021398322324133,7.571700112939206e-07,0.0,0.0,0.0,-0.0006123445928096,0.0032617896795272,-0.9522530436515808,0.3052921593189239,-0.0091328952662357,0.003959092269988,0.0419947574338398,0.1321406364440918,0.1012618541717529,-1.930410861968994,92,78,15602,16307
19.5,1788445451568,4.929577350616455,5.85915470123291,-0.0013026754604652,0.0062737874686717,-0.851943850517273,0.5235938429832458,0.1740016982760172,-0.0015646680879078,-0.0002234590609569,-0.0888952687382698,0.0561827458441257,-0.0789165422320365,-5.7367607951164246e-05,0.0066525544971227,-0.9525187611579896,0.3044071197509765,-0.0781349787436907,0.0302794500246706,-0.08381584416592,0.0573763847351074,-0.418389618396759,0.4729108810424804,92,78,15602,16307
19.6,1788445451668,5.154929637908936,4.676056385040283,-0.0032746270298957,0.0044155549257993,-0.8516890406608582,0.5240187048912048,0.1989094636958388,-0.0082202531455961,0.0002036924508527,-0.0137437600642442,-0.0417140200734138,0.0287335831671953,-0.0022536255419254,0.0052593573927879,-0.9522019028663636,0.3054157197475433,-0.0353758944469448,-0.0302537258647218,0.0289019696703843,-0.1995787024497985,0.6223697066307068,-0.3601903915405273,73,70,14367,12933
19.7,1788445451768,4.563380241394043,4.929577350616455,-0.0019882211927324,0.0035900571383535,-0.8509552478790283,0.5252221822738647,0.1631852514864315,-0.0043733542768187,4.213204953641122e-05,0.0175141636282205,-0.01066414732486,0.0550439842045307,0.0002066763117909,0.0055058356374502,-0.95219486951828,0.3054417967796325,-0.069158897578343,0.0866459630519954,-0.0599978551270216,0.813043475151062,0.0313132405281066,-0.3434505462646484,57,129,14333,14005
19.8,1788445451868,5.295774459838867,5.267605781555176,-0.0009401015704497,0.0056183035485446,-0.8516599535942078,0.524063766002655,0.1717582282600716,-0.0050971791735508,-0.0001310438567959,-0.0393799655139446,0.0657684952020645,-0.0451720282435417,0.0005458099767565,0.0057522179558873,-0.9520235657691956,0.3059701025485992,0.0040304436140426,0.0113279225947041,0.0300595825992772,-0.1571702361106872,0.0936545133590698,0.3345184326171875,57,129,14333,14005
19.9,1788445451968,5.154929637908936,4.478873252868652,-0.0004603317938745,0.006111807655543,-0.851431131362915,0.5244306921958923,0.18736087546789,-0.0031431990557416,-6.666219342899852e-07,-0.0058041894808411,0.0229427069425582,-0.0007867254316806,0.0012472653761506,0.0061464225873351,-0.952149510383606,0.3055682778358459,-0.0078843777192555,0.0206198159980512,-0.0274285268291538,-0.1377043724060058,0.0208247303962707,1.316868782043457,89,99,15797,15669
20.0,1788445452068,5.098591327667236,5.408450603485107,-0.0008049064781516,0.0062271412461996,-0.8517944812774658,0.523838460445404,0.1853488630156594,-0.0047877683139394,-1.3551542442593712e-06,0.0,5.869744246211894e-09,0.0,0.000380708836019,0.0060543743893504,-0.9524738192558287,0.3045600652694702,0.0074063233750711,-0.0112990393988617,0.0014116910560142,-0.0716013312339782,0.1116005182266235,-0.3799886703491211,58,141,14212,16117
20.1,1788445452168,4.985915660858154,5.126760482788086,-0.0009064157493412,0.0060931025072932,-0.8520684838294983,0.5233941674232483,0.1787888380827244,-0.0025591444871572,2.249242881670584e-05,0.0017832978628575,-0.0043959715403616,-0.0149505538865923,-5.604233592748642e-05,0.0058140587061643,-0.9523609280586244,0.3049178719520569,0.0031955289922877,-0.023345901706516,0.0074976575128437,0.3181836009025574,0.0429581403732299,-0.8072671890258789,55,160,14240,15670
20.2,1788445452268,5.042253494262695,5.521126747131348,-0.0013822040054947,0.0056525305844843,-0.8518979549407959,0.5236755013465881,0.1883590434607799,0.000926940442735,4.00040372458589e-07,0.0,9.50620382411671e-09,0.0,-0.0001359526067972,0.0060026058927178,-0.9522120356559752,0.3053788840770721,-0.0021005192254631,-0.0107319112821215,0.0209118434598765,-0.1918831467628479,0.1503177881240844,0.2666120529174804,55,160,14240,15670
20.3,1788445452368,5.295774459838867,4.591549396514893,-0.0020646234042942,0.0058120689354836,-0.8525972962379456,0.5225319862365723,0.1785247605732861,-0.0032248170738639,1.326106058251838e-05,-0.0062894043512642,0.0005565084866248,-0.0457299277186393,-0.0004272535443305,0.0062280166894197,-0.9528579711914062,0.3033527433872223,-0.0039292732171675,0.0135098204708516,-0.0476963105612757,0.0242385268211364,0.079338252544403,0.6259021759033203,83,133,15126,15413
20.4,1788445452468,5.211267471313477,5.295774459838867,-0.0019610594026744,0.005982743576169,-0.8530580997467041,0.5217778086662292,0.1795312905511361,-0.0030738182395102,1.660636961242433e-06,-0.0035313083790242,0.0071508605033159,-0.0345320887863636,-0.0005080234259366,0.0063749672845005,-0.9532172083854676,0.3022187054157257,-0.0055466754605339,-0.0024118489779483,-0.0440962625639723,-0.1608412861824035,-0.0265592336654663,0.0559234619140625,86,118,15523,13130
20.5,1788445452568,5.183098793029785,4.619718074798584,-0.002975865965709,0.0050515136681497,-0.8539767265319824,0.5202782154083252,0.1788146611397466,-0.0020345728710655,6.222622447235713e-05,0.0077666672877967,-0.0168889351189136,-0.0049676331691443,-0.0014311168342828,0.0058555994182825,-0.953545093536377,0.3011901080608368,0.0140220046676355,-0.0324830937977326,-0.0029248986533577,-0.0392186641693115,-0.1971665620803833,-0.1296148300170898,86,118,15523,13130
20.6,1788445452668,3.88732385635376,3.1549296379089355,-0.0034985058009624,0.0046023591421544,-0.8551784157752991,0.5183016061782837,0.1797041587154801,-0.0027118506949176,0.0001599588934405,0.0059803049080073,-0.0188422556966543,-0.0504943281412124,-0.0004998622462153,0.0057300822809338,-0.9545766711235046,0.2979099154472351,0.0104210594478493,0.1244345240997826,-0.0610499166789657,-0.7475261688232422,-0.4624412655830383,-0.2094659805297851,9,56,7875,6220
20.7,1788445452768,2.619718313217163,2.11267614364624,-0.0016046774107962,0.0055311298929154,-0.8558550477027893,0.5171835422515869,0.1619889436843141,-0.0022855162221621,-5.860828507081058e-05,0.0088558914139866,0.1001128330826759,-0.0614843815565109,-0.0004998622462153,0.0057300822809338,-0.9545766711235046,0.2979099154472351,0.0104210594478493,0.1244345240997826,-0.0610499166789657,-0.7475261688232422,-0.4624412655830383,-0.2094659805297851,9,56,7875,6220
20.8,1788445452868,0.3943662047386169,-0.2535211145877838,-0.0031178586650639,0.0045364988036453,-0.8578594923019409,0.5138548016548157,0.0395812501520146,0.001021634517941,1.202788513215863e-05,-0.0012396546080708,-0.0062135024927556,-0.0626986473798751,-0.0004998622462153,0.0057300822809338,-0.9545766711235046,0.2979099154472351,0.0104210594478493,0.1244345240997826,-0.0610499166789657,-0.7475261688232422,-0.4624412655830383,-0.2094659805297851,9,56,7875,6220
20.9,1788445452968,0.9014084339141846,-1.0140844583511353,-0.0034942508209496,0.0044552995823323,-0.8601042628288269,0.5100868940353394,-8.2717034454878e-05,0.0003246163712658,4.004818424204352e-07,0.0002714241272769,0.002671735594049,-0.0811505317687988,-0.0022914474830031,0.0051322737708687,-0.959435760974884,0.2818712294101715,0.0018009944248253,0.0070938276671867,-0.2587324366820745,-0.1704868078231811,0.2796341180801391,-0.0692472457885742,9,56,7875,6220
21.0,1788445453068,0.8732394576072693,-0.7887324094772339,-0.003670587670058,0.0044591110199689,-0.8694104552268982,0.4940568506717682,0.0007466011095702,-0.003213396518638,1.0607604398136669e-06,-0.0032677629496902,-0.0019815983250737,-0.2634257674217224,-0.0024773683398962,0.0052170697599649,-0.962748408317566,0.2703370153903961,-0.0018717934476459,-0.002192733236437,-0.2418905500345499,0.1555045247077942,0.0697254538536071,0.0237693786621093,111,78,4409,-5796
21.1,1788445453168,1.0140844583511353,-0.7042253613471985,-0.0040702042169868,0.0045731966383755,-0.8759222626686096,0.4824135303497314,0.0028910552212401,0.0011938741080464,-2.129288703248468e-06,-0.0073636453598737,-0.006626209244132,-0.2643082439899444,-0.0027962047606706,0.0054051801562309,-0.9653106927871704,0.2610331773757934,-0.0095843370194133,-0.0074298948279446,-0.2801513097361194,-0.0339165329933166,-0.1877279877662658,0.0800380706787109,142,37,6004,-3001
21.2,1788445453268,1.0140844583511353,-0.7042253613471985,-0.0045246365480124,0.0044890195131301,-0.8816156983375549,0.4719250202178955,0.0692948004290108,-0.0098198687814921,1.8370751144639048e-05,-0.0045520947314798,-0.0150343254208564,-0.2421317249536514,-0.00295633636415,0.0054300241172313,-0.967315435409546,0.2535007297992706,-0.0028910618697651,0.0017952484472873,-0.2738438140345282,0.687766432762146,0.0320995450019836,0.1716737747192382,142,37,6004,-3001
21.3,1788445453368,5.183098793029785,5.352112770080566,-0.0054525174200534,0.0050862124189734,-0.8841406106948853,0.467161476612091,0.1635912863358829,-0.0132447992924308,4.5409794200554814e-05,-0.036213032901287,-0.0042293947190046,-0.0587993487715721,-0.003575530834496,0.0073399376124143,-0.970404326915741,0.2413479089736938,-0.0559039781481952,0.0487865950973818,-0.0573589125687857,0.0405847430229187,-0.4372067451477051,0.1442375183105468,102,246,15388,18352
21.4,1788445453468,5.183098793029785,5.352112770080566,-0.0054012718610465,0.0058193602599203,-0.8845176696777344,0.4664391577243805,0.1882571839295201,0.0093049092622163,-0.0001479126144582,-0.0306375920772552,0.0192515850067138,-0.0396494083106517,-0.0050235874950885,0.0043157478794455,-0.9694480895996094,0.2452073246240615,0.0571127984613485,-0.0433199239824976,0.1471204460453436,-0.1326711177825927,0.6957367658615112,0.0531845092773437,59,94,14536,17106
21.5,1788445453568,4.732394218444824,5.464788913726807,-0.0058489795774221,0.0030455072410404,-0.8814325928688049,0.4722636938095093,0.1700732876626331,-7.724185552373434e-05,1.2589830755112555e-05,0.0028474982827901,-0.0083471704274415,0.1039528921246528,-0.004915464669466,0.0043853418901562,-0.9688317775726318,0.2476319074630737,-0.000155477640655,-0.0084850036753371,0.0805477217635273,-0.108555793762207,0.098362386226654,-0.6173849105834961,68,146,12420,16489
21.6,1788445453668,4.535211086273193,6.02816915512085,-0.0051713539287447,0.0035335822030901,-0.8771939873695374,0.4800952970981598,0.1720504791070217,0.0085914148774819,-2.2962439712211346e-05,-0.0039048094768077,0.005991144105792,0.1946220248937606,-0.00438585691154,0.0049355970695614,-0.965826451778412,0.2591054737567901,-0.0210083414676172,-0.0084919132445569,0.1596591131658238,0.0138046741485595,0.0348283052444458,-1.0036897659301758,54,42,13475,17301
21.7,1788445453768,4.619718074798584,5.690140724182129,-0.0063805566169321,0.0041906512342393,-0.8724492788314819,0.4886448979377746,0.1823641205762154,0.0050816139824452,-2.979949545062972e-05,-0.0192692596465349,-0.0111307706683874,0.177947536110878,-0.0047851270064711,0.0054592853412032,-0.9643630385398864,0.2644830048084259,-0.0152022227406369,0.0069029915614196,0.178383301336118,0.0107805132865905,0.1601212620735168,-0.5127248764038086,60,81,13498,16762
21.8,1788445453868,4.873239517211914,5.408450603485107,-0.0057883602567017,0.0036427134182304,-0.8702888488769531,0.4924942851066589,0.163628327121205,0.0067700181282533,4.0586288604055165e-05,0.0384443327784538,0.0107535365968942,0.2166958153247833,-0.0035552978515625,0.0035157529637217,-0.9607033133506776,0.277532160282135,0.0280378048394618,0.0070817873244259,0.158930936026914,0.1666111946105957,0.0409303903579711,1.1731548309326172,131,96,15745,13181
21.9,1788445453968,5.070422649383545,4.873239517211914,-0.003547569271177,0.002266815630719,-0.8648685216903687,0.5019809007644653,0.1869015935333263,0.0050256363962686,-4.931989787955619e-05,0.0184620805084705,0.0135123822838068,0.0916382670402526,-0.0030252104625105,0.0031719030812382,-0.9599493145942688,0.2801395952701568,0.019429790580509,0.0160457804319261,0.1087318675169823,-0.1809263825416565,0.4440739154815674,1.3520288467407229,119,46,14725,16108
22.0,1788445454068,5.183098793029785,4.366197109222412,-0.0024497758131474,0.0030527077615261,-0.864255428314209,0.5030379891395569,0.1711572664357801,0.0009335830773296,-0.000252024216553,-0.0338868163526058,0.0935487896203994,-0.0511061176657676,-0.0013405568897724,0.0038775624707341,-0.9597660303115844,0.280770868062973,-0.0139178868390819,0.0133057069046865,-0.0775510725844982,0.6591495871543884,-0.502504289150238,0.1117372512817382,82,130,15577,13732
22.1,1788445454168,5.042253494262695,5.211267471313477,-0.0019231599289923,0.004380861762911,-0.8653417229652405,0.5011594891548157,0.18486418469596,0.0040354606671636,-0.0001210164992921,-0.0252174455672502,0.0201441720128059,-0.0323431156575679,-0.0009224554523825,0.0043298890814185,-0.9599300622940063,0.2802048623561859,-0.0163732684548797,0.0273862873091438,-0.0303136322999367,-0.129443883895874,0.1855354905128479,-0.1667308807373047,73,103,14468,16576
22.2,1788445454268,4.929577350616455,5.633802890777588,-0.0024046110920608,0.0048919920809566,-0.8650772571563721,0.5016090869903564,0.1864499330420003,0.0024886680593365,2.259060152929632e-05,-0.0155022135004401,-0.0124605260789394,0.012972205877304,-0.0016399659216403,0.0051058549433946,-0.9597724080085754,0.2807281017303467,0.0096955445232193,-0.0420012136835905,0.0309456372824192,0.1761833429336547,0.1050050258636474,-0.5473117828369141,76,148,14004,14402
22.3,1788445454368,5.042253494262695,4.901408672332764,-0.0024046110920608,0.0048919920809566,-0.8650772571563721,0.5016090869903564,0.1864499330420003,0.0024886680593365,2.259060152929632e-05,-0.0155022135004401,-0.0124605260789394,0.012972205877304,-0.0022016866132616,0.0044783046469092,-0.9593709111213684,0.2821037769317627,0.0037861473015037,-0.002043421236102,-0.0109671304709052,-0.0055894255638122,-0.1326115727424621,0.1124553680419921,88,79,14856,12725
22.4,1788445454468,5.014084339141846,5.267605781555176,-0.0030985444318503,0.0040000570006668,-0.8640855550765991,0.503319501876831,0.1802834677904286,0.0016996023371647,1.2780613747626506e-06,0.0,0.0,0.0,-0.0016634855419397,0.0042396243661642,-0.9592602849006652,0.2824873030185699,0.0175431967907236,0.0205586457236988,0.0184563880741063,0.0925905108451843,0.1909093856811523,-0.918959617614746,98,114,16191,13291
22.5,1788445454568,5.014084339141846,5.267605781555176,-0.0030985444318503,0.0040000570006668,-0.8640855550765991,0.503319501876831,0.1802834677904286,0.0016996023371647,1.2780613747626506e-06,0.0,0.0,0.0,-0.0014355108141899,0.0042903963476419,-0.9596906304359436,0.2810222804546356,-0.0182237155219105,-0.0024485484207456,-0.0540217872110512,-0.1731502413749694,-0.1655583381652832,-0.3334007263183594,98,114,16191,13291
22.6,1788445454668,4.788732528686523,5.239436626434326,-0.0030985444318503,0.0040000570006668,-0.8640855550765991,0.503319501876831,0.1802834677904286,0.0016996023371647,1.2780613747626506e-06,0.0,0.0,0.0,-0.0019751312211155,0.0041824365034699,-0.959225058555603,0.28260537981987,0.1012773253553736,-0.104055312801895,0.1401613652288564,0.4815652966499328,0.4357070326805115,0.4709243774414062,98,114,16191,13291
22.7,1788445454768,4.788732528686523,5.239436626434326,-0.0033061578869819,0.0030099591240286,-0.8622304797172546,0.5064963102340698,0.1840555411075308,0.0080084415832002,-5.517600041486095e-05,0.0040494143031537,-0.0214137639850378,0.0715085119009018,-0.002892660908401,0.0034404005855321,-0.9581530094146729,0.2862212657928467,0.0037697210534317,-0.0163768458510471,0.0131749882752509,0.0379479527473449,0.0788560509681701,0.8407659530639648,102,74,15031,16396
22.8,1788445454868,4.929577350616455,5.577464580535889,-0.0037056398577988,0.002576160011813,-0.8620339632034302,0.5068304538726807,0.1718369835494248,0.0010329101378529,-4.615884813665222e-06,0.006726183462888,-0.0220995061099529,0.0150377973914146,-0.0018401481211185,0.0031758993864059,-0.957597553730011,0.2880860865116119,0.0219028786600175,0.0418598659672561,0.0838479494209897,-0.0483365058898925,0.0358599424362182,1.249882698059082,124,38,15851,12753
22.9,1788445454968,5.042253494262695,5.492957592010498,-0.0012889599893242,0.0031660189852118,-0.8606155514717102,0.5092437267303467,0.1836168315274163,0.0010634789861617,-0.0003866987451215,0.0116072688251733,0.051530335098505,0.0478952974081039,-0.0011185891926288,0.0037285173311829,-0.9576556086540222,0.2878899872303009,-0.0189542518544965,0.0302057694513081,-0.0309211452196534,-0.0499839186668396,-0.2134294509887695,-4.0478363037109375,107,131,15613,13648
23.0,1788445455068,4.957746505737305,5.098591327667236,-0.0019314655801281,0.0033709788694977,-0.86109858751297,0.5084230899810791,0.1918444635403095,0.0033158627615269,-0.0001167952106272,-0.0204224325716495,0.0042905742302536,-0.0206673443317413,-0.0007636211812496,0.0040322411805391,-0.957525908946991,0.2883180379867553,-0.0076620930242832,-0.0052203477827086,0.027915208723373,0.1882785558700561,-0.2911908626556396,1.545243263244629,74,55,14278,15868
23.1,1788445455168,4.901408672332764,4.985915660858154,-0.0014264680212363,0.0037267892621457,-0.8595125675201416,0.5110989809036255,0.1833603228411188,0.0022836260459612,-2.246091180987679e-06,0.0050466456450521,0.0011785335373133,0.0600210055708885,-0.000307397916913,0.0040266802534461,-0.9567946791648864,0.2907362878322601,0.0079684848768052,0.0225823491060654,0.0639949095150469,-0.0342592597007751,0.0146571993827819,-0.1763067245483398,78,54,14267,16378
23.2,1788445455268,4.929577350616455,5.380281925201416,-0.0011035231873393,0.0038368855603039,-0.8585512638092041,0.5127121210098267,0.185662986165026,0.0018716236598121,-3.271270767073935e-05,0.0072874799370765,0.0206268969923257,0.0450900942087173,-1.8044374883174896e-05,0.0039396556094288,-0.956094205379486,0.2930330336093902,0.0113584174916648,0.0254503982527723,0.0495716325802717,-0.11728036403656,-0.3105444312095642,-0.0843152999877929,75,128,14252,15062
23.3,1788445455368,5.014084339141846,4.732394218444824,-0.0004716119728982,0.003923678305,-0.8574994802474976,0.5144696831703186,0.1797568445151341,-0.0005726453095527,-5.450517420190879e-05,0.0070303459651768,0.0164584908634424,0.0582809522747993,0.0014436496421694,0.004131163470447,-0.9551270604133606,0.2961641848087311,-0.0062654846668526,0.0549449219347409,0.0102472329925034,0.0839409232139587,0.2123370170593261,-0.3785638809204101,82,152,14469,17427
23.4,1788445455468,5.014084339141846,4.732394218444824,0.0008638007566332,0.0045510679483413,-0.8560147881507874,0.5169306397438049,0.1820241162507759,0.0040967921204062,-0.0001348616075796,-0.001116529572755,0.032106552273035,0.0582138933241367,0.0016584815457463,0.0043798331171274,-0.954463005065918,0.2982927560806274,-0.0145230025522229,-0.0222738143467476,0.039893072311404,-0.1864768862724304,0.0737376809120178,1.0111675262451172,82,152,14469,17427
23.5,1788445455568,4.647887229919434,5.7183098793029785,-0.0007144710980355,0.0049884105101227,-0.8550670742988586,0.5184928774833679,0.1802253558924748,0.0020740455555775,0.0001749963923604,-0.0367559492588043,-0.0356233417987823,0.0349735356867313,0.0001715887337923,0.0051793726161122,-0.9541230201721193,0.2993699908256531,-0.0391461162504577,-0.0411519149895174,0.0243906050006789,-0.6606810688972473,-0.406782865524292,0.2202587127685547,82,101,15285,13381
23.6,1788445455668,4.957746505737305,5.6619720458984375,-0.0005099128466099,0.005090863443911,-0.8539305329322815,0.5203619599342346,0.1773694609771008,-0.0053280509609338,-0.000219270784397,0.0005545839085243,0.0085560763254761,0.0859388932585716,0.000164964236319,0.0045739691704511,-0.9530401825904846,0.302809476852417,0.0108157661026681,-0.0287611827679797,0.059693857046856,-0.1571011543273925,0.1244639754295349,0.7490196228027344,68,105,14501,13785
23.7,1788445455768,5.098591327667236,5.549295902252197,0.0002850403543561,0.007358431816101,-0.8526861071586609,0.5223717093467712,0.1763693086773394,-0.0023703163280494,4.491371332570977e-05,-0.0351384207606315,0.028260163962841,0.0236253831535577,0.00165949575603,0.0065963165834546,-0.9528319239616394,0.3034220933914184,-0.0361433682440091,0.0620255010254982,0.0292415725734357,-0.5563401579856873,0.1562576293945312,0.2764854431152344,79,149,13717,14736
23.8,1788445455868,5.098591327667236,4.788732528686523,-0.0007564357947558,0.0065629221498966,-0.8516254425048828,0.5241090655326843,0.1839691849479503,-0.0021102775777199,0.0001677830649884,0.0599346458911895,-0.0624077767133712,0.0675910785794258,0.0007482757791876,0.0062577733770012,-0.9518519043922424,0.3064935505390167,0.0074100543162911,-0.0174166595437851,-0.0018186969133625,-0.2702242732048034,-0.1799864768981933,-0.1008415222167968,82,33,14825,15375
23.9,1788445455968,4.619718074798584,4.788732528686523,-0.0005717074964195,0.0063556237146258,-0.8512834310531616,0.5246673226356506,0.1736382120850367,-0.0014294157821121,0.0001540433326279,0.0039226342923939,2.885891626647208e-05,-0.0162055622786283,0.000563851557672,0.0064543215557932,-0.9521556496620178,0.305544763803482,-0.0286281293345065,-0.0149783835075811,-0.0274760280490236,0.0584030151367187,0.1006264686584472,-2.1774230003356934,106,41,15437,16370
24.0,1788445456068,5.239436626434326,4.535211086273193,-0.0009160654153674,0.0065777511335909,-0.8513480424880981,0.5245592594146729,0.1793522500317884,-0.0012946323603043,-9.385109650943709e-05,-0.0184361785650253,-0.0087774489074945,-0.0063850441947579,0.000872291624546,0.0067641446366906,-0.9517722129821776,0.3067296743392944,0.0077122958752217,0.0652271111791444,0.0281398948752277,0.0968906879425048,-0.1451408267021179,-1.4049386978149414,93,69,15648,15201
24.1,1788445456168,5.239436626434326,4.563380241394043,-0.0009934082627296,0.0070532225072383,-0.8517134785652161,0.5239593982696533,0.1854348772640354,-0.0051884401738978,0.0001383804591736,-0.0048485482111573,0.0038073251489549,-0.0423833988606929,0.0010361019521951,0.0077008167281746,-0.9527152180671692,0.3037655055522918,0.0072867510714098,0.1056906397800469,-0.069321464654074,0.1491416096687317,0.2440186738967895,0.689326286315918,115,133,15881,15413
24.2,1788445456268,5.183098793029785,4.647887229919434,-0.0023143300786614,0.0072152004577219,-0.8529368042945862,0.521959125995636,0.1830044693499943,-0.003216901167724,-3.613747421369275e-05,-0.0140718584880232,-0.0322593376040458,-0.0470930151641368,0.0001924624666571,0.0076959002763032,-0.9533478021621704,0.3017759025096893,-0.0113733742072755,-0.0027870835978067,-0.0630758096004069,-0.4021847248077392,-0.0940306186676025,0.6962337493896484,80,71,14652,16136
24.3,1788445456368,5.183098793029785,4.535211086273193,-0.0012732434552162,0.0074429949745535,-0.8537172675132751,0.5206820964813232,0.1804383318874074,-0.0030818580780062,-6.628833739148283e-05,0.0103849042207002,0.0111741470173001,-0.00921181589365,0.0007171789184212,0.0079682320356369,-0.9534108638763428,0.3015687167644501,-0.0023667569184688,0.0274208958373971,-0.0060201337108858,0.053111732006073,-0.1306938529014587,0.4812154769897461,97,104,14849,16190
24.4,1788445456468,5.098591327667236,5.154929637908936,-0.0015068366192281,0.0082135405391454,-0.8535915017127991,0.5208759903907776,0.1779506213134298,-0.0015111669163907,6.969169217869698e-06,-0.0389522463083267,0.0099950525909662,0.0114978961646556,0.0012474907562136,0.0087339570745825,-0.9535136222839355,0.3012209832668304,-0.000390265675867,0.0144824653211769,-0.0254431913600237,-0.1005983352661132,0.046230137348175,-0.0928287506103515,70,39,14651,14682
24.5,1788445456568,4.901408672332764,5.802816867828369,-0.000538405496627,0.0090487478300929,-0.8541857600212097,0.5198888778686523,0.1752899127533357,0.0001464895451614,-5.5886917039841226e-05,-0.0048048570752143,0.0152552565559744,-0.0252079833298921,0.0029638204723596,0.009348202496767,-0.9536370635032654,0.3007993996143341,0.0001550012722333,0.0945775772172371,0.0074850717391148,-2.246227741241455,-0.1295520663261413,6.086199760437012,77,128,13960,13574
24.6,1788445456668,5.267605781555176,5.436619758605957,-0.0014861556701362,0.0079196682199835,-0.8522976636886597,0.5229949951171875,0.1917381195394382,-0.0013749586344737,-0.000324369663635,0.0066748717799782,0.0178962461650371,0.0376066751778125,0.0004032608121633,0.00803495477885,-0.9525770545005798,0.3041909635066986,-0.0064862176580929,-0.0677942164549273,0.0272399095848077,-0.4749724864959717,0.3182662725448608,2.1473121643066406,61,121,14781,13947
24.7,1788445456768,5.183098793029785,4.985915660858154,-0.0006681052036583,0.0078228088095784,-0.8520514369010925,0.5233991742134094,0.1795819820454596,0.001847561544123,1.6637093149183022e-05,0.0201697833836078,0.0254776570945978,0.0190024450421333,0.0009033847600221,0.0076629901304841,-0.9524363279342652,0.3046399056911468,0.0089301120996937,0.0021752282547089,0.0085984491100138,-0.5001381635665894,0.2381997108459472,2.163055419921875,79,20,15333,14200
24.8,1788445456868,5.380281925201416,4.647887229919434,-0.0013025298248976,0.0073394672945141,-0.852928876876831,0.5219740271568298,0.1890718440556711,-0.0015156705453607,0.0001094249141575,-0.0114932153373956,-0.0414491109549999,-0.0876399353146553,0.0006263554096221,0.0074455291032791,-0.9532186985015868,0.302189439535141,0.0057404296174322,0.0131669237519579,-0.0863707965545002,0.0816383361816406,-0.2375863194465637,-1.3019018173217771,93,109,15188,14923
24.9,1788445456968,5.211267471313477,5.154929637908936,-0.0016450576949864,0.0073629575781524,-0.8549789190292358,0.5186077356338501,0.1799590394911867,-0.0062615793063488,1.427957346652872e-05,-0.0028015684802085,-0.0189227499067783,-0.0600891970098018,3.418419510126114e-05,0.0074614649638533,-0.9544078707695008,0.2984124720096588,0.0030226489325318,-0.0079214515309883,-0.0558235099138297,-0.0820552110671997,-0.188936710357666,-0.4558992385864258,91,59,14710,16155
25.0,1788445457068,5.239436626434326,5.239436626434326,-0.0017591174691915,0.0093921925872564,-0.8564435839653015,0.5161522030830383,0.1703885760002779,-0.0006654312223131,-0.0001203766420697,-0.0662716925144195,0.0404331907629966,-0.0789728090167045,-0.0010855169966816,0.0070616155862808,-0.9548823237419128,0.2968983352184295,0.1048245267121523,-0.1100017998968972,0.0451012004064008,0.1291101574897766,0.3548092842102051,0.5684432983398438,86,95,14024,14583
25.1,1788445457168,5.098591327667236,5.7183098793029785,-0.0031098627950996,0.0062362239696085,-0.8560545444488525,0.5168384313583374,0.1919694368448851,-0.0063473509745118,0.0003068519795333,0.0257771853357553,-0.0533501915633678,0.0306843630969524,-0.0030353525653481,0.0076741632074117,-0.9547978043556212,0.2971414029598236,-0.0735851084733311,-0.0503407196647436,-0.027830918659501,-0.2070911526679992,-0.0547903776168823,1.004800796508789,43,109,13375,12632
25.2,1788445457268,4.8450703620910645,5.042253494262695,-0.0047427713871002,0.006704029161483,-0.8561198711395264,0.5167120099067688,0.1593696327196459,0.0016174028455226,2.809698762463105e-06,0.0,0.0,0.0,-0.0030991556122899,0.0065743541345,-0.9541223049163818,0.29932901263237,0.0289149154258792,0.00694165141617,0.0195002229644237,0.0763402581214904,-0.6130906343460083,-0.7020063400268555,93,139,15841,15168
25.3,1788445457368,5.239436626434326,4.422535419464111,-0.0046054916456341,0.0049878950230777,-0.8546860814094543,0.5191007852554321,0.1883978449782251,-0.003771898030298,4.8218347083370425e-05,0.0542154498398304,-0.0351139456033706,0.0446737706661224,-0.0025619184598326,0.0066486457362771,-0.954060435295105,0.2995295226573944,-0.011042602313373,-0.0545648502290815,-0.0385804647064399,-0.0077716708183288,-0.3834366202354431,0.5307044982910156,98,88,15794,15772
25.4,1788445457468,5.014084339141846,4.901408672332764,-0.0043925959616899,0.0057679791934788,-0.8553640842437744,0.5179765224456787,0.182302030549152,-0.0094545745230304,3.888328748890969e-05,-0.0045186700299382,-0.0135800587013363,-0.0398043133318424,-0.0033913981169462,0.0066386992111802,-0.954914689064026,0.2967866063117981,0.0097001781857532,0.0032213046532387,-0.02667104402705,-0.183366060256958,0.2172181010246276,0.3156471252441406,72,33,15372,15312
25.5,1788445457568,4.957746505737305,5.408450603485107,-0.0048795891925692,0.005635913927108,-0.8563248515129089,0.5163837671279907,0.18047406949284,-0.0061633526396129,-4.353707080806466e-06,0.0046421028673648,0.0003371495695319,-0.0055523277260363,-0.0043273698538541,0.006257900968194,-0.9548740386962892,0.2969135046005249,0.0009818005597189,-0.0316288200055527,-0.0102064751316338,-0.0574547052383422,-0.0613020658493042,1.2470273971557615,70,65,15448,13702
25.6,1788445457668,5.239436626434326,4.619718074798584,-0.0053468779660761,0.0051775565370917,-0.8563047051429749,0.5164174437522888,0.17289671080989,-0.0028369050074314,-3.974246256546589e-05,0.0044613513164222,0.0205371417105197,-0.009104031138122,-0.0040115304291248,0.0062825186178088,-0.9550982117652892,0.2961955070495605,0.0025887031019899,-0.015981001812741,-0.0182347022074183,0.0502172112464904,0.2278376221656799,0.9108762741088868,108,116,15520,15381
25.7,1788445457768,5.323943614959717,4.760563373565674,-0.0053411219269037,0.0050960066728293,-0.8570440411567688,0.5151902437210083,0.1773553052662943,-0.0011740615752912,2.7922888688550705e-05,0.0043604155071079,0.0019358352292329,-0.0508762151002883,-0.0034547932446002,0.0062887892127037,-0.9556224942207336,0.2945066392421722,0.001268654505371,0.0305129578659176,-0.0300829751322365,-0.0587744116783142,-0.2285107970237732,-0.7451972961425781,83,33,14176,15995
25.8,1788445457868,5.577464580535889,5.070422649383545,-0.0049032550305128,0.0049635581672191,-0.8576509356498718,0.5141850709915161,0.1781460883903806,-0.0031560604735942,-3.547683415496098e-05,0.0115930130705237,0.0015856078825891,-0.0120409848168492,-0.0036236448213458,0.005912771448493,-0.9556909203529358,0.2942902743816376,0.0050674329913117,0.0021198293944358,0.00361522119049,0.1221615672111511,0.1037808656692504,0.5772905349731445,152,64,16931,11868
25.9,1788445457968,5.605633735656738,4.394366264343262,-0.0054203392937779,0.0045561608858406,-0.8589767813682556,0.5119655728340149,0.1834500742270601,-0.0049421725391887,8.580795423214172e-05,0.0026397351175546,-0.0211707018315792,-0.0970647484064102,-0.0037877531722187,0.0053813615813851,-0.9575315713882446,0.2882535755634308,0.0198515646910213,-0.0004069254777612,-0.1145694030477601,-0.1364844441413879,-0.0248823761940002,0.7937250137329102,80,92,16633,13830
26.0,1788445458068,5.577464580535889,5.014084339141846,-0.0051435213536024,0.0040613110177218,-0.8619340658187866,0.5069779753684998,0.1831071634991315,-0.0054828946011594,5.03930473483382e-05,0.0100765861570835,-0.0171852465718984,-0.1247074529528617,-0.003321161493659,0.0056133102625608,-0.9596830606460572,0.2810088694095611,-0.0101419402910365,0.0320390273825519,-0.2055011393262974,-0.0769109725952148,-0.1162076592445373,-0.7135257720947266,90,62,16760,11644
26.1,1788445458168,5.436619758605957,4.253520965576172,-0.0036236646119505,0.0052525633946061,-0.8678827881813049,0.4967280924320221,0.171960790901896,-0.0053143324073036,-8.219279621161032e-05,-0.0003084747295361,0.0367147736251354,-0.209965318441391,-0.0012147696688771,0.0063317427411675,-0.9628470540046692,0.2699703574180603,0.0005870448608694,0.052340865243436,-0.1790892233802686,0.1696550250053405,-0.3450475931167602,-0.4663324356079101,77,40,17036,14598
26.2,1788445458268,5.436619758605957,4.14084529876709,-0.0019236140651628,0.0064959079027175,-0.8718101978302002,0.489796906709671,0.1798820459798162,-0.0059909564683728,-0.000145521985859,-0.0059317140839993,0.061833769083023,-0.1801576763391494,-0.0033097462728619,0.006617872044444,-0.9649343490600586,0.262387216091156,-0.0475144723959592,-0.1362253612044543,-0.1733088621573671,-0.0632826685905456,0.0897772908210754,4.950590133666992,71,157,16776,15209
26.3,1788445458368,5.77464771270752,5.323943614959717,-0.0041362042538821,0.007507957983762,-0.8765025734901428,0.4813209772109985,0.1630327599756123,-0.0003530755391352,0.0002428763466245,-0.07321098446846,0.0260484162718057,-0.2238479703664779,-0.0028914799913764,0.0068670185282826,-0.9668099880218506,0.2553878426551819,0.107286685420263,-0.1018432266628678,-0.0775808070856574,0.2958091497421264,-0.1619853377342224,-1.1549091339111328,67,79,15974,12272
26.4,1788445458468,5.380281925201416,4.929577350616455,-0.0040815486572682,0.0052091628313064,-0.8781530261039734,0.4783341288566589,0.1883677561217522,-0.0086078155298963,0.0001072235458785,0.0409539937973022,-0.001912000705488,-0.0385240726172924,-0.0034023281186819,0.0058696595951914,-0.9679904580116272,0.250895231962204,0.0068697197622531,-0.0537600421545765,-0.1729863347748744,-0.2570347785949707,-0.7658019065856934,0.6523551940917969,64,107,16177,13478
26.5,1788445458568,5.605633735656738,4.14084529876709,-0.0032939221709966,0.0051419045776128,-0.8827964663505554,0.4697160422801971,0.1691717616091855,-0.0071756197802333,-0.0001615234643766,0.011020022444427,0.0361048206686973,-0.1706177294254303,-0.0018286788836121,0.0059373816475272,-0.970316469669342,0.241759106516838,-0.0049110423826144,0.0014986100953442,-0.1670237049798788,0.1330907940864563,-0.0553478002548217,-0.7867536544799805,125,80,16795,11778
26.6,1788445458668,5.690140724182129,4.507042407989502,-0.0031367288902401,0.0052566723898053,-0.8862758874893188,0.4631172716617584,0.1775270102118264,-0.004467506711809,-1.9597386423843836e-05,0.001494376338087,-0.0006570924306288,-0.1507918834686279,-0.0009045824408531,0.0062748128548264,-0.97219318151474,0.2340947389602661,-0.0109927571398025,0.0433795171068048,-0.1695247586747501,-0.1113515496253967,-0.0490857362747192,-0.4691343307495117,98,115,16321,13613
26.7,1788445458768,5.549295902252197,4.394366264343262,-0.0025463914498686,0.0065416162833571,-0.8901158571243286,0.4556802809238434,0.1863839714049918,-0.0064636801122805,-4.502379702791142e-05,-0.0263733956962823,0.0139579745009541,-0.1771692484617233,-0.0011102873831987,0.0075597893446683,-0.9745348691940308,0.224105954170227,0.0387215064406937,0.0343170708740832,-0.1438510012057871,0.1821253299713134,-0.3801212310791015,-0.67816162109375,93,35,16336,14191
26.8,1788445458868,5.605633735656738,5.267605781555176,-0.0017784526571631,0.0072721908800303,-0.8932587504386902,0.4494805634021759,0.1702514661475062,-0.010118112363847,-0.0002012964465691,0.043598186224699,0.0789069980382919,-0.1086597740650177,0.0002030953764915,0.0074478453025221,-0.9748778343200684,0.2226156592369079,0.0268056380931661,0.0843984105850555,-0.1011686129230756,0.2082794308662414,0.4237895011901855,-0.6588306427001953,44,127,14601,13488
26.9,1788445458968,5.239436626434326,5.352112770080566,-0.0005601947195827,0.0067971255630254,-0.8958437442779541,0.4443169236183166,0.1755980359553757,-0.0083882271361386,9.328554012196392e-05,0.0244451332837343,-0.007478445302695,-0.0473182313144207,0.0012009367346763,0.0066523905843496,-0.9760941863059998,0.2172427028417587,0.0212308072363002,0.0334981295635674,-0.0290282180748499,0.0202915668487548,0.1119047403335571,-0.6963663101196289,65,116,15184,13267
27.0,1788445459068,5.6619720458984375,4.788732528686523,-9.399373084306716e-05,0.006094567477703,-0.8966131210327148,0.4427728354930877,0.183565311140274,-0.0040121874813889,-2.223583289759718e-05,0.0128526762127876,-0.0022918740287423,-0.0411786772310733,0.0004803463816642,0.0052975444123148,-0.9766676425933838,0.2146906405687332,0.0163778405159545,-0.0336099696962426,-0.0394519667833093,-0.1881603598594665,0.1625082492828369,0.7294454574584961,68,24,16014,12306
27.1,1788445459168,5.211267471313477,4.591549396514893,-0.0010580765083432,0.0043333228677511,-0.8977158665657043,0.440552294254303,0.187285255788257,-0.0046748873697593,7.702282672205481e-05,0.0288413222879171,-0.0291621144860982,-0.0611356496810913,0.0001813294366002,0.0048944167792797,-0.977919101715088,0.2089267969131469,0.0053352442662745,-0.0386058739337435,-0.1110213793756186,-0.0161882042884826,-0.1391445398330688,0.4715776443481445,103,119,15359,15096
27.2,1788445459268,5.211267471313477,5.464788913726807,-0.0010071117430925,0.0047482997179031,-0.8997769355773926,0.4363232851028442,0.1758184318995481,-0.0030105876811604,4.989352358875662e-05,0.0080502238124609,-0.0133598763495683,-0.0609213076531887,0.0002511302009224,0.0051644137129187,-0.9782575368881226,0.2073293477296829,0.0088673875203483,-0.0014128483284573,-0.0426655714979563,-0.0734984874725341,-0.2752969861030578,0.7206554412841797,48,184,13395,14831
