time_s,timestamp_ms,wheel_vels__velocity_left,wheel_vels__velocity_right,odom__orient_x,odom__orient_y,odom__orient_z,odom__orient_w,odom__lin_x,odom__lin_y,odom__lin_z,odom__ang_x,odom__ang_y,odom__ang_z,imu__orient_x,imu__orient_y,imu__orient_z,imu__orient_w,imu__angvel_x,imu__angvel_y,imu__angvel_z,imu__acc_x,imu__acc_y,imu__acc_z,wheel_status__current_ma_left,wheel_status__current_ma_right,wheel_status__pwm_left,wheel_status__pwm_right
0.0,1788174547890,0.0,0.0,-0.0012171193957328,0.0063270828686654,-0.8921538591384888,0.4516858458518982,0.0,0.0,0.0,0.0,-5.68783997678679e-09,0.0,-0.0024372693151235,-0.005967266857624,0.994037926197052,0.1088443174958229,-3.747448284398198e-05,-1.5343036213581147e-05,1.7432965506398117e-11,0.0141385197639465,-0.0142751932144165,0.0056829452514648,0,0,0,0
0.1,1788174547990,0.0,0.0,-0.0012171193957328,0.0063270828686654,-0.8921538591384888,0.4516858458518982,0.0,0.0,0.0,0.0,-5.68783997678679e-09,0.0,-0.0024372693151235,-0.005967266857624,0.994037926197052,0.1088443174958229,-3.747448284398198e-05,-1.5343036213581147e-05,1.7432965506398117e-11,0.0141385197639465,-0.0142751932144165,0.0056829452514648,0,0,0,0
0.2,1788174548090,0.0,0.0,-0.0012171193957328,0.0063270828686654,-0.8921538591384888,0.4516858458518982,0.0,0.0,0.0,0.0,-5.68783997678679e-09,0.0,-0.0024372693151235,-0.005967266857624,0.994037926197052,0.1088443174958229,-3.747448284398198e-05,-1.5343036213581147e-05,1.7432965506398117e-11,0.0141385197639465,-0.0142751932144165,0.0056829452514648,0,0,0,0
0.3,1788174548190,0.0,0.0,-0.0012171193957328,0.0063270828686654,-0.8921538591384888,0.4516858458518982,0.0,0.0,0.0,0.0,-5.68783997678679e-09,0.0,-0.0024372693151235,-0.005967266857624,0.994037926197052,0.1088443174958229,-3.747448284398198e-05,-1.5343036213581147e-05,1.7432965506398117e-11,0.0141385197639465,-0.0142751932144165,0.0056829452514648,0,0,0,0
0.4,1788174548290,0.0,0.0,-0.0012171193957328,0.0063270828686654,-0.8921538591384888,0.4516858458518982,0.0,0.0,0.0,0.0,-5.68783997678679e-09,0.0,-0.0024372693151235,-0.005967266857624,0.994037926197052,0.1088443174958229,-3.747448284398198e-05,-1.5343036213581147e-05,1.7432965506398117e-11,0.0141385197639465,-0.0142751932144165,0.0056829452514648,0,0,0,0
0.5,1788174548390,0.0,0.0,-0.0012171193957328,0.0063270828686654,-0.8921538591384888,0.4516858458518982,0.0,0.0,0.0,0.0,-5.68783997678679e-09,0.0,-0.0024372693151235,-0.005967266857624,0.994037926197052,0.1088443174958229,-3.747448284398198e-05,-1.5343036213581147e-05,1.7432965506398117e-11,0.0141385197639465,-0.0142751932144165,0.0056829452514648,0,0,0,0
0.6,1788174548490,0.0,0.0,-0.0012171193957328,0.0063270828686654,-0.8921538591384888,0.4516858458518982,0.0,0.0,0.0,0.0,-5.68783997678679e-09,0.0,-0.0024372693151235,-0.005967266857624,0.994037926197052,0.1088443174958229,-3.747448284398198e-05,-1.5343036213581147e-05,1.7432965506398117e-11,0.0141385197639465,-0.0142751932144165,0.0056829452514648,0,0,0,0
0.7,1788174548590,0.0,0.0,-0.0012171193957328,0.0063270828686654,-0.8921538591384888,0.4516858458518982,0.0,0.0,0.0,0.0,-5.68783997678679e-09,0.0,-0.0024372693151235,-0.005967266857624,0.994037926197052,0.1088443174958229,-3.747448284398198e-05,-1.5343036213581147e-05,1.7432965506398117e-11,0.0141385197639465,-0.0142751932144165,0.0056829452514648,0,0,0,0
0.8,1788174548690,0.0,0.0,-0.0012171193957328,0.0063270828686654,-0.8921538591384888,0.4516858458518982,0.0,0.0,0.0,0.0,-5.68783997678679e-09,0.0,-0.0024372693151235,-0.005967266857624,0.994037926197052,0.1088443174958229,-3.747448284398198e-05,-1.5343036213581147e-05,1.7432965506398117e-11,0.0141385197639465,-0.0142751932144165,0.0056829452514648,0,0,0,0
0.9,1788174548790,0.0,0.0,-0.0012190067209303,0.0063297390006482,-0.8921538591384888,0.4516858458518982,0.0,0.0,0.0,0.0,-4.7445762874076536e-09,0.0,-0.0024275286123156,-0.0059703802689909,0.994037926197052,0.1088443920016288,6.398621113338928e-06,-0.0001547665119356,-2.461020974843416e-06,-0.0048415064811706,-0.0002421736717224,0.004307746887207,0,0,0,0
1.0,1788174548890,0.0,0.0,-0.0012190067209303,0.0063297390006482,-0.8921538591384888,0.4516858458518982,0.0,0.0,0.0,0.0,-4.798397235106222e-09,0.0,-0.0024205846711993,-0.005970075726509,0.994037926197052,0.1088444590568542,2.3067164961922748e-05,-0.0001517672728969,-2.1303495862792827e-06,0.0203808546066284,-0.0074092745780944,-0.0194110870361328,0,0,0,0
1.1,1788174548990,0.0,0.0,-0.0012190067209303,0.0063297390006482,-0.8921538591384888,0.4516858458518982,0.0,0.0,0.0,0.0,-4.646304230249143e-09,0.0,-0.0024129608646035,-0.0059682400897145,0.994037926197052,0.1088445335626602,6.627955256553889e-05,-9.714019173335425e-05,-9.856669532974005e-07,-0.0063929557800292,0.0081875920295715,0.0036659240722656,0,0,0,0
1.2,1788174549090,0.0,0.0,-0.0012190067209303,0.0063297390006482,-0.8921538591384888,0.4516858458518982,0.0,0.0,0.0,0.0,-5.7925459984176095e-09,0.0,-0.0024082316085696,-0.0059627583250403,0.994037926197052,0.1088445335626602,0.0001526462392039,-8.619481867711278e-05,-3.96602416892525e-07,0.0045264959335327,-0.0175806879997253,-0.0201778411865234,0,0,0,0
1.3,1788174549190,0.0,0.0,-0.0012190067209303,0.0063297390006482,-0.8921538591384888,0.4516858458518982,0.0,0.0,0.0,0.0,-3.881873045230577e-09,0.0,-0.0024047354236245,-0.0059547768905758,0.9940380454063416,0.1088445484638214,0.0001898490304024,-4.8359230862545656e-05,-1.3822175517413075e-10,0.0048002004623413,-0.0233379006385803,-0.0427045822143554,0,0,0,0
1.4,1788174549290,0.0,0.0,-0.0012190067209303,0.0063297390006482,-0.8921538591384888,0.4516858458518982,0.0,0.0,0.0,0.0,-5.769658528720356e-09,0.0,-0.0024021817371249,-0.0059481281787157,0.9940380454063416,0.1088445484638214,0.0001207783659083,-4.532300900875673e-05,-8.188807650546054e-11,-0.0025596022605895,-0.0157512426376342,-0.0171213150024414,0,0,0,0
1.5,1788174549390,0.0,0.0,-0.0012190067209303,0.0063297390006482,-0.8921538591384888,0.4516858458518982,0.0,0.0,0.0,0.0,-4.684470589211287e-09,0.0,-0.0023987302556633,-0.0059464294463396,0.9940380454063416,0.1088445484638214,1.875211801343247e-06,-5.940091202417514e-05,-4.615923055952792e-07,0.0150901079177856,0.0227047801017761,0.0137958526611328,0,0,0,0
1.6,1788174549490,0.0,0.0,-0.0012383732246235,0.0062912469729781,-0.8921540975570679,0.4516856670379638,0.0,0.0,0.0,0.0,5.97916605116211e-09,0.0,-0.0023927707225084,-0.0059520471841096,0.9940380454063416,0.1088446304202079,-0.0001145035748796,-0.0001224265329359,-2.4914120269278867e-06,0.0145696997642517,-0.0140293836593627,0.0046300888061523,0,0,0,0
1.7,1788174549590,0.0,0.0,-0.0012429931666702,0.0062918933108448,-0.8921540975570679,0.4516856372356415,0.0,0.0,0.0,0.0,9.722782579046909e-09,0.0,-0.0023900242522358,-0.0059550106525421,0.9940380454063416,0.1088446676731109,-0.0001067038747403,-0.0001230642700475,-2.1022140358907942e-06,-0.0106135606765747,0.0181939005851745,-0.0075540542602539,0,0,0,0
1.8,1788174549690,0.0,0.0,-0.0012429931666702,0.0062918933108448,-0.8921540975570679,0.4516856372356415,0.0,0.0,0.0,0.0,7.560243986404203e-09,0.0,-0.0023878132924437,-0.0059565789997577,0.9940380454063416,0.1088446974754333,-6.588387000870582e-05,-0.0001183512602097,-2.233984540213049e-06,-0.0104349255561828,-0.0089250206947326,-0.0288076400756835,0,0,0,0
1.9,1788174549790,0.0,0.0,-0.0012429931666702,0.0062918933108448,-0.8921540975570679,0.4516856372356415,0.0,0.0,0.0,0.0,9.32366450712152e-09,0.0,-0.0023846663534641,-0.0059591634199023,0.9940380454063416,0.1088447347283363,-1.1464749454381673e-05,-2.0287353145017705e-05,-4.94433127135558e-07,0.0097175240516662,0.0102654695510864,0.0280351638793945,0,0,0,0
2.0,1788174549890,0.0,0.0,-0.0012429931666702,0.0062918933108448,-0.8921540975570679,0.4516856372356415,0.0,0.0,0.0,0.0,1.1727494531044158e-08,0.0,-0.0023830104619264,-0.0059546316042542,0.9940380454063416,0.1088447347283363,0.0001353226866951,-3.115147702249505e-05,-8.352577905919937e-11,-0.0371770858764648,-5.751848220825195e-05,0.0348711013793945,0,0,0,0
2.1,1788174549990,0.0,0.0,-0.0012429931666702,0.0062918933108448,-0.8921540975570679,0.4516856372356415,0.0,0.0,0.0,0.0,9.46227807219202e-09,0.0,-0.0023795012384653,-0.0059446971863508,0.9940381646156312,0.1088447496294975,0.0002171869125486,-6.575222791479973e-05,-2.6659329951098005e-10,0.0057955384254455,-0.0220210552215576,-0.0070390701293945,0,0,0,0
2.2,1788174550090,0.0,0.0,-0.0012429931666702,0.0062918933108448,-0.8921540975570679,0.4516856372356415,0.0,0.0,0.0,0.0,7.657360967527893e-09,0.0,-0.0023761875927448,-0.0059394286945462,0.9940381646156312,0.1088447496294975,0.0001788486682447,-9.990653455010556e-05,-4.96467148068719e-07,-0.0159469246864318,-0.0074089765548706,-0.0361490249633789,0,0,0,0
2.3,1788174550190,0.0,0.0,-0.0012429931666702,0.0062918933108448,-0.8921540975570679,0.4516856372356415,0.0,0.0,0.0,0.0,6.6430239087367235e-09,0.0,-0.0023652482777833,-0.0059318048879504,0.9940382838249208,0.1088448464870452,9.329580434566044e-05,-0.0001840457363305,-2.484005809477212e-06,-0.0097619891166687,0.0109174251556396,-0.0042009353637695,0,0,0,0
2.4,1788174550290,0.0,0.0,-0.0012429931666702,0.0062918933108448,-0.8921540975570679,0.4516856372356415,0.0,0.0,0.0,0.0,9.116418731025533e-09,0.0,-0.0023535247892141,-0.0059289522469043,0.9940382838249208,0.1088449358940124,6.761814516491512e-05,-0.0002055270646625,-2.6728473486303647e-06,-0.0099419355392456,0.0039210319519042,-0.0241756439208984,0,0,0,0
2.5,1788174550390,0.0,0.0,-0.0012429931666702,0.0062918933108448,-0.8921540975570679,0.4516856372356415,0.0,0.0,0.0,0.0,9.479305340676092e-09,0.0,-0.0023445226252079,-0.0059269433841109,0.9940382838249208,0.1088450029492378,6.515693457105012e-05,-0.0001840142636818,-2.47058551863472e-06,0.0239346027374267,0.0180380940437316,0.0067358016967773,0,0,0,0
2.6,1788174550490,0.0,0.0,-0.0012759828241541,0.0062418193556368,-0.8921545743942261,0.4516853094100952,-6.901752167645493e-07,9.396517470773308e-07,9.212874399399784e-09,0.0011648827930912,-0.0020361628849059,-3.0313949537230656e-05,-0.0023366287350654,-0.005924648605287,0.9940382838249208,0.1088450700044632,6.649007033201035e-05,-0.0001538667800168,-2.4811262377279478e-06,0.0043697357177734,-0.0178645253181457,-0.0075130462646484,0,0,0,0
2.7,1788174550590,0.0,0.0,-0.0012759828241541,0.0062418193556368,-0.8921545743942261,0.4516853094100952,0.0,0.0,0.0,0.0,4.666980135681342e-09,0.0,-0.0023269718512892,-0.0059220921248197,0.9940382838249208,0.1088451594114303,4.5647137230028615e-05,-0.0001435645488606,-1.9901638840667554e-06,-0.0100737214088439,-0.0248625874519348,-0.0105838775634765,0,0,0,0
2.8,1788174550690,0.0,0.0,-0.0012759828241541,0.0062418193556368,-0.8921545743942261,0.4516853094100952,0.0,0.0,0.0,0.0,5.810914860404637e-09,0.0,-0.00232202000916,-0.0059223249554634,0.9940384030342102,0.1088452041149139,-5.937127572339017e-06,-9.42209925860297e-05,-9.89513122805824e-07,0.0117627382278442,-0.0083388686180114,-0.0133028030395507,0,0,0,0
2.9,1788174550790,0.0,0.0,-0.0012759828241541,0.0062418193556368,-0.8921545743942261,0.4516853094100952,0.0,0.0,0.0,0.0,4.8385615514234814e-09,0.0,-0.0023182444274425,-0.0059268409386277,0.9940384030342102,0.1088452190160751,-0.0001038497396723,-7.129565743379607e-05,-1.4923404392927108e-06,0.0205749869346618,-0.0040605068206787,0.0332155227661132,0,0,0,0
3.0,1788174550890,0.0,0.0,-0.0012759828241541,0.0062418193556368,-0.8921545743942261,0.4516853094100952,0.0,0.0,0.0,0.0,3.818696914237307e-09,0.0,-0.0023156525567173,-0.0059341453015804,0.9940382838249208,0.1088452562689781,-0.000176844325723,-7.653872452823811e-05,-2.501574884360485e-06,-0.0099362134933471,-0.0033025741577148,0.0042495727539062,0,0,0,0
3.1,1788174550990,0.0,0.0,-0.0012759828241541,0.0062418193556368,-0.8921545743942261,0.4516853094100952,0.0,0.0,0.0,0.0,4.649470586315374e-09,0.0,-0.0023131566122174,-0.0059439511969685,0.9940382838249208,0.1088452860713005,-0.0002136023393804,-6.54122635463237e-05,-1.3983461056181836e-06,-0.0098123550415039,0.0386956334114074,-0.013071060180664,0,0,0,0
3.2,1788174551090,0.0,0.0,-0.0012759828241541,0.0062418193556368,-0.8921545743942261,0.4516853094100952,0.0,0.0,0.0,0.0,5.665928615172788e-09,0.0,-0.0023127207532525,-0.0059548737481236,0.9940381646156312,0.1088452711701393,-0.0001552736424291,-1.7593683678035445e-05,5.097497338414088e-11,-0.0093201994895935,0.0095044374465942,-0.0376453399658203,0,0,0,0
3.3,1788174551190,0.0,0.0,-0.0012759828241541,0.0062418193556368,-0.8921545743942261,0.4516853094100952,0.0,0.0,0.0,0.0,4.677196407953943e-09,0.0,-0.002313045784831,-0.0059602307155728,0.9940381646156312,0.1088452711701393,-0.0001089170272055,-5.141613854117384e-06,8.571416883608437e-12,-0.014840543270111,0.0127856731414794,0.0092153549194335,0,0,0,0
3.4,1788174551290,0.0,0.0,-0.0013181722024455,0.0062582520768046,-0.8921545743942261,0.4516850411891937,-6.891524717596068e-07,9.382580011508554e-07,9.215077185510405e-09,-0.0013171200407668,-0.0011803364614024,-1.8627079043653797e-05,-0.0023147668689489,-0.0059649385511875,0.9940381646156312,0.1088452711701393,-0.0001015177198414,4.315902539163213e-05,-6.563837335145612e-11,-0.0089841485023498,0.0308364629745483,-0.0047492980957031,0,0,0,0
3.5,1788174551390,0.0,0.0,-0.0013181722024455,0.0062582520768046,-0.8921545743942261,0.4516850411891937,0.0,0.0,0.0,0.0,0.0,0.0,-0.0023173652589321,-0.0059672044590115,0.9940381646156312,0.1088452711701393,-5.565026996218938e-05,6.141383134106819e-05,5.122160676973477e-07,0.0145608782768249,-0.0127071142196655,-0.017435073852539,0,0,0,0
3.6,1788174551490,0.0,0.0,-0.0013181722024455,0.0062582520768046,-0.8921545743942261,0.4516850411891937,0.0,0.0,0.0,0.0,0.0,0.0,-0.0023173652589321,-0.0059672044590115,0.9940381646156312,0.1088452711701393,-5.565026996218938e-05,6.141383134106819e-05,5.122160676973477e-07,0.0145608782768249,-0.0127071142196655,-0.017435073852539,0,0,0,0
3.7,1788174551590,0.0,0.0,-0.0013142015086486,0.0062639461830258,-0.8921544551849365,0.4516850709915161,0.0,0.0,0.0,0.0,4.7640087430522734e-09,0.0,-0.002321776933968,-0.0059578726068139,0.9940381646156312,0.1088452711701393,0.0001388385485236,5.067021594476665e-05,4.930971646755622e-07,0.00197035074234,0.0107467770576477,0.0016717910766601,0,0,0,0
3.8,1788174551690,0.0,0.0,-0.0013142015086486,0.0062639461830258,-0.8921544551849365,0.4516850709915161,0.0,0.0,0.0,0.0,3.861105213331939e-09,0.0,-0.0023227632045745,-0.0059471987187862,0.9940381646156312,0.1088452711701393,0.0002345278699938,2.900829070960722e-05,4.986330612355873e-07,-0.0161429643630981,0.0045617222785949,-0.0113029479980468,0,0,0,0
3.9,1788174551790,0.0,0.0,-0.0013142015086486,0.0062639461830258,-0.8921544551849365,0.4516850709915161,0.0,0.0,0.0,0.0,4.6937778108713254e-09,0.0,-0.0023216381669044,-0.0059370538219809,0.9940382838249208,0.1088452860713005,0.0001974144425235,-1.4755943388805436e-05,4.5838966764233285e-07,-0.0092636942863464,-0.0132601261138916,-0.0198583602905273,0,0,0,0
4.0,1788174551890,0.7042253613471985,1.5774648189544678,-0.0012968254741281,0.0062387036159634,-0.8921547532081604,0.4516851603984833,0.0,0.0,0.0,8.886923751560971e-05,-2.305187445017509e-05,0.0,-0.0018554870039224,-0.0059883119538426,0.9941426515579224,0.1078939363360405,-0.0006558396364477,-0.0254417003435877,0.0528200527717974,1.1343759298324585,0.0199317932128906,0.1103191375732421,44,377,4143,9313
4.1,1788174551990,2.3380281925201416,4.873239517211914,-0.0015805587172508,0.0061855111271142,-0.8906417489051819,0.4546608328819275,0.0530602173214855,0.0016176239252411,2.222939999101366e-05,-0.0037085006479173,-0.008241300471127,0.1291586607694625,-0.0018126051872968,-0.0062462277710437,0.9952496886253356,0.0971381738781929,-0.0082184428533082,-0.0070906633204689,0.2715678429436647,0.4933139085769653,0.1450474262237548,-0.3391571044921875,55,285,7492,18141
4.2,1788174552090,3.014084577560425,6.535211086273193,-0.0017369830748066,0.0063384640961885,-0.8834275603294373,0.4685217440128326,0.1183767906914859,0.0008405930405413,3.774340822059147e-05,-0.0043908599764108,-0.0006528070080094,0.3385948538780212,-0.0018955003470182,-0.0062180357053875,0.9971659779548644,0.0749518573284149,0.0054169383641134,0.0032679697990044,0.5229219580646013,0.3857117295265198,0.1649569869041443,-0.1815023422241211,100,261,9805,21391
4.3,1788174552190,3.549295663833618,6.788732528686523,-0.001482137129642,0.006219214759767,-0.8700929284095764,0.49284628033638,0.1746526168287769,0.0069110902754642,3.462421279406129e-05,0.0063867713324725,0.00398262264207,0.516299843788147,-0.0022992510348558,-0.0058233328163623,0.9986069202423096,0.052392303943634,0.0071773447237666,0.0161299391565267,0.4503961259726101,-0.0546797513961792,0.1329085230827331,-0.4368915557861328,39,107,9948,18429
4.4,1788174552290,3.577464818954468,6.760563373565674,-0.0013524901587516,0.0062552755698561,-0.8594088554382324,0.5112488865852356,0.1795913362541467,-0.0034458205371535,4.244627745927848e-05,-0.0092387553304433,-0.0036775285843759,0.4631941020488739,-0.0021995725110173,-0.0061111915856599,0.999547004699707,0.0293870344758033,-0.0072614493866406,-0.0153154518767654,0.4522100500439353,-0.3046794533729553,0.2284584641456604,0.5880374908447266,45,105,9671,18184
4.5,1788174552390,3.8309860229492183,6.253520965576172,-0.0018210432026535,0.0062459437176585,-0.8474443554878235,0.5308443903923035,0.1740142686041587,-0.0013843019746736,3.79068254048718e-05,-0.005725241266191,-0.015593035146594,0.4606522023677826,-0.0018152045086026,-0.0061125680804252,0.9999712705612184,0.0041097458451986,0.0096117683856188,-0.0129608660980639,0.4661877966987065,-0.2421307563781738,0.2549126148223877,0.4555025100708008,58,78,11347,17603
4.6,1788174552490,4.2253522872924805,5.97183084487915,-0.0019917362369596,0.0060005281120538,-0.8351747989654541,0.5499482750892639,0.1587584086411268,0.0005185513266582,-4.277457939484791e-06,0.0008747907704673,-0.0112573942169547,0.4384389817714691,0.0015925271436572,0.0061969514936208,-0.9998873472213744,0.0135800531134009,-0.007426494516515,0.0042734370103758,0.2645215549365003,-0.1971036195755005,0.1829527616500854,0.73919677734375,81,115,12651,16431
4.7,1788174552590,4.14084529876709,6.02816915512085,-0.0021006513852626,0.0058441329747438,-0.8264942765235901,0.5629109740257263,0.1727631753435134,0.0035206799882953,4.073708675909898e-05,0.0055265314877033,-0.0081686424091458,0.2713686227798462,0.0010728659108281,0.0057726055383682,-0.9996160268783568,0.0270789470523595,0.0177649362874241,-0.0356623733736167,0.3276886800399881,-0.0097379088401794,-0.4663878083229065,0.6528244018554688,165,101,13627,16133
4.8,1788174552690,4.2253522872924805,5.943662166595459,-0.0019644149579107,0.0057376073673367,-0.814383864402771,0.5802948474884033,0.1668923446754582,0.0043219458504044,-1.6800550623735136e-05,-0.0015196247259154,-0.0001843249920057,0.2871263027191162,0.0017001377418637,0.0060143917798995,-0.9989967942237854,0.0443433225154876,-0.010937498466465,0.0134785832982859,0.3001556294640568,0.0763954520225524,0.1764823198318481,-0.1325902938842773,128,106,13534,16266
4.9,1788174552790,4.056337833404541,5.915493011474609,-0.0022585713304579,0.0055073495022952,-0.8100064396858215,0.5863907933235168,0.174685423873118,0.0066081000518605,-3.16182974544229e-05,0.0001499184727435,-0.0169794019311666,0.30567067861557,0.0009504863992333,0.0058320006355643,-0.9982268214225768,0.0592317134141922,-0.0006538377029599,-0.0033768139988129,0.312368431854567,-0.0792567133903503,0.0450912714004516,0.0062646865844726,245,41,15589,15872
5.0,1788174552890,4.957746505737305,5.295774459838867,-0.0020804982632398,0.0054628318175673,-0.8001882433891296,0.5997204184532166,0.1679388529399987,0.0012776360648847,1.943290799370136e-05,0.0042781759984791,0.0022187447175383,0.3068327307701111,0.0005680983886122,0.0059562874957919,-0.997269570827484,0.0736043751239776,0.0018761252998017,-0.0402508191129338,0.2744674494546075,0.1868810653686523,-0.2212206125259399,-0.5414724349975586,259,28,16825,13123
5.1,1788174552990,4.985915660858154,5.211267471313477,-0.0024527912028133,0.0053809424862265,-0.7923166155815125,0.6100815534591675,0.1771069210479932,0.0009286449170045,1.616539570008108e-05,0.0051675564609467,0.0101511515676975,0.1973510831594467,0.0010650279000401,0.0058527644723653,-0.9967891573905944,0.0798505842685699,-0.0074018444293268,0.0112044360601618,0.0548770517619778,0.3490832448005676,0.3445777893066406,0.0399179458618164,199,45,16985,13457
5.2,1788174553090,4.816901206970215,5.352112770080566,-0.0021957524586468,0.0055432375520467,-0.7907952666282654,0.612051784992218,0.1711281609566141,0.0041310508921665,-1.7508795254161354e-05,0.0041179019026458,0.0099165448918938,0.0465087778866291,0.0015083532780408,0.0061342827975749,-0.9965614080429076,0.082616426050663,-0.0082717408315421,0.0096655137740547,0.0594079219989837,-0.4721425771713257,0.1258205771446228,0.6443214416503906,193,47,16982,13404
5.3,1788174553190,4.929577350616455,5.267605781555176,-0.0017189957434311,0.0059564621187746,-0.7869997620582581,0.6169222593307495,0.1797944374359331,-0.001154439696162,-4.012300080678797e-05,0.0050244941376149,0.002287697745487,0.077886126935482,0.0017215786501765,0.0059204008430242,-0.996119499206543,0.0877951681613922,0.00176387359929,-0.0086652952468334,0.071690396331247,-0.1652905941009521,-0.0740283131599426,0.4831390380859375,167,46,16536,13546
5.4,1788174553290,4.901408672332764,5.295774459838867,-0.0016235024668276,0.0058835931122303,-0.7856087684631348,0.6186933517456055,0.1710040687100174,-0.0019094402066588,-9.10111400997563e-06,0.0054194070398807,0.000842458452098,0.109954334795475,0.0019737053662538,0.0058793723583221,-0.995721399784088,0.0921975076198577,-0.0057985346009267,0.0146268652357755,0.1054621677509536,0.3911323547363281,-0.0741459131240844,-0.2634172439575195,240,60,16843,13508
5.5,1788174553390,4.788732528686523,5.239436626434326,-0.0018076936248689,0.0056677209213376,-0.782354474067688,0.6228049993515015,0.1716489144243209,2.284455802008566e-05,1.3696626600538084e-05,0.0006351326010189,-0.0086008682847023,0.0957613661885261,0.0015666745603084,0.0056549487635493,-0.995273232460022,0.0969369187951088,0.0005757846687237,0.0022979356458152,0.0868474628810413,-0.4409611821174621,0.2328859567642212,-0.298130989074707,184,29,16969,13512
5.6,1788174553490,4.957746505737305,5.239436626434326,-0.0017100027762353,0.0054732947610318,-0.7797347903251648,0.6260837316513062,0.1773939514773281,0.0001275046992893,-1.316207916876358e-05,0.0066897477954626,-0.0016750155482441,0.0884091705083847,0.0016967263072729,0.0055099772289395,-0.9949140548706056,0.100562684237957,0.0024491827347636,0.0239888435752945,0.0832736060053522,0.2623533606529236,-0.2046641707420349,0.4772186279296875,178,33,16131,13611
5.7,1788174553590,4.873239517211914,5.239436626434326,-0.0014218763681128,0.005560799036175,-0.7775784730911255,0.6287596821784973,0.1788529044354042,0.0030246245523768,-9.553786831768107e-06,0.0044339848682284,0.0101370625197887,0.0637486651539802,0.0018532751128077,0.0051009468734264,-0.9946312308311462,0.1033403202891349,0.0122334036333776,0.0030235317289332,0.0538065752405499,-0.1924203038215637,0.2814562916755676,-0.0957441329956054,207,56,16366,13692
5.8,1788174553690,4.873239517211914,5.239436626434326,-0.0014218763681128,0.005560799036175,-0.7775784730911255,0.6287596821784973,0.1788529044354042,0.0030246245523768,-9.553786831768107e-06,0.0044339848682284,0.0101370625197887,0.0637486651539802,0.0018532751128077,0.0051009468734264,-0.9946312308311462,0.1033403202891349,0.0122334036333776,0.0030235317289332,0.0538065752405499,-0.1924203038215637,0.2814562916755676,-0.0957441329956054,207,56,16366,13692
5.9,1788174553790,4.873239517211914,5.239436626434326,-0.0014218763681128,0.005560799036175,-0.7775784730911255,0.6287596821784973,0.1788529044354042,0.0030246245523768,-9.553786831768107e-06,0.0044339848682284,0.0101370625197887,0.0637486651539802,0.0018532751128077,0.0051009468734264,-0.9946312308311462,0.1033403202891349,0.0122334036333776,0.0030235317289332,0.0538065752405499,-0.1924203038215637,0.2814562916755676,-0.0957441329956054,207,56,16366,13692
6.0,1788174553890,4.873239517211914,5.239436626434326,-0.0014218763681128,0.005560799036175,-0.7775784730911255,0.6287596821784973,0.1788529044354042,0.0030246245523768,-9.553786831768107e-06,0.0044339848682284,0.0101370625197887,0.0637486651539802,0.0018532751128077,0.0051009468734264,-0.9946312308311462,0.1033403202891349,0.0122334036333776,0.0030235317289332,0.0538065752405499,-0.1924203038215637,0.2814562916755676,-0.0957441329956054,207,56,16366,13692
6.1,1788174553990,5.014084339141846,5.070422649383545,-0.0004860665649175,0.0050435839220881,-0.7697412371635437,0.6383359432220459,0.1781842391348597,0.001407267931825,-2.9598359565885005e-05,-0.0044915382750332,0.0113932937383651,0.064901016652584,0.0023898715153336,0.0044231545180082,-0.9934493899345398,0.1141628250479698,-0.0062406076902594,0.0224721659699132,0.0639629776708587,-0.0768009424209594,0.3239915370941162,0.8687515258789062,187,56,16448,14402
6.2,1788174554090,4.8450703620910645,5.295774459838867,-0.0004860665649175,0.0050435839220881,-0.7697412371635437,0.6383359432220459,0.1781842391348597,0.001407267931825,-2.9598359565885005e-05,-0.0044915382750332,0.0113932937383651,0.064901016652584,0.0031223949044942,0.004847495816648,-0.99273020029068,0.1202231347560882,-0.0065717137558651,0.0050228731542381,0.0956672836966483,0.1225516200065612,0.0907577276229858,0.2433052062988281,187,56,16448,14402
6.3,1788174554190,4.704225540161133,5.126760482788086,-0.0004694918170571,0.0056212618947029,-0.7639727592468262,0.64522385597229,0.172081494686669,0.0055337750458621,8.412718827980355e-05,-0.0072300322353839,-0.0095589561387896,0.1117491498589515,0.0026841200888156,0.0049712182953953,-0.9923465251922609,0.1233556196093559,-0.0083634578848749,0.0162302914118687,0.1170601820339202,0.245606780052185,0.4447309374809265,-0.5659341812133789,187,56,16448,14402
6.4,1788174554290,4.309859275817871,5.943662166595459,-0.0003844387829303,0.006077173165977,-0.7602501511573792,0.649601936340332,0.1761859065875371,0.0031000416325263,-3.60036321757364e-05,0.0051918691024184,0.0141618680208921,0.1338975727558136,0.0033184727653861,0.0049316976219415,-0.9909029006958008,0.1344475597143173,0.0090185386466761,0.0140986144592902,0.2102223913500214,0.0165725350379943,0.5944876074790955,-0.1384057998657226,195,83,14813,15924
6.5,1788174554390,4.197183132171631,5.915493011474609,0.0002255418803542,0.0059743104502558,-0.753562867641449,0.6573486328125,0.1783441835753469,0.0041887258495855,-1.881475709717488e-05,0.003154004458338,0.0072411517612636,0.2319242805242538,0.0034376457333564,0.0048673227429389,-0.9900264143943788,0.1407555490732193,0.0031604799326022,0.0006832615299896,0.2628150056721292,0.3984864950180053,-0.0073118805885314,-0.6080436706542969,179,65,14124,16618
6.6,1788174554490,4.507042407989502,5.77464771270752,-0.0005198195576667,0.0056882319040596,-0.7435254454612732,0.6686832904815674,0.1779863526596614,0.0028437204625753,0.0001088059654697,-0.0001447492541046,-0.0295083206146955,0.2995131611824035,0.0031320741400122,0.0050742700695991,-0.9876662492752076,0.1564608067274093,0.0008161211388691,0.0174124212833121,0.2522380684318623,-0.6279416084289551,-0.1098753809928894,0.7377195358276367,232,21,16376,13641
6.7,1788174554590,4.591549396514893,5.6619720458984375,-0.0002804487012326,0.0058272080495953,-0.7361085414886475,0.6768383979797363,0.1785335287558216,0.0013922417131672,-3.926781168696544e-05,0.0008464175043627,0.0072103873826563,0.1826416105031967,0.0026359623298048,0.0049695959314703,-0.9859724044799804,0.1668140590190887,0.0005540405709253,-0.0324006265633682,0.1730992408259083,0.1140127778053283,0.2733821868896484,0.286325454711914,211,48,15582,14948
6.8,1788174554690,4.478873252868652,5.521126747131348,-0.0002804487012326,0.0058272080495953,-0.7361085414886475,0.6768383979797363,0.1785335287558216,0.0013922417131672,-3.926781168696544e-05,0.0008464175043627,0.0072103873826563,0.1826416105031967,0.0019976822659373,0.0051693497225642,-0.9838626384735109,0.1788395643234253,-0.0103978558824512,-0.031801059841624,0.2914656620288158,-0.082971453666687,-0.3582310676574707,0.4336919784545898,260,81,16330,14564
6.9,1788174554790,4.563380241394043,5.577464580535889,-0.0018227669643238,0.0045333318412303,-0.7163339853286743,0.6977404952049255,0.1688440338428379,0.0028762818731458,-1.2422209776778029e-06,0.0007666380843147,0.0008632692624814,0.1875713467597961,0.0008848784491419,0.004755781032145,-0.9809696674346924,0.1941007375717163,0.0015336467550461,-0.0038092968889357,0.1574400485022273,-0.0508530139923095,0.4735230207443237,0.2576828002929687,254,45,17133,14169
7.0,1788174554890,4.169013977050781,5.88732385635376,-0.0017994928639382,0.0045145330950617,-0.7134513854980469,0.700687825679779,0.1682326453666013,0.0050721368176434,1.9583886225585344e-05,0.0008634380064904,-0.0005907981540076,0.1617279052734375,0.0009270776063203,0.0047532804310321,-0.9794121980667114,0.2018124461174011,0.0056386911109722,0.006032175205586,0.2379721566043286,-0.1682319045066833,-0.0032444596290588,0.3306035995483398,222,65,15415,15806
7.1,1788174554990,3.690140962600708,6.14084529876709,-0.0015578740276396,0.004739660769701,-0.7023982405662537,0.7117666602134705,0.1720206825662593,0.0037818421053236,2.9691922572981878e-05,-0.0025544872041791,0.0091700097545981,0.3299050033092499,0.000857688486576,0.0048167873173952,-0.9745571613311768,0.2240857779979705,-0.00120426491835,-0.0457450169629215,0.4003847658522527,0.1753917336463928,0.726038932800293,-0.8125553131103516,240,55,15181,16970
7.2,1788174555090,4.14084529876709,6.056337833404541,-0.0019022282212972,0.0049666902050375,-0.6829268932342529,0.7304674386978149,0.1781728783302369,0.0002583089795632,-2.7646374764775324e-05,-0.0097208144143223,0.0039577176794409,0.3752600848674774,0.0011796820908784,0.0053559346124529,-0.9702916741371156,0.2418762296438217,-0.0127200982617629,0.0036529478815737,0.333097225901762,-0.2379730939865112,0.3698309659957886,-0.0452795028686523,262,22,16549,14698
7.3,1788174555190,4.2253522872924805,5.830986022949219,-0.0020479236263781,0.00529650086537,-0.6720089316368103,0.7405213117599487,0.1733810385462482,0.0045400714050771,3.33129405144517e-05,-0.0065133073367178,0.0029005159158259,0.2618210911750793,0.001234671100974,0.0055855214595794,-0.9673327207565308,0.2534458935260772,-0.0020971950960481,0.0273027344077702,0.258448061526808,0.0126639604568481,-0.3204834461212158,0.07867431640625,207,44,15821,15678
7.4,1788174555290,4.309859275817871,5.6619720458984375,-0.0020484500564634,0.0052680722437798,-0.6675692796707153,0.744526207447052,0.1749776406797629,-0.0007910486606553,-6.869920414004763e-07,0.0001658726396271,-0.00252166390419,0.2915656268596649,0.0011576814576983,0.0058073913678526,-0.963475227355957,0.2677321135997772,-0.009738899665985,0.0006061833805142,0.2877485643947965,-0.0738753080368042,-0.2731998562812805,0.4233741760253906,307,38,17822,13817
7.5,1788174555390,4.450704097747803,5.88732385635376,-0.0027559138834476,0.0051058265380561,-0.6570872068405151,0.7537921667098999,0.1808285276847898,-0.0004750919587096,0.0001132900999615,-0.0070244376547634,-0.0276724230498075,0.2089511007070541,0.0008505554869771,0.0058502359315752,-0.9608030915260316,0.2771685421466827,0.0003741124503362,0.0220614116385038,0.22595951754203,0.1516730785369873,0.5479432940483093,0.3847074508666992,220,65,15001,15620
7.6,1788174555490,4.169013977050781,6.0,-0.0023393812589347,0.0056173605844378,-0.6526514291763306,0.7576339244842529,0.1722792813635575,-0.0003347431737174,-2.6177202974250333e-05,-0.0013393556000664,0.0245693884789943,0.2299152910709381,0.0012180404737591,0.0060304393991827,-0.9574995040893556,0.2883694469928741,-0.0035107138220221,-0.010637682757995,0.2964294242493467,-0.3593677282333374,0.5044378042221069,0.2278347015380859,245,59,15692,15410
7.7,1788174555590,4.366197109222412,6.02816915512085,-0.0023046187125146,0.0056009124964475,-0.6359326839447021,0.771720826625824,0.1776103055846406,0.0031958292546678,1.985149138779422e-05,0.0033893298823386,-0.0120458249002695,0.3215758204460144,0.0011067455634474,0.0059483060613274,-0.9513670206069946,0.3080003261566162,0.0101561113058086,0.0014291840163681,0.3064951573133579,0.225753903388977,0.1986861228942871,-0.5917282104492188,256,53,15496,15106
7.8,1788174555690,4.535211086273193,5.577464580535889,-0.0024998565204441,0.0054902341216802,-0.6244508028030396,0.7810409665107727,0.1665731431534622,0.0054681771855737,7.929651577431831e-05,-0.0022474243305623,-0.0131067307665944,0.2809322476387024,0.0007156087085604,0.0054368991404771,-0.9463546276092528,0.3230832517147064,0.010378096470208,-0.0169760058824704,0.275233965977786,-0.0212044119834899,0.0174323916435241,0.0529804229736328,303,21,16928,14066
7.9,1788174555790,4.591549396514893,5.633802890777588,-0.0021081706508994,0.0047235726378858,-0.612760066986084,0.7902520298957825,0.1667233854260406,0.0098264460993162,5.053465094730717e-05,0.0142320180311799,-0.0077176140621304,0.2571346759796142,0.0009392388164997,0.0047599645331501,-0.9432830810546876,0.3319540023803711,0.0189378386752141,0.0137762668509499,0.2059598954003048,0.2128231525421142,-0.385036289691925,0.0738000869750976,255,38,17029,13857
8.0,1788174555890,4.14084529876709,5.88732385635376,-0.0015867234906181,0.0048215873539447,-0.6063210964202881,0.795203685760498,0.1764437368656712,0.002805024247584,-5.910342362871443e-05,-0.001222472754307,0.0189146697521209,0.1636000424623489,0.0013113664463162,0.0046096397563815,-0.9402163624763488,0.340544044971466,0.0143548796387295,-0.0176583610425507,0.2690641071781689,0.4730650782585144,0.2507636547088623,-0.4235305786132812,252,50,15940,15754
8.1,1788174555990,4.450704097747803,5.521126747131348,-0.0015425091842189,0.0039276462048292,-0.5957350730895996,0.8031699061393738,0.170574702196625,0.0140726352795658,0.00010688757701,0.0099734179675579,-0.022312531247735,0.2950104176998138,5.420297384262085e-07,0.0032723480835556,-0.9346342086791992,0.3555956780910492,0.0092108139135368,-0.0224734648753567,0.1962144616378663,-0.0436761975288391,-0.4996218681335449,0.3200130462646484,325,50,17708,14105
8.2,1788174556090,5.098591327667236,4.8450703620910645,-0.0020105876028537,0.0025484464131295,-0.5866636037826538,0.8098241686820984,0.1672074652358362,0.0019681329082487,6.084219923093942e-05,0.0020015877671539,-0.0215887147933244,0.1902371942996978,-0.0008853925392031,0.0029190927743911,-0.9330016374588012,0.3598592281341553,0.0007219549643067,-0.0205513693987247,0.0645187391912332,0.2204967737197876,-0.2461888194084167,-0.2273273468017578,276,58,18960,13376
8.3,1788174556190,4.676056385040283,5.690140724182129,-0.0026912048924714,0.0017588409828022,-0.5853779911994934,0.8107540607452393,0.1750643252394713,0.0035120467013665,0.0001143545502747,-0.0088266525417566,-0.0216665305197238,0.0056992932222783,-0.0002969875931739,0.003221059218049,-0.9326820373535156,0.3606853187084198,-0.0021463995238167,0.017932741105907,0.0554837787399609,-0.3277948498725891,-0.3121768832206726,-0.4437818527221679,201,58,16076,14354
8.4,1788174556290,4.478873252868652,5.521126747131348,-0.0018794538918882,0.0027592226397246,-0.5829882621765137,0.812473714351654,0.1709476021182854,0.0011141033979339,-4.914747251408591e-05,-0.0007486103568226,0.0158009584993124,0.1085767522454261,-0.0001958413049578,0.003685787320137,-0.9301013350486756,0.3672844171524048,-0.0229715538541828,0.0302367555843484,0.21685022601079,0.0925860404968261,0.2666096091270447,0.4118528366088867,280,44,16439,14976
8.5,1788174556390,5.014084339141846,4.901408672332764,-0.003022184362635,0.001466128276661,-0.5696252584457397,0.8218977451324463,0.164874732633875,0.005989504403454,5.202367594593985e-05,0.0052210283465683,-0.0221537761390209,0.1899585723876953,-0.001481425948441,0.0030514346435666,-0.9262380599975586,0.3769237697124481,0.0025324513148872,-0.014305454729811,0.1966937195095861,-0.2466045022010803,-0.158980906009674,-0.1481266021728515,319,25,19150,12917
8.6,1788174556490,4.535211086273193,5.380281925201416,-0.003683160059154,0.0003915911074727,-0.5689313411712646,0.8223767280578613,0.167595289398473,-0.0033416195864767,0.0001620440406851,0.0027498838026076,-0.0501253046095371,0.0333104692399501,-0.0029686791822314,0.0023373253643512,-0.9253401160240172,0.379119336605072,-0.0010214489046044,0.0118807683078126,0.0647673541295218,0.4710879325866699,-0.2479997873306274,0.0703773498535156,273,70,16898,15286
8.7,1788174556590,4.873239517211914,5.549295902252197,-0.0032648830674588,0.0013130556326359,-0.5635460615158081,0.8260771036148071,0.1793719124329176,0.0037355964116927,-0.0002635057521413,-0.0034519899636507,0.0294661968946456,0.1601049602031707,-0.0028175087645649,0.002540411427617,-0.9218909740447998,0.3874307572841644,0.0005402686479395,-0.0581975362406485,0.2230107020280206,-0.5970945358276367,0.2946605682373047,-0.1637516021728515,291,19,17725,12288
8.8,1788174556690,4.760563373565674,5.380281925201416,-0.003816022304818,0.0008517944952473,-0.5574788451194763,0.8301820158958435,0.1690870643737574,-0.000715044776445,-2.2047750645095287e-05,-0.0038448681589215,-0.0056892111897468,0.1114187464118003,-0.0027326047420501,0.0026530809700489,-0.9185988306999208,0.3951728940010071,0.0088350573616732,0.0208648161209673,0.1970696319684183,0.3467724919319153,0.3642952442169189,-0.1036663055419921,335,22,18487,12926
8.9,1788174556790,5.042253494262695,5.042253494262695,-0.0037810481153428,0.0010455755982547,-0.5517662763595581,0.8339895009994507,0.1834765522359708,0.0030202828426243,-7.723603589564564e-05,-0.0078360931947827,0.0147709585726261,0.1308927834033966,-0.0029703974723815,0.0028868895024061,-0.916776180267334,0.3993800580501556,-0.009997163444855,-0.0125048995224432,0.0737486420257363,-0.1032437682151794,-0.0881420969963073,0.045170783996582,294,28,18859,12809
9.0,1788174556890,4.676056385040283,5.436619758605957,-0.0041475375182926,0.0006544665666297,-0.5489218235015869,0.8358631134033203,0.1697528972071562,-0.0003172219150688,1.9056455532637e-05,0.0002033525088336,-0.0056662918068468,0.0391237400472164,-0.002839345484972,0.0029979394748806,-0.9147523641586304,0.4039938747882843,-0.0062034057712367,0.0125702700336349,0.1287632937634777,-0.1680002212524414,0.1571990847587585,0.4823522567749023,255,71,16452,15190
9.1,1788174556990,4.253520965576172,5.85915470123291,-0.0042694224976003,0.0003998593892902,-0.5420675277709961,0.8403241038322449,0.1810126420258457,0.0029109332565663,-8.783300197047949e-06,0.0008712043636478,-0.012887249700725,0.184842362999916,-0.0037029404193162,0.0027745412662625,-0.9103891253471376,0.413727194070816,-0.0110461935107991,-0.0002865153214066,0.2432501140086456,-0.2502877116203308,-0.2035510540008545,0.3495073318481445,252,47,15468,15700
9.2,1788174557090,4.422535419464111,5.6619720458984375,-0.0049356953240931,-0.0004041225183755,-0.5319931507110596,0.8467341661453247,0.1673416017273657,0.003859367620965,0.0001007956877342,0.0062578073702752,-0.0402831211686134,0.2845630943775177,-0.0047750985249876,0.0019840309396386,-0.9050418138504028,0.4252911508083343,0.0047067830767495,-0.0253224896818776,0.2735460573953047,0.0432214736938476,-0.2691234946250915,-0.514984130859375,342,25,18146,13819
9.3,1788174557190,4.901408672332764,5.408450603485107,-0.005654483102262,-0.0023921660613268,-0.5219302773475647,0.8529660105705261,0.175997797122975,0.0037447507613339,0.000150307318546,0.011493450962007,-0.0617558024823665,0.1940053850412368,-0.0075711412355303,0.0003226045519113,-0.9004161357879639,0.4349636435508728,-0.0180626780084204,-0.0357476019298101,0.1384009991293265,-0.1661078333854675,0.0357419848442077,-0.2514925003051758,262,38,16401,14795
9.4,1788174557290,4.535211086273193,5.577464580535889,-0.0063538355752825,-0.0041275136172771,-0.5141498446464539,0.8576669096946716,0.1746345729953779,-0.0003278383047872,6.685135489204533e-05,0.0054166810587048,-0.0176543351262807,0.1835601776838302,-0.0069657517597079,0.0001259706914424,-0.8963795304298401,0.4432328045368194,0.0148378676911819,0.0362040182428242,0.2346961909673083,0.4628142714500427,-0.3976653814315796,0.2288227081298828,305,43,17278,14553
9.5,1788174557390,4.507042407989502,5.830986022949219,-0.0055100424215197,-0.002936930861324,-0.504662275314331,0.8632943034172058,0.1721354986058858,0.0046793478274891,-0.0001661099206611,0.0045250435359776,0.0347333326935768,0.208604484796524,-0.0058885002508759,0.0006297472864389,-0.892487108707428,0.4510340094566345,0.003587810549957,0.0115766797372815,0.1692861735483004,-0.092140793800354,0.4391366839408874,-0.0740118026733398,286,32,17622,13485
9.6,1788174557490,4.619718074798584,5.380281925201416,-0.0053175585344433,-0.0026211622171103,-0.4939799010753631,0.8694531321525574,0.1741556142534159,0.0028125769439891,3.816897402167322e-06,0.0004326611524447,-0.0070943222381174,0.1700185090303421,-0.0059140482917428,0.0007160361856222,-0.8886327743530273,0.4585807919502258,0.0056542018024126,-0.0164781475679055,0.1902065421358395,0.1168442964553833,-0.3039001226425171,-0.0241308212280273,257,47,16726,15022
9.7,1788174557590,4.619718074798584,5.492957592010498,-0.0052582961507141,-0.0027581651229411,-0.4896451532840729,0.8719015717506409,0.1786337982292288,0.0005539782979013,1.4750630142235822e-05,0.0058042681775987,-0.0043041813187301,0.2012080401182174,-0.0063369814306497,0.0005965707823634,-0.8840252757072449,0.4673956930637359,-0.0044399343176616,-0.0223083941959401,0.1879868918661925,0.1280697584152221,0.0931876301765441,-0.2575874328613281,290,62,17539,14263
9.8,1788174557690,4.450704097747803,5.633802890777588,-0.0060945721343159,-0.0035466928966343,-0.4814615547657013,0.8764389157295227,0.1753632581989441,0.0039985965052201,6.053904161723915e-05,-0.0044020386412739,-0.0273837707936763,0.1793311685323715,-0.0066851302981376,0.0006643729284405,-0.8785110116004944,0.4776749908924103,0.0019591396246877,0.0158325063321538,0.2134705238507641,-0.0509512424468994,-0.337777316570282,0.2068986892700195,269,45,17451,14178
9.9,1788174557790,4.676056385040283,5.464788913726807,-0.0056970613077282,-0.0028241854161024,-0.471668928861618,0.8817527890205383,0.1689947883722252,0.0074588322396645,-7.145951038769331e-05,0.004597945138812,0.0174052566289901,0.2085437923669815,-0.0061908010393381,0.0007591405883431,-0.8741899132728577,0.485544204711914,0.0065274221308223,0.0005417945840702,0.2006000439780486,0.0914598107337951,0.069027841091156,-0.07830810546875,294,36,16600,14746
10.0,1788174557890,4.901408672332764,5.183098793029785,-0.0057365009561181,-0.0029364051297307,-0.4595779776573181,0.8881140351295471,0.176676423827307,0.002199738656432,1.9871310975427365e-05,-0.0011337181786075,-0.0110760601237416,0.1844293475151062,-0.0064150067046284,0.0006481260061264,-0.870000958442688,0.4930078983306885,0.0040950541363054,-0.017496638371048,0.1801395225369495,-0.0225264430046081,0.1777680516242981,-0.0441579818725585,275,39,18071,13415
10.1,1788174557990,5.126760482788086,5.183098793029785,-0.0057307700626552,-0.0027164784260094,-0.4568842947483063,0.8895034790039062,0.1793399854680895,-0.0005578344925261,-1.746498238473403e-06,-0.0032534301280975,0.0075780740007758,0.1231506243348121,-0.0061908503994345,0.000629436224699,-0.865787148475647,0.500373899936676,0.0093148677521957,0.0011811275596599,0.1770764369416384,0.2316823005676269,0.401002824306488,0.2972879409790039,305,20,18305,12498
10.2,1788174558090,4.8450703620910645,5.154929637908936,-0.0055313273333013,-0.0026243471074849,-0.4509817063808441,0.8925122618675232,0.1753887938468207,0.0037179157513805,-7.96684398102498e-06,-0.0020096488296985,0.0106337135657668,0.101612664759159,-0.0067192437127232,7.265619933605194e-05,-0.8644731640815735,0.5026341080665588,0.0056560907897956,-0.0488672730336558,0.0332653046322724,0.1219996213912963,-0.3019437193870544,-0.0615653991699218,270,47,18463,13458
10.3,1788174558190,4.8450703620910645,5.295774459838867,-0.0055803023278713,-0.0030693968292325,-0.4486454725265503,0.8936871290206909,0.1703857631575161,0.0010855141716159,7.579045249139856e-05,-0.0048190806992352,0.0016589888837188,0.0595049709081649,-0.0054917111992836,0.0010742526501417,-0.8627927303314209,0.5055269598960876,-0.0029097534385256,0.0490586682692273,0.1045948762645858,0.1936200857162475,0.0977730751037597,0.0765018463134765,267,63,18191,13443
10.4,1788174558290,4.873239517211914,5.352112770080566,-0.0048044277355074,-0.0013479912886396,-0.4445340037345886,0.8957480788230896,0.1764974586275616,0.0009999052420514,-6.171963035596726e-05,0.0004806678334716,0.0309973731637001,0.0947043821215629,-0.0041340412572026,0.001857210882008,-0.8604348301887512,0.5095403790473938,0.0038407164345757,0.0210500197060531,0.0940134184065987,-0.2075112462043762,-0.2841152548789978,-0.0798721313476562,264,38,18162,13066
10.5,1788174558390,4.957746505737305,5.098591327667236,-0.0043278569355607,-0.0003200181527063,-0.4405497014522552,0.8977177143096924,0.1814347684250039,0.0013752486239436,-5.139526752056866e-05,-0.001454385346733,0.0159511175006628,0.0895093530416488,-0.003489295952022,0.0025256406515836,-0.8584598302841187,0.5128626823425293,0.0090613113911071,0.0015162000722815,0.0443762535017561,-0.3172782659530639,0.1212843060493469,-0.0572357177734375,274,29,17997,13666
10.6,1788174558490,4.901408672332764,5.154929637908936,-0.0044811265543103,-0.0002144855679944,-0.4372307360172272,0.8993381857872009,0.176004166369699,-0.001200137297744,-9.67744283169572e-06,0.0028399475850164,-0.0102591468021273,0.1175734922289848,-0.0042687030509114,0.001985671930015,-0.8561992645263672,0.516624391078949,0.004784009203004,-0.0085197231167968,0.1123720594319337,0.0266653895378112,-0.0905912518501281,-0.316904067993164,331,38,18238,13556
10.7,1788174558590,4.957746505737305,5.267605781555176,-0.0045562852174043,-0.0002053944626823,-0.4327551126480102,0.9014999866485596,0.1731658688665931,0.0025231550178771,-4.23663373734968e-05,-0.0022950829006731,0.0128296017646789,0.0928732529282569,-0.0039290403947234,0.0023161545395851,-0.8548406958580017,0.5188706517219543,-0.0081913673839414,0.0179159381423796,0.0834395898545192,-0.1838939785957336,0.0528579950332641,-0.1592426300048828,289,25,18542,13030
10.8,1788174558690,4.901408672332764,5.352112770080566,-0.0034764506854116,0.002139780903235,-0.4285214841365814,0.9035223722457886,0.1664851283332914,0.0015335635770278,-0.0001220927089556,-0.0056896349415183,0.0549181066453456,0.1137875542044639,-0.0010050507262349,0.0039352932944893,-0.8505183458328247,0.5259298086166382,0.0093120488674021,0.0208107357289956,0.1385867063861731,0.1897974014282226,-0.2116457223892212,0.1426715850830078,301,24,18105,12762
10.9,1788174558790,4.788732528686523,5.239436626434326,-0.0028570708818733,0.0031915344297885,-0.4239428639411926,0.9056788086891174,0.1789778892404627,0.001745652058574,-4.876734323320139e-05,-0.0010809099767357,0.0227939952164888,0.0845454856753349,0.0002330318093299,0.005039770156145,-0.8486268520355225,0.5289678573608398,-0.011514148642792,0.0517783166718663,0.0758962108712021,-0.1438241600990295,0.091897428035736,-0.0352153778076171,271,51,18500,13271
11.0,1788174558890,5.267605781555176,4.985915660858154,-0.0020691780373454,0.0049277646467089,-0.4195573329925537,0.9077130556106568,0.1736600231955627,0.0005847587983915,-8.745586266959716e-05,0.0073231267742812,0.029445856809616,0.1097596064209938,0.0011994484812021,0.0053874552249908,-0.8455161452293396,0.5339214205741882,0.0005178395335953,0.0111534568128308,0.0679223276290323,0.1771671175956726,0.2251695990562439,0.2396831512451172,299,18,19074,11534
11.1,1788174558990,5.408450603485107,4.591549396514893,-0.0020139547996222,0.0051311622373759,-0.4166750311851501,0.909038782119751,0.1750713241692738,-0.0004826548485767,-2.8261020961671024e-05,-0.0019225197611376,0.0025920798070728,0.0328497514128685,0.0004192218184471,0.0054145948961377,-0.8456284403800964,0.5337444543838501,-0.0066830094396669,-0.0240432712705176,-0.0061757201010374,-0.233698308467865,0.0421295166015625,0.1167774200439453,332,27,20896,10624
11.2,1788174559090,5.7183098793029785,4.591549396514893,-0.0026014847680926,0.0041305921040475,-0.4178162217140198,0.9085184335708618,0.1703463291521801,-0.0059910308940151,1.7500171636646114e-05,0.0124246757477521,-0.0238680448383092,-0.0521151833236217,-0.0014110822230577,0.0040792291983962,-0.8473973870277405,0.5309417247772217,-0.0096152966384529,-0.0709562451612057,-0.1048822062111271,-0.1512196660041809,0.0064323544502258,0.2229547500610351,310,19,20218,10259
11.3,1788174559190,5.408450603485107,4.929577350616455,-0.0040540867485105,0.0014541477430611,-0.4222956001758575,0.9064479470252992,0.1680331990361414,-0.0016025900210946,0.0001653169916908,-0.0037777663674205,-0.0536808185279369,-0.1049335896968841,-0.002657868899405,0.0035704066976904,-0.8506883978843689,0.5256514549255371,0.0044102406578283,0.0039039060426908,-0.0867914138176687,-0.2523741126060486,0.1122826933860778,0.0344839096069335,274,34,18482,11997
11.4,1788174559290,5.239436626434326,4.760563373565674,-0.0041031632572412,0.0015459184069186,-0.4256420433521271,0.9048810005187988,0.1661652318468433,0.0033720150835868,1.1569556420967313e-05,0.0052970172837376,0.0002335137833142,-0.0355621464550495,-0.0017805183306336,0.0038932124152779,-0.8508070111274719,0.5254608392715454,0.0034891587161176,0.045205502201499,-0.0026532846424064,0.0484529733657836,-0.2316856384277343,0.2372283935546875,284,35,18758,12661
11.5,1788174559390,5.211267471313477,4.816901206970215,-0.0031673572957515,0.0028062586206942,-0.4256735146045685,0.9048669338226318,0.1743292704512856,0.0033847495415976,-8.672542285215391e-05,0.0051959622651338,0.012201901525259,0.0046942480839788,-0.0013188300654292,0.0040577556937932,-0.8506714701652527,0.525680422782898,-0.006982352702219,-0.0105882497062489,0.0032290342393879,-0.2102388143539428,0.1573009490966797,-0.060464859008789,288,18,18846,12249
11.6,1788174559490,5.211267471313477,4.873239517211914,-0.0034399721771478,0.002156623173505,-0.4253053665161133,0.9050408005714417,0.1744471114458936,-0.0002311113648802,3.555923460174548e-05,0.005227047484368,-0.0210302919149398,0.011543896049261,-0.0029036570340394,0.0026749949902296,-0.8506097197532654,0.5257827043533325,0.0106413228043118,-0.0379380969195777,-0.0081718086176189,0.2674723863601684,0.1247604489326477,0.0997037887573242,358,45,19410,12264
11.7,1788174559590,5.6619720458984375,4.563380241394043,-0.0043111802078783,-1.7138314433395863e-05,-0.4257059097290039,0.9048513174057008,0.18325763096139,0.0035722111522068,0.0001819113430403,-0.0031607621349394,-0.0376476794481277,-0.0146575728431344,-0.0057561658322811,0.0006826212629675,-0.8520649075508118,0.523404061794281,0.0019223522697117,-0.0580876958224376,-0.1023490623283765,0.1008906364440918,0.0313557982444763,-0.0121088027954101,322,19,20271,10679
11.8,1788174559690,5.746479034423828,4.563380241394043,-0.0058387331664562,-0.0036375308409333,-0.4293144941329956,0.9031288623809814,0.1683806459167267,-0.0030102305980038,0.0001057435161087,-0.0052319904789328,-0.0760401412844657,-0.1024838835000991,-0.0094693964347243,-0.0013908324763178,-0.8546775579452515,0.5190709829330444,0.0003795085094408,-0.0972374379562492,-0.1335622992044497,-0.4631363153457641,-0.3511958718299866,0.1739044189453125,309,18,19983,10909
11.9,1788174559790,5.690140724182129,4.450704097747803,-0.008106293156743,-0.0080630239099264,-0.4349426925182342,0.9003854990005493,0.1638230088649183,-0.0024244076913847,0.0003544018050651,-0.0036697185132652,-0.0826776027679443,-0.1137878596782684,-0.0122299119830131,-0.0030102981254458,-0.8572736382484436,0.5147069692611694,-0.0012164124156697,-0.0470083697585436,-0.1006047804971943,-0.0243104696273803,0.2007938623428344,0.406041145324707,341,20,19890,11532
12.0,1788174559890,5.352112770080566,5.126760482788086,-0.0088883843272924,-0.0098194982856512,-0.4386138319969177,0.8985779881477356,0.1661804303636489,-0.0029788222917781,9.083200551027363e-05,-0.0004250252095516,-0.0338626056909561,-0.0864475518465042,-0.0134884202852845,-0.0037244213744997,-0.8585611581802368,0.5125201344490051,0.0056133123247844,-0.033528250088688,0.0032525765786932,0.1718910336494445,-0.151076853275299,-0.0553245544433593,281,27,18487,11708
12.1,1788174559990,5.098591327667236,5.014084339141846,-0.0093341618776321,-0.0103738233447074,-0.4394831359386444,0.8981423377990723,0.1775963684591811,0.0005813942425777,7.497337665069456e-06,-0.0018459376879036,-0.0015268567949533,-0.0037475959397852,-0.0132747571915388,-0.0031550200656056,-0.8584250211715698,0.5127577185630798,0.0090735905817673,-0.0089501781698733,0.0403263932729918,0.2925835847854614,0.0557909607887268,-0.0541934967041015,311,20,19315,11904
12.2,1788174560090,5.7183098793029785,4.450704097747803,-0.0098195523023605,-0.0105911213904619,-0.4392121434211731,0.8982672691345215,0.1700774902263647,-0.0034148648879927,6.510574852028716e-05,0.0020577772520482,-0.0355558954179286,0.0129515379667282,-0.0155532378703355,-0.0042286142706871,-0.8595021963119507,0.5108779072761536,-0.0083176669383264,-0.0715161721189335,-0.0988102506598266,-0.3103412389755249,-0.1057580113410949,-0.3665943145751953,318,24,19880,11171
12.3,1788174560190,5.549295902252197,4.619718074798584,-0.0110246920958161,-0.0121845779940485,-0.4431240260601043,0.8963096737861633,0.1613027233730028,-0.0029674628923102,0.000241892774666,-0.0101973116397857,-0.0293808337301015,-0.0984867438673973,-0.0146877868101,-0.0037599252536892,-0.8607593774795532,0.5087862610816956,0.0118791089791262,0.0516898366365599,0.0084116201427571,0.1137759089469909,-0.0882225036621093,0.24176025390625,310,17,20475,10969
12.4,1788174560290,5.042253494262695,4.8450703620910645,-0.0102395694702863,-0.0113686528056859,-0.4443586468696594,0.8957183361053467,0.1799407884165758,0.0013681019919045,1.124150886239364e-06,0.0039694034494459,-0.0083450442180037,-0.0633953958749771,-0.0154514657333493,-0.0043352553620934,-0.8621161580085754,0.5064565539360046,-0.0028924319216063,-0.0260319632397234,-0.036198863079914,0.1057217121124267,-0.1199433803558349,-0.1690826416015625,292,37,19571,12438
12.5,1788174560390,5.352112770080566,4.760563373565674,-0.0105581786483526,-0.0113699734210968,-0.4463582932949066,0.8947198390960693,0.1726168795851046,0.0044148818529696,-5.09496006057136e-05,-0.0143138766288757,0.0247449949383735,-0.0362333394587039,-0.0148591920733451,-0.0038312040269374,-0.8631392121315002,0.5047329068183899,0.0077735989688797,0.0010189156363252,-0.0623054462129092,-0.3099148273468017,0.1180383563041687,0.1079883575439453,290,31,18701,12563
12.6,1788174560490,5.211267471313477,4.957746505737305,-0.0106752617284655,-0.0119273075833916,-0.4479348659515381,0.8939229249954224,0.167337669539785,0.0018516065516725,0.0001421273491724,-0.0009872148511931,-0.0276022776961326,-0.0230701733380556,-0.0153771359473466,-0.0041971318423748,-0.8633019328117371,0.5044359564781189,-0.0017159132093498,-0.0089546036049847,-0.0026239314125417,0.0624856948852539,-0.1054222583770752,0.0067262649536132,312,20,19148,12202
12.7,1788174560590,4.02816915512085,4.3380279541015625,-0.0103245424106717,-0.0114866476505994,-0.4477261304855346,0.8940373063087463,0.1765621251763616,-0.0003370696137833,3.251927138452605e-05,0.0024477108381688,0.0158043541014194,0.003006009850651,-0.0117517057806253,-0.0022032652050256,-0.8622076511383057,0.5064138770103455,0.0074156486583636,0.1681685089876898,0.1088954549646401,-0.6241440773010254,0.0536666512489318,-0.1957111358642578,110,23,11053,9047
12.8,1788174560690,1.3521126508712769,3.2957746982574463,-0.0064401142299175,-0.0041669737547636,-0.4436119198799133,0.8961862325668335,0.1106277293576793,0.0028990996980999,-0.0003198565972487,0.0107766026630997,0.2851284742355346,0.1492911726236343,-0.0011693192645907,0.0033344542607665,-0.8560506701469421,0.5168797969818115,0.0193362641140947,0.0620462232886422,0.3349299434836515,-0.9701270461082458,-0.6081235408782959,2.368514060974121,49,49,3262,5871
12.9,1788174560790,-1.5774648189544678,1.6619718074798584,-0.0026306901127099,0.0023678173311054,-0.430714875459671,0.9024811387062072,0.0541367552751616,-0.003661459499229,9.742388252474838e-06,0.0161097310483455,0.0016799475997686,0.309646874666214,-0.0005915537476539,0.0037229349836707,-0.8483166694641113,0.529475748538971,-0.0049976736838461,0.021247575331053,0.305786737773127,-0.3396380543708801,-0.3767650127410888,0.3659429550170898,189,37,-8360,5563
13.0,1788174560890,-1.6338027715682983,1.436619758605957,-0.0024187508970499,0.0028947279788553,-0.414489209651947,0.9100464582443236,0.0030118205974952,-0.0032223862859429,2.977698630536964e-07,0.0015544893685728,0.0071159973740577,0.3703896999359131,-0.0004504239186644,0.0037469780072569,-0.8355836868286133,0.5493502616882324,-0.0056917958377768,0.0152958388235412,0.5475698980181973,0.3368305563926697,-0.4589549303054809,-0.1720867156982422,46,73,-5872,5644
13.1,1788174560990,-1.4929577112197876,1.2957746982574463,-0.0023565478622913,0.0029558904934674,-0.3887614905834198,0.9213306903839112,0.0091463317306266,-0.0070585668901314,-1.546871735783975e-07,0.0006206522230058,0.0017430034931749,0.4908224046230316,-0.0003570886328816,0.0038750236853957,-0.8242955803871155,0.5661462545394897,-0.0063167486337378,0.0004375347274856,0.3631685538364899,-0.0025231838226318,0.0293936133384704,-0.0422048568725585,93,96,-6663,6344
13.2,1788174561090,-1.4647886753082275,1.5774648189544678,-0.00246785255149,0.0029757632873952,-0.3708816170692444,0.9286720752716064,-0.0006731315748591,-0.0026052738365691,-1.1146695578780404e-06,-0.0007828743546269,-0.0075720339082181,0.4572972953319549,-0.0006389049813151,0.0035012690350413,-0.8081973791122437,0.5889009833335876,0.0043848404069895,-0.0109499956237233,0.475799665229404,0.1902493834495544,-0.0171155929565429,-0.1205892562866211,126,59,-7008,5229
13.3,1788174561190,-1.5492957830429075,1.436619758605957,-0.0023711421526968,0.0026663406752049,-0.3358727395534515,0.9419005513191224,0.0032309295650083,0.0009703599559556,8.45273064842893e-07,-0.0007847816450521,-0.0006499494775198,0.4559309184551239,-0.0005181171000003,0.0035411166027188,-0.795738935470581,0.6056292057037354,-0.002451707156486,0.0007446287459682,0.4359258789423961,-0.1280425786972046,-0.1339529156684875,-0.0183029174804687,150,65,-6841,5710
13.4,1788174561290,-1.436619758605957,1.3521126508712769,-0.0023576922249048,0.0025601144880056,-0.3272150754928589,0.9449434876441956,-0.0005637431041313,0.0007180696710696,-4.035576620284715e-07,0.0016147596761584,-0.0061740167438983,0.4562427401542663,-0.0007779942825436,0.0031726760789752,-0.7826979160308838,0.6223933100700378,0.0041235505276997,-0.0162055023340217,0.4900550809043975,0.150234043598175,-0.2880787253379822,0.4187278747558594,48,4,-4567,3744
13.5,1788174561390,-1.154929518699646,1.183098554611206,-0.0023270915262401,0.0019084862433373,-0.3045330643653869,0.9524970650672911,0.0099114316472423,-0.0034719225905735,3.908333484099227e-06,0.0039449711330235,-0.0066607529297471,0.3851542770862579,-0.0010399343445897,0.002698908559978,-0.7711200714111328,0.6366832852363586,0.002690991541519,-0.0111484287106396,0.2987118355338039,-0.0643778443336486,0.0416252017021179,-0.0298500061035156,94,77,-5732,4347
13.6,1788174561490,-1.183098554611206,1.3521126508712769,-0.0023978927638381,0.001580792828463,-0.2909966707229614,0.956719696521759,-0.0030304663919607,-0.0011302697638153,2.0422608456173715e-09,-0.00124211772345,-0.008251923136413,0.3080177009105682,-0.0012466292828321,0.0025233104825019,-0.7604485750198364,0.6493920683860779,0.0013011778443308,-0.0070415175761468,0.365732853246415,0.0170381665229797,0.0631423592567443,-0.0760879516601562,107,80,-5736,4293
13.7,1788174561590,-1.211267590522766,1.183098554611206,-0.0024355594068765,0.0014241775497794,-0.2734371423721313,0.9618857502937316,0.0009807461837507,-0.0036422919462733,5.545123587888771e-07,-0.0006186882965266,-0.0017719997558742,0.3732018172740936,-0.0013175066560506,0.0026490911841392,-0.7464414834976196,0.6654444932937622,-0.0036677263513561,-0.0013957605443357,0.3335670794748773,-0.0753251314163208,-0.0985121130943298,0.0844802856445312,141,118,-5787,4919
13.8,1788174561690,-1.1267606019973757,1.2957746982574463,-0.0025821642484515,0.0014433045871555,-0.2571027278900146,0.9663795232772828,0.0016666464081691,-0.0001225097745067,4.033650967132115e-07,-0.0019182129763066,-0.0039865127764642,0.328606903553009,-0.0013426495715975,0.0028758514672517,-0.7360786199569702,0.6768885850906372,-0.006014976936179,0.0026068159526655,0.3546097516984112,-0.06773042678833,-0.1000635623931884,-0.0286521911621093,107,78,-6061,5512
13.9,1788174561790,-1.1267606019973757,1.2394366264343262,-0.0028055380098521,0.0016150852898135,-0.2382090538740158,0.9712085127830504,0.0016553976985578,-0.0044888007146718,1.2644218262795127e-06,-0.0040601477958261,-0.0045809550210833,0.3648239076137543,-0.0015451898798346,0.0028356993570923,-0.7249496579170227,0.6887943148612976,-0.001569162639917,-0.0039421746859453,0.3421579603095724,0.0336321592330932,-0.0500604510307312,0.052835464477539,151,75,-6381,4887
14.0,1788174561890,-0.5352112650871277,0.0,-0.0030245562084019,0.0012408383190631,-0.2167699486017227,0.9762172698974608,0.0053246976944774,-0.0029477330036296,-4.374184480589796e-08,-0.0033872304484248,-0.0038120623212307,0.2354266792535781,-0.0018762582913041,0.00267378333956,-0.7141126990318298,0.7000232338905334,-0.0022508247859837,-0.0033406919947739,0.1889945704089008,0.004678726196289,-0.0046542286872863,-0.0153322219848632,106,84,-6144,6670
14.1,1788174561990,0.0,0.0,-0.0030440140981227,0.0010057642357423,-0.210650086402893,0.97755628824234,0.0059015086916261,-0.0021938506049126,5.415888585738504e-07,0.0012318225344642,-0.0024976327549666,0.0648129805922508,-0.0020432425662875,0.0024965442717075,-0.7098802924156189,0.7043150067329407,-0.000559515584272,-0.0061769820622771,0.0376271297642355,0.1404222249984741,-0.6155090928077698,-0.0262641906738281,0,0,0,0
14.2,1788174562090,1.3521126508712769,1.6056338548660278,-0.0029543994460254,0.0010926584945991,-0.2127296924591064,0.977105975151062,-0.0053687866107966,-0.0015718382517577,5.542947371011428e-07,0.0027893893420696,0.0044061676599085,-0.0847503989934921,-0.0022288803011178,0.0022796280682086,-0.7103984951972961,0.7037925124168396,-0.0004398071458378,-0.0186984835402209,0.0834138433467775,1.0827478170394895,0.0823296904563903,0.0670204162597656,92,236,5486,9736
14.3,1788174562190,2.985915422439575,4.394366264343262,-0.0030792506877332,0.0008375487523153,-0.2071925103664398,0.9782950282096864,0.0696567174172261,0.0039919584251917,-6.424199994507143e-06,0.0007260192651301,0.0028121357318013,0.1703483611345291,-0.0019905371591448,0.0022649029269814,-0.7054473161697388,0.7087559700012207,0.0116478933272759,-0.0001087719351032,0.2213296218646069,0.6356198787689209,-0.3125745058059692,0.0274639129638671,130,191,9863,13404
14.4,1788174562290,4.169013977050781,5.915493011474609,-0.002865329850465,0.0009035204420797,-0.1975312829017639,0.9802919030189514,0.1387595733448735,0.00639127335345,-1.1913038133595647e-06,-0.0028696132358163,0.0038221122231334,0.2122450619935989,-0.0019905371591448,0.0022649029269814,-0.7054473161697388,0.7087559700012207,0.0116478933272759,-0.0001087719351032,0.2213296218646069,0.6356198787689209,-0.3125745058059692,0.0274639129638671,132,208,13792,19057
14.5,1788174562390,4.11267614364624,5.88732385635376,-0.0028773129452019,0.0024744071997702,-0.1836191117763519,0.9829901456832886,0.1839125683694989,0.0026682123958616,-0.0001133295424883,-0.0093231331557035,0.040363673120737,0.2885671555995941,-0.001097678206861,0.0036832224577665,-0.6843810677528381,0.7291144728660583,-0.0061297290419203,-0.0007927429536822,0.2743750558889407,-0.170745849609375,0.1699667572975158,1.2059478759765625,70,69,12276,16231
14.6,1788174562490,4.450704097747803,5.690140724182129,-0.002896832767874,0.0030463263392448,-0.1699749380350113,0.9854394197463988,0.1875551278333451,-0.0056057831849758,-7.015776686687676e-05,-0.0034367793705314,0.0224442817270755,0.2676618695259094,-0.0008297367021441,0.0037983860820531,-0.6764550805091858,0.7364736199378967,0.0073154960502123,0.0052177490377189,0.2030346223983548,-0.0047130584716796,0.048621654510498,-0.4965648651123047,110,56,13676,14329
14.7,1788174562590,4.507042407989502,5.492957592010498,-0.0025567761622369,0.0028305277228355,-0.1599794775247573,0.9871129989624025,0.1778240732339463,0.0026337588041548,-1.4391880380478605e-05,0.0074730715714395,0.0038535848725587,0.1536634266376495,-0.0007756734266877,0.0033112652599811,-0.669455885887146,0.7428440451622009,0.002463512057027,-0.0280705036529966,0.1774174814181248,0.1760600209236145,0.2312667965888977,-0.0334177017211914,105,51,13456,15202
14.8,1788174562690,3.802816867828369,5.633802890777588,-0.0026280030142515,0.0022304740268737,-0.1526707708835601,0.988271176815033,0.168138092508967,0.0043581215578889,3.802933891350025e-05,-0.0102221267297863,-0.0147778987884521,0.1685429960489273,-0.0021392526105046,0.0016529094427824,-0.661278247833252,0.7501358389854431,0.0159677020944887,-0.0866793610809945,0.3852844241224017,-0.2180333733558654,0.0061146616935729,0.1023216247558593,357,67,17846,14626
14.9,1788174562790,4.394366264343262,5.577464580535889,-0.0029825405217707,-0.0032859530765563,-0.1373268961906433,0.9905158281326294,0.1737998759463416,0.0047114831393275,0.0003501919740052,0.0123162325471639,-0.1561173051595688,0.3557958006858825,-0.0062660416588187,-0.0037913583219051,-0.6520565748214722,0.7581349611282349,0.005176765218825,-0.0660843691411534,0.158417140654125,0.5368525981903076,-0.2008919715881347,-0.0356111526489257,255,52,16926,14404
15.0,1788174562890,4.507042407989502,5.492957592010498,-0.0030806167051196,-0.0061737382784485,-0.1299974620342254,0.9914902448654176,0.181979947789314,0.0040525826127562,1.7375585663932318e-05,0.0049874661490321,0.0138989258557558,0.1265588998794555,-0.0024975780397653,0.00017043761909,-0.6463327407836914,0.7630516290664673,0.0088827096575763,0.1518975625923544,0.1367649002258818,-0.3872985243797302,-0.1831788420677185,0.0811786651611328,263,59,16527,15085
15.1,1788174562990,4.507042407989502,5.690140724182129,-0.0016004217322915,0.0001102872847695,-0.1205658093094825,0.9927040338516236,0.1769869994118752,0.0035881764703629,-0.0007069317480172,0.0171783007681369,0.1088627874851226,0.1847154945135116,-0.0013064797967672,0.0008747670799493,-0.6390610337257385,0.76915442943573,0.0013720214502622,-0.0087173498395404,0.2155196890403539,-0.0969814658164978,-0.2851496934890747,-0.4156551361083984,187,49,16009,14390
15.2,1788174563090,4.816901206970215,5.154929637908936,-0.0017372273141518,-0.0004106538544874,-0.1115756407380104,0.9937543272972108,0.1731795661575311,0.0035447272151738,8.143139900318536e-05,-0.0056803398765623,-0.0225717350840568,0.1881844997406005,-0.0020043710246682,0.0003974679857492,-0.6325251460075378,0.774537205696106,-0.0050439939038639,-0.0098812839874785,0.1985734661107178,0.507111668586731,0.2620391845703125,-0.430394172668457,340,18,18530,12714
15.3,1788174563190,4.957746505737305,5.042253494262695,-0.0019428144441917,-0.0010522953234612,-0.1045054718852043,0.9945218563079834,0.1729985180107512,0.0068381056219856,5.28364660247389e-06,-0.0005866696010343,-0.0114272264763712,0.1002684608101844,-0.0025005163624882,0.0001643132418394,-0.6304502487182617,0.7762255668640137,-0.0160640869419197,0.0395349455745253,-0.0022756494136864,0.24820077419281,-0.0256106853485107,-0.0967931747436523,247,48,17799,13520
15.4,1788174563290,5.154929637908936,5.239436626434326,-0.0024981864262372,-0.0008170275250449,-0.1050844267010688,0.9944598078727722,0.1679293459910065,0.0029173333683279,-0.0001181553726432,-0.0223574638366699,0.038775872439146,-0.0349440015852451,-0.0028208615258336,0.0005989791825413,-0.6305907368659973,0.7761101722717285,-0.0127109761427898,0.0026483054274318,0.0596821432450686,0.6257966756820679,0.3217983841896057,-0.4062252044677734,214,111,16229,14327
15.5,1788174563390,5.098591327667236,5.352112770080566,-0.0031727848108857,-0.0006365320878103,-0.1006289571523666,0.994918704032898,0.1680654753034171,0.0070815985020047,2.1555162771787837e-06,-0.0059979138895869,0.0091870222240686,0.1364855468273162,-0.0030744951218366,0.0013683717697858,-0.625191330909729,0.7804642915725708,-0.0071390323761733,-0.0039325467999097,0.1268975580586228,0.0064225196838378,-0.086476981639862,-0.0550518035888671,300,36,18268,12502
15.6,1788174563490,5.239436626434326,5.042253494262695,-0.003689544275403,-0.0006708467844873,-0.0959329530596733,0.9953807592391968,0.177816017605855,0.0009220191532694,2.7432741642996705e-05,-0.0127892289310693,-0.0167591609060764,0.0185801871120929,-0.0035067573189735,0.0014936244115233,-0.6240569353103638,0.7813695669174194,-0.0146749357523773,-0.029179923569253,-0.0114391691740259,0.1844552159309387,0.015001356601715,-0.0322504043579101,243,66,17399,13446
15.7,1788174563590,5.126760482788086,5.070422649383545,-0.0038571809418499,-0.0007971865125,-0.0955741330981254,0.9954145550727844,0.1753283003400254,0.0033694979313953,-3.0083751371134276e-05,-0.0061969952657818,-0.0057458952069282,0.0144527992233634,-0.0037328898906707,0.0018614940345287,-0.6222290396690369,0.7828240990638733,-0.0119426073078,-0.0042828432850105,0.0438765251593798,0.025934100151062,0.2206427454948425,-0.0482378005981445,283,36,18041,13309
15.8,1788174563690,4.957746505737305,4.929577350616455,-0.0043680840171873,-0.0004660309641622,-0.0931199267506599,0.9956452250480652,0.1633819538014184,0.0046317372640789,4.091212626960057e-05,-0.0125354249030351,-0.0069073839113116,0.0393284633755683,-0.0040579019114375,0.0020627025514841,-0.6203649044036865,0.7843000888824463,-0.006222278321446,0.0028272959080696,0.0548919189029059,0.0915866494178772,0.1202317476272583,-0.017801284790039,266,47,18735,13780
15.9,1788174563790,5.070422649383545,5.042253494262695,-0.0048797153867781,-0.0002331323630642,-0.0906198695302009,0.9958735704421996,0.1716328139618603,0.0038985159577863,-1.3334964963534587e-05,-0.0143871000036597,0.0102356132119894,0.0437107309699058,-0.0040664160624146,0.0026680342853069,-0.618871808052063,0.7854769825935364,-0.0003531100613525,0.0162153242695394,0.0756275894791387,0.2819593548774719,0.0302764177322387,-0.3334789276123047,303,27,18198,13367
16.0,1788174563890,5.549295902252197,4.563380241394043,-0.0050983694382011,0.0007376960129477,-0.0883220732212066,0.996078610420227,0.1687476936843775,0.005548767643164,-4.6166045604809925e-05,-0.0092657478526234,0.0262204371392726,0.0388172939419746,-0.0044949427247047,0.0027831783518195,-0.6189277768135071,0.7854301929473877,0.0012200050111119,-0.0129964436124995,-0.1029373437663526,0.2496758699417114,-0.1341867446899414,0.1022138595581054,317,17,20201,11222
16.1,1788174563990,5.323943614959717,4.676056385040283,-0.005560990422964,-0.0003815584932453,-0.0934973880648613,0.9956038594245912,0.1712419233023176,0.0050508935816475,-1.3563892413808636e-05,0.003971230238676,0.0149275064468383,-0.0573458448052406,-0.0048669278621673,0.0027172090485692,-0.6220224499702454,0.7829795479774475,0.0086351125422561,0.0203607974062096,-0.0428888149731802,-0.3597976565361023,0.2118980288505554,0.11004638671875,335,29,20708,11670
16.2,1788174564090,5.154929637908936,5.014084339141846,-0.0055391211062669,-1.7581216525286436e-05,-0.09430942684412,0.9955275058746338,0.1806897089395623,0.0008424956457568,-5.597620727473973e-05,-0.0005221941974014,0.0148276668041944,-0.0327008441090583,-0.0041345860809087,0.0033957110717892,-0.6230021119117737,0.7822019457817078,0.0097085287814236,0.0345393236077615,0.0039613230650994,0.8343893885612488,-0.1302148103713989,0.0346870422363281,220,89,18107,13629
16.3,1788174564190,4.676056385040283,5.408450603485107,-0.0052893226966261,0.0006157858297228,-0.0932225286960601,0.9956310391426086,0.1733316609590162,0.0035227009165845,-1.15888602957389e-05,0.0023699507582932,0.0032852094154804,0.0609872713685035,-0.0039222808554768,0.0032419422641396,-0.6195192337036133,0.7849649786949158,0.013173203205004,-0.007693226605969,0.1419098402901387,-0.0152804851531982,-0.2403602600097656,-0.1958379745483398,280,41,18573,13016
16.4,1788174564290,4.929577350616455,5.183098793029785,-0.0051798177883028,0.0005142852896824,-0.0873937085270881,0.9961602687835692,0.1786045511589507,0.0028727288865961,9.431096532434696e-07,-0.0066279340535402,-0.0025599068030714,0.1101713329553604,-0.0046803634613752,0.0024026483297348,-0.6146450042724609,0.7887862324714661,0.0023648780425042,-0.0458846675576579,0.0799825976557716,0.017016589641571,-0.3214778304100036,-0.1743593215942382,310,25,19380,12478
16.5,1788174564390,4.957746505737305,5.014084339141846,-0.0052295844070613,-0.0010178410448133,-0.0834020301699638,0.9965018033981324,0.1697950603903484,0.000998213362392,0.00011241841571,0.0032362481579184,-0.0363703295588493,0.0582462735474109,-0.0050501944497227,0.0013881465420126,-0.6129602789878845,0.7900964021682739,0.0149265693323389,-0.0070211743593029,0.0548381062707908,0.4009754657745361,-0.214963674545288,-0.1218338012695312,313,45,19271,13254
16.6,1788174564490,4.957746505737305,5.098591327667236,-0.0048860092647373,-0.0017117578536272,-0.0810833200812339,0.9966938495635986,0.1691451202665456,0.0026541633568188,1.998136866256501e-05,0.0079767368733882,-0.0068371929228305,0.0563746057450771,-0.0046917628496885,0.0020600222051143,-0.6104519963264465,0.7920367121696472,0.0032894036050232,0.0133833173615962,0.0914267479458967,0.1417899131774902,-0.4685546159744262,0.1506767272949218,300,67,17900,14307
16.7,1788174564590,4.901408672332764,5.042253494262695,-0.0051287324167788,-0.000486868986627,-0.0768578723073005,0.9970287680625916,0.1726022244687584,0.0036160108818996,-8.971929081174843e-05,-0.0029510522726923,0.0177497472614049,0.0958131626248359,-0.0041252961382269,0.0025834925472736,-0.6064492464065552,0.7951072454452515,0.0069493928105278,0.006076579758962,0.0899255151335914,-0.0206852555274963,-0.0651687979698181,0.162327766418457,296,25,19088,12940
16.8,1788174564690,4.8450703620910645,5.380281925201416,-0.0049178865738213,-0.0002798764035105,-0.0732363983988761,0.9973024725914,0.176045166368616,0.003333883576595,3.8944724084673526e-05,0.0004241973219905,-0.012834969907999,0.0498384237289428,-0.0047735460102558,0.0019212095066905,-0.6046863198280334,0.7964470982551575,-0.0042964472542938,-0.0223098534101469,0.0729990952797733,-0.1822057366371154,0.0843784809112548,0.1677579879760742,260,38,18206,12897
16.9,1788174564790,5.042253494262695,5.098591327667236,-0.0053183389827609,-0.0008588269702158,-0.0700285956263542,0.9975304007530212,0.1742035248954099,0.0027318021689133,3.355267811026053e-06,-0.0126985004171729,0.0015274706529453,0.0781769379973411,-0.004707833752036,0.0025191828608512,-0.6019102334976196,0.7985459566116333,0.0023413785484012,0.0106635600899968,0.0657615066757329,0.1372076869010925,-0.0567722916603088,0.1649389266967773,294,19,18797,12625
17.0,1788174564890,5.070422649383545,5.070422649383545,-0.0054820030927658,-0.0006491290405392,-0.0666531696915626,0.9977609515190125,0.169068859928785,0.0020030073171661,3.758212357693236e-05,-0.0059664538130164,-0.0083504999056458,0.0604155473411083,-0.0049843350425362,0.0025669261813163,-0.5999343395233154,0.8000296354293823,-0.0038638104141399,0.0020107334419507,0.049543539646253,-0.0715827941894531,-0.2034621834754943,0.1299571990966797,315,28,18759,12778
17.1,1788174564990,4.816901206970215,5.154929637908936,-0.0057446383871138,-0.000520966539625,-0.0641016289591789,0.9979267716407776,0.1734904224572019,0.0008591541252091,-1.0636275729533736e-05,-0.0065094893798232,0.0016361055895686,0.053423561155796,-0.0049981921911239,0.003004235215485,-0.597713828086853,0.8016883134841919,-0.0067566326705437,0.0197252615855036,0.0792636931677807,-0.0002979040145874,0.2349173426628112,0.0729217529296875,286,39,18208,13753
17.2,1788174565090,5.267605781555176,4.591549396514893,-0.0057238531298935,0.0005672302795574,-0.0594107694923877,0.9982170462608336,0.1737470723694688,0.0014276507927403,-5.2731703576239946e-05,0.0069112135097384,0.0251460839062929,0.1246284842491149,-0.0043895561248064,0.0037899808958172,-0.59413743019104,0.8043426871299744,0.0062458123083963,-0.0071097546274997,0.0053607042132672,0.3798502087593078,-0.0391103625297546,0.0349082946777343,368,21,21588,10594
17.3,1788174565190,5.633802890777588,4.507042407989502,-0.0057399328798055,-0.000589896691963,-0.0600107572972774,0.9981811046600342,0.1759192814442151,-0.0014362080937024,0.000134165649065,0.005667348857969,-0.0612408593297004,-0.064502976834774,-0.0068206116557121,0.0005939994007349,-0.5975708961486816,0.8017868995666504,-0.0154351270185363,-0.1103732243201685,-0.1198537193270194,-0.3546720147132873,-0.2697668671607971,-0.0207576751708984,306,18,20358,10906
17.4,1788174565290,5.7183098793029785,4.563380241394043,-0.0059326477348804,-0.0060951458290219,-0.0651966482400894,0.997836172580719,0.1650919369864602,-2.523236666895063e-05,0.0003408186597345,0.0092207454144954,-0.0948214679956436,-0.0826145410537719,-0.0094034783542156,-0.0033457921817898,-0.6020004749298096,0.7984333634376526,0.0006687210686509,-0.0477881072310549,-0.1049429631125387,-0.1551692485809326,-0.1240434050559997,0.0953493118286132,286,31,19932,11024
17.5,1788174565390,5.549295902252197,4.619718074798584,-0.0061324760317802,-0.0085912458598613,-0.0705145820975303,0.997454822063446,0.1705227980486771,0.0003797821288732,0.0002080266166177,-0.0014734478900209,-0.0398753210902214,-0.1103615686297416,-0.0100383087992668,-0.0042383922263979,-0.6051265001296997,0.7960547804832458,0.0019707793952468,-0.018771333026082,-0.0721381432398807,0.2474953532218933,0.0800161957740783,-0.0542278289794921,323,18,20472,10971
17.6,1788174565490,5.830986022949219,4.2816901206970215,-0.0059375208802521,-0.0095630893483757,-0.0744779706001281,0.9971591234207152,0.1726135292195439,-2.49772460313022e-05,3.844303497339499e-05,0.0083047244697809,-0.0176002942025661,-0.0886953249573707,-0.0102464957162737,-0.0049991253763437,-0.6087048053741455,0.7933149933815002,0.0033303233384176,0.0003499265305729,-0.0841654988366381,0.1451355218887329,-0.1973710656166076,0.2552022933959961,382,29,21726,9400
17.7,1788174565590,5.802816867828369,4.2816901206970215,-0.0060207433998584,-0.0108899222686886,-0.0807495340704917,0.9966567158699036,0.1792566833789234,-0.000204475446414,9.31666376297604e-05,-0.0049763927236199,-0.0423284024000167,-0.1618265211582183,-0.0118524339050054,-0.0070749409496784,-0.616036593914032,0.7875965237617493,0.0054315546080492,-0.0319204034383854,-0.133044288469057,0.2687015533447265,-0.1816515922546386,0.2805862426757812,363,28,21815,9493
17.8,1788174565690,5.154929637908936,4.816901206970215,-0.0060889921151101,-0.0130976401269435,-0.0896895378828048,0.995864987373352,0.1787457635904831,0.0006738864706638,0.0001241596911744,0.0015411663334816,-0.0322521105408668,-0.1749188899993896,-0.0119791692122817,-0.0077263778075575,-0.6203933954238892,0.7841613292694092,0.0158896893366935,0.0175083885395378,-0.0235177784191085,0.211588442325592,-0.3347007036209106,-0.1025495529174804,305,30,19104,13054
17.9,1788174565790,5.746479034423828,4.647887229919434,-0.0056271604262292,-0.01024498231709,-0.0917596668004989,0.9957125782966614,0.1745001976850301,0.0044842944452501,-0.0003158242947449,0.0048723677173256,0.0871196985244751,-0.0172767378389835,-0.009770723991096,-0.0048205684870481,-0.621430516242981,0.7833935022354126,-0.0031900757981634,0.0285197086320486,-0.0602496206459588,-0.1960588097572326,0.2381743192672729,0.1888647079467773,305,20,19516,10764
18.0,1788174565890,5.464788913726807,4.422535419464111,-0.0054061748087406,-0.0114407818764448,-0.0948833599686622,0.9954079985618592,0.1758956143386433,0.0015698841865028,0.0001977642212469,0.0146009800955653,-0.0845182761549949,-0.0849627330899238,-0.0114870471879839,-0.0074374135583639,-0.624980628490448,0.7805203795433044,-0.0040163418256502,-0.0212323408412246,-0.0935347752749135,0.1953800320625305,-0.0377227067947387,-0.2867078781127929,349,35,20598,11673
18.1,1788174565990,5.690140724182129,4.619718074798584,-0.0056151840835809,-0.0114972591400146,-0.0993407815694809,0.9949711561203004,0.1722543553917484,-6.707329480779031e-05,-0.0001040538156061,-0.0065461131744086,0.0375108979642391,-0.0810365453362464,-0.0111248604953289,-0.0069014066830277,-0.6289047002792358,0.7773721814155579,-0.0012044668452373,-0.016148265008516,-0.093138328815789,0.2316238284111023,0.2070851325988769,-0.0326337814331054,302,16,19920,10866
18.2,1788174566090,5.380281925201416,4.901408672332764,-0.0056151188910007,-0.011799955740571,-0.10431719571352,0.9944581985473632,0.1772462711952515,0.0006970163614547,3.670424644044207e-05,-0.0047102449461817,-0.0019002696499228,-0.101684458553791,-0.0113948034122586,-0.006910472176969,-0.6312156319618225,0.7754929065704346,-0.0078751783144718,-0.020695707525902,-0.0423647112482121,-0.0409527420997619,0.0850960612297058,-0.5730495452880859,279,35,18514,12563
18.3,1788174566190,4.873239517211914,5.183098793029785,-0.0057545318268239,-0.0114549389109015,-0.1054450720548629,0.9943425059318542,0.1701074883097984,0.0015777277914373,-4.116876746712241e-05,-0.0007375945569947,0.0231274086982011,-0.0020277681760489,-0.0102143380790948,-0.0056857848539948,-0.6291333436965942,0.7772095799446106,0.0004784615153689,0.0396635888651175,0.0972375680369594,-0.1463669538497924,-0.0504888296127319,-0.0361833572387695,313,59,17704,13964
18.4,1788174566290,5.154929637908936,4.985915660858154,-0.0053945933468639,-0.0097097633406519,-0.1008273214101791,0.9948418736457824,0.1730490326746721,0.0002986378446354,-0.0001012059396157,0.0001679209381109,0.0411740206182003,0.1123114973306655,-0.0101598156616091,-0.0056521585211157,-0.6262019872665405,0.7795742750167847,0.0068390595791094,-0.0410150249602541,0.0701934262840708,-0.134429931640625,0.069896399974823,0.043365478515625,294,30,18165,13070
18.5,1788174566390,5.014084339141846,5.098591327667236,-0.0056742881424725,-0.0112039009109139,-0.0979006290435791,0.9951169490814208,0.1738683751562008,0.0028777804724821,0.0001237122891769,-0.003830294124782,-0.0461037456989288,0.0536867082118988,-0.0114530334249138,-0.0072854021564126,-0.6233494281768799,0.781825602054596,0.0038927217161276,-0.044000924047225,0.0684186821968722,-0.2848372459411621,-0.3410993814468384,0.1193552017211914,285,26,18924,12703
18.6,1788174566490,5.183098793029785,4.957746505737305,-0.005643512122333,-0.0131643442437052,-0.0942866206169128,0.9954420924186708,0.1720484977997647,-0.0004469841427891,0.0001365072953518,0.0028801853768527,-0.0517285540699958,0.0670461133122444,-0.0122363623231649,-0.0085652265697717,-0.6209463477134705,0.7837108373641968,0.0181130246296348,-0.0001182826150658,0.1031319733705076,0.5764908194541931,0.2481597065925598,-0.1465177536010742,373,56,18737,13406
18.7,1788174566590,5.126760482788086,5.267605781555176,-0.0057392204180359,-0.0138913420960307,-0.0906887575984001,0.9957658648490906,0.1685063906483223,-0.0001711611738115,2.2775393741119764e-05,0.0007706161704845,-0.0016149221919476,0.0713146552443504,-0.0125778010115027,-0.0089022060856223,-0.6186620593070984,0.7855060696601868,0.0034225189552112,-0.0323152414214038,0.0602906000487278,-0.4806442856788635,-0.3290756344795227,0.062286376953125,309,25,18764,12172
18.8,1788174566690,5.126760482788086,4.985915660858154,-0.0056815547868609,-0.0149263422936201,-0.0879728123545646,0.9959948062896729,0.1698695555887901,-0.0019034572962812,5.52586369045568e-05,0.002571391640231,-0.0183025225996971,0.0455140247941017,-0.0138071496039628,-0.0100312763825058,-0.6163732409477234,0.7872691750526428,-0.0112380537964034,-0.0292932693525306,0.0272415472782106,-0.2399885058403015,-0.2621671557426452,0.1402254104614257,329,55,18830,13266
18.9,1788174566790,5.464788913726807,4.647887229919434,-0.0061413468793034,-0.01630968041718,-0.0855815112590789,0.9961786866188048,0.1704760504567723,0.0015674741423411,6.452667425960953e-05,-0.0052011949010193,-0.0277367234230041,0.0437584593892097,-0.0134373418986797,-0.0096167912706732,-0.6145243644714355,0.7887247800827026,0.0080750961202535,0.0348227423311104,0.0631708280936949,0.2068808078765869,-0.3777158260345459,0.2903680801391601,374,25,20862,10868
19.0,1788174566890,5.633802890777588,4.450704097747803,-0.0060483599081635,-0.0161079540848732,-0.0851381719112396,0.996220588684082,0.1758424805509666,-0.001786622510694,-2.63733837758248e-05,0.0035320618189871,-0.026557944715023,-0.0332547724246978,-0.0145815862342715,-0.0111227612942457,-0.6166715025901794,0.7870070338249207,-0.0044636313217982,-0.0461926536551307,-0.090310283083754,0.3571718335151672,0.2933712005615234,0.1120433807373046,394,27,20782,11211
19.1,1788174566990,5.97183084487915,4.563380241394043,-0.0063476106151938,-0.016742879524827,-0.0902974084019661,0.995753824710846,0.1688979484273344,0.000865996568083,5.361034375724676e-05,-0.0084009114652872,0.0151813952252268,-0.0991826876997947,-0.014181287959218,-0.0106922863051295,-0.6211376786231995,0.7835002541542053,0.0232680081538802,-0.0181423741338275,-0.0861768317366811,-0.0221539139747619,-0.094390869140625,0.2340412139892578,369,65,21604,8622
19.2,1788174567090,5.380281925201416,4.647887229919434,-0.006037569604814,-0.0171040929853916,-0.0956839546561241,0.995246410369873,0.1664488701394864,-0.0082164086621882,6.73031499842713e-05,-0.0007318831048905,-0.0192116517573595,-0.1602410972118377,-0.0141112254932522,-0.0103824026882648,-0.6268101930618286,0.7789750695228577,-0.015681782567244,0.0381719196356546,-0.1355202038612774,0.0994209051132202,0.020718514919281,0.2654018402099609,272,89,18861,13244
19.3,1788174567190,5.577464580535889,4.478873252868652,-0.0061201169155538,-0.0155832190066576,-0.1011763662099838,0.994727611541748,0.1673315025501748,0.0035578761293042,-4.155962759394211e-05,-0.0023072517942637,0.0343647301197052,-0.0594006069004535,-0.0124448845162987,-0.0082714073359966,-0.6299337148666382,0.7765052318572998,0.0108043077159151,0.0222861981873086,-0.0782806033962505,-0.0660896301269531,-0.345000684261322,0.3816165924072265,322,18,19875,11462
19.4,1788174567290,5.633802890777588,4.619718074798584,-0.0058929836377501,-0.0137703958898782,-0.1049462705850601,0.9943650364875792,0.1736048155330044,0.0037706785636195,-6.422910848286182e-05,0.008202139288187,0.0104254940524697,-0.1016107201576232,-0.0125563340261578,-0.0082824304699897,-0.6329154372215271,0.7740747928619385,-0.0103245345510736,-0.0003407454721879,-0.0950271445144294,-0.0333015322685241,-0.0441314578056335,-0.1521568298339843,300,26,20168,11025
19.5,1788174567390,5.605633735656738,4.591549396514893,-0.0059582730755209,-0.0133813368156552,-0.1099380254745483,0.9938305020332336,0.1785646411667643,0.0019558588151966,-3.564750927159799e-05,-0.0016877498710528,0.0170140769332647,-0.0977193340659141,-0.0126920659095048,-0.0082588726654648,-0.636968731880188,0.7707408666610718,-0.0026790336854223,-0.0306935045611999,-0.1187620842340186,-0.3620760440826416,-0.0954359173774719,-0.1321926116943359,314,18,20150,10983
19.6,1788174567490,5.436619758605957,4.563380241394043,-0.0059848804958164,-0.0140527402982115,-0.1146921962499618,0.9932836294174194,0.1788715036271781,0.0028560608078078,2.9789256443351816e-05,0.0065218419767916,-0.0088379848748445,-0.0991942733526229,-0.0120912082493305,-0.0078248651698231,-0.640683650970459,0.7676699161529541,0.0004659757974272,0.0530296520506184,-0.0960444479726673,0.1623921394348144,0.1679933667182922,0.1132135391235351,332,33,21051,11321
19.7,1788174567590,4.788732528686523,4.788732528686523,-0.0061246985569596,-0.0133318798616528,-0.1195360943675041,0.992721438407898,0.1762230601928636,0.000502301327288,-1.6002793045415263e-05,-0.0118226148188114,0.0006947318324819,-0.099818468093872,-0.0125848473981022,-0.0085009047761559,-0.6426379084587097,0.7660194635391235,0.0129798977434102,-0.0240544386549122,0.0210059950289092,-0.1111069321632385,0.0205668210983276,-0.2796182632446289,168,16,15015,11589
19.8,1788174567690,2.08450698852539,4.0,-0.0056126420386135,-0.0118013815954327,-0.1184964179992675,0.9928684830665588,0.1566363420237558,0.0008591233417447,-5.6889423270602816e-05,0.0058041801676154,0.0680573657155036,0.058945432305336,-0.0063090715557336,-0.0012268489226698,-0.6371565461158752,0.7707076072692871,0.0101377484323309,0.3497541716019124,0.2694156230534253,-0.3742237687110901,0.2725704908370971,-0.4369134902954101,137,46,7407,11036
19.9,1788174567790,0.0,3.436619758605957,-0.0043116700835525,0.0031089370604604,-0.1037207245826721,0.9945922493934632,0.1022214866037454,0.004042432521665,-0.0010381679061383,-0.0119996722787618,0.3158230185508728,0.3406459391117096,-0.0018542483448982,0.0040636742487549,-0.6231780648231506,0.7820671796798706,0.016016934743451,-0.0391708762683982,0.4324710457040334,-0.5529609322547913,0.5636515021324158,-1.3517112731933594,39,37,-2557,9457
20.0,1788174567890,-2.676056385040283,2.7887322902679443,-0.0036373315379023,0.0030144825577735,-0.0823851004242897,0.9965893626213074,0.0485423307720161,-0.0005531391421293,-9.775382162567948e-08,0.0033601310569792,0.0054309922270476,0.5116804838180542,-0.0008966214954853,0.0046292515471577,-0.5931870937347412,0.805050790309906,0.0040094056218924,0.0179446095401906,0.8007324254283342,-0.6200165748596191,0.3991075158119201,-0.0684804916381836,284,74,-12746,8494
20.1,1788174567990,-2.450704336166382,2.563380241394043,-0.0035270368680357,0.0029785758815705,-0.0438860431313514,0.9990258812904358,-0.0081309215925673,0.000726424203253,7.776777927525081e-07,-0.0100690945982933,-0.0108208488672971,0.8546941876411438,-0.0014187600463628,0.0044191870838403,-0.5609025955200195,0.8278688788414001,0.0003717730765842,-0.0091878261704137,0.7793646097843369,0.3577287197113037,-0.1556959748268127,0.7525014877319336,86,58,-9120,7760
20.2,1788174568090,-2.563380241394043,2.507042169570923,-0.0035302734468132,0.0030592661350965,-0.0032473965547978,0.999983847141266,0.0057141169483299,-0.0062212885775037,-6.599883950206538e-07,0.0018996498547494,-0.0002812690217979,0.7392660975456238,-0.0015874886885285,0.0045400541275739,-0.5325188636779785,0.8464045524597168,-0.0146867710613004,-0.0148860389678932,0.7929328844352274,-0.1169126629829406,0.1180174350738525,0.2325029373168945,83,62,-8995,8242
20.3,1788174568190,-2.2253520488739014,2.197183132171631,-0.0040292730554938,0.0027475643437355,0.0398093611001968,0.9991953372955322,0.0072230852698245,-0.0021461607406746,2.5093338364719365e-06,-0.0104845473542809,-0.0105075929313898,0.7976134419441223,-0.001894574612379,0.0044247107580304,-0.4962591528892517,0.8681612014770508,-0.0028628915517257,-0.0041709634251598,0.7470998474874129,-0.0159739851951599,0.0194183588027954,0.1301546096801757,107,63,-8099,6901
20.4,1788174568290,-2.11267614364624,2.253521203994751,-0.0040329820476472,0.0025299466215074,0.0724601373076438,0.9973599314689636,0.0072465812791846,-0.0032199098380191,9.68977984577598e-07,-0.0039499481208622,-0.0096833854913711,0.7047359347343445,-0.0019432194530963,0.0043443078175187,-0.4696099460124969,0.8828611969947815,6.358684151894026e-05,-0.0073437902464406,0.6455488847926447,-0.0870771408081054,0.0396101474761962,0.058079719543457,154,68,-8737,6725
20.5,1788174568390,-2.1408450603485107,2.3380281925201416,-0.0041235596872866,0.0024680581409484,0.1050206571817398,0.9944583773612976,-0.000392159041809,-0.0039972103839188,1.236842060208761e-06,-0.0063736545853316,-0.0070711229927837,0.6501075029373169,-0.0022241817787289,0.0041875783354043,-0.4365952610969543,0.8996455073356628,-0.0049598612520661,-0.003195691412099,0.6277706434338427,0.2129797935485839,-0.0479180216789245,0.2871351242065429,118,76,-8867,6921
20.6,1788174568490,-1.5211267471313477,1.7464789152145386,-0.0041996613144874,0.0021579973399639,0.1409531384706497,0.9900050163269044,0.0047399365757011,-0.0066474981627309,1.9438728912889845e-06,-0.0045176912099123,-0.0070363320410251,0.6134541034698486,-0.0024871630594134,0.0042170453816652,-0.4136272668838501,0.9104331135749816,-0.0120663800665929,0.0015991500732155,0.4802405653390872,-0.0580924749374389,0.0200474262237548,-0.0909366607666015,227,89,-9536,6807
20.7,1788174568590,-1.887323975563049,1.9154930114746092,-0.0045334915630519,0.0021546841599047,0.1654081642627716,0.986212432384491,0.0033769642014139,0.000146309001562,8.901217727827142e-07,-0.0074074459262192,-0.0009301700629293,0.4991248846054077,-0.002651491202414,0.004503259435296,-0.3851382136344909,0.9228441119194032,-0.0056050524332172,-0.0018715445868418,0.537943317472596,0.0142496824264526,0.0229851603507995,0.0153846740722656,223,77,-9742,7134
20.8,1788174568690,-1.6338027715682983,1.774647831916809,-0.0047510913573205,0.0024004220031201,0.1891589015722274,0.9819319844245912,0.0024066989132788,-0.0024685243287529,5.143438863104193e-07,-0.0053959460929036,0.0011164044262841,0.5359805226325989,-0.002675418742001,0.004573811776936,-0.362759917974472,0.9318675994873048,0.001524516160318,-0.0078127675793428,0.5647512829655948,0.0368093252182006,-0.1502693891525268,0.0776252746582031,224,69,-8748,5357
20.9,1788174568790,-1.436619758605957,1.4647886753082275,-0.0046547879464924,0.0023311881814152,0.2137871235609054,0.9768663048744202,0.0024415482612364,-0.0037468007005116,5.613803369945542e-07,0.0022165731061249,-0.0049432273954153,0.4635578989982605,-0.0026056757196784,0.004642846994102,-0.3448179364204407,0.9386545419692992,-0.0046168444542125,0.0077361787075894,0.4064807187881424,-0.0310119986534118,0.0100097060203552,-0.0890388488769531,286,137,-10087,6890
21.0,1788174568890,-1.4929577112197876,1.5211267471313477,-0.0047386321239173,0.0026311113033443,0.2340358197689056,0.972212851047516,0.0041667026206083,-0.0001320519384098,6.007434064635044e-07,-0.0007918976480141,0.0048434254713356,0.4201222956180572,-0.0024794051423668,0.0046784887090325,-0.3197660148143768,0.9474818110466005,-0.0019888238835485,-0.0061445028338666,0.4390399422869861,-0.087485134601593,-0.1616822481155395,0.0788240432739257,327,106,-10212,6601
21.1,1788174568990,-1.5492957830429075,1.4929577112197876,-0.0045460602268576,0.0024364269338548,0.2581603229045868,0.9660884141921996,0.0027027631648242,-0.0053930512908526,-2.7746821620630186e-07,0.0006112979026511,-0.0093750236555933,0.4473224878311157,-0.0025460114702582,0.0044862469658255,-0.3030504286289215,0.9529605507850648,-0.0050546241669501,0.0023901682457888,0.4261648626267952,0.1758663058280944,0.0762220621109008,0.0342645645141601,302,156,-10016,7155
21.2,1788174569090,-1.0985915660858154,1.154929518699646,-0.0046100178733468,0.002353279851377,0.2769222259521484,0.9608783721923828,0.0043524747174683,-0.0009852643248774,-1.5792630514125826e-07,-0.0017134496010839,-0.0051490454934537,0.4293995499610901,-0.002576420083642,0.0042594093829393,-0.2827250957489013,0.9591880440711976,-0.001703933409501,-0.0071527584564203,0.3285527211680669,0.088799774646759,-0.1825658679008484,-0.0175065994262695,290,132,-9247,5520
21.3,1788174569190,0.0,1.1267606019973757,-0.0042725335806608,0.0021172573324292,0.3013401329517364,0.9535048007965088,0.0027001469381089,-0.0035295215379365,4.491309744580853e-07,0.0009462825837545,-0.0041588437743484,0.3422962427139282,-0.0024230517446994,0.0041068410500884,-0.2682470381259918,0.963338315486908,0.0004068597187708,-0.0028567712544416,0.339336700422003,0.0809409022331237,-0.0360839366912841,-0.0905828475952148,27,5,0,0
21.4,1788174569290,-0.98591548204422,1.0140844583511353,-0.0041842148639261,0.0020834684837609,0.3037808835506439,0.9527304768562316,0.014981832634368,-0.0043502801017271,2.7702856678439537e-06,0.002608329989016,-0.0026905415579676,0.1018850654363632,-0.0024301381781697,0.0040579671040177,-0.264557272195816,0.9643583297729492,-0.0054530661926751,0.0066398870808575,0.1242461752983299,0.1730519533157348,-0.0046815276145935,0.0428619384765625,274,55,-3801,1735
21.5,1788174569390,0.0,0.0,-0.0042118467390537,0.0021093431860208,0.3069157302379608,0.9517250657081604,0.0028405994382585,-0.0004640816339981,-3.041701649279756e-07,-0.0019403314217925,0.0027626731898635,0.1109055504202842,-0.0023592691868543,0.0039617735892534,-0.2633885443210602,0.9646788239479064,0.0029908922849614,-0.0052160914947755,-0.0397624852950521,0.2745041847229004,0.2452818751335144,-0.0580358505249023,0,3,0,0
21.6,1788174569490,0.0,0.0,-0.0041739661246538,0.0020790016278624,0.3060896694660187,0.951991319656372,0.0002362804552699,0.0016903006675786,7.982999808137138e-07,-0.001243513659574,0.0017050295136868,0.003201489103958,-0.0023797862231731,0.0039786417037248,-0.263429582118988,0.9646674394607544,0.0006581439113952,-0.0001963160763758,0.0013976298149994,-0.0345165133476257,0.110766053199768,0.010101318359375,0,0,0,0
21.7,1788174569590,0.0,0.0,-0.0041859233751893,0.0019811461679637,0.3060608804225921,0.9520006775856018,-0.0001265267330605,0.0001472999277943,1.7417888125459897e-07,-0.0016645498108118,-0.0012020983267575,-0.0014573122607544,-0.0024167075753211,0.0039739981293678,-0.2634802758693695,0.9646536111831664,-4.1822828772994765e-05,0.000343091826489,-0.0002042363238548,-0.0006966590881347,0.0485576391220092,0.0153760910034179,0,0,0,0
21.8,1788174569690,0.0,0.0,-0.0041976515203714,0.0020166258327662,0.3060511350631714,0.9520036578178406,3.7723243590571824e-05,-4.444699359378985e-05,-5.8827750694538207e-08,-0.0002188835060223,0.0003689857840072,0.0004406712541822,-0.0024210894480347,0.0039551667869091,-0.2634555697441101,0.964660346508026,-0.0002227322181752,-0.0005527496148308,0.0003302146520812,0.0168949961662292,-0.0592156052589416,0.0132055282592773,0,0,0,0
21.9,1788174569790,0.0,0.0,-0.0041782353073358,0.0020210691727697,0.3060632348060608,0.9519999027252196,-4.318870139026529e-05,5.447347919640689e-05,9.35087541492076e-08,0.0007417333545163,0.0010176307987421,-0.0005263838684186,-0.0023810938000679,0.003957349807024,-0.2634619474411011,0.9646587371826172,0.0011940147361395,-0.0008996411905566,0.0001505193420454,-0.0063637495040893,0.0027523040771484,0.0492839813232421,0,0,0,0
22.0,1788174569890,0.0,0.0,-0.0041545098647475,0.0019879937171936,0.3060808181762695,0.9519944190979004,5.539080750124888e-05,-6.527141493398345e-05,-8.319007322361408e-08,-0.0002991383371409,-0.0010731358779594,0.0006347445887513,-0.0024062767624855,0.0039356891065835,-0.2633962333202362,0.9646767377853394,0.0001315108060104,0.0008704148680086,0.0006916146007462,0.0022150874137878,-0.0254969596862792,0.0186672210693359,0,0,0,0
22.1,1788174569990,0.0,0.0,-0.004146272316575,0.0019748667255043,0.3061237335205078,0.9519806504249572,-3.9380051974164695e-06,2.824781661085656e-06,-5.8253228130392926e-09,0.0007053598528727,-1.7440306692151353e-05,-2.9078222723910585e-05,-0.0024017030373215,0.0039392691105604,-0.263423204421997,0.9646692872047424,-0.00087715599893,0.000995408960645,-0.0005329210222549,0.0273317098617553,0.0048566460609436,0.0458488464355468,0,0,0,0
22.2,1788174570090,0.0,0.0,-0.0041414611041545,0.0019849217496812,0.3061319887638092,0.9519779682159424,7.523188426610419e-05,-8.866779223205423e-05,-1.1942826623227818e-07,0.0007243141299113,-5.323840741766617e-05,0.0008613623795099,-0.0023786891251802,0.0039258636534214,-0.2633664608001709,0.9646849632263184,-0.0002130248714988,0.0008836580992999,0.002057773522167,-0.0023926496505737,0.006312072277069,-0.0385112762451171,0,0,0,0
22.3,1788174570190,0.0,0.0,-0.0041196499951183,0.0019817478023469,0.3061698377132416,0.9519659280776978,3.856386019535119e-05,-4.675154672560149e-05,-6.783104521636595e-08,0.0003595087036956,-0.0001980222587008,0.0004617995291482,-0.0023724175989627,0.003902037627995,-0.2633664309978485,0.964685082435608,0.0003132887153916,0.0005181245826966,-2.1892726600904444e-05,-0.0074968934059143,-0.0053756833076477,0.0284547805786132,0,0,0,0
22.4,1788174570290,0.0,0.0,-0.0041125444695353,0.0019657062366604,0.3061671257019043,0.9519668817520142,3.0940552533871235e-05,-3.647386930529772e-05,-4.797709706047604e-08,0.0002262070483993,-0.000271826836979,0.0003755617071874,-0.0024035358801484,0.0038657654076814,-0.2634064257144928,0.9646742343902588,-0.0004169658980659,-0.0011438684571785,-0.0015596511884876,0.0116515159606933,-0.0241433382034301,0.0258960723876953,119,107,-3939,4058
22.5,1788174570390,-1.183098554611206,1.211267590522766,-0.0042094564996659,0.0019009070238098,0.3073775470256805,0.9515764713287354,0.0033124984036969,-0.0025215685086409,1.5963053362528068e-07,-0.0037249736487865,-0.0006680983351543,0.0527307465672493,-0.0025872327387332,0.0038776900619268,-0.2536242306232452,0.9672916531562804,-0.0019430812111672,-0.0040201588778838,0.2778453770771074,-0.2397480010986328,-0.0768176317214965,0.0066204071044921,291,136,-9133,6223
22.6,1788174570490,-1.3239436149597168,1.154929518699646,-0.0042460458353161,0.0019142506644129,0.3221216201782226,0.946686863899231,0.0061765639615459,-0.0046471847635183,-2.650385335282327e-07,0.0017638455610722,0.0009180003544315,0.3356843888759613,-0.0025096107274293,0.0039426898583769,-0.2372546792030334,0.9714362621307372,-0.0032578751800353,0.0034173569453204,0.3401905544764287,-0.2282047867774963,-0.0504634380340576,0.0480928421020507,230,142,-8820,6273
22.7,1788174570590,-1.0985915660858154,1.2394366264343262,-0.0043451306410133,0.0019003715133294,0.3400128185749054,0.9404088854789734,0.0033478979619978,0.0015451893030325,-5.391404084531762e-07,-0.0046860226429998,-0.0010023846989497,0.3509252369403839,-0.0028318297117948,0.004013879224658,-0.2205917537212371,0.9753538966178894,-0.0103393568190735,-0.0036915673305615,0.3449328016780973,0.0497006177902221,-0.0341085195541381,-0.0008955001831054,247,94,-9235,6073
22.8,1788174570690,-0.8169013857841492,0.9577465057373048,-0.0046661323867738,0.0017255981219932,0.3539063632488251,0.9352676272392272,0.0020168492694679,-0.0042578400111331,5.336195305980497e-08,-0.007408988662064,-0.0036460505798459,0.3240735232830047,-0.0030245129019021,0.0037279371172189,-0.2059755176305771,0.9785453677177428,0.0017601063886492,-0.0157467900756614,0.3455124147294248,0.0353397130966186,0.0714591741561889,0.0407886505126953,271,134,-7734,4254
22.9,1788174570790,0.0,0.0,-0.0042771017178893,0.0012692862655967,0.3702797591686249,0.9289095997810364,0.0073184596295428,-0.0028653593608872,6.212830956045389e-08,0.004014765843749,-0.0022692300844937,0.099523514509201,-0.0028981836512684,0.0033782329410314,-0.1975894123315811,0.980274736881256,-1.2326224375889556e-05,0.0001870294184262,-0.0478379839222152,-0.6044608950614929,-0.0784761309623718,0.0786523818969726,0,0,0,0
23.0,1788174570890,0.0,0.0,-0.0042246244847774,0.0012604397488757,0.3693209886550903,0.9292914271354676,-0.0001764888882666,0.0002034837147973,4.654662893402608e-07,0.001045175245963,0.0012947766808792,-0.0019894542638212,-0.0028508119285106,0.0033628912642598,-0.1980738043785095,0.9801772236824036,0.0020456163118942,-0.0005813490992972,0.0083604009747715,-0.1051246523857116,-0.0146040916442871,0.0415859222412109,0,0,0,0
23.1,1788174570990,0.0,0.0,-0.004204417578876,0.0012528266524896,0.3692290186882019,0.9293280243873596,-0.0003412624850866,0.00040062005512,-2.807591622609592e-07,0.0006478002178482,-0.0005663325428031,-0.0039498694241046,-0.002860595472157,0.0033099064603447,-0.1981512159109115,0.9801616668701172,-0.0010929466895416,-0.0022941037508179,-3.9238822947076376e-05,0.0448099374771118,-0.0324607491493225,0.0134296417236328,0,0,0,0
23.2,1788174571090,0.0,0.0,-0.0042245648801326,0.0012288870057091,0.3693084716796875,0.9292964339256288,0.000242030443621,-0.000281629868052,-6.567797999091752e-07,-0.0005766251706518,0.0015746369026601,0.0027966862544417,-0.0028709871694445,0.0033270064741373,-0.198103666305542,0.9801712036132812,-0.0006929455107045,0.0004024532435594,-0.0009349204429659,-0.023133635520935,0.0055366158485412,0.0096998214721679,0,0,0,0
23.3,1788174571190,0.0,0.0,-0.0042227143421769,0.0012421570718288,0.3692730963230133,0.9293105006217957,0.0,0.0,0.0,0.0002795144100673,0.0008665481582283,-3.221303995815106e-05,-0.0028751576319336,0.0033891862258315,-0.1981343179941177,0.9801648259162904,-0.0012899285125527,0.0012448041871666,-0.0014688176602081,0.0085757970809936,-0.0174896717071533,0.0097427368164062,0,0,0,0
23.4,1788174571290,0.0,0.0,-0.0042604813352227,0.0012931572273373,0.3692560791969299,0.9293169975280762,-2.77191071356626e-05,3.266281973031088e-05,7.538384939583495e-08,0.0003116786247119,0.0009017618722282,-0.0003075033600907,-0.0028522936627268,0.0033538294956088,-0.1981595307588577,0.980159878730774,-0.0007461840909156,-0.0014311300868949,-0.0018280714795944,0.0366736054420471,-0.0109262466430664,0.020669937133789,0,0,0,0
23.5,1788174571390,0.0,1.380281686782837,-0.0042454292997717,0.0012658395571634,0.3692356050014496,0.9293253421783448,-7.547624909803798e-05,8.77067488944848e-05,1.9600516022180922e-07,-0.0007520946091972,0.0009160749614238,-0.0008511782507412,-0.0029014740139245,0.0032041640952229,-0.1970937401056289,0.980375111103058,0.0026248893797546,-0.0156067466694447,0.0872715909083986,1.0377568006515503,0.3504427671432495,0.0103969573974609,139,215,5025,9272
23.6,1788174571490,1.2676056623458862,4.2253522872924805,-0.0041533065959811,0.001093408325687,0.3746206164360046,0.9271682500839232,0.0645143910578596,0.000165488156645,1.2109465212419009e-08,-0.0008002608665265,0.0032096349168568,0.1917316019535064,-0.0028296438977122,0.0029847044497728,-0.1838558614253997,0.9829446077346802,0.0086275692740705,-0.0201829384240295,0.4066565146413187,0.5079102516174316,0.1962027549743652,0.1313543319702148,82,237,5434,15942
23.7,1788174571590,2.507042169570923,7.323943614959717,-0.004071095958352,0.0009924313053488,0.3941468298435211,0.919037938117981,0.1062486358529893,0.0026841294059167,2.6307875072818853e-06,-0.0029874297324568,0.0002039085520664,0.4921936392784118,-0.002858449704945,0.0029448317363858,-0.154024139046669,0.988058626651764,0.0010775830515382,0.0012564284619767,0.5846345814291591,0.6611236333847046,-0.1881380081176757,-0.9759998321533204,62,285,7740,24480
23.8,1788174571690,2.7887322902679443,7.690140724182129,-0.0041178404353559,0.0010532710002735,0.4252707660198211,0.9050562381744384,0.1646654174555552,-0.006007389758826,7.960809787769027e-05,-0.0006106137298047,0.001944463700056,0.6347723603248596,-0.0029393043369054,0.0027414057403802,-0.1249601989984512,0.9921535849571228,-0.0061265891347425,-0.0352762815002835,0.6693767150791838,0.0399481654167175,0.0188499689102172,-0.7407617568969727,12,128,7865,20449
23.9,1788174571790,2.873239517211914,7.267605781555176,-0.0039778999052941,0.0003215344622731,0.4551033973693847,0.890429675579071,0.1789673061564759,0.0026310248834784,1.9045889189262743e-06,-0.0078779645264148,-0.0140075758099555,0.6741183996200562,-0.0031471932306885,0.0022038267925381,-0.0919553786516189,0.995755672454834,0.001681115251589,-0.0146644463646635,0.6457186901197881,0.2513705492019653,0.1903028488159179,-0.5738706588745117,15,145,7139,21333
24.0,1788174571890,3.1549296379089355,6.816901206970215,-0.0039492775686085,0.0001511011505499,0.4809504151344299,0.8767388463020325,0.1845676238364373,0.0007781099777765,-4.659201839106418e-05,-0.0054610376246273,0.0017006914131343,0.6440932750701904,-0.003483192063868,0.0020290343090891,-0.0558462403714656,0.9984312653541564,-0.0036053487683979,-0.0183099669774282,0.5670015056984307,0.1311765313148498,-0.4262711405754089,-0.1189556121826171,24,135,8195,20159
24.1,1788174571990,3.1549296379089355,6.929577350616455,-0.0040265154093503,-0.0001416648738086,0.5056260228157043,0.8627433180809021,0.1737857156660722,6.601015101951556e-05,1.4377917645396887e-06,0.0013864879729226,-0.0003570854314602,0.5528212785720825,-0.0034871855750679,0.0022448254749178,-0.0308285243809223,0.9995160698890686,0.0031373136097942,-0.0104807673653717,0.5297673268047919,0.1392909884452819,0.0080695748329162,0.2151784896850586,32,149,8188,20047
24.2,1788174572090,3.1549296379089355,6.8450703620910645,-0.0042208549566566,0.0001642371062189,0.529265820980072,0.8484455943107605,0.1714633222652422,0.0021611257122735,-7.219321201437241e-05,-0.0004799449816346,0.0109656974673271,0.5522580742835999,-0.003444006666541,0.0022756848484277,-0.0033730873838067,0.9999858140945436,0.003442320921642,-0.0291152877011923,0.5521657111920216,0.0246310830116271,0.0075204968452453,0.7211751937866211,11,127,8311,20401
24.3,1788174572190,3.6619718074798575,6.478873252868652,-0.003950547426939,8.841336239129305e-05,0.5544239282608032,0.8322250247001648,0.1733049315176534,0.006822740416435,5.306369975477681e-05,0.006406171247363,-0.011055895127356,0.5396831631660461,-0.0034338068217039,0.0020064180716872,0.0190599374473094,0.9998104572296144,-0.0075210268986975,-0.012424903104382,0.4378301645101583,-0.1404051184654235,-0.0993390083312988,-0.1888351440429687,40,149,8919,19303
24.4,1788174572290,3.521126747131348,6.169013977050781,-0.0040448796935379,-0.0002179091097787,0.5709123611450195,0.8210009932518005,0.1687154540457527,0.0079948143320106,-1.5764482125090803e-05,-0.0011691295076161,0.0031929390970617,0.4342679977416992,-0.0031993882730603,0.0018584365025162,0.0434672757983207,0.9990479946136476,0.0198899350667781,-0.0436745555323942,0.4881522240185146,0.4204930663108825,0.1414408087730407,-0.2338790893554687,128,124,12310,18282
24.5,1788174572390,3.8309860229492183,6.197183132171631,-0.0039424858987331,-0.0001223323633894,0.5881127715110779,0.8087694048881531,0.1691635041876124,0.005692621004609,6.747072354089865e-05,-0.0035861679352819,-0.0044366056099534,0.3950816392898559,-0.0036548925563693,0.0020380150526762,0.0617578364908695,0.9980824589729308,0.0037433688601201,-0.0297318359618265,0.3775018759990639,0.3270660042762756,-0.150361955165863,-0.2768049240112304,123,108,11865,18287
24.6,1788174572490,3.91549301147461,6.11267614364624,-0.0046417978592216,-7.942691445350647e-05,0.6021426916122437,0.7983748912811279,0.1719492342482063,0.0035864307625327,-7.39394217721058e-05,-0.0149373402819037,0.0132166147232055,0.341543436050415,-0.0044476445764303,0.0029640542343258,0.0798041000962257,0.9967963099479676,-0.0120606668925337,0.0018859126289211,0.3067131836987308,-0.2864954471588135,0.1071013808250427,0.1599149703979492,161,89,14294,16058
24.7,1788174572590,4.507042407989502,5.690140724182129,-0.0052525168284773,9.885290637612344e-05,0.6173507571220398,0.7866705060005188,0.1640174223702407,0.0045901420817548,-1.6122827640139815e-05,-0.0031096895691007,0.0005518961697816,0.361400306224823,-0.0045181326568126,0.0029445337131619,0.0981226712465286,0.9951596856117249,0.0057940924459753,-0.0494683571396521,0.3549402571630061,0.2909232974052429,-0.0924292802810669,0.2478246688842773,261,51,16525,14415
24.8,1788174572690,4.14084529876709,5.85915470123291,-0.005401037633419,5.570170469582081e-05,0.6293825507164001,0.7770769000053406,0.1811174362411241,-0.0005918376132718,5.940639804538208e-05,0.0017094106879085,-0.0112636284902691,0.3302884101867676,-0.0047245752066373,0.003269744105637,0.1122441738843917,0.993664026260376,-0.0061724389243004,0.0133734869190537,0.3574262421298174,0.2149114608764648,0.03242027759552,-0.2656431198120117,262,58,15613,15754
24.9,1788174572790,4.253520965576172,5.830986022949219,-0.005406092852354,-0.0004062773659825,0.6479054093360901,0.7617015242576599,0.1710104874910566,0.000565606477067,8.028688389801049e-05,0.0033497342374175,-0.015912152826786,0.3318347930908203,-0.0047507360577583,0.0026117824018001,0.1268269419670105,0.9919100999832152,0.0011887604109964,0.0002036177321597,0.3282980984006963,0.1434101462364196,0.0310366749763488,0.3141584396362304,259,46,15591,15698
25.0,1788174572890,4.535211086273193,5.7183098793029785,-0.005168936215341,-0.0006205374374985,0.6536259055137634,0.7567998766899109,0.1687390503074695,0.0029067513640599,9.42807369513493e-05,0.0007011449197307,-0.0138967130333185,0.2992443740367889,-0.0046667335554957,0.00193986389786,0.1443970203399658,0.9895069599151612,0.002717337562749,-0.0108926975322635,0.2852604563487682,-0.1319057941436767,-0.1832491159439087,-0.6147632598876953,294,19,16815,13544
25.1,1788174572990,4.760563373565674,5.436619758605957,-0.0051839603111147,-0.0007789398077875,0.6643341779708862,0.7474172711372375,0.1697479065773821,0.0002072880607703,2.8747676371584925e-05,-0.0013978818897157,0.0022904209326952,0.2369767427444458,-0.0046392967924475,0.001826399937272,0.1525082886219024,0.9882896542549132,0.0081590195061802,-0.0085046440481619,0.1693806858733413,0.1390300989151001,0.1174868941307067,-0.0914459228515625,223,34,15818,14585
25.2,1788174573090,4.450704097747803,5.633802890777588,-0.0048163882456719,-0.0008556885877624,0.6703040599822998,0.7420705556869507,0.1747103439402864,-0.0006124894972439,-2.8253578802670552e-05,0.0069389827549457,0.0024129077792167,0.1920592486858368,-0.0042316988110542,0.0013704672455787,0.1618887186050415,0.9867990016937256,0.0027571902157121,-0.0137700082000892,0.1857119289404351,0.0252193212509155,0.300576388835907,-0.4270811080932617,240,46,16706,14054
25.3,1788174573190,4.760563373565674,5.380281925201416,-0.0043558087199926,-0.0011122117284685,0.6774668097496033,0.7355396747589111,0.1689632329670908,0.0055469485295606,2.7496118587778417e-05,-0.0007308685453608,0.000615760392975,0.1990552097558975,-0.0042877942323684,0.0010881004855036,0.1705651581287384,0.9853365421295166,-0.0084647879383177,-0.0165193583119475,0.1800883421496875,-0.0231825709342956,-0.4203771948814392,0.1426553726196289,241,25,17498,12692
25.4,1788174573290,5.154929637908936,5.070422649383545,-0.0040025948546826,-0.0017372763250023,0.6830649971961975,0.7303445339202881,0.1694001471894856,-0.0030197513020075,9.172844652911274e-05,-0.0032262208405882,-0.0145816309377551,0.116161823272705,-0.00421520229429,0.0002542994916439,0.1754386276006698,0.9844813346862792,0.0105368758200159,-0.026386307996211,0.0449402722431805,0.0022270679473876,-0.1801644563674926,0.1330289840698242,236,57,17412,12930
25.5,1788174573390,4.732394218444824,5.577464580535889,-0.0036856059450656,-0.0021099429577589,0.685135006904602,0.7284038066864014,0.1806976123356915,-0.0003724370014525,0.0001040245773959,5.285735824145377e-05,-0.0104277338832616,0.0515676401555538,-0.0040291715413331,-8.052308112382889e-05,0.1768365651369094,0.9842320084571838,0.0079591970952337,-0.018531754834337,0.0540435464051257,-0.2728967070579529,0.10231214761734,-0.5692653656005859,180,44,14796,14712
25.6,1788174573490,4.2253522872924805,5.915493011474609,-0.0029986060690134,-0.0027036357205361,0.6897255778312683,0.7240595817565918,0.1620142637291454,0.0050470808668565,9.15797417014869e-05,-0.0070485146716237,-0.030703654512763,0.1703672111034393,-0.0038634249940514,-0.0005547953769564,0.1893530786037445,0.9819013476371764,0.0153707849086253,-0.0168312702753837,0.2594143932564998,0.2034310102462768,0.2573264837265014,0.6333036422729492,202,92,14404,16170
25.7,1788174573590,4.169013977050781,5.915493011474609,-0.0027625982183963,-0.0026574225630611,0.699379026889801,0.7147407531738281,0.1705982891996112,0.0064410560231319,4.886034071054103e-05,0.0051991958171129,-0.0155447488650679,0.3111991882324219,-0.0036782883107662,-0.0008790772408246,0.2039851546287536,0.9789667129516602,-0.0034039825169401,0.0096451101422439,0.3388980741726702,-0.0798990726470947,0.1821449398994445,0.0192880630493164,196,55,15082,15863
25.8,1788174573690,4.535211086273193,5.549295902252197,-0.0023309562820941,-0.0028830808587372,0.7111963033676147,0.7029836773872375,0.1808456526909407,0.0036560751356447,4.884817818352424e-06,0.0048319566994905,-0.0115795889869332,0.3198308944702148,-0.0034733479842543,-0.0018732296302914,0.2188830375671386,0.9757431149482728,0.0146737671705593,-0.0328069234351319,0.1866093564451886,0.3500738143920898,-0.3691590428352356,0.0836248397827148,229,40,16242,14163
25.9,1788174573790,4.591549396514893,5.549295902252197,-0.0019444746430963,-0.0031978238839656,0.7213720083236694,0.6925376653671265,0.1767232183178476,-0.0003554910258353,2.9336421034308494e-05,-0.0062181740067899,-0.000627958914265,0.1589431911706924,-0.0033752061426639,-0.0016171103343367,0.2261437028646469,0.9740868210792542,-0.0155670728325934,0.0090160859146957,0.1423218440292095,-0.3637074828147888,0.3836483955383301,-0.6545896530151367,232,44,16039,14657
26.0,1788174573890,4.619718074798584,5.605633735656738,-0.0021093033719807,-0.0028706318698823,0.723929226398468,0.6898649334907532,0.1776339332130748,-0.0028089342489776,-3.3637569460709794e-06,0.0062456880696117,0.0166062917560338,0.1850901842117309,-0.0033021308481693,-0.0013053622096776,0.2340092360973358,0.972227931022644,0.0054008901171928,-0.0231551184937339,0.1905204552939984,0.0943451523780822,-0.0363808870315551,-0.0742425918579101,192,56,15559,14590
26.1,1788174573990,4.591549396514893,5.577464580535889,-0.0022116140462458,-0.002765639917925,0.7304573655128479,0.6829490661621094,0.1747969310231468,-5.911091887457516e-05,-3.900907059025496e-05,-0.0002680503239389,0.0036026663146913,0.196995347738266,-0.0035233628004789,-0.0012512216344475,0.2438364326953888,0.9698092341423036,-0.0171128239542873,0.0060412092870251,0.1348169415160132,-0.1733037829399109,0.447883129119873,-0.6607189178466797,194,78,15755,14657
26.2,1788174574090,4.422535419464111,5.577464580535889,-0.0021090838126838,-0.0029698028229177,0.7361375689506531,0.6768220663070679,0.1658006450394029,0.0017068254274161,8.189184358940173e-06,0.0005590483197011,-0.0035504468251019,0.16087307035923,-0.0035357205197215,-0.0016140379011631,0.2523717880249023,0.9676225781440736,-0.0132313383543122,-0.0030515459041254,0.1876343652149042,-0.1088399887084961,-0.2839809060096741,-0.3886556625366211,199,49,16313,14752
26.3,1788174574190,4.591549396514893,5.605633735656738,-0.0017054427880793,-0.0039193662814795,0.743168830871582,0.6690902709960938,0.1737923360951901,0.0044706696940009,0.000119146408866,-0.0091976821422576,-0.0225008316338062,0.1966705173254013,-0.0035604778677225,-0.0023990292102098,0.261749118566513,0.96512633562088,0.0054386848709633,-0.0142246321921927,0.2573196014367801,0.4692146778106689,0.0379794836044311,0.1757221221923828,259,63,15998,14546
26.4,1788174574290,4.760563373565674,5.239436626434326,-0.0017364317318424,-0.0040583861991763,0.7493998408317566,0.662102997303009,0.162853039245345,0.0078879153741027,6.997265497950716e-06,-0.0042761359363794,-0.0022359399590641,0.1821542084217071,-0.0037885243073105,-0.0025981701910495,0.2700334191322326,0.9628399610519408,-0.0041534405514045,0.0013828840137249,0.0910914496690119,0.0546375513076782,-0.2110989093780517,0.0848903656005859,244,49,17861,13489
26.5,1788174574390,4.732394218444824,5.295774459838867,-0.0015422580763697,-0.0046757869422435,0.7527898550033569,0.658242404460907,0.1664653696662787,0.0055798111750069,1.5460774352478322e-05,-0.0078104673884809,-0.0175753608345985,0.0818029791116714,-0.0034813340753316,-0.0040459474548697,0.2742646038532257,0.9616394639015198,0.0114471336015592,-0.0318957558612551,0.1051866380486212,0.0238646268844604,0.0617563128471374,-0.2299585342407226,283,51,18428,13552
26.6,1788174574490,5.154929637908936,5.042253494262695,-0.0001548968721181,-0.0054384917020797,0.7560426592826843,0.6544997692108154,0.1662724501704374,0.0038410453566399,0.0001334204999516,0.0126170720905065,-0.0294172652065753,0.0891362428665161,-0.003036125563085,-0.0048017706722021,0.2768125832080841,0.9609071612358092,-0.0047904592749353,-0.0119064831306421,0.0211686193126773,0.0767148733139038,-0.3903447985649109,-0.0536422729492187,301,57,18354,13258
26.7,1788174574590,5.211267471313477,4.957746505737305,1.863669604063034e-05,-0.0055973557755351,0.7570450305938721,0.6533386707305908,0.1760780116022318,0.0042531536992135,3.43526990255626e-05,-0.0013193597551435,-0.0023375658784061,0.0281666629016399,-0.0033773267641663,-0.0041337171569466,0.2780082821846008,0.9605638384819032,-0.0096397654206834,0.0396643116643555,0.0355442389093902,-0.1262662410736084,0.0829179883003234,-0.0077924728393554,299,38,17998,13656
