time_s,timestamp_ms,wheel_vels__velocity_left,wheel_vels__velocity_right,odom__orient_x,odom__orient_y,odom__orient_z,odom__orient_w,odom__lin_x,odom__lin_y,odom__lin_z,odom__ang_x,odom__ang_y,odom__ang_z,imu__orient_x,imu__orient_y,imu__orient_z,imu__orient_w,imu__angvel_x,imu__angvel_y,imu__angvel_z,imu__acc_x,imu__acc_y,imu__acc_z,wheel_status__current_ma_left,wheel_status__current_ma_right,wheel_status__pwm_left,wheel_status__pwm_right
0.0,1788526098819,0.0,0.0,-0.0023035414051264,0.0014957048697397,0.7331643104553223,0.680046021938324,2.355147590324421e-06,-1.7730184203590402e-07,1.2405265363890886e-08,-0.0007696846150793,0.0015254657482728,1.8894757886300795e-05,-0.0018035667017102,0.00204658228904,0.5240549445152283,0.8516800403594971,0.0004951225046119,-0.0006506194723416,0.0007515325927395,-0.0238553881645202,-0.0237151384353637,-0.0207147598266601,0,0,0,0
0.1,1788526098919,0.0,0.0,-0.0023035414051264,0.0014957048697397,0.7331643104553223,0.680046021938324,2.355147590324421e-06,-1.7730184203590402e-07,1.2405265363890886e-08,-0.0007696846150793,0.0015254657482728,1.8894757886300795e-05,-0.0018035667017102,0.00204658228904,0.5240549445152283,0.8516800403594971,0.0004951225046119,-0.0006506194723416,0.0007515325927395,-0.0238553881645202,-0.0237151384353637,-0.0207147598266601,0,0,0,0
0.2,1788526099019,0.0,0.0,-0.0023035414051264,0.0014957048697397,0.7331643104553223,0.680046021938324,2.355147590324421e-06,-1.7730184203590402e-07,1.2405265363890886e-08,-0.0007696846150793,0.0015254657482728,1.8894757886300795e-05,-0.0018035667017102,0.00204658228904,0.5240549445152283,0.8516800403594971,0.0004951225046119,-0.0006506194723416,0.0007515325927395,-0.0238553881645202,-0.0237151384353637,-0.0207147598266601,0,0,0,0
0.3,1788526099119,0.0,0.0,-0.0023035414051264,0.0014957048697397,0.7331643104553223,0.680046021938324,2.355147590324421e-06,-1.7730184203590402e-07,1.2405265363890886e-08,-0.0007696846150793,0.0015254657482728,1.8894757886300795e-05,-0.0018035667017102,0.00204658228904,0.5240549445152283,0.8516800403594971,0.0004951225046119,-0.0006506194723416,0.0007515325927395,-0.0238553881645202,-0.0237151384353637,-0.0207147598266601,0,0,0,0
0.4,1788526099219,0.0,0.0,-0.0023035414051264,0.0014957048697397,0.7331643104553223,0.680046021938324,2.355147590324421e-06,-1.7730184203590402e-07,1.2405265363890886e-08,-0.0007696846150793,0.0015254657482728,1.8894757886300795e-05,-0.0018035667017102,0.00204658228904,0.5240549445152283,0.8516800403594971,0.0004951225046119,-0.0006506194723416,0.0007515325927395,-0.0238553881645202,-0.0237151384353637,-0.0207147598266601,0,0,0,0
0.5,1788526099319,0.0,0.0,-0.0023035414051264,0.0014957048697397,0.7331643104553223,0.680046021938324,2.355147590324421e-06,-1.7730184203590402e-07,1.2405265363890886e-08,-0.0007696846150793,0.0015254657482728,1.8894757886300795e-05,-0.0018035667017102,0.00204658228904,0.5240549445152283,0.8516800403594971,0.0004951225046119,-0.0006506194723416,0.0007515325927395,-0.0238553881645202,-0.0237151384353637,-0.0207147598266601,0,0,0,0
0.6,1788526099419,0.0,0.0,-0.0023035414051264,0.0014957048697397,0.7331643104553223,0.680046021938324,2.355147590324421e-06,-1.7730184203590402e-07,1.2405265363890886e-08,-0.0007696846150793,0.0015254657482728,1.8894757886300795e-05,-0.0018035667017102,0.00204658228904,0.5240549445152283,0.8516800403594971,0.0004951225046119,-0.0006506194723416,0.0007515325927395,-0.0238553881645202,-0.0237151384353637,-0.0207147598266601,0,0,0,0
0.7,1788526099519,0.0,0.0,-0.0023035414051264,0.0014957048697397,0.7331643104553223,0.680046021938324,2.355147590324421e-06,-1.7730184203590402e-07,1.2405265363890886e-08,-0.0007696846150793,0.0015254657482728,1.8894757886300795e-05,-0.0018035667017102,0.00204658228904,0.5240549445152283,0.8516800403594971,0.0004951225046119,-0.0006506194723416,0.0007515325927395,-0.0238553881645202,-0.0237151384353637,-0.0207147598266601,0,0,0,0
0.8,1788526099619,0.0,0.0,-0.0022861610632389,0.0014882282121106,0.7331741452217102,0.680035412311554,6.273711387796892e-05,-6.975610620330585e-05,2.739810696861581e-07,0.0003114897408522,-0.0008819631766527,0.0007162928231991,-0.0017919512465596,0.0020369924604892,0.5240435004234314,0.8516871333122253,-9.67734381958917e-05,-0.0004681703592615,-0.0011447493648658,-0.0027412772178649,-0.0383506417274475,0.0044622421264648,0,0,0,0
0.9,1788526099719,0.0,0.0,-0.0022689076140522,0.0015040811849758,0.7331575155258179,0.6800532937049866,-4.0753501618907735e-05,4.739081898486597e-05,-1.748489820294435e-07,0.0005396316410042,0.0002087044995278,-0.0004768187645822,-0.0017478512600064,0.0020241281017661,0.5240432620048523,0.8516873717308044,0.0004294790834072,-0.0015398426600637,-0.0006325652761158,-0.0213454961776733,0.0203779935836792,-0.002385139465332,0,0,0,0
1.0,1788526099819,0.0,0.0,-0.0022358186542987,0.0014844108372926,0.733160138130188,0.6800506711006165,-4.592101929661929e-05,5.124715909517055e-05,-1.996608238126149e-07,-2.7530755687621426e-05,-0.000216313637793,-0.0005251901457086,-0.0018100086599588,0.0020853038877248,0.5240603685379028,0.8516766428947449,-0.0010074634554124,0.0028861685383573,0.0016986948523303,-0.0215478539466857,-0.0080040097236633,0.0064029693603515,5,0,0,0
1.1,1788526099919,0.0,0.0,-0.002243255963549,0.0014999693958088,0.733174741268158,0.680034875869751,7.364863895045172e-05,-8.025334400516011e-05,3.253356313251396e-07,0.0003298270748928,-0.0006929895025677,0.0008418367942795,-0.0017556641250848,0.0020435024052858,0.5240452885627747,0.8516861796379089,7.488771472567523e-05,5.3974618955535e-05,-0.0002909605796509,0.0041821002960205,0.0167435407638549,-0.0040264129638671,2,0,0,0
1.2,1788526100019,0.0,0.0,-0.002246698597446,0.001499579520896,0.7331739068031311,0.6800358295440674,6.025445946024523e-05,-6.699554618832575e-05,2.6351625843317535e-07,-0.0002089507470373,0.0004184267891105,0.0006879466818645,-0.0017514042556285,0.0020429203286767,0.5240570902824402,0.8516789078712463,-0.0006470981446187,5.283295102788274e-05,-0.0008254125710445,-0.0067976713180541,0.005745530128479,0.0173988342285156,1,0,0,0
1.3,1788526100119,0.0,0.0,-0.0022727530449628,0.0015190097037702,0.733162522315979,0.6800479292869568,-7.691643313213378e-05,9.137920430267872e-05,-3.327790088963933e-07,-0.0004672625218518,0.0012467117048799,-0.0009014311362989,-0.0017982944846153,0.0020699193701148,0.5240509510040283,0.8516824841499329,-0.0010078719003474,0.0004036132403334,0.0007951478562766,-0.0129896998405456,0.0225003361701965,0.0049209594726562,4,0,0,0
1.4,1788526100219,0.0,0.0,-0.0022637124639004,0.0014962011482566,0.7331708669662476,0.68003910779953,0.0,0.0,0.0,0.0001762397732818,-0.0011301676277071,8.375454854103737e-06,-0.0018059900030493,0.0020650355145335,0.5240552425384521,0.8516798615455627,-0.0009003660773152,0.0006249694966289,0.0010601695557364,-0.0165129303932189,-0.0095458626747131,-0.0114717483520507,7,0,0,0
1.5,1788526100319,0.0,0.0,-0.0022579955402761,0.0014743666397407,0.7331798076629639,0.6800295114517212,8.00296148776914e-05,-9.575672699312276e-05,3.469826474947703e-07,-0.0004421548801474,-0.0017097973031923,0.0009258547797799,-0.0017727706581354,0.0019816439598798,0.5240511894226074,0.8516826629638672,-0.0010245327147666,-0.0016027929400038,-0.0006712120607278,0.003075361251831,-0.0059019327163696,0.022810935974121,0,0,0,0
1.6,1788526100419,0.0,0.0,-0.0022424696944653,0.0014348868280649,0.7331751585006714,0.6800345778465271,2.6196738608209345e-05,-3.0463541601786226e-05,1.0838410398512306e-07,-7.688580080866814e-05,0.0001494600874138,0.0003139355394523,-0.0017340062186121,0.0019855508580803,0.5240659117698669,0.8516736626625061,0.0013911094151289,-0.0011212708682401,8.355349522488887e-05,-0.0349088311195373,0.0150574445724487,0.0083770751953125,3,0,0,0
1.7,1788526100519,0.0,0.0,-0.0021925289183855,0.0014322774950414,0.7331851720809937,0.6800239086151123,2.1760582988755756e-05,-2.5306388155851863e-05,9.123341739343989e-08,4.101006197743118e-05,-0.0011358454357832,0.000243082671659,-0.0017465380951762,0.0019926223903894,0.5240505933761597,0.8516829609870911,0.0002468678612183,0.0003799765668153,0.0008044611801154,0.0012529492378234,-0.0063467621803283,0.0066499710083007,0,0,0,0
1.8,1788526100619,0.0,0.0,-0.0022167537827044,0.001451531657949,0.7331700921058655,0.6800401210784912,-6.324264019945606e-05,7.794650235286021e-05,-2.578018902993108e-07,-7.820078462827951e-05,0.001049657119438,-0.0007530587026849,-0.0016972692683339,0.0019267778843641,0.5240728855133057,0.8516695499420166,0.0005746653988661,-0.0026766562614968,0.0002363947167169,-0.0309550166130065,0.0131894946098327,0.0173797607421875,1,0,0,0
1.9,1788526100719,0.0,0.0,-0.0021622811909765,0.0013727340847253,0.733171820640564,0.6800386309623718,-6.968523913833986e-05,8.369326464453697e-05,-2.764171707061748e-07,-0.0009666120167821,0.0002759368217084,-0.0008274333085864,-0.0017021596431732,0.0018983157351613,0.5240403413772583,0.8516896367073059,0.0006138270659132,-0.0006745394652857,-0.0009865912996114,-0.0186283588409423,-0.0077572464942932,-0.015019416809082,1,0,0,0
2.0,1788526100819,0.0,0.0,-0.0021391650661826,0.0013336997944861,0.7331364750862122,0.6800768375396729,-0.000136399225575,0.0001586040222035,-5.329325693284668e-07,-0.0008274405263364,-0.0005972888320684,-0.0015972445253282,-0.0017120819538831,0.0018846876919269,0.5240076780319214,0.85170978307724,0.000341664900397,0.0010996085266632,-0.0006109597937958,-0.0116196274757385,0.0338068008422851,-0.0074977874755859,1,0,0,0
2.1,1788526100919,0.0,0.0,-0.0021108496002852,0.0013620366808027,0.7331482768058777,0.6800641417503357,3.120857471842799e-05,-3.628544126133013e-05,1.2288476793536457e-07,0.0009046859922818,-0.0011726967059075,0.0003589717089198,-0.001654808409512,0.0018659280613064,0.5239983797073364,0.851715624332428,-0.0002739854969225,-0.0004948034647867,-0.0013426159396862,-0.0250725746154785,-0.0028439164161682,-0.0132064819335937,0,0,0,0
2.2,1788526101019,0.0,0.0,-0.0020738358143717,0.0013379787560552,0.7331348657608032,0.6800787448883057,2.3203638036711492e-05,-2.4890574826500588e-05,9.18923289075027e-08,0.0002302432112628,-0.0005856364732608,0.0002606234920676,-0.001620614901185,0.0018317764624953,0.5240194797515869,0.8517027497291565,0.0006001917446543,-0.0014012641244871,0.0009672991344051,-0.0171872377395629,-0.0032681226730346,0.0155868530273437,0,0,0,0
2.3,1788526101119,0.0,0.0,-0.0020629027858376,0.0013442689087241,0.7331241369247437,0.6800904870033264,-0.0001121164770391,0.0001303567200121,-4.3066084151401977e-07,0.0001316171546932,0.0007330637308768,-0.0012829172192141,-0.0016271499916911,0.0018322542309761,0.5239940285682678,0.8517184257507324,0.0002464272454236,0.0008835312175241,-0.0004244991443336,-0.0222482681274414,-0.0100403428077697,-0.0275936126708984,0,0,0,0
2.4,1788526101219,0.0,0.0,-0.0020573965739458,0.0013321343576535,0.7331394553184509,0.6800739169120789,-1.5134312907995748e-05,1.7596248558682726e-05,-5.7591752117273535e-08,5.054355278844014e-05,0.0008769768755882,-0.0001805271895136,-0.0016075056046247,0.0018214732408523,0.5240148305892944,0.8517056703567505,0.0004588169387427,-0.0002394546167945,0.0005654505768186,-0.0245545506477355,0.0147368907928466,-0.0058584213256835,1,0,0,0
2.5,1788526101319,0.0,0.0,-0.0020369018893688,0.0013279736740514,0.733146071434021,0.6800669431686401,5.924864081179168e-05,-7.147152094761958e-05,2.2312553330830865e-07,0.000465841992991,0.0001129911470343,0.0007004993967711,-0.0015866849571466,0.0018069045618176,0.5240327715873718,0.8516947031021118,0.0003567016945433,-0.0019364773076248,0.0001710914543188,-0.0216850042343139,0.0052413344383239,0.0390033721923828,4,0,0,0
2.6,1788526101419,0.0,0.0,-0.0020031402818858,0.0013284801971167,0.7331347465515137,0.6800792217254639,-0.000104455097861,0.0001240746120928,-3.9483167875657146e-07,0.0006601525237783,6.728912558173761e-05,-0.0012204276863485,-0.0015606693923473,0.0018192324787378,0.5240163803100586,0.8517047762870789,0.0004280158525462,-0.0003358603831403,-8.941295246910931e-05,-0.0051033496856689,-0.0037254691123962,-0.0417737960815429,4,0,0,0
2.7,1788526101519,0.0,0.0,-0.0019979306962341,0.0013239542022347,0.7331321239471436,0.6800819635391235,-1.2715890531493592e-05,1.478375621465168e-05,-4.884363202445188e-08,9.008427696244324e-06,-0.0002658765588421,-0.0001459302438888,-0.0015742285177111,0.0018125437200069,0.5240169763565063,0.8517044186592102,5.729264773934197e-05,0.0005558687440876,0.0020458467347872,-0.0198678970336914,-0.0093183517456054,0.0299549102783203,1,0,0,0
2.8,1788526101619,0.0,0.0,-0.0019966075196862,0.0013228461612015,0.7331495881080627,0.6800631880760193,0.0,0.0,0.0,0.0,0.0,0.0,-0.0015423223376274,0.0018028719350695,0.5240108370780945,0.8517083525657654,0.0005712642838218,3.776672694890894e-05,-0.0009155036079298,0.006975769996643,0.0176630020141601,-0.0361433029174804,2,0,0,0
2.9,1788526101719,0.0,0.0,-0.0019653372000902,0.0013194546336308,0.7331398725509644,0.6800737977027893,0.0,0.0,0.0,0.0,0.0,0.0,-0.0015446236357092,0.0017958953976631,0.5240397453308105,0.8516905903816223,0.0002437846098306,-0.0006969265915872,0.0009726797340314,-0.0166319012641906,0.0175720453262329,-0.0075407028198242,0,0,0,0
3.0,1788526101819,0.0,0.0,-0.0019754571840167,0.0013001332990825,0.7331472635269165,0.6800658106803894,-5.781948474782002e-05,6.943180117830438e-05,-2.184876566908701e-07,-0.0005354625754989,-0.0002211396495113,-0.0006814095540903,-0.0015724841505289,0.0018092263489961,0.5240323543548584,0.8516950607299805,-0.0004815160757987,0.002228945730211,0.0004642391601777,-0.0198218822479248,-0.0073660016059875,0.0102214813232421,0,0,0,0
3.1,1788526101919,0.0,0.0,-0.0019969805143773,0.0013056023744866,0.7331683039665222,0.6800431609153748,0.0001033927891094,-0.0001202154698668,3.884984370674323e-07,-0.0004193132917862,0.0007636743830516,0.0012111341347917,-0.0015853717923164,0.0018062256276607,0.5240374207496643,0.8516919612884521,-6.224998789846134e-05,0.0019654794780777,-7.811619412432823e-05,-0.0125243663787841,-0.0214485526084899,0.0047769546508789,0,0,0,0
3.2,1788526102019,0.0,0.0,-0.0020094257779419,0.0013136647175997,0.7331621646881104,0.6800496578216553,0.0,0.0,0.0,0.0,0.0,0.0,-0.0015631476417183,0.001755466684699,0.5240720510482788,0.8516706824302673,-0.0009444669117763,-0.0035252024695194,-0.0004547482038918,-0.019028902053833,0.0073919892311096,0.0121192932128906,0,0,0,0
3.3,1788526102119,0.0,0.0,-0.0019765018951147,0.0012722156243398,0.7331866025924683,0.6800234317779541,0.0,0.0,0.0,0.0,0.0,0.0,-0.0015807412564754,0.0017429888248443,0.5240623950958252,0.8516766428947449,-0.0004675838550425,3.4035434002592675e-05,0.000170572188502,-0.0369005799293518,-0.008205235004425,-0.0078620910644531,1,0,0,0
3.4,1788526102219,0.0,0.0,-0.0019534716848284,0.0012655484024435,0.7331761121749878,0.680034875869751,-2.635792490189481e-05,3.0652882521452805e-05,-9.572073222174295e-08,0.0010051710996776,-0.0007813245174475,-0.0003073022817261,-0.0015427470207214,0.0017428696155548,0.5240588784217834,0.8516788482666016,0.0007799658096454,-0.0013829601576721,-0.0006305516112981,-0.0229714512825012,0.009062111377716,0.0013236999511718,0,0,0,0
3.5,1788526102319,0.0,0.0,-0.0019503956427797,0.0012590199476107,0.7331826090812683,0.6800278425216675,3.316475863090192e-05,-3.5981013054862414e-05,1.2326029941707064e-07,-0.0001087017662939,-0.0002680221805348,0.0003839694836642,-0.0015317425131797,0.0017356593161821,0.5240711569786072,0.8516713380813599,0.0010345273091181,-0.0007898126421103,0.0007332040964984,-0.0070827007293701,-0.0288130640983581,0.0083293914794921,2,0,0,0
3.6,1788526102419,0.0,0.0,-0.0019403146579861,0.001260642427951,0.7331601977348328,0.6800519824028015,-0.0001241994370858,0.0001444377370087,-4.514018803848421e-07,0.0003528958768583,-0.0002726877864915,-0.0014311833074316,-0.0015496369451284,0.0017458340153098,0.5240423679351807,0.8516890406608582,-0.000652581284507,0.0012895477437787,0.0002693809511871,-0.0120052099227905,-0.0392515063285827,-0.0115413665771484,0,0,0,0
3.7,1788526102519,0.0,0.0,-0.0019403146579861,0.001260642427951,0.7331601977348328,0.6800519824028015,-0.0001241994370858,0.0001444377370087,-4.514018803848421e-07,0.0003528958768583,-0.0002726877864915,-0.0014311833074316,-0.0015291720628738,0.0017064549028873,0.5240823030471802,0.8516645431518555,0.0005917691349453,-0.0021039377041206,0.000956572689219,-0.0184496045112609,-0.010390818119049,-0.005990982055664,0,0,0,0
3.8,1788526102619,0.0,0.0,-0.001986363902688,0.0012557217851281,0.7331977486610413,0.6800113916397095,0.0001266787807964,-0.000144702653633,4.623679624463252e-07,-0.0004395552386995,0.0002554931270424,0.0014597296249121,-0.0015770699828863,0.0017422195523977,0.5240859985351562,0.8516620397567749,-0.0001511539413125,-0.0009303520141841,0.0005388389344969,-0.0063512325286865,0.0044057369232177,-0.0184011459350585,4,0,0,0
3.9,1788526102719,0.0,0.0,-0.0019842304755002,0.0012247277190908,0.7331932187080383,0.680016279220581,-2.196233182712795e-05,2.554340690670487e-05,-7.950987255283216e-08,-0.0008495785295963,-0.0009046886116266,-0.0002691697154659,-0.0015423856675624,0.0016698073595762,0.5240841507911682,0.85166335105896,-0.0001056645781865,-0.0008406108518281,-0.0011677501835595,-0.0170966386795043,0.002532422542572,0.0156412124633789,0,0,0,0
4.0,1788526102819,0.0,0.0,-0.0019254020880907,0.0011809128336608,0.7331940531730652,0.6800156831741333,0.0,0.0,0.0,0.0,0.0,0.0,-0.0015484597533941,0.0016242833808064,0.5240938067436218,0.8516575694084167,-0.0002995979988989,0.0003837059076371,0.0015045696897244,-0.0267759561538696,-0.0004920959472656,0.0155515670776367,7,0,0,0
4.1,1788526102919,0.0,0.0,-0.0019254020880907,0.0011809128336608,0.7331940531730652,0.6800156831741333,0.0,0.0,0.0,0.0,0.0,0.0,-0.0015171086415648,0.0015892228111624,0.5240832567214966,0.8516641855239868,-0.0007098992371518,4.401611632556768e-05,-0.0014968243139374,-0.0202605128288269,-0.007561445236206,-0.0239830017089843,0,0,0,0
4.2,1788526103019,0.0,0.0,-0.0019254020880907,0.0011809128336608,0.7331940531730652,0.6800156831741333,0.0,0.0,0.0,0.0,0.0,0.0,-0.0015411088243126,0.0016382820904254,0.5240939855575562,0.851657509803772,0.0002748455401491,0.0010876258078423,0.0004485589967726,-0.013837456703186,0.0012625455856323,-0.0167064666748046,0,0,0,0
4.3,1788526103119,0.0,0.0,-0.0019254020880907,0.0011809128336608,0.7331940531730652,0.6800156831741333,0.0,0.0,0.0,0.0,0.0,0.0,-0.0015364084392786,0.0016374746337532,0.5240963697433472,0.8516560196876526,-0.0003418107689736,-0.0007711684553014,0.001493358441278,-0.0410873889923095,-0.0062218308448791,-0.0007619857788085,0,0,0,0
4.4,1788526103219,0.0,0.0,-0.0019254020880907,0.0011809128336608,0.7331940531730652,0.6800156831741333,0.0,0.0,0.0,0.0,0.0,0.0,-0.0015304246917366,0.0016346611082553,0.5240897536277771,0.8516600728034973,-0.0003373787988495,0.0015276405630158,-8.445586492894681e-05,-0.0248035192489624,-0.025855004787445,-0.0133857727050781,0,0,0,0
4.5,1788526103319,0.0,0.0,-0.0019254020880907,0.0011809128336608,0.7331940531730652,0.6800156831741333,0.0,0.0,0.0,0.0,0.0,0.0,-0.0015169885009527,0.0016200160607695,0.5240875482559204,0.8516615033149719,-0.000818018690745,-0.0012069620996507,-0.0008215324401698,-0.0145456790924072,0.0295683741569519,0.0122108459472656,2,0,0,0
4.6,1788526103419,0.0,0.0,-0.0019254020880907,0.0011809128336608,0.7331940531730652,0.6800156831741333,0.0,0.0,0.0,0.0,0.0,0.0,-0.0015404019504785,0.0016163419932126,0.5240805745124817,0.8516657948493958,-0.0004700822353082,0.0012844344275544,0.0006207008309698,-0.0320982933044433,-0.0074522495269775,-0.0258817672729492,0,0,0,0
4.7,1788526103519,0.0,0.0,-0.0019254020880907,0.0011809128336608,0.7331940531730652,0.6800156831741333,0.0,0.0,0.0,0.0,0.0,0.0,-0.0015529487282037,0.0016047079116106,0.5240889191627502,0.8516607284545898,-0.0011314427085753,0.001356444035982,0.0007042032572273,-0.0287306904792785,-0.0199131965637207,0.0045738220214843,0,0,0,0
4.8,1788526103619,0.0,0.0,-0.0019254020880907,0.0011809128336608,0.7331940531730652,0.6800156831741333,0.0,0.0,0.0,0.0,0.0,0.0,-0.0015815179795026,0.0015934975817799,0.5241016745567322,0.8516527414321899,-0.0010927308912283,0.000936014074586,-0.0006908849923761,-0.0304222702980041,0.0004177689552307,0.0064897537231445,3,0,0,0
4.9,1788526103719,0.0,0.0,-0.0019733132794499,0.0011189418146386,0.7332255244255066,0.6799817681312561,9.204868080254636e-05,-0.0001101667017295,2.8968127325264536e-07,-0.0004667171451728,0.0010427386732771,0.0010707837063819,-0.0015728790313005,0.0015851473435759,0.5241320133209229,0.8516340851783752,0.000582030054972,-0.0016761463620817,7.714662896896077e-05,-0.0215438604354858,-0.0156722068786621,-0.0133352279663085,0,0,0,0
5.0,1788526103819,0.0,0.0,-0.0019516425672918,0.0011084128636866,0.733234703540802,0.6799719333648682,4.718797404168456e-05,-5.754528225777883e-05,1.4835347109444194e-07,0.0002867845469154,-0.0009464987087994,0.000552995246835,-0.001598646864295,0.0015866449102759,0.5241469144821167,0.8516248464584351,6.0854047600717954e-05,0.000528934044499,0.0011702462740165,-0.0356418490409851,0.0026615262031555,-0.0079116821289062,0,0,0,0
5.1,1788526103919,0.0,0.0,-0.0019473823485895,0.0010866568190976,0.7332476377487183,0.6799581050872803,-3.5163879024266653e-05,4.09112874124871e-05,-1.1093608903174649e-07,-0.0001399139291606,-0.0008005784475244,-0.0004196067457087,-0.0015977844595909,0.0016098516061902,0.5241415500640869,0.8516281843185425,0.0010572875899652,0.0004412768255355,0.0014876791633349,-0.0353853106498718,0.0004405975341796,0.0154142379760742,0,0,0,0
5.2,1788526104019,0.0,0.0,-0.0019453312270343,0.0011082213604822,0.7332441210746765,0.6799617409706116,6.248543929914367e-05,-7.542002444216276e-05,1.9370022716146054e-07,0.0009018226992338,-0.0004913082229904,0.0007390229147858,-0.0015824036672711,0.0015810616314411,0.524126410484314,0.8516374826431274,-0.0006371681135565,-0.0004795447533244,-0.0009995021056003,-0.0215864777565002,-0.0228060483932495,0.0063447952270507,0,0,0,0
5.3,1788526104119,0.0,0.0,-0.0019664426799863,0.0010919971391558,0.733230710029602,0.679976224899292,5.1560741114611225e-06,-5.997927827375027e-06,1.6212723851855938e-08,-0.0008208581712096,0.0003995300794485,5.8725185226649046e-05,-0.0015943143516778,0.0015688296407461,0.5241534113883972,0.8516209125518799,5.81515239472972e-05,-0.0008479989343026,0.0020286106897483,-0.0143145322799682,-0.0151081681251525,-0.0205068588256835,0,0,0,0
5.4,1788526104219,0.0,0.0,-0.0019619278609752,0.0010828231461346,0.7332507371902466,0.6799546480178833,0.0001019777392768,-0.0001186286931688,3.18244825998547e-07,-0.0001501236838521,-0.0003858639101963,0.0011867302237078,-0.0016182754188776,0.0016014454886317,0.5241551995277405,0.8516196608543396,0.0003796428657755,0.0015915157000626,0.0002291336762116,-0.019105851650238,-0.0027280449867248,0.0154628753662109,0,0,0,0
5.5,1788526104319,0.0,0.0,-0.0019883261993527,0.0011090547777712,0.7332528829574585,0.6799522638320923,-1.948360533564292e-06,1.4718664919005466e-07,-8.253259870906708e-09,0.0003548843960743,0.0017228050855919,-1.5631438145646825e-05,-0.0015996266156435,0.0015722932294011,0.5241401791572571,0.8516291379928589,-0.0004810139324108,-0.0003037403018029,-0.0016170246102587,-0.0377836823463439,-0.0027918219566345,0.0225324630737304,0,0,0,0
5.6,1788526104419,0.0,0.0,-0.0019883261993527,0.0011090547777712,0.7332528829574585,0.6799522638320923,0.0,0.0,0.0,0.0,0.0,0.0,-0.0016159508377313,0.0015547880902886,0.5241812467575073,0.8516038060188293,-0.0004279025751811,-0.001016960969391,-0.000437952650203,-0.0376495718955993,-0.007912278175354,0.047743797302246,0,0,0,0
5.7,1788526104519,0.0,0.0,-0.0019883261993527,0.0011090547777712,0.7332528829574585,0.6799522638320923,0.0,0.0,0.0,0.0,0.0,0.0,-0.0015888297930359,0.0015244781970977,0.524199903011322,0.8515924215316772,0.0003812756668882,-0.0021321538349722,0.0011632241973531,0.0586172342300415,0.0441030263900756,0.0379085540771484,0,0,0,0
5.8,1788526104619,0.0,3.239436626434326,-0.0019883261993527,0.0011090547777712,0.7332528829574585,0.6799522638320923,0.0,0.0,0.0,0.0,0.0,0.0,-0.0016520395874977,0.0018216762691736,0.5544005632400513,0.8322463631629944,-0.0015020294843316,0.0028354059089669,0.5573569655037814,-0.1183000206947326,-0.3452847003936767,-0.0305433273315429,912,43,-32767,8939
5.9,1788526104719,0.0,3.0422534942626958,-0.0019883261993527,0.0011090547777712,0.7332528829574585,0.6799522638320923,0.0,0.0,0.0,0.0,0.0,0.0,-0.0017026029527187,0.0017690751701593,0.5720921158790588,0.820185661315918,-0.0041859041568133,-0.0060451378724939,0.437985439851124,-0.1044363379478454,-0.2426236271858215,-0.2704229354858398,911,54,-32767,8762
6.0,1788526104819,-0.2253521084785461,2.7887322902679443,-0.001701220870018,0.0011603861348703,0.7802993655204773,0.6254028081893921,0.0380162340691179,-0.0018853351552258,1.0697340108458003e-06,0.0046312701888382,-0.0087448917329311,0.447364330291748,-0.001518583856523,0.0016373638063669,0.5898900032043457,0.80748051404953,-0.0101632127827966,0.0139821894992327,0.4302006669401076,-1.4981369972229004,0.281503677368164,-0.0576248168945312,924,123,-32767,9758
6.1,1788526104919,-3.7183098793029785,2.5915493965148926,-0.0012196151074022,0.0009493125835433,0.80942702293396,0.5872184634208679,-0.0069639244526522,0.002277506038314,-4.307992330794425e-06,0.0057005113922059,-0.018491568043828,0.9864902496337892,-0.0009157676249742,0.0012354971840977,0.6270126104354858,0.7790076732635498,0.00056103303255,-0.0201410057034838,1.03062827067802,0.9594807624816896,-0.5677320957183838,0.0192718505859375,506,75,-18027,7220
6.2,1788526105019,-0.5633803009986877,0.7323943376541138,-0.0012244418030604,0.0014785041566938,0.8271147608757019,0.5620298385620117,0.0145982240609688,-0.0075665766355479,-4.569395275327278e-06,0.0109003409743309,0.0005310189444571,0.5369163155555725,-0.0007181800901889,0.001665299758315,0.6470463275909424,0.7624485492706299,-0.0009437439281304,-0.0187265610541408,0.1670089300833786,0.5786486268043518,-0.5000911951065063,0.0768251419067382,419,30,-9791,0
6.3,1788526105119,0.0,0.0,-0.0012010023929178,0.0014183918246999,0.8278036117553711,0.5610148906707764,0.000230626910109,-0.0017948966350306,-2.156701219895484e-06,0.0,0.0,0.0,-0.0007780482992529,0.0016706902533769,0.6469411849975586,0.7625376582145691,-0.0017620344515927,0.0017974814772753,-0.0057967688294027,-0.1448650360107422,0.1431062221527099,0.1686792373657226,2,0,0,0
6.4,1788526105219,0.0,0.0,-0.0012010023929178,0.0014183918246999,0.8278036117553711,0.5610148906707764,0.0,0.0,0.0,0.0,0.0,0.0,-0.0007378663867712,0.0016156788915395,0.6466765403747559,0.7627622485160828,-0.0007933139817076,-0.0003613793256454,-0.0046968623672404,-0.079014778137207,0.0111687779426574,0.0460004806518554,3,0,0,0
6.5,1788526105319,0.0,0.0,-0.0012010023929178,0.0014183918246999,0.8278036117553711,0.5610148906707764,0.0,0.0,0.0,0.0,0.0,0.0,-0.0007134666666388,0.0016084341332316,0.646672248840332,0.7627660036087036,-0.0004248565347082,0.0009433752859097,-0.0015122491666641,-0.0271974802017211,0.0200519561767578,0.0212259292602539,0,0,0,0
6.6,1788526105419,0.0,0.0,-0.0012010023929178,0.0014183918246999,0.8278036117553711,0.5610148906707764,0.0,0.0,0.0,0.0,0.0,0.0,-0.0007195258513092,0.0015976373106241,0.6466366648674011,0.76279616355896,-0.0007696793007747,-0.0002898962406198,-0.0031168642753024,-0.0022753477096557,-0.0427469015121459,0.0442790985107421,0,0,0,0
6.7,1788526105519,0.0,0.0,-0.0012010023929178,0.0014183918246999,0.8278036117553711,0.5610148906707764,0.0,0.0,0.0,0.0,0.0,0.0,-0.0006896229460835,0.001601037569344,0.6466402411460876,0.7627930641174316,-0.0004336950073619,0.0002199113825016,8.558231968262638e-05,-0.0151439905166625,0.0088867545127868,0.0391845703125,1,0,0,0
6.8,1788526105619,0.0,0.0,-0.0012010023929178,0.0014183918246999,0.8278036117553711,0.5610148906707764,0.0,0.0,0.0,0.0,0.0,0.0,-0.0006511313840746,0.0015491396188735,0.6466373801231384,0.762795627117157,-0.0010454504023989,-0.001009923888892,3.070862063271275e-05,-0.0254518985748291,0.0106893181800842,0.0499162673950195,7,0,0,0
6.9,1788526105719,0.0,0.0,-0.0012010023929178,0.0014183918246999,0.8278036117553711,0.5610148906707764,0.0,0.0,0.0,0.0,0.0,0.0,-0.0006251763552427,0.0015210416167974,0.6466664671897888,0.7627710700035095,-7.115876982836147e-05,-0.0006242401579345,-0.0004287180143083,-0.0404632687568664,0.0161719918251037,0.0319061279296875,2,0,0,0
7.0,1788526105819,0.0,0.0,-0.0010048313997685,0.0012949318625032,0.8274588584899902,0.5615240931510925,0.0,0.0,0.0,0.0,0.0,0.0,-0.0005769049748778,0.0014930432662367,0.6466684937477112,0.7627694010734558,0.0009570188686112,-0.0024005490977941,0.0014672694178434,-0.0204411745071411,0.0171716809272766,-0.0215721130371093,0,0,0,0
7.1,1788526105919,0.0,0.0,-0.0010048313997685,0.0012949318625032,0.8274588584899902,0.5615240931510925,0.0,0.0,0.0,0.0,0.0,0.0,-0.0005300054326653,0.0014563407748937,0.6466493606567383,0.7627858519554138,0.0001059691016446,-0.0015453439738881,-0.0011641729437145,0.0241919755935668,-0.0268340110778808,0.0185546875,79,161,-3076,5231
7.2,1788526106019,0.0,3.239436626434326,-0.0007951577426865,0.0011876748176291,0.8281124234199524,0.5605601668357849,0.005506329982865,-0.0048301539257177,1.161388349268993e-06,0.0013612625189125,-0.0116798402741551,0.0583527721464633,-0.0004927450791001,0.0014412393793463,0.6506703495979309,0.759358823299408,0.002219445791853,0.0071633062157225,0.2770134712775393,0.2917564511299133,0.5099004507064819,0.1577301025390625,843,217,-20845,12873
7.3,1788526106119,-2.366197109222412,3.91549301147461,-0.0015562064945697,0.0013236596714705,0.8484181761741638,0.5293225646018982,0.0354578041621473,0.0029703450490239,-1.6796896022436765e-05,-0.0060196951963007,0.0117044495418667,0.8244405388832092,-0.0013248873874545,0.0017349552363157,0.6792016625404358,0.7339484095573425,-0.0113855176041493,0.0131805220847163,1.0398810575365025,0.0594626665115356,0.1772003173828125,-0.5699462890625,607,43,-17950,11077
7.4,1788526106219,-2.169013977050781,3.8309860229492183,-0.001725127804093,0.0013280673883855,0.8702645897865295,0.4925797581672668,0.0354304941648551,-0.0060109674665836,-7.784833583589377e-06,0.0060083544813096,0.0114781763404607,0.9416717290878296,-0.0014949804171919,0.0018584104254841,0.7125051021575928,0.7016628980636597,-0.0032582321297554,0.0160991815239274,0.9508983916517414,-0.2591061592102051,0.1327662467956543,0.1876325607299804,653,48,-18572,10426
7.5,1788526106319,-3.3521127700805664,2.901408433914185,-0.002470729406923,0.0005342739168554,0.8914094567298889,0.4531918466091156,-0.0055259929148861,-0.008160228546184,9.143850929894142e-06,-0.0486485958099365,0.024888377636671,0.920224905014038,-0.0021689934656023,0.0009249588474631,0.7402895092964172,0.6722841858863831,-0.0340359253001204,-0.0206110326056497,0.8810296996837036,0.1158226132392883,0.2563128471374511,0.1007900238037109,562,227,-19812,13585
7.6,1788526106419,-2.197183132171631,4.563380241394043,-0.0031139547936618,-0.0005862329853698,0.9106432199478148,0.4131815731525421,0.0310116517232838,-0.0101772586256946,2.8168082561453108e-06,-0.0300249513238668,0.0011338463518768,1.0682802200317385,-0.0032885018736124,0.0001432336866855,0.7702777981758118,0.637700080871582,-0.0361616757762559,0.0015909591655829,1.0581502636113942,0.2121836543083191,-0.0981894135475158,0.0017499923706054,620,104,-16412,14677
7.7,1788526106519,-2.197183132171631,4.563380241394043,-0.0025880795437842,-0.0012676357291638,0.9211182594299316,0.3892722427845001,0.0492211520547735,-0.0069906036518567,3.002481052331158e-05,-0.0183826517313718,-0.0314624682068824,1.0174235105514526,-0.0027441717684268,-0.0014073783531785,0.8100959062576294,0.5862892270088196,-0.0091442837136097,-0.0033273833498697,1.1737051294173622,-0.2206642627716064,0.1780201196670532,-0.1156015396118164,620,104,-16412,14677
7.8,1788526106619,-3.3521127700805664,2.873239517211914,-0.0028709324542433,-0.0017703014891594,0.9434906840324402,0.3313817679882049,0.0619876871294686,-0.0026843903697659,-2.308264753859513e-06,-0.0029041727539151,0.0194600522518157,1.1898210048675537,-0.0036402326077222,-0.0005156565457582,0.8296586871147156,0.5582588911056519,0.0064265286823049,0.0334582734800916,1.0323371453936037,-1.5792579650878906,-0.1749643087387085,-1.0368528366088867,606,49,-20558,9838
7.9,1788526106719,0.0,6.619718074798584,-0.0037793363444507,-0.0013680693227797,0.9648653864860536,0.2627139687538147,0.027056360779069,-0.0079046829591173,2.011692653621389e-06,-0.0107914926484227,0.0016941132489591,0.9062307476997375,-0.0043775215744972,-0.0001954408362507,0.8645532131195068,0.5025221109390259,-0.0137501217332162,0.0318869242358297,1.0071885584034517,1.0011954307556152,0.0681526660919189,0.3973655700683594,358,269,-8203,19553
8.0,1788526106819,1.887323975563049,8.619718551635742,-0.0029621180146932,-0.0023151307832449,0.9759745001792908,0.2178521454334259,0.1246598664539626,-0.0073643276921259,8.676361224294677e-06,-0.0323429852724075,-0.0729979649186134,1.0202277898788452,-0.0019863471388816,-0.0017048185691237,0.8961270451545715,0.4437898993492126,-0.013036659184211,-0.0120971676754328,1.249717934850541,-0.0415888428688049,0.4494248032569885,2.9786205291748047,3,121,3667,24149
8.1,1788526106919,0.7605633735656738,8.507041931152344,-0.001223794883117,-0.0022251163609325,0.9880068898200988,0.1543890386819839,0.1695020533521369,-0.0006128255197832,8.934810251992605e-05,-0.0011316240997985,-0.0045520854182541,1.3504090309143066,-0.0009254748001694,-0.0021813912317156,0.9181838035583496,0.3961476683616638,-0.009090664440357,-0.0223758673914963,1.327607476229246,0.4654201865196228,-0.1360452771186828,0.0660018920898437,368,64,13882,22428
8.2,1788526107019,1.5211267471313477,8.28169059753418,0.000551834644284,-0.0023586375173181,0.9958423972129822,0.0910602211952209,0.1685754910799181,-0.0031450268454666,9.452290689496952e-05,-1.012314714898821e-05,-0.0205657221376895,1.0774388313293457,0.0001165093854069,-0.0024581113830208,0.9367120265960692,0.3500924110412597,0.0072975283545548,-0.0244604843533043,1.129374716900811,0.0138888359069824,0.1869951486587524,0.0585584640502929,494,90,15046,22446
8.3,1788526107119,1.7464789152145386,8.450704574584961,0.0005272291600704,-0.0029118740931153,0.9991049766540528,0.0421951636672019,0.1730691772972531,0.0019558085039268,-4.847272904424464e-06,-0.0110817272216081,0.0077899578027427,0.9856407642364502,0.0007316935807466,-0.0026293043047189,0.9586824774742126,0.284465342760086,0.0267174567090491,-0.003763489901177,1.006444051233262,-0.3560079336166382,0.0891427993774414,0.5748405456542969,517,78,15156,21987
8.4,1788526107219,1.774647831916809,8.338027954101562,-0.0019692769274115,0.0026079283561557,-0.9999929070472716,0.0018902426818385,0.176604618160376,-0.0047353997060736,4.576550614100997e-05,-0.0117450878024101,-0.0304874647408723,0.9506070017814636,0.0015885261818766,-0.0035525280982255,0.9699182510375975,0.2434001117944717,-0.0181539896332543,2.050715351662722e-05,0.9544839781499272,-0.0717358589172363,0.4325048923492431,0.0618171691894531,460,85,15099,22479
8.5,1788526107319,1.7464789152145386,8.169013977050781,-0.0031513692811131,0.0035711829550564,-0.9987778067588806,0.0491952300071716,0.1748951618294127,0.0036832764229702,5.1461069531918405e-05,-0.0239089634269475,-0.029920756816864,0.9504372477531432,0.0022415881976485,-0.0044460026547312,0.9764370918273926,0.2157446444034576,-0.0223559440833235,-0.0351010357671551,0.9484648629797608,-0.1449479460716247,0.1277438998222351,-0.3465394973754883,421,112,15210,22978
8.6,1788526107419,1.7464789152145386,8.028168678283691,-0.004370960406959,0.0032365513034164,-0.9945234656333924,0.104371853172779,0.1718387433931905,0.000239737347225,5.339902350339122e-05,0.0187258645892143,-0.0187127105891704,1.017791986465454,0.003204321488738,-0.0041409162804484,0.9876288175582886,0.15672267973423,0.0233131606156832,-0.0122353442769853,1.0734604042874594,-0.3979151248931885,0.0852932333946228,-0.1721515655517578,565,70,17986,21302
8.7,1788526107519,1.8028168678283687,7.97183084487915,-0.0053683803416788,0.0022388100624084,-0.98854660987854,0.1508033722639084,0.1766326341979952,-0.0049073800044437,9.575145971083788e-05,0.0183934606611728,-0.041582878679037,0.9216316938400269,0.0027927486225962,-0.0047260327264666,0.993696928024292,0.1119657456874847,-0.065404833249928,0.0561834479486402,0.8489489475245697,0.0385127663612365,0.2562008500099182,-1.8137569427490237,536,83,18213,21379
8.8,1788526107619,3.0985915660858154,6.929577350616455,-0.0041721523739397,0.0041399700567126,-0.9855085611343384,0.1695234477519989,0.1590364707116533,0.001060788693029,-0.0004096932774674,-0.0642686858773231,0.0564903318881988,0.7597400546073914,0.0028152456507086,-0.0052877366542816,0.9969793558120728,0.0774352326989173,-0.0094565996051554,0.0028046637554728,0.6187229099713238,-0.1158783435821533,-0.0831415057182312,0.279062271118164,610,82,21689,18669
8.9,1788526107719,3.0985915660858154,6.816901206970215,-0.0042066359892487,0.0041669770143926,-0.9768692255020142,0.2137556821107864,0.1662756525996542,-0.001230660338096,1.8458142957555047e-05,0.006574333179742,-0.00942656211555,0.6006389856338501,0.0025271456688642,-0.0052471589297056,0.9987916350364684,0.0487987101078033,-0.0091428939042443,0.0405369640874764,0.5030437903889158,0.2694799900054931,-0.1333194971084594,0.9472732543945312,761,80,23666,17755
9.0,1788526107819,3.6619718074798575,6.591549396514893,-0.0034068156965076,0.0043200105428695,-0.9705472588539124,0.2408477813005447,0.1725906193071482,0.0045058234253232,-1.4039100610997897e-05,0.0037087025120854,0.01023914758116,0.4869617521762848,0.0018707579001784,-0.0049683153629302,0.999688982963562,0.0243704058229923,0.0098109191066979,0.021870746766876,0.4393759794050277,-0.2068800330162048,-0.0840801000595092,-1.2251520156860352,556,73,22024,17937
9.1,1788526107919,-2.507042169570923,1.2394366264343262,-0.0028178207576274,0.0043454896658658,-0.9648696780204772,0.262677788734436,0.1620675398352857,0.0012652350135849,-4.377131979402267e-05,-0.0076689231209456,-0.0041366382502019,0.470317542552948,-0.0016171252354979,0.0047986973077058,-0.9999356865882874,0.0101547427475452,0.0093094446447264,-0.0246565898152514,0.6728538276967815,-0.7667604088783264,-0.0534433126449584,-0.5188541412353516,464,134,-11262,0
9.2,1788526108019,5.154929637908936,-5.6619720458984375,-0.0028676260262727,0.0044656652025878,-0.9600514769554138,0.2797731161117553,-0.0094366924135872,0.0041436130904576,-1.3520998522970738e-06,-0.0127665195614099,0.0021114572882652,0.0969331860542297,-0.0012852353975176,0.0050036422908306,-0.9999709129333496,0.0056212581694126,-0.0101297030881993,0.0307417039804051,-0.4646864640221396,-1.8987843990325928,-0.0082505941390991,-0.016977310180664,479,327,20977,-21012
9.3,1788526108119,4.619718074798584,-6.873239517211914,-0.0026952612679451,0.0040206075645983,-0.9705247282981871,0.2409527897834777,-0.047339636157737,0.0035446955780622,-4.1592524719139217e-05,0.0104042747989296,0.0038653798401355,-1.290122628211975,0.0009895870462059,-0.0042510125786066,0.998133659362793,0.0609118230640888,0.0133296993759549,0.0259401668885334,-1.7818095422139502,-0.2986427545547485,0.3012258410453796,0.6592493057250977,485,112,22737,-19532
9.4,1788526108219,4.788732528686523,-6.647887229919434,-0.001048294827342,0.0028429890517145,-0.9890511631965636,0.1475420594215393,-0.0398725549507525,0.0148759040750276,1.6325674950077223e-05,0.0320221446454525,0.0276224222034215,-1.7640562057495115,0.0001248102635145,-0.0029752580448985,0.992508828639984,0.1221366971731185,0.0326934300304879,0.038157243836585,-1.812956509368563,-0.1609348058700561,0.0226693153381347,2.0553979873657227,587,90,22853,-18497
9.5,1788526108319,5.549295902252197,-6.704225540161133,-0.0001806840446079,0.0003675570478662,-0.998306691646576,0.0581687092781066,-0.0271111121685978,0.007606334710771,2.999389828648657e-05,0.0793690681457519,0.0420722216367721,-1.838854193687439,-0.000961834564805,0.0015673339366912,0.9637728929519652,0.2667178213596344,-0.0109346591226766,-0.0692343845333269,-1.8801347736311336,0.1117445826530456,0.0894140601158142,-1.2202539443969729,470,118,32616,-15686
9.6,1788526108419,6.507042407989502,-6.169013977050781,0.0004882173088844,-0.0002914190699812,0.999549388885498,0.0300111696124076,-0.0034852497986469,0.0026452687099906,-2.48908339527315e-06,-0.0961028039455413,-0.1222043484449386,-2.013401746749878,-0.0003383820876479,0.00010890327394,0.9427982568740844,0.3333638310432434,0.0186468998116745,0.0563535441171449,-2.0955828329670254,-0.4315813183784485,-0.3053739666938782,0.1997594833374023,303,81,22923,-16771
9.7,1788526108519,6.422535419464111,-6.056337833404541,0.0003769699542317,-0.0005767691181972,0.991683304309845,0.1286999732255935,0.0014375745188241,0.0205892413617266,-6.730395600887703e-06,-0.0191206373274326,-0.0301586054265499,-1.92529559135437,3.887992352247238e-05,-0.0003847004845738,0.9291546940803528,0.3696910738945007,-0.0139920114287519,-0.0243638536320192,-1.777841667343128,-0.4536408185958862,0.3600767850875854,1.2515182495117188,229,106,20831,-17436
9.8,1788526108619,6.535211086273193,-6.2253522872924805,0.0008420993108302,8.080046973191202e-05,0.984940469264984,0.1728920042514801,0.0020671424550011,0.0031907503235838,1.488009731893022e-06,0.0296657960861921,-0.0151751860976219,-1.917587399482727,0.0024729575961828,-0.0003769695758819,0.8657367825508118,0.5004932880401611,-0.015797404783532,-0.0415660397031867,-1.9800877875160865,-0.440761387348175,0.0889542698860168,-0.4597282409667969,114,68,18417,-16908
9.9,1788526108719,5.746479034423828,-6.0,0.00225345720537,0.0006753783673048,0.9604228734970092,0.2785361111164093,-0.0145579144075091,0.003771978847905,-1.248087969539291e-06,0.0011702512856572,0.002630041912198,-1.881212949752808,0.0017499942332506,0.0010246792808175,0.8126488924026489,0.5827500820159912,-0.0036761224308908,-0.0090192838269303,-1.827732612496664,-0.1777561902999878,0.1096972227096557,-0.1599445343017578,375,132,22706,-17854
10.0,1788526108819,5.746479034423828,-6.309859275817871,0.0004350044182501,0.0015064108883962,0.9326754808425904,0.3607133328914642,-0.0049213460469443,0.008899805529278,8.672965268456354e-07,-0.0133811170235276,0.0311090592294931,-1.8051507472991943,0.001146288588643,0.0020738746970891,0.7681487798690796,0.6402670741081238,0.0138588596139545,0.0772779556257435,-1.8139196545631888,-0.2316845655441284,-0.0808733701705932,-1.702775955200195,489,96,25682,-17448
10.1,1788526108919,5.88732385635376,-6.2253522872924805,0.0009042344172485,0.0017917946679517,0.8783803582191467,0.4779579937458038,-0.0057011209091959,0.0098032982608176,1.5456302859390302e-06,0.0090709598734974,-0.0154975755140185,-1.7781505584716797,0.0014062272384762,0.0020041866227984,0.7063663601875305,0.707842230796814,0.0259561519024415,0.0451129590366227,-1.8578163191779629,-0.7887735962867737,-0.1052267551422119,0.9987945556640624,601,67,27621,-17036
10.2,1788526109019,6.422535419464111,-6.11267614364624,0.001012502820231,0.0018430108902975,0.8258769512176514,0.5638464689254761,-0.0013660035879976,0.0089743092347534,-1.3526537761216403e-06,-0.0039731641300022,-0.0167784336954355,-1.822598934173584,0.0016169976443052,0.0017051715403795,0.6315567493438721,0.775326132774353,0.002489493224257,0.0011976245315762,-1.8597234383347176,-0.4960083961486816,-0.5843559503555298,-2.1407666206359863,543,91,27317,-17338
10.3,1788526109119,6.2253522872924805,-6.056337833404541,-0.0007280611316673,0.0023467338178306,0.7689313292503357,0.6393265724182129,-0.00625455216658,0.0018712946477005,6.946954665873528e-06,-0.0144592048600316,0.0407374203205108,-2.004892110824585,-0.0003662295639514,0.0026573622599244,0.5614549517631531,0.8275030255317688,-0.0072715862192693,0.0256451178649975,-1.9324290707705936,-0.1028817296028137,-0.0630682110786438,1.2183237075805664,448,91,26628,-17889
10.4,1788526109219,6.056337833404541,-6.197183132171631,-0.0022355262190103,0.003306939266622,0.7078023552894592,0.706399142742157,-0.0136599738666664,0.0086228401134282,7.977416474143492e-06,0.0125396754592657,0.042403507977724,-1.9516477584838867,-0.0014154743403196,0.0039125680923461,0.5041175484657288,0.8636249899864197,0.0095201198709526,0.0751343443323152,-1.9476845861239895,0.1677713394165039,-0.2795658111572265,-0.9837579727172852,495,101,26783,-17321
10.5,1788526109319,6.2816901206970215,-6.2253522872924805,-0.0031166949775069,0.0047965608537197,0.6382865905761719,0.7697774171829224,-0.0085067219332908,0.0022250883609219,1.6984975061483434e-06,0.0097746858373284,0.00987976975739,-1.9179303646087649,-0.0015049595385789,0.0055132992565631,0.3933500051498413,0.9193711280822754,0.0275881785305379,0.0062803131043098,-1.951991325692612,-0.4145544767379761,0.0937957763671875,1.2374067306518557,475,87,25521,-17118
10.6,1788526109419,6.816901206970215,-6.084506988525391,-0.0046887495554983,0.007947645150125,0.5512601137161255,0.834282398223877,0.0236445620419365,-0.0076653041863156,-2.422875981647882e-05,-0.0371835753321647,-0.0617156028747558,-2.0355024337768555,-0.002542870119214,0.0080172233283519,0.3006584644317627,0.9536948204040528,-0.1054594225988016,-0.2000714277910944,-2.075682917984361,-0.5934044122695923,0.353654682636261,3.5357980728149414,153,105,19192,-16212
10.7,1788526109519,3.94366192817688,-3.774647951126098,-0.0044863810762763,0.0067887431941926,0.4780981838703155,0.8782687783241272,-0.013380577293564,0.0081919710955014,-1.5820172775825257e-06,0.0006615388556383,-0.0247592870146036,-1.4574729204177856,-0.002492350526154,0.0076080383732914,0.2214397937059402,0.9751412272453308,-0.0009116144295981,-0.0306157988730778,-1.4015570331112943,-0.4921572208404541,0.840850830078125,-1.356684684753418,87,63,10683,-6963
10.8,1788526109619,0.0,0.0,-0.0044863810762763,0.0067887431941926,0.4780981838703155,0.8782687783241272,-0.013380577293564,0.0081919710955014,-1.5820172775825257e-06,0.0006615388556383,-0.0247592870146036,-1.4574729204177856,-0.0024880710989236,0.0075191268697381,0.1877045631408691,0.9821935892105104,0.005114249839653,0.0007796771193121,-0.3057044003760622,-0.2839108109474182,0.4713225960731506,0.3859624862670898,77,2,1585,0
10.9,1788526109719,-0.1408450752496719,1.1267606019973757,-0.0044176895171403,0.0064740255475044,0.4458639621734619,0.8950663805007935,0.005269492158871,0.0017662325123577,7.176329984963447e-07,-0.0026468099094927,-0.0036768238060176,0.0794625505805015,-0.0025646016001701,0.0073448130860924,0.1914570480585098,0.9814701676368712,-0.004378745588768,-0.0055915749929577,0.1091984986980387,0.5365294814109802,0.1419002413749694,-0.0551910400390625,77,274,-7591,10211
11.0,1788526109819,-2.7042253017425537,2.760563373565674,-0.0046352399513125,0.0065184091217815,0.4705090522766113,0.8823589086532593,0.0029696753095808,0.002195082525106,2.158440874996615e-06,-0.0093656778335571,0.0052381898276507,0.7164793610572815,-0.0025451621040701,0.0073007177561521,0.2004687488079071,0.9796696305274964,-0.0033301970557995,-0.0030910237813416,0.5042518577321536,-0.8197609186172485,0.8291521668434143,-0.4391613006591797,194,71,-11719,8710
11.1,1788526109919,-1.436619758605957,1.2676056623458862,-0.0047177611850202,0.0072709913365542,0.5045698285102844,0.8633273839950562,0.0061779973798182,-0.0065703314965735,-1.7951041204012114e-06,2.528207005525473e-05,0.0098955938592553,0.7463953495025635,-0.0025792503729462,0.0084926430135965,0.2598379552364349,0.965611457824707,0.0027468369657736,0.0126990081090209,0.7805538818130542,0.3290664553642273,-0.5760697722434998,0.6321554183959961,326,193,-10773,8036
11.2,1788526110019,-3.1549296379089355,3.070422649383545,-0.0047711664810776,0.0074274451471865,0.5264793038368225,0.8501421213150024,-0.0100496965142963,-0.002117101441267,2.184669602272e-06,-0.0095977885648608,-0.0066129770129919,0.5558691024780273,-0.0026184739544987,0.0080428440123796,0.2995515763759613,0.954042673110962,-0.0099011098511337,-0.0069025885875384,1.0037833265997955,0.5582374334335327,-0.3652527332305908,-0.0027008056640625,200,73,-12610,9752
11.3,1788526110119,-2.6478872299194336,3.802816867828369,-0.0044776294380426,0.0074989348649978,0.5661669373512268,0.8242443203926086,0.023615455671033,-0.0059513685389171,-3.1550486408896617e-06,0.0085442010313272,0.0096052633598446,0.9714032411575316,-0.0017104549333453,0.0089324647560715,0.3353325724601745,0.9420560002326964,0.0465667512180341,0.0236966253222741,0.8477816158057226,-0.307797372341156,0.0750725269317627,-0.3133020401000976,356,109,-14423,11434
11.4,1788526110219,-2.901408433914185,2.9577465057373047,-0.003024211153388,0.0095489621162414,0.6077712774276733,0.7940489053726196,0.0179353889109328,-0.0066829159427147,-2.7530856744628496e-06,0.0232271924614906,0.0085718929767608,1.0234469175338743,-0.0007823854684829,0.0098817581310868,0.3905217051506042,0.9205403327941896,-0.0388883142765644,0.0065278180900762,1.1885784053283324,-0.4561112523078918,-0.367559552192688,0.0136833190917968,364,18,-15274,8067
11.5,1788526110319,-2.985915422439575,2.422535181045532,-0.0040412070229649,0.0063154394738376,0.6460537314414978,0.7632551193237305,-0.0033767366659701,-0.0111293805750014,1.4264979965871204e-07,-0.0873340517282486,-0.0677107572555542,0.9113870859146118,-0.0021863179281353,0.0071705933660268,0.4164541661739349,0.9091258645057678,-0.1016279259570167,-0.0843441866491902,0.9015698663684514,0.6026033759117126,-0.3482635617256164,0.9298629760742188,215,10,-11620,6872
11.6,1788526110419,-2.422535181045532,3.014084577560425,-0.0045205880887806,0.0060319560579955,0.6703199744224548,0.742033839225769,0.0056844326319578,0.0031074872764243,3.5207568434394742e-06,-0.0085524450987577,0.00459401961416,0.6985421180725098,-0.002793313935399,0.007291205227375,0.4589317440986633,0.8884372711181641,-0.0005122521731442,0.015047311160843,0.7771784773705834,0.1863038539886474,0.0095121264457702,0.7449569702148438,321,133,-14786,9529
11.7,1788526110519,-3.549295663833618,3.2957746982574463,-0.002480590250343,0.0041729011572897,0.7008418440818787,0.7133002281188965,0.0113479268340979,-0.0017743567258627,9.839042809515054e-06,-0.0040154908783733,-0.0927862450480461,0.8746505975723267,-0.0011225491762161,0.0041561825200915,0.4942719936370849,0.8692967295646667,-0.0133463662633616,-0.0321804637094925,0.8304210163170657,-0.6603649258613586,0.074197232723236,-0.105987548828125,292,115,-14071,10291
11.8,1788526110619,-2.816901445388794,3.492957830429077,-0.0020008324645459,0.0032353813294321,0.7174772620201111,0.6965715885162354,-0.0092907173896129,-0.0049018230950536,-1.0759853899985491e-05,-0.0173358656466007,-0.0397579036653041,0.9605274200439452,-0.0004258276894688,0.0031021041795611,0.5361608862876892,0.8441099524497986,0.0202320672875832,-0.0315400904736563,0.9457787670003528,0.0126449465751647,-0.1077773571014404,-0.1427831649780273,571,55,-19626,9741
11.9,1788526110719,-1.2957746982574463,2.873239517211914,0.0002667028456926,0.0025019354652613,0.7670292258262634,0.6416072249412537,0.0326107706013363,0.0016429062310842,1.2884091397350851e-05,6.42945960862562e-05,-0.0158917848020792,0.818498432636261,0.0007492573931813,0.0023236330598592,0.5728558897972107,0.8196525573730469,-0.0124872696599343,0.0177177779469589,0.5117292194862977,0.5106951594352722,-0.6683483123779297,-1.1333112716674805,929,42,-29838,8452
12.0,1788526110819,0.0,2.7042253017425537,0.0004112525493837,0.0023522684350609,0.7746440172195435,0.6323931217193604,0.0458665335362765,-0.002612907732789,-2.5493740715762807e-06,-0.0014847011771053,-0.0069845002144575,0.4591974914073944,0.0010058311745524,0.0020816018804907,0.5848528146743774,0.8111361265182495,-0.0065367528237127,-0.0171597885643502,0.3502796098264709,0.3404094576835632,0.179030179977417,-0.3056364059448242,927,93,-32767,9438
12.1,1788526110919,0.0,2.873239517211914,0.0003223512903787,0.0019844942726194,0.7922866940498352,0.6101456880569458,0.0508201128505395,0.0001235656499722,6.496405622530224e-06,0.0024087608326226,-0.0163541492074728,0.4538749754428863,0.0010752324014902,0.001410137861967,0.6060662269592285,0.7954122424125671,-0.0052644271527129,-0.0252515489790295,0.4353567505728097,0.0020925402641296,-0.0459044575691223,0.1415872573852539,926,78,-32767,9276
12.2,1788526111019,0.0,3.070422649383545,0.0009160147747024,0.0015871331561356,0.807603120803833,0.5897234678268433,0.0483068898869872,0.0002839922841013,-3.383044255677233e-06,0.006565251853317,-0.0106267277151346,0.4831795990467071,0.00123399682343,0.0013774121180176,0.6226099729537964,0.7825301885604858,0.007299530900441,-0.0117988585103027,0.4654798405150812,0.2784455418586731,-0.0486121773719787,-0.043553352355957,914,52,-32767,8537
12.3,1788526111119,0.0,0.5633803009986877,0.0001228199107572,0.0016417847946286,0.8184422254562378,0.5745865106582642,0.0365676654045538,-0.0023983342023785,-9.1960505420373e-06,-0.0045111048966646,0.0096093462780117,0.330778032541275,0.0005263965576887,0.001605924218893,0.635773777961731,0.7718736529350281,0.0025074612002748,0.0032251856660905,0.2501295593217834,-0.7552493810653687,-0.3716955184936523,0.2604265213012695,925,36,-27976,0
12.4,1788526111219,0.0,0.0,7.845391519367695e-05,0.0015857534017413,0.8176247477531433,0.575749397277832,0.0125869982875108,-0.0011146423716091,2.17681231102545e-06,-0.0037957096938043,-0.0023488018196076,-0.1716313511133194,0.0007027834653854,0.0014031343162059,0.633294403553009,0.7739094495773315,0.0071023922892296,-0.0170220254654432,0.0426966374402803,1.0693466663360596,0.116506278514862,0.0412254333496093,1,0,0,0
12.5,1788526111319,0.0,0.0,4.373735282570124e-05,0.0016055390005931,0.817229151725769,0.5763105154037476,-0.0051135942538315,0.0017779506574814,1.3930204256728846e-06,-0.0001339806476607,0.0016129363793879,-0.02850192040205,0.0006495108827948,0.0014051590114831,0.6333478093147278,0.7738657593727112,0.005247252622165,-0.0124358191154438,0.029720508025585,0.444912850856781,-0.1450223922729492,0.0518264770507812,0,0,0,0
12.6,1788526111419,0.0,0.0,0.0002469168393872,0.001534815179184,0.817665696144104,0.575691282749176,0.0003759225393062,-0.0014254112871717,7.465503964403382e-07,0.0012261546216905,-0.0015587714733555,0.0095669133588671,0.0006448375061154,0.0013979617506265,0.6333993673324585,0.7738235592842102,-0.0006211540839531,-0.0021161742933265,-0.0086911068880108,0.0767638683319091,-0.1034241914749145,0.0337696075439453,0,0,0,0
12.7,1788526111519,0.0,0.0,0.0002435628557577,0.0015384362777695,0.8176958560943604,0.5756484866142273,0.0004391995448884,-0.0005113315317701,-3.685949676078655e-07,0.0010239547118544,-0.0002761621435638,0.0051236245781183,0.0006758505478501,0.001389225013554,0.6334385871887207,0.7737913727760315,0.0002681479122015,-0.0026825834552224,-0.0004396816615806,-0.0062458515167236,0.0382567644119262,0.0127325057983398,0,0,0,0
12.8,1788526111619,0.0,0.0,0.0002720585907809,0.0015254045138135,0.8176620006561279,0.5756964087486267,-5.970148446051713e-05,6.883075289826751e-05,-2.7230529355235284e-07,5.843110557179898e-05,-0.000329068803694,-0.0007196889491751,0.0006825504824519,0.0014006299898028,0.6334395408630371,0.7737905979156494,0.0006412974878146,0.0001248164705645,0.0015526770730362,-0.0424288511276245,0.019635260105133,0.0716609954833984,0,0,0,0
12.9,1788526111719,0.0,0.0,0.000295425474178,0.0015395818045362,0.8176798224449158,0.5756711959838867,3.547129809334349e-06,-7.5062132800883186e-06,2.6162458366376617e-08,0.0004653649812098,-0.0019316180841997,4.989943408872932e-05,0.0006876736879348,0.0013989470899105,0.6334232687950134,0.7738040089607239,-0.0005957565549735,0.0002891823424288,-0.0010936842099154,-0.0422403812408447,-0.026788055896759,0.0246334075927734,2,0,0,0
13.0,1788526111819,0.0,0.0,0.0003540792968124,0.0015061262529343,0.8176822662353516,0.575667679309845,7.284160681510564e-05,-8.308448952214955e-05,3.29916512543749e-07,0.0005125697352923,-0.0020808021072298,0.0008469476597383,0.0007460238412022,0.0013596825301647,0.633440375328064,0.7737899422645569,0.000775809244384,-0.0009665912522044,-0.0009325740595883,-0.0237404108047485,0.0590997338294982,0.0145845413208007,0,0,0,0
13.1,1788526111919,0.0,0.0,0.000341178587405,0.0015200749039649,0.8176803588867188,0.5756704211235046,5.869705906437492e-05,-6.767215337190537e-05,2.6278531456925297e-07,-0.0001202042330987,0.0008369465358555,0.000675858114846,0.0007519358769059,0.0013650460168719,0.6334590911865234,0.7737745642662048,0.0002645187451989,-0.0013502852828678,0.000946908104478,0.0054565072059631,-0.0024475455284118,0.0096826553344726,0,0,0,0
13.2,1788526112019,0.0,0.0,0.0003894191759172,0.0014928033342584,0.8176771402359009,0.5756749510765076,-0.0001005827331551,0.0001147483906451,-4.4979974414768484e-07,-0.0001594901550561,-0.0017559849657118,-0.0011597459670156,0.0007725078612565,0.0013258848339319,0.633467972278595,0.7737674713134766,-0.0002666802258956,2.7422350940803117e-05,0.0021988892455945,-0.0966488122940063,-0.0040080547332763,0.0514278411865234,270,331,-8339,8288
13.3,1788526112119,0.0,3.549295663833618,0.0002721759665291,0.0014182731974869,0.8273159861564636,0.5617349743843079,0.0315130973257886,0.0018268974513879,-3.3634015441322087e-06,-0.0031753310468047,0.0037975113373249,0.4617557525634765,0.0003669345751404,0.001353464089334,0.651310384273529,0.7588101625442505,-0.0168741140197616,0.0201948697325027,0.5327252302868498,-0.3402047157287597,-0.4501118659973144,0.1527261734008789,931,76,-32767,10783
13.4,1788526112219,0.0,2.985915422439575,0.0002180684241466,0.0013314657844603,0.8413615822792053,0.5404709577560425,0.066350220761721,-0.0022897604571882,9.78843612332426e-06,-0.0028431788086891,-0.0008624023757874,0.5746163725852966,0.0003542611375451,0.00129184871912,0.6682698726654053,0.7439177632331848,-0.0173938870922334,0.0177239506539782,0.4789261467281375,-0.2501001954078674,-0.3096674084663391,0.1955652236938476,932,61,-32767,8937
13.5,1788526112319,0.0,2.929577350616455,-0.0003064739867113,0.0012492220848798,0.8534248471260071,0.5212143659591675,0.046343932058327,-0.0018456807493286,-9.697935943364385e-06,-0.0132176978513598,0.013053722679615,0.4084400236606598,0.0002743955701589,0.0013167914003133,0.6802719235420227,0.7329586744308472,-0.0099877446664404,0.0146357858542767,0.4307272476118991,-0.3099927902221679,0.2427862882614135,-0.1224050521850586,927,71,-32767,8548
13.6,1788526112419,0.0,2.873239517211914,-0.0003020692965947,0.0013029606780037,0.8585863709449768,0.5126671195030212,0.0365808459547682,-0.0005547242068257,-1.112990494121155e-05,0.0015681663062423,0.0013377204304561,0.4005527198314667,-0.0005772663280367,0.0016529578715562,0.7018500566482544,0.7123225331306458,-0.0115712442357237,0.0192478213039637,0.4785003512624572,0.0948197245597839,-0.0870961546897888,-0.0057020187377929,913,70,-32767,9144
13.7,1788526112519,0.0,2.901408433914185,-0.001985122449696,0.0021280539222061,0.8749546408653259,0.4841961860656738,0.0509564612613006,-0.0007065503221286,-2.022163419131425e-05,0.0045549347996711,0.0400733649730682,0.4813333451747894,-0.0021824901923537,0.0032283794134855,0.7167337536811829,0.6973360776901245,-0.0138737573373696,0.0993052342603062,0.4653300619557549,-0.4953210949897766,-0.050420343875885,0.2766294479370117,913,77,-32767,9058
13.8,1788526112619,-1.6338027715682983,0.0,-0.002146023325622,0.0018694093450903,0.8811283111572266,0.4728686809539795,0.0052097939204453,-0.0031137362934025,-1.0965812840015212e-06,-0.000994938192889,-0.0031230198219418,0.056145429611206,-0.0014375057071447,0.0022770455107092,0.7221248745918274,0.6917575001716614,0.0013991952200931,-0.0097202857334159,-0.0146900534881313,-0.2575994729995727,-0.1619160771369934,0.4352779388427734,98,0,0,0
13.9,1788526112719,0.0,0.0,-0.0022700845729559,0.0018894879613071,0.879279375076294,0.4762973189353943,0.0044227909900722,-0.0024074047274332,1.364538966341301e-06,-0.0012063422473147,0.0046546668745577,-0.1558220535516739,-0.0017208270728588,0.0025186641141772,0.718070924282074,0.6959633231163025,-0.0046535741674588,0.0132946469521374,-0.0217378052672122,-0.3089646697044372,0.1002758741378784,0.0416622161865234,1,0,0,0
14.0,1788526112819,0.0,0.0,-0.0022853917907923,0.0019422557670623,0.8786912560462952,0.4773811101913452,0.001734454372185,0.0014013228299871,-9.007472886693548e-07,0.0,0.0,0.0,-0.0016234386712312,0.0024265516549348,0.7181155681610107,0.6959178447723389,-0.0014206676924962,-0.0035909835104072,-0.0128968271552022,0.0493618249893188,-0.1099756360054016,0.0512809753417968,1,0,0,0
14.1,1788526112919,0.0,0.0,-0.0022853917907923,0.0019422557670623,0.8786912560462952,0.4773811101913452,0.0002070211652656,-0.0001978928418792,-9.66565665754509e-07,0.0,0.0,0.0,-0.0016346303746104,0.0024212151765823,0.7181459069252014,0.6958863735198975,0.0001112063233046,-0.0007947444822914,-0.0026601932849625,-0.0833876729011535,0.0358238220214843,0.0389528274536132,0,0,0,0
14.2,1788526113019,0.0,0.0,-0.0022853917907923,0.0019422557670623,0.8786912560462952,0.4773811101913452,0.0,0.0,0.0,0.0,0.0,0.0,-0.0016346303746104,0.0024212151765823,0.7181459069252014,0.6958863735198975,0.0001112063233046,-0.0007947444822914,-0.0026601932849625,-0.0833876729011535,0.0358238220214843,0.0389528274536132,0,0,0,0
14.3,1788526113119,0.0,0.0,-0.0022504613734781,0.0019122553057968,0.8785490393638611,0.4776431024074554,0.0,0.0,0.0,0.0,0.0,0.0,-0.0016258088871836,0.0024131126701831,0.718133270740509,0.6958995461463928,0.0006372661426797,-0.0003833019284088,-0.0019347634690507,-0.022630751132965,0.0303389430046081,0.0518455505371093,0,0,0,0
14.4,1788526113219,0.0,0.0,-0.0022504613734781,0.0019122553057968,0.8785490393638611,0.4776431024074554,0.0,0.0,0.0,0.0,0.0,0.0,-0.0016078101471066,0.0024084951728582,0.7181472778320312,0.6958851218223572,0.0001143814326916,-0.0001534715653214,-0.000109617787624,-0.0373263955116272,0.0552898049354553,0.0537338256835937,0,0,0,0
14.5,1788526113319,0.0,0.0,-0.0022504613734781,0.0019122553057968,0.8785490393638611,0.4776431024074554,0.0,0.0,0.0,0.0,0.0,0.0,-0.0015709958970546,0.0023736236616969,0.7181598544120789,0.6958723068237305,0.0006230699190381,0.00081356712434,0.0011938832510267,-0.0328470468521118,-0.0038904547691345,0.0389728546142578,0,0,0,0
14.6,1788526113419,0.0,0.0,-0.0022504613734781,0.0019122553057968,0.8785490393638611,0.4776431024074554,0.0,0.0,0.0,0.0,0.0,0.0,-0.0015654722228646,0.0023672338575124,0.7181348204612732,0.6958982348442078,-0.0005820075691494,0.0009101546566322,-0.0014612099727454,-0.0277405381202697,-0.007606029510498,0.0587339401245117,0,0,0,0
14.7,1788526113519,-0.591549277305603,1.5211267471313477,-0.0017947991145774,0.001610102597624,0.8803690075874329,0.4742831885814667,0.0132509858259674,-0.0030339794924228,5.594221720493064e-06,-0.0023044052068144,-0.0212342087179422,0.1496240794658661,-0.0012006284669041,0.0019940808415412,0.7226990461349487,0.6911589503288269,0.0033326155226302,-0.0251230061376041,0.3747845512726721,-1.041191816329956,0.5893741250038147,0.2168140411376953,701,233,-19517,10745
14.8,1788526113619,0.0,3.633802890777588,-0.0005726749077439,0.0009131918195635,0.8921775817871094,0.4516834318637848,0.0548376606286733,0.0029757343924053,-1.3087766906688037e-06,-0.0077840574085712,-0.0143668185919523,0.5859331488609314,-0.0002816542983055,0.0010203961282968,0.7387211322784424,0.6740103363990784,-0.0054511105421375,-0.0264080321198302,0.6208734016199469,0.4119738340377807,-0.258225679397583,0.5769414901733398,913,70,-32767,9936
14.9,1788526113719,0.0,3.183098554611206,-0.0005997133557684,0.0004561216919682,0.9037554264068604,0.4280484616756439,0.0576197585255321,-0.0011347064454209,6.790386846452315e-06,-0.0088089061900973,-0.003198048332706,0.5044124722480774,-0.0004568640142679,0.0005509806796908,0.7595853209495544,0.6504073739051819,-0.003345968813363,-0.0070560634803772,0.5048535304322903,0.0528865456581115,-0.0437793731689453,-0.0739364624023437,913,57,-32767,9800
15.0,1788526113819,0.0,3.239436626434326,0.0002970502537209,1.4089404430706054e-05,0.9146565198898317,0.4042316675186157,0.0571966830471207,0.0009363783172946,1.1665355492336027e-05,-0.0003573808062355,-0.028357358649373,0.5125715136528015,0.0005610352382063,-0.0003163469955325,0.7794287204742432,0.6264906525611877,-3.269282174775198e-05,-0.0148710787772333,0.5036416061940356,0.027362048625946,0.2124837040901184,-0.1996498107910156,911,105,-32767,10757
15.1,1788526113919,0.0,3.014084577560425,0.0007453812868334,-0.0002489169419277,0.9268417358398438,0.3754514455795288,0.0751732917979614,0.000934612364712,9.42588025630213e-06,0.0006163754151202,-0.0040385392494499,0.6442973613739014,0.0006606597453355,-0.0005234442651271,0.8028451800346375,0.5961869359016418,-0.0025363848776653,0.0124386986431961,0.6351709497431822,-0.9254337549209596,-0.6083387732505798,0.162506103515625,912,15,-32767,8535
15.2,1788526114019,0.0,0.0,0.0013020052574574,-0.0004181633412372,0.9355986714363098,0.3530626595020294,0.0373832257706823,-0.0064156561368632,1.0450982707420031e-05,0.0053924233652651,-0.025657296180725,0.3411952555179596,0.0012357821688055,-0.0008283918723464,0.8077024221420288,0.589588463306427,-0.0020753018667366,-0.00528868320368,-0.00505539125006,-0.0159128904342651,-0.1942594647407531,0.0416231155395507,913,56,-32169,0
15.3,1788526114119,0.0,0.0,0.0014924118295311,-0.0005104364827275,0.935387372970581,0.3536210656166076,0.0042914077666594,0.0001473642817262,2.170305374664936e-06,-0.0023313723504543,-0.0056363819167017,-0.1123581007122993,0.0012070778757333,-0.0008678808808326,0.8059074878692627,0.5920395255088806,-0.005468679908963,0.0085536643543586,-0.1406917622154778,-0.8438540697097778,0.2072123885154724,0.0323619842529296,0,0,0,0
15.4,1788526114219,0.0,0.0,0.0014645203482359,-0.0005338284536264,0.9351024627685548,0.3543740212917328,0.0021180644982504,0.0011486596472153,7.306098442167642e-07,-0.0018878596602007,0.0034097577445209,0.0037373006343841,0.0013190750032663,-0.0009262440726161,0.8060219883918762,0.5918834209442139,-8.045505364785728e-05,-0.0098550166555198,0.0294424406771507,0.1689302921295166,-0.2865676879882812,-0.0423355102539062,0,0,0,0
15.5,1788526114319,0.0,0.0,0.0015447252662852,-0.0004895078018307,0.9355707764625548,0.3531355559825897,0.0025769491664307,-2.9657046653667607e-05,1.402453933353904e-06,0.0013952072476968,0.0003691062156576,0.0208641849458217,0.0013269800692796,-0.0008723251521587,0.8067072629928589,0.5909491777420044,-0.0004462894628061,0.0020879461197549,0.0040761058307614,-0.1167088150978088,-0.0690191984176635,0.0527076721191406,2,0,0,0
15.6,1788526114419,0.0,0.0,0.0015423137228935,-0.0004969591391272,0.9355549216270448,0.3531774878501892,0.0002554199931454,-0.0002448749415626,-7.876937384333504e-07,0.0,-5.835831817790904e-09,0.0,0.0013354457914829,-0.0009060595184564,0.8066611289978027,0.5910120606422424,-0.0001875948613766,0.0004303345825334,0.0007780759382366,-0.0651156902313232,0.0517845749855041,0.0484819412231445,2,0,0,0
15.7,1788526114519,0.0,0.0,0.0015140437753871,-0.0005159371066838,0.9355601668357848,0.3531635999679565,0.0,0.0,0.0,-0.0006206160760484,0.0008951819036155,0.0,0.0013325475156307,-0.0009165676310658,0.8066499829292297,0.5910273194313049,-0.0002535720280924,-0.0011944136543963,-0.0002779858264877,-0.0380056500434875,0.0307222604751586,0.007181167602539,3,0,0,0
15.8,1788526114619,0.0,0.0,0.0015246623661369,-0.0005217412253841,0.935560703277588,0.3531619906425476,6.406745524853223e-06,-7.276803586024698e-06,-1.972788833198469e-08,-6.82067038724199e-05,-0.0004873351135756,7.029085827525705e-05,0.0013111839070916,-0.0009019738063216,0.8066492080688477,0.5910284519195557,0.0002943175642152,-0.0001530664686521,0.0008629430021722,-0.0645675659179687,-0.0017411708831787,0.0283422470092773,1,0,0,0
15.9,1788526114719,0.0,0.0,0.0015598452882841,-0.0005387853016145,0.93554425239563,0.3532054126262665,-0.0001294097097096,0.0001469794286659,4.1037229622628025e-07,2.161965085178963e-06,-0.0004411014961078,-0.0014806778635829,0.0013427138328552,-0.0009114807471632,0.8066349625587463,0.5910477042198181,0.0011623895298122,0.0028005735066753,0.0015372787896572,-0.0884929299354553,0.0340030789375305,0.0230731964111328,5,0,0,0
16.0,1788526114819,0.0,0.0,0.0015981966862455,-0.0004754335968755,0.9355543851852416,0.3531786501407623,-3.086270379282652e-05,3.505266640621709e-05,9.33303920495916e-08,0.0013752138474956,-0.0023074327036738,-0.0003385994350537,0.0014238357543945,-0.0008943062275648,0.8066424131393433,0.5910375118255615,0.0010814758917839,-0.0030933996190943,-0.0002722348401946,-0.0536980032920837,0.0327398777008056,0.0304718017578125,3,0,0,0
16.1,1788526114919,0.0,1.7183098793029783,0.0015970582608133,-0.000451429397799,0.9355701804161072,0.3531367778778076,0.0001549644054234,-0.0001759846758312,-4.854922895706626e-07,0.0009359125397168,0.0010462106438353,0.0018002931028604,0.0014280099421739,-0.0008636498823761,0.8066813945770264,0.5909841656684875,0.0009615710851542,-0.0013878085904674,0.0030757185389372,-0.0462034940719604,0.0160697102546691,0.0268106460571289,59,166,-1556,5950
16.2,1788526115019,0.0,4.309859275817871,0.0018440417479723,-0.000528908916749,0.9389686584472656,0.3439974784851074,0.04224801894343,0.0044004548884583,3.45010466660606e-06,0.0019057152094319,-0.0041290801018476,0.3514632284641266,0.0017832638695836,-0.0011380221694707,0.8172406554222107,0.5762928128242493,-0.0017361894980352,-0.0141371587928042,0.5419204484363263,0.2478333711624145,-0.1220541596412658,0.1390161514282226,541,181,-13576,13906
16.3,1788526115119,0.0,6.2816901206970215,0.0028217311482876,-0.0006179850315675,0.9507870078086852,0.3098316490650177,0.0831609207525586,-0.0010204667283985,3.7024150688206335e-05,0.007816981524229,-0.0221790429204702,0.8392896056175232,0.002612073905766,-0.0015512006357312,0.8454923629760742,0.5339788794517517,-0.0034961902102793,-0.0204995759131166,0.9489140974185644,-0.5638588666915894,0.1616637110710144,0.696812629699707,842,210,-21747,19977
16.4,1788526115219,0.7605633735656738,8.169013977050781,0.0026899098884314,-0.0006670657312497,0.9634758830070496,0.2677809000015259,0.0997339361761875,0.0009151560060433,-3.152593299766723e-05,0.0055009238421916,0.0128709347918629,0.9937421679496764,0.0024294890463352,-0.0014214450493454,0.8702486753463745,0.4926046431064605,-0.0019810905018148,-0.0155949198537752,1.098098479952526,1.0195621252059937,-0.0486273765563964,0.0436601638793945,27,157,0,23515
16.5,1788526115319,0.0,8.563380241394043,0.0032871467992663,-0.0002210716775152,0.9769359230995178,0.2135072946548462,0.1515973563728418,0.0046801569673185,4.152305889241817e-05,0.0264230612665414,-0.0195249207317829,1.1521809101104736,0.0057904263958334,-0.0013153050094842,0.9051601886749268,0.4250291287899017,0.012515603664678,-0.0788867400176153,1.3282288372876427,0.2808273434638977,-0.2097889184951782,1.167194366455078,114,65,3795,21939
16.6,1788526115419,0.7605633735656738,8.394366264343262,0.0038420781493186,-0.0010065392125397,0.9897301197052002,0.1428931653499603,0.1430103277078282,-0.0069413789482213,-0.0001758656800692,-0.0598512031137943,0.05180324614048,1.2342506647109983,0.0027070119976997,-0.0027187336236238,0.926278829574585,0.3768192529678345,-0.0260676779755823,0.007144570865257,1.1709197793406547,-0.1331562399864196,-0.2954365015029907,0.633213996887207,324,124,9183,22774
16.7,1788526115519,1.4647886753082275,8.450704574584961,0.0031097836326807,-0.0022813931573182,0.9961681365966796,0.0873731076717376,0.1676273337636776,-0.0008769431083774,-2.9331973509043192e-05,-0.0120047954842448,0.0105328122153878,1.095222234725952,0.0021020071581006,-0.0032452177256345,0.9432098269462584,0.3321750462055206,-0.0154796131873471,0.0066827612789134,1.0899290405705713,0.001366913318634,0.264075756072998,0.1061344146728515,266,92,11171,22137
16.8,1788526115619,1.6338027715682983,8.36619758605957,0.0027433261275291,-0.002669156063348,0.9991717338562012,0.0405110344290733,0.1778800102340709,-0.0109098108051438,-1.3367682315382769e-05,-0.0025223654229193,-0.0021094968542456,1.0100070238113403,0.0018205493688583,-0.0035875486209988,0.9617682099342346,0.2738353610038757,-0.009446456402842,0.0211448408454385,1.020296098776608,0.0707908272743225,0.0843120217323303,-0.5252761840820312,312,95,11187,22367
16.9,1788526115719,1.97183096408844,8.0,-0.0030527180060744,0.0031454602722078,-0.9998049736022948,0.0192551277577877,0.1767843367205614,-0.0021177618673099,-3.085686521817119e-05,-0.0059181707911193,-0.00551867345348,1.006169676780701,0.0019042184576392,-0.0037412624806165,0.9731969237327576,0.229934960603714,0.0028834226271479,0.0133254270550742,0.926588231430572,0.2411620020866394,-0.0249700546264648,1.4004440307617188,350,23,14674,19359
17.0,1788526115819,2.7887322902679443,7.661972045898437,-0.0023582307621836,0.0031891271937638,-0.9980981349945068,0.0615166760981082,0.1777187802471298,-0.0006148505243588,-7.355676192234732e-05,-0.0010825906647369,0.0140556143596768,0.8342117667198181,0.0015372978523373,-0.0038690818473696,0.9799347519874572,0.199275255203247,-0.0107731820299292,-0.0128903829746478,0.5849740513779277,0.1561867594718933,-0.1227213144302368,0.5118446350097656,247,110,12058,20552
17.1,1788526115919,2.5352113246917725,7.295774459838867,-0.0028331601060926,0.0031553846783936,-0.9955889582633972,0.0937271937727928,0.173074720262628,0.0013058889420742,5.37283976422562e-05,0.0154902823269367,-0.0077314698137342,0.6829572319984436,0.0005202405154705,-0.0020347759127616,0.9882714748382568,0.1526931077241897,0.0749024120129049,0.0802712168090577,0.7999831699910189,0.8180959224700928,0.110484778881073,0.3106546401977539,471,86,16235,19985
17.2,1788526116019,3.91549301147461,6.901408672332764,0.0008872019825503,0.0003374822554178,-0.9916756749153136,0.1287577152252197,0.1776822373922508,-0.0048994915625141,-0.0003021748043521,0.1014044135808944,0.1132784336805343,0.7122418284416199,-0.0041541326791048,0.0019667046144604,0.9920992851257324,0.1253709495067596,0.0333120995112858,0.1427618616302612,0.5318081913921023,-2.105031728744507,0.273775041103363,7.0141191482543945,153,76,12082,18821
17.3,1788526116119,4.11267614364624,6.450704097747803,0.0011008225847035,-0.0007490538991987,-0.9879751205444336,0.1546068042516708,0.1934181935494968,-0.0005046839226145,0.0002224120106064,-0.0177573282271623,-0.1136189326643943,0.460396945476532,0.0004143062978982,-0.000751900486648,0.9942016005516052,0.1075290143489837,-0.0853823816187944,-0.0264834389509618,0.3295044406615476,-0.2569301724433899,-0.2246968746185302,-1.160111427307129,38,94,9550,18050
17.4,1788526116219,3.521126747131348,6.591549396514893,-0.0049687377177178,0.0034692871849983,-0.9848118424415588,0.1735192835330963,0.1766460803800623,0.0015351046063132,0.0005765528851608,-0.1137654334306716,-0.1243470534682273,0.3472342491149902,0.0042913779616355,-0.0049977181479334,0.9966511726379396,0.0815053731203079,-0.0345776601394345,-0.026931929312873,0.6118580641768089,1.0533326864242554,0.4997244477272033,-1.5290193557739258,85,113,9933,18169
17.5,1788526116319,3.633802890777588,6.788732528686523,-0.0051759593188762,0.0044861882925033,-0.9801894426345824,0.1979436129331588,0.1682532184162729,0.0064476115817803,-8.747408855322786e-06,-0.0340482629835605,0.013754054903984,0.485833466053009,0.0033258171752095,-0.0057240184396505,0.9981879591941832,0.0598085299134254,-0.0068916922064132,0.0222454105353419,0.4925391007037444,0.0293611288070678,0.7701462507247925,-0.238377571105957,84,66,10585,17727
17.6,1788526116419,3.746478796005249,6.647887229919434,-0.0037322989664971,0.0049958322197198,-0.9755697250366212,0.2196015566587448,0.1689107603871235,0.0033350576036633,-6.494174048179628e-05,-0.005603399593383,0.0480975024402141,0.4715763628482818,0.0016607493162155,-0.005866415798664,0.999217927455902,0.0390694476664066,-0.0086966581144104,-0.0212784546718287,0.4309743657251459,-0.0358656048774719,0.7329369187355042,-0.0364370346069335,106,81,10878,18036
17.7,1788526116519,4.0,6.309859275817871,-0.0021260210778564,0.0055662151426076,-0.9693083167076112,0.2457761019468307,0.1704861470205448,0.0065504780253688,-0.0001114035792236,-0.0035999661777168,0.02119991928339,0.4570854008197784,0.0014092428609728,-0.0068836724385619,0.9998759627342224,0.0140970321372151,-0.0511920101774269,-0.0014127578287503,0.3394549842407864,-0.5819051861763,-0.2541464567184448,0.0126609802246093,81,78,12735,16826
17.8,1788526116619,2.8450703620910645,6.2253522872924805,-0.0019827361684292,0.006191330961883,-0.964449107646942,0.2641887664794922,0.1472057271650734,0.0050425060554674,-0.0001250592555959,-0.0042955237440764,0.0460659228265285,0.4258308410644531,-0.0002977894619107,0.0061583872884511,-0.9999393820762634,0.0091262487694621,0.006159860527092,-0.0148346606928814,0.5066283949585431,0.7545773386955261,0.1799362301826477,-0.0736055374145507,647,105,21459,17554
17.9,1788526116719,4.02816915512085,6.3380279541015625,-0.0014511452754959,0.0060748918913304,-0.9581722617149352,0.2861242294311523,0.1744443901448481,-0.0008811779999199,-2.643390495112323e-05,0.0009299052180722,0.0152408797293901,0.3969877958297729,0.0003532879054546,0.0062536317855119,-0.9996128678321838,0.0271093994379043,-0.0028812682176406,0.0023193683970709,0.438287977707372,0.0024145245552062,0.1280959844589233,-0.6460981369018555,436,58,19097,16932
18.0,1788526116819,4.507042407989502,5.549295902252197,-0.0004295239923521,0.0076095648109912,-0.953155279159546,0.3023854792118072,0.1691645667884239,4.536640907332613e-05,-6.349182727777022e-05,-0.0612900890409946,0.0624966770410537,0.3189728260040283,0.0024305917322635,0.0080490410327911,-0.9990049600601196,0.0438014082610607,-0.003161481301881,0.0381669823215792,0.2249977911678493,-0.3605304360389709,0.4970621466636657,-0.1246347427368164,570,63,22544,15286
18.1,1788526116919,4.507042407989502,5.605633735656738,0.0001843567006289,0.008810537867248,-0.9497478604316713,0.3128920793533325,0.1730496265512174,0.0078423802392644,-2.230915607871537e-05,-0.0191251989454031,0.0109246736392378,0.2020482122898101,0.0028406539931893,0.0085908416658639,-0.9986333847045898,0.0514746755361557,0.0070309426380617,0.0153479299401088,0.1578029401241961,-0.4150987267494201,0.4033936858177185,-0.4829654693603515,564,65,23296,15002
18.2,1788526117019,4.647887229919434,5.239436626434326,3.425125032663345e-05,0.0086937230080366,-0.9469683766365052,0.3212093412876129,0.1641347781571404,0.0066259102295826,0.0001039246119517,0.0069936770014464,-0.0162668488919734,0.1542619913816452,0.0028171371668577,0.0083615165203809,-0.9982980489730836,0.0576465465128421,1.574465069352346e-05,0.0262287220146289,0.1075754558515132,0.5421773791313171,-0.1626055836677551,-0.1238985061645507,739,70,27245,14325
18.3,1788526117119,4.901408672332764,5.267605781555176,-0.0003685490228235,0.0082530574873089,-0.9450855255126952,0.3267187178134918,0.1614468095514846,0.0034097189940355,0.0001220112877227,0.0117815881967544,-0.0376178957521915,0.1280367821455001,0.0018244059756398,0.0081169083714485,-0.9980139136314392,0.0624431930482387,-0.0076206483154927,0.0064398711065675,0.07635848335267,-0.0154555439949035,0.0729135274887085,-0.4506769180297851,783,54,28158,14254
18.4,1788526117219,4.8450703620910645,5.267605781555176,-0.0004383018240332,0.0079371770843863,-0.944054901599884,0.3296926021575928,0.1801522682628113,-0.0007985442687363,-2.298327933097185e-05,0.0100834984332323,0.0040257913060486,0.0704704895615577,0.0016134269535541,0.0076152170076966,-0.9977492094039916,0.066603384912014,0.0080709912114051,0.006764697741121,0.0384293730221469,-0.0764337182044982,0.0564035773277282,-0.2536525726318359,794,60,29032,14300
18.5,1788526117319,-1.2957746982574463,0.98591548204422,4.91186510771513e-05,0.0076542198657989,-0.9422606825828552,0.3347929418087005,0.1349221573106225,-0.0012246004667808,-3.3062545813710136e-05,0.0123450122773647,0.016708118841052,0.1211500838398933,0.0013725096359848,0.0072842659428715,-0.9971437454223632,0.0751632452011108,0.0006665564023762,-0.0435949015629366,0.2842117990238195,1.234973430633545,0.0966309309005737,0.2537031173706054,673,59,-16089,0
18.6,1788526117419,2.08450698852539,-6.563380241394043,-0.0003215840552002,0.0076603866182267,-0.9417521953582764,0.3362201750278473,-0.0215928816620887,8.875915312325714e-05,-2.3983119732389e-06,-0.0048800879158079,0.0092280777171254,-0.0986470356583595,0.0019746609032154,0.0076641915366053,-0.9982818365097046,0.0580592304468154,-0.0077314560396271,0.0229819817741046,-0.8049877532468626,-1.6517963409423828,-0.4987883567810058,0.1533756256103515,893,323,25097,-20581
18.7,1788526117519,4.169013977050781,-6.957746505737305,-8.028862066566944e-05,0.0078265210613608,-0.960037648677826,0.2797613739967346,-0.0462272003700843,0.0134194169732579,-4.898247800250898e-06,-0.0004757447750307,0.0331439301371574,-1.5021562576293943,-0.0023151021450757,-0.0074579203501343,0.9993950128555298,0.0338915772736072,0.0081954910260936,0.0501944070271333,-1.6484529673496682,1.7960587739944458,-0.2223422527313232,-0.5983524322509766,547,156,32767,-15868
18.8,1788526117619,5.88732385635376,-6.394366264343262,0.0011518172686919,0.0078614577651023,-0.9788552522659302,0.2043994665145874,-0.0213510620588821,0.0070867438464786,1.4169851820734731e-05,0.0098137045279145,0.0647810697555542,-1.8314498662948608,-0.0034575462341308,-0.0069630183279514,0.9941437244415284,0.1077859327197074,0.0047713089684908,0.0379044278769607,-1.625416701728449,-1.1678519248962402,-0.3824900388717651,0.3097038269042969,541,62,27326,-16816
18.9,1788526117719,6.985915660858154,-6.14084529876709,0.0027296463958919,0.0058619491755962,-0.9952754378318788,0.0968760848045349,-0.0139129384335013,0.0142807753295176,2.2122027253040684e-05,0.0622247271239757,0.0451063141226768,-1.886614203453064,-0.0063156960532069,-0.0024580359458923,0.9794710874557496,0.2014707624912262,0.1379502368763953,0.1820336855191579,-1.8992324910869405,0.4768790006637573,-0.5526834726333618,-0.8817148208618164,341,116,22815,-17211
19.0,1788526117819,6.704225540161133,-6.253520965576172,0.0048312791623175,0.0033805740531533,-0.9999729990959167,0.0043829018250107,0.0022150406690938,0.0035966413268614,-1.412388125565249e-05,0.0303548984229564,-0.0053120870143175,-2.0269012451171875,-0.0041571268811821,-0.0022654980421066,0.9478897452354432,0.3185635209083557,-0.0180800398155751,-0.0796007162856369,-2.069490914853364,-0.0046347379684448,-0.4403228163719177,-2.362167358398437,140,67,19283,-16741
19.1,1788526117919,6.2816901206970215,-6.2253522872924805,-0.0018882318399846,-0.0035737436264753,0.9951710104942322,0.098072811961174,0.00754718702706,0.0102202660462433,1.1988692752420474e-06,-0.0022987171541899,-0.0621441006660461,-2.054217576980591,-0.0006617689505219,-0.0037706401199102,0.9145044088363647,0.4045577347278595,-0.0191259214974787,-0.083427484850419,-2.0477436866040324,-0.7980691194534302,0.9847784638404846,1.7603178024291992,100,97,18137,-16831
19.2,1788526118019,5.7183098793029785,-6.084506988525391,-0.000453881744761,-0.0032072060275822,0.9824413061141968,0.1865438967943191,-0.0137148437339603,0.0190208112753276,2.8750852378297164e-05,0.0193205419927835,0.047271903604269,-1.8914536237716677,-0.0003827456384897,-0.0051075564697384,0.8780905604362488,0.4784669876098633,-0.0271886639757399,-0.0338380888751431,-1.683120320922339,-0.2905952334403991,-0.2883690595626831,-0.2158393859863281,240,125,19786,-17362
19.3,1788526118119,5.802816867828369,-6.197183132171631,0.0003443491877987,-0.0040195770561695,0.9583311080932616,0.2856312692165375,-0.0212714315372553,0.0010336662021763,6.806133815231534e-06,0.0198468584567308,0.0315570458769798,-1.760612726211548,-0.0007950542494654,-0.0036779018118977,0.8215972781181335,0.5700560212135315,-0.0095716775795435,0.0270862121389408,-1.8417094557262623,-0.1437236070632934,0.0267419815063476,1.444972038269043,404,102,23953,-17254
19.4,1788526118219,5.830986022949219,-6.253520965576172,0.0005832957103848,-0.0034047856461256,0.929947316646576,0.3676765561103821,-0.015097667624203,0.0131326173897545,-8.79903657479881e-06,0.0102931428700685,-0.002612623386085,-1.8531204462051392,8.81170853972435e-05,-0.0035981489345431,0.7720312476158142,0.6355743408203125,0.0117001239574896,-0.0230344203281154,-1.6774131771735885,-0.203360378742218,-0.2386295795440673,0.3095474243164062,476,81,24804,-16482
19.5,1788526118319,5.7183098793029785,-6.197183132171631,0.0002915736986324,-0.0026707560755312,0.8927484154701233,0.4505474865436554,-0.0080112719996589,0.0152602728995453,7.2719849289182044e-06,0.010122419334948,0.044248454272747,-1.819567441940308,-0.0003853691741824,-0.002284730784595,0.7177537083625793,0.6962932348251343,0.0151069738405407,0.010434935557395,-1.7886733932319518,-0.5201106071472168,-0.2072563767433166,0.2215175628662109,701,126,29650,-17344
19.6,1788526118419,5.915493011474609,-6.084506988525391,0.001063244882971,-0.0024574636481702,0.8531286120414734,0.521693766117096,-0.0111845458308359,0.0082903598799655,6.095803839865411e-07,0.0118114575743675,-0.0194459464401006,-1.780413269996643,0.0002172589302062,-0.0027255080640316,0.6367529034614563,0.7710630893707275,0.00096728418503,0.0088590615134832,-1.832925560617182,-0.5988883972167969,-0.297477126121521,-0.1547908782958984,780,129,31522,-17606
19.7,1788526118519,6.056337833404541,-6.309859275817871,0.0014962174464017,-0.0027264840900897,0.8010894060134888,0.5985366702079773,-0.0089907381708552,0.0125792511927481,4.715462182187083e-07,0.0037257019430398,-0.0167844481766223,-1.8654152154922483,0.0015659462660551,-0.0028643952682614,0.5608760714530945,0.8278934359550476,0.0070573529907108,-0.0015331626307359,-1.9266940234368344,0.5058810114860535,0.3422871232032776,0.1206779479980468,814,75,32122,-16694
19.8,1788526118619,5.352112770080566,-6.676056385040283,0.0014304282376542,-0.0021533509716391,0.7342458963394165,0.6788787841796875,-0.0018824950701684,0.0087742818747789,-6.161076534449415e-06,-0.0246298722922801,0.0263010058552026,-1.8975226879119875,-0.0005060965195298,-0.0002043657004833,0.4895925223827362,0.8719512224197388,-0.0077251769732376,0.122611135770743,-1.746101939540208,0.1888077855110168,-0.3736253380775451,-0.8675947189331055,822,51,31308,-16272
19.9,1788526118719,6.197183132171631,-6.309859275817871,-0.0016084278468042,0.0004479862982407,0.6659719347953796,0.7459748983383179,-0.0030029511154174,0.0108505685161492,-6.566555657683079e-06,-0.010444302111864,0.0597520172595977,-1.968813419342041,-0.0004303269088268,0.0077836513519287,0.3929021656513214,0.919547200202942,0.2206922081248175,0.3409371663410231,-2.108949638363168,-0.1115283370018005,-0.378231942653656,2.587203025817871,523,70,26147,-16729
20.0,1788526118819,6.2816901206970215,-6.394366264343262,-0.0022722948342561,0.0075300745666027,0.5979354381561279,0.8015056848526001,0.0182696055756806,0.0041257531651349,-3.0569119957197534e-05,0.0524509586393833,0.0307425465434789,-2.003126859664917,0.0002803048118948,0.0084182498976588,0.3098818957805633,0.9507377743721008,0.0833656738207201,0.1123417956753482,-1.9876007343643924,0.2247297167778015,-0.3947659134864807,2.050389289855957,260,66,22081,-16740
20.1,1788526118919,1.2676056623458862,-1.5211267471313477,-0.0015698014758527,0.0073681222274899,0.4997124075889587,0.866158664226532,0.0022146670933311,0.0168205069236656,1.606172933251732e-05,0.0145229678601026,-0.0233106631785631,-1.8751524686813357,0.000520889647305,0.0074837859719991,0.2387246340513229,0.9710583686828612,0.0124566947528657,-0.0182932208758051,-1.0010522988618056,-0.9342182874679564,1.7011103630065918,-0.1135015487670898,101,161,0,0
20.2,1788526119019,0.0,0.0,-0.0014149185735732,0.0077362908050417,0.4885161221027374,0.8725194334983826,-0.0038448286846667,0.0151514312001751,4.507570452589005e-06,0.0042779827490448,0.0035398716572672,-0.0488693937659263,0.0005116835236549,0.0074255159124732,0.2378567159175872,0.971271812915802,0.0090474407127277,0.0015141536845152,0.0177264346958492,-0.1163317561149597,0.1350441575050354,0.1981763839721679,0,0,0,0
20.3,1788526119119,-5.97183084487915,6.450704097747803,-0.0016094896709546,0.0072574317455291,0.492228627204895,0.8704342246055603,-0.0020992690700987,0.0019435952356425,-3.009547678183062e-07,-0.0029238192364573,-0.0002486904850229,0.1410950422286987,0.0006327610462903,0.0077381813898682,0.2675169706344604,0.9635218977928162,-0.0065716958096146,0.0080538319599356,1.493676325492629,-0.904293179512024,1.086305022239685,0.1572551727294922,309,168,-21789,19184
20.4,1788526119219,-5.6619720458984375,6.197183132171631,-0.0021262050140649,0.0077969678677618,0.5552785992622375,0.8316251039505005,0.0080075785244093,-0.0120119322148568,-5.026088573839907e-06,-0.033163983374834,0.0336984395980834,2.0667285919189453,-0.0003766873851418,0.0071958843618631,0.3768318593502044,0.926253616809845,-0.0228827427752623,0.0495945928643486,1.784675074277032,-0.2843680381774902,-0.1578862071037292,-2.086042881011963,418,111,-23813,17621
20.5,1788526119319,-5.408450603485107,6.084506988525391,-0.0023995959199965,0.0043922644108533,0.6266553401947021,0.779280424118042,0.0239876165058798,-0.012908765865704,1.547573858946441e-05,-0.0888320431113243,-0.0705443769693374,1.7800837755203247,-0.0019433265551924,0.0022358885034918,0.4513525366783142,0.8923408389091492,-0.0159318822260377,0.025178537268654,1.7936436071997433,-0.2945615649223327,-0.4695571064949035,0.2530736923217773,739,95,-29357,17667
20.6,1788526119419,-5.239436626434326,6.394366264343262,-0.0013227801537141,0.000908730784431,0.7076538801193237,0.7065573334693909,0.025895695962065,-0.0145429034651132,5.009243541127278e-06,0.0038365472573786,-0.0334103852510452,1.851218819618225,0.0006367079913616,-0.0014322064816951,0.5251040458679199,0.8510366678237915,-0.0049301101293814,-0.1902662931332899,1.8086144539738864,-0.7526378035545349,0.1854398250579834,0.1800146102905273,848,29,-32767,16115
20.7,1788526119519,-2.309859037399292,5.943662166595459,0.0018141136970371,-0.0023039048537611,0.7634690999984741,0.6458377242088318,0.0237654626131635,-0.0101588747994994,3.713499417929212e-05,-0.0049261404201388,-0.0581368394196033,1.7017834186553955,0.0008288975805044,-0.0032610446214675,0.5981867909431458,0.8013496994972229,-0.0167981222951142,-0.0032045743689703,1.0931750680045933,0.759332001209259,-0.2742476463317871,-0.6636495590209961,910,124,-32767,17942
20.8,1788526119619,0.0,4.873239517211914,0.0021882457658648,-0.0031796672847121,0.8000006675720215,0.5999866724014282,0.107626729622334,-0.0061074697101776,5.9417096006753244e-06,0.002271321369335,-0.0219308529049158,1.0029116868972778,0.0004611928015947,-0.0033212592825293,0.6305111646652222,0.7761728763580322,-0.0140504784782032,0.0018188872591515,0.7877209230722094,-0.809913694858551,-0.5759893655776978,1.8502254486083984,912,23,-32767,12132
20.9,1788526119719,0.0,4.507042407989502,0.001607111073099,-0.0033737563062459,0.8218909502029419,0.5696325898170471,0.0815913964160252,-0.0042892147522198,7.74044024148007e-06,-0.0037783661391586,-0.0166908018290996,0.6942080855369568,0.0008911769837141,-0.0039853556081652,0.6525576710700989,0.7577281594276428,0.0006533621821627,-0.0198382038089445,0.6344582858652428,0.2924403548240661,-0.0474253892898559,-0.488718032836914,911,102,-32767,13843
21.0,1788526119819,0.0,4.788732528686523,0.0018789171008393,-0.003494328353554,0.8432528972625732,0.5375024676322937,0.08429161342857,-0.0014597419867217,-3.475009506876221e-07,0.0042592310346663,0.0008274700376205,0.685906708240509,0.0006895419210195,-0.0038418201729655,0.6763746738433838,0.7365474104881287,-0.0052698553007169,0.0082544083134037,0.7302687355606992,-0.1609417200088501,-0.0274304747581481,0.9509706497192384,908,68,-32767,13564
21.1,1788526119919,0.0,4.732394218444824,0.0018857844406738,-0.0036816000938415,0.8615192770957947,0.5077080130577087,0.0829154195752212,-0.003859827413081,2.653001203912487e-05,0.001742418622598,-0.0121923889964818,0.7205208539962769,0.0009234463796019,-0.0040680523961782,0.7075002193450928,0.70670086145401,0.0039373864942159,0.0028032617556218,0.7312960521691325,-0.2029934525489807,0.1183986067771911,0.00701904296875,910,82,-32767,13701
21.2,1788526120019,0.0,4.816901206970215,0.0019020546460524,-0.0037342538125813,0.877718985080719,0.4791573882102966,0.0816275702484307,-0.0041672571949383,-1.6417543583214388e-06,-0.0019395652925595,0.0005159897846169,0.7072415947914124,0.000872153788805,-0.0039995498955249,0.7302659749984741,0.6831507086753845,0.006756582717226,0.0083581419542846,0.7372168225154323,-0.0771966576576232,0.1500773429870605,-0.387211799621582,911,70,-32767,13197
21.3,1788526120119,0.0,4.647887229919434,0.0014628367498517,-0.0036343117244541,0.8974475264549255,0.4411039352416992,0.0845487464690154,-0.0022150065823142,-1.9363388492236394e-05,-0.0040068095549941,0.0099897300824522,0.706998884677887,0.0001462064683437,-0.0036815972998738,0.7593175768852234,0.6507098078727722,0.0050570674980535,0.0011415163888088,0.8256219863214787,-0.0190332531929016,0.1477004289627075,0.2271909713745117,909,87,-32767,14010
21.4,1788526120219,0.0,4.647887229919434,0.0012160141486674,-0.0036264210939407,0.9117440581321716,0.4107409119606018,0.0858877059982792,-0.0018488589534548,-6.7639842383661534e-06,0.0007819374441169,-0.0024129538796842,0.750160276889801,0.000178157351911,-0.0038857907056808,0.7804224491119385,0.6252404451370239,-0.0004119009947926,0.0016454358120925,0.7255216028013453,0.1455870270729065,-0.0178914666175842,0.1264190673828125,910,75,-32767,13853
21.5,1788526120319,0.0,4.647887229919434,0.0011571327922865,-0.0038067204877734,0.9260030388832092,0.3774950504302978,0.0831331132057295,-0.0030986037588048,-9.96969837095238e-06,-0.003294747788459,-0.0011969209881499,0.7206330895423889,0.0001208186149597,-0.0041711386293172,0.8003612756729126,0.5995035171508789,-0.0070394051660779,-0.0142794092363152,0.7278996744869759,0.0035768151283264,0.0490147471427917,-0.2511463165283203,911,97,-32767,13894
21.6,1788526120419,0.0,4.788732528686523,0.0013212676858529,-0.0040458273142576,0.9380375742912292,0.3465074300765991,0.0824650899062731,-0.0025079753863454,1.849232676456922e-05,-0.0001056464461726,-0.0063405423425138,0.734732449054718,0.0002229809761047,-0.0041125519201159,0.8222039937973022,0.5691781044006348,0.009986423030453,-0.0028563440401124,0.7501282602421484,-0.0523310303688049,0.1050366759300232,0.9379644393920898,908,59,-32767,13487
21.7,1788526120519,0.0,4.704225540161133,0.0016422403277829,-0.0042063808068633,0.9524356722831726,0.3047063052654266,0.0830316690710564,-0.002577266459301,-1.591431793064729e-07,-0.0033458964899182,-0.0135747073218226,0.7146061658859253,0.0002211183309555,-0.0045391824096441,0.8400598764419556,0.5424747467041016,-0.0109078738511306,0.0031941458112469,0.6686604361491165,0.1345041394233703,-0.026755154132843,0.2179040908813476,909,94,-32767,13700
21.8,1788526120619,0.0,1.0985915660858154,0.0015146089717745,-0.0042886873707175,0.9616219997406006,0.2743402123451233,0.0860505955625351,-0.0017443313402972,3.21010603980485e-05,0.0044784327037632,-0.0077416095882654,0.700157105922699,2.7422793209552765e-05,-0.0044988868758082,0.8561210632324219,0.5167558193206787,-0.0059468616609037,0.0149633683478153,0.3637374723196079,-1.6666253805160522,-0.5118906497955322,-0.3728456497192383,2,107,0,0
21.9,1788526120719,0.0,2.197183132171631,0.0016061950009316,-0.0043791527859866,0.963271141052246,0.2684903740882873,-0.0024285721941279,-0.0038482560685864,-4.1723356776857526e-07,0.0035223311278969,-0.0038687950000166,-0.0272907987236976,0.0004775393754243,-0.0047786096110939,0.8567225933074951,0.5157551765441895,-0.0015187678054817,-0.008777451697405,0.1186490612438052,0.7078961730003357,0.4142107963562011,0.0089368820190429,209,253,5191,11398
22.0,1788526120819,0.2816901504993438,4.929577350616455,0.0016690982738509,-0.0044745178893208,0.9656503796577454,0.2598009705543518,0.0473439084183595,0.0021309918273316,-4.115444092446327e-06,-5.546201282413677e-05,0.0012454506941139,0.3807061612606048,0.0005614208057522,-0.0047836666926741,0.8682723641395569,0.4960645139217376,0.0074789508765597,-0.0078406914572205,0.633014602817098,0.1045842170715332,-0.0092082619667053,0.0185251235961914,231,190,5430,16431
22.1,1788526120919,0.6760563254356384,7.154929637908936,0.0018216382013633,-0.0044290963560342,0.9757631421089172,0.2187771648168563,0.0941716896178118,4.046229595588533e-05,1.8310993142403483e-05,0.0033177239820361,-0.0032717827707529,0.7846840023994446,0.0004991041496396,-0.0047696717083454,0.8862723112106323,0.4631397724151611,-0.0008028838477112,0.0007923336452379,0.880440806961554,0.4812764525413513,0.1826990842819214,-0.1144361495971679,598,233,15126,23186
22.2,1788526121019,1.9154930114746092,8.647887229919434,0.0014812229201197,-0.0048571527004241,0.984973967075348,0.1726283282041549,0.1425464340930992,-0.0048456165885333,-2.936446347219764e-06,-0.0118326814845204,0.002414605114609,1.0899989604949951,0.0004618950188159,-0.0051021864637732,0.9104631543159484,0.4135585129261017,0.0113295280813193,-0.0265195342968952,1.1569972816069647,-0.0184019804000854,0.2580662369728088,-0.8658819198608398,663,59,19224,22943
22.3,1788526121119,2.05633807182312,8.338027954101562,0.0002871478209272,-0.0058563570491969,0.9927465915679932,0.1200824230909347,0.1758101537038701,-0.0063635485652164,1.1647999337093903e-05,-0.0355832017958164,0.0390292629599571,0.9972174763679504,-0.0025427192449569,-0.0060144383460283,0.9332976937294006,0.3590443432331085,-0.0239548828382312,0.0298630435878016,0.9662089323184644,0.0086531043052673,-0.048057734966278,-0.6005430221557617,561,96,17434,22890
22.4,1788526121219,1.7183098793029783,8.450704574584961,-0.0015181072521954,-0.0065180887468159,0.9970151782035828,0.0769155174493789,0.1848615382962316,-0.0074171339400059,-0.0001724820924801,-0.0071511692367494,0.0305765885859727,0.9922975897789,-0.0025144899263978,-0.0061949519440531,0.9483506083488464,0.3171538710594177,-0.0067715887736999,-0.0227352989005055,0.9411822603314508,0.2047120332717895,-0.075857937335968,0.9415283203125,497,105,17185,21972
22.5,1788526121319,2.0,8.28169059753418,-0.0006894665420986,-0.0060485606081783,0.999616265296936,0.0270229689776897,0.1799306965971485,-0.0103808435950229,4.216040950588571e-05,0.0231677815318107,-0.007639919873327,1.0099047422409058,-0.0027559511363506,-0.0059219589456915,0.9652099013328552,0.2613948285579681,-0.0105291951309143,0.0285759913178338,1.0457716208413437,-0.1073454618453979,-0.0143156647682189,0.7280778884887695,495,81,15172,20962
22.6,1788526121419,1.436619758605957,5.014084339141846,0.0009510674863122,0.0067099379375576,-0.9996576905250548,0.025268318131566,0.1721837909039099,-0.0039631452291654,-0.0001234865205796,-0.0106088174507021,0.0093590728938579,0.9550872445106506,-0.0024662548676133,-0.0067588053643703,0.974420964717865,0.224615529179573,-0.0153286048423556,-0.0164850579998171,0.6979855218348087,-0.6294582486152649,-0.1145411729812622,-0.419778823852539,424,65,12034,11866
22.7,1788526121519,0.6197183132171631,2.619718313217163,0.0005500768311321,0.0075631784275174,-0.9983044266700744,0.057713471353054,0.1007227938570602,-0.0016060604111495,1.3929155783533567e-06,-0.0164333563297987,-0.0039484864100813,0.5303985476493835,-0.0024225898087024,-0.0070517137646675,0.9790619611740112,0.2034261375665664,0.006555367308677,-0.002976579001881,0.3972909176682807,-0.6617934107780457,0.1005081534385681,0.3611202239990234,453,45,8463,3510
22.8,1788526121619,0.0,0.0,0.0002054461510851,0.00742410402745,-0.9972770810127258,0.0733700394630432,0.0416878012443872,-0.0025013773551759,9.988134671282093e-06,-0.0014128752518445,-0.0142090274021029,0.2664129436016083,-0.0022239368408918,-0.0071296384558081,0.980824887752533,0.1947480291128158,0.000502649576803,0.0004144379416853,-0.0179770613886723,-0.8376936912536621,0.0503737926483154,0.1657533645629882,346,0,0,0
22.9,1788526121719,0.0,-0.0845070406794548,2.160517033189535e-05,0.0074637182988226,-0.997200846672058,0.0743953064084053,-0.0059897872054658,-0.0006788405531786,-1.60913037722338e-06,-0.0010818503797054,-0.0045983842574059,-0.0640804469585418,-0.001969477161765,-0.0071804923936724,0.9802989959716796,0.1973788887262344,0.0003029701257792,-0.009192369536916,-0.0344492480833931,0.3820822834968567,0.1459532380104065,0.1162128448486328,2,0,0,0
23.0,1788526121819,0.0,0.0,3.760796971619129e-05,0.0074507938697934,-0.9973087906837464,0.0729360654950141,-0.0006040669380679,0.001950590212091,1.9858106844443856e-06,4.0359671402256936e-05,-0.0017325669759884,-0.0114897238090634,-0.0020380523055791,-0.0071880174800753,0.9803529977798462,0.1971094161272049,-0.0004136046695614,0.0002453919526975,-0.0034734881616714,-0.0527222156524658,-0.0867390632629394,0.0598964691162109,0,0,0,0
23.1,1788526121919,0.0,0.0,3.760796971619129e-05,0.0074507938697934,-0.9973087906837464,0.0729360654950141,-0.0001935681226504,-0.0002027326588047,-8.542306271952706e-07,0.0,4.362601946361621e-10,0.0,-0.0019350228831171,-0.0072019817307591,0.9803279638290404,0.1972346603870391,0.0002683439299146,-0.0003212888801374,0.0013252405415211,-0.0419676899909973,0.0858317613601684,0.0216732025146484,0,0,0,0
23.2,1788526122019,0.0,0.0,3.760796971619129e-05,0.0074507938697934,-0.9973087906837464,0.0729360654950141,0.0,0.0,0.0,0.0,5.330570984618531e-10,0.0,-0.0019042659550905,-0.0071874745190143,0.98033207654953,0.1972151696681976,0.0001208136743778,0.000264725227005,-0.0007301619959321,-0.0551573634147644,0.0314515233039855,0.0355796813964843,0,0,0,0
23.3,1788526122119,0.0,0.0,-0.0001033824519254,0.0074426806531846,-0.9973199367523192,0.0727839022874832,-6.008614781622923e-05,6.8994672786509e-05,9.711515747277512e-07,-0.0003148593532387,-0.0001628081954549,-0.0006723615806549,-0.0019131582230329,-0.0071948645636439,0.9803385138511658,0.1971827745437622,-8.620953719533837e-05,-0.00032418032022,0.0014984786979041,-0.0406417846679687,0.0549755096435546,0.0358333587646484,0,0,0,0
23.4,1788526122219,0.0,0.0,-0.0001059601781889,0.0074590388685464,-0.99731707572937,0.0728215798735618,-1.593111876340603e-05,2.1412069280334444e-05,3.0368863598008426e-07,-0.0006371248164214,-0.0007622787379659,-0.0002093707589665,-0.0019042827188968,-0.0072218487039208,0.9803358912467957,0.1971947699785232,-0.0004208306405574,0.0007296633272356,8.404082256631216e-05,-0.0624817609786987,0.0626322031021118,0.0375585556030273,0,0,0,0
23.5,1788526122319,0.0,0.0,-0.0001206946035381,0.007449968252331,-0.9973154067993164,0.072845734655857,6.563165558483414e-05,-7.694182835740712e-05,-1.088755862833354e-06,0.0003064053598791,-0.0005635569104924,0.0007525132969021,-0.0018222955986857,-0.0072188582271337,0.9803407788276672,0.1971714496612548,-0.0006097610129579,-0.0027937042825365,-0.0001163334744361,-0.0406080484390258,0.0605623126029968,0.0233097076416015,0,0,0,0
23.6,1788526122419,0.0,0.0,-0.0002066187153104,0.0074582332745194,-0.9973171353340148,0.0728208348155021,-7.049537969382474e-05,8.095969438850921e-05,1.1530036314487542e-06,-0.0008310307748615,-0.0012605225201696,-0.0008569578640162,-0.0017863260582089,-0.0072323000058531,0.9803377389907836,0.1971859782934188,0.000277714025703,-0.0018997224428443,-0.0002827044600033,-0.012028694152832,0.0173299312591552,-0.0019311904907226,0,0,0,0
23.7,1788526122519,0.0,0.0,-0.0002216917928308,0.0074719763360917,-0.9973172545433044,0.0728174075484275,-1.4707523672833656e-05,1.976727617368705e-05,2.844122979329296e-07,-0.00066012237221,-0.0004667862667702,-0.0001914376625791,-0.0017898259684443,-0.0072500882670283,0.9803422689437866,0.1971628367900848,0.0007932075642632,-0.0003229862153218,0.0018514429229975,-0.0046613216400146,0.0028212666511535,-0.0088453292846679,0,0,0,0
23.8,1788526122619,0.0,0.0,-0.0001579822273924,0.0073819141834974,-0.99731707572937,0.0728303268551826,-7.174496152588437e-06,5.007920399631515e-06,7.009767133685385e-08,0.0031423934269696,0.0016747061163187,-3.790712071349844e-05,-0.0019691567867994,-0.0069254664704203,0.9803365468978882,0.1972015053033828,0.0061676779988304,0.0067796499297062,-0.0010502061399449,0.0258395075798034,0.0039412379264831,0.014723777770996,0,0,0,0
23.9,1788526122719,0.0,0.0,0.0002159461728297,0.0070459628477692,-0.9973198175430298,0.0728257969021797,5.752375829526159e-05,-6.60549768173636e-05,-8.833549130861459e-07,0.0066251046955585,0.0065163448452949,0.0007529620197601,-0.0021348372101783,-0.0066068060696125,0.98034006357193,0.1971933543682098,0.0052005803657407,0.0029514998400356,-0.0006970325480108,0.0253354310989379,0.0235389471054077,0.0078611373901367,0,0,0,0
24.0,1788526122819,0.0,0.0,0.0004129499429836,0.0068412576802074,-0.9973226189613342,0.0728053152561187,-3.0356550343351883e-05,3.3897140875450497e-05,4.168483875616744e-07,0.0037920956965535,0.0050560543313622,-0.0002570866199675,-0.0023706229403615,-0.0062161237001419,0.9803487062454224,0.1971601098775863,0.0065933690475684,0.0044755595246373,0.0006987055811246,-0.0262877941131591,-0.0201938152313232,0.0238676071166992,0,0,0,0
24.1,1788526122919,0.0,0.0,0.0007060056086629,0.0064966781064867,-0.9973213076591492,0.0728526264429092,2.7190651628281267e-05,-2.838096112406314e-05,-3.220158887606789e-07,0.0067258249036967,0.0042269974946975,0.000361967657227,-0.0024899737909436,-0.0059621846303343,0.9803483486175536,0.197168081998825,0.0042619760448245,0.0038364816379867,-0.0001975027696094,0.0166674852371215,-0.0237972736358642,-0.0084609985351562,0,0,0,0
24.2,1788526123019,0.0,0.0,0.0008432557806372,0.0063250339590013,-0.9973209500312804,0.0728714540600776,8.568424169010916e-05,-0.0001010353363671,-1.0716054133847271e-06,0.0037731318734586,0.0018368093296885,0.0010296066757291,-0.0025344975292682,-0.0057488018646836,0.9803537130355836,0.1971475630998611,0.0049876491454766,0.0018275984426764,-0.0007498783956598,0.0078360438346862,0.0195306539535522,-0.0031328201293945,0,0,0,0
24.3,1788526123119,0.0,0.0,0.0010166325373575,0.0060914307832717,-0.9973226189613342,0.0728656202554702,4.096906042382237e-05,-4.9419434727963537e-05,-4.925790759905038e-07,0.0046505481004714,0.0035916508641093,0.0005016113864257,-0.0026771333068609,-0.00545334815979,0.9803532361984252,0.1971565783023834,0.0039170710368693,0.0030485457110573,-0.000732392048788,-0.020840048789978,-0.0129762887954711,0.0120143890380859,0,0,0,0
24.4,1788526123219,0.0,0.0,0.0011254259152337,0.0059236194938421,-0.99732506275177,0.0728447064757347,-7.048932520523578e-05,8.096357428346485e-05,7.365934386166065e-07,0.0032308255322277,0.0005469802417792,-0.0008143470622599,-0.0027506183832883,-0.0052969064563512,0.9803532361984252,0.1971598118543625,0.0030205267586267,0.0044751340210741,0.0008529603616368,-0.0132156610488891,-0.0011724233627319,-0.0318326950073242,0,0,0,0
24.5,1788526123319,0.0,0.0,0.0013293037191033,0.0057647894136607,-0.997324287891388,0.072864718735218,6.115125209839549e-05,-6.964884564783285e-05,-6.074418463730986e-07,0.0033789938315749,0.0042618634179234,0.000758740468882,-0.0028563477098941,-0.0051505407318472,0.9803560376167296,0.1971478760242462,0.0026709323520803,0.0026041574772236,3.888993088088824e-05,0.0090923309326171,0.0028868913650512,0.0052852630615234,0,0,0,0
24.6,1788526123419,0.0,0.0,0.0014377443585544,0.0056695835664868,-0.9973245859146118,0.0728654786944389,0.0,0.0,0.0,0.0020514442585408,0.0020303349010646,3.064897464355454e-05,-0.0029686763882637,-0.0049822675064206,0.9803568720817566,0.1971468776464462,0.0024034018824408,0.002455468329508,3.568145556406683e-05,0.0201532840728759,0.0072994232177734,-0.0183162689208984,0,0,0,0
24.7,1788526123519,0.0,0.0,0.0015703905373811,0.0055569028481841,-0.9973250031471252,0.0728665515780448,0.0,0.0,0.0,0.0036765069235116,0.0037527128588408,5.593597961706109e-05,-0.0030419928953051,-0.0048741837963461,0.98035728931427,0.1971461772918701,0.0019631074547662,0.0019908357294395,3.199957088420625e-05,-0.0324565172195434,0.0196929574012756,0.0266246795654296,0,0,0,0
24.8,1788526123619,0.0,0.0,0.00165496324189,0.0054848785512149,-0.9973252415657043,0.0728671997785568,0.0,0.0,0.0,0.0013287203619256,0.0013447061646729,1.976823841687292e-05,-0.003108724951744,-0.004776113666594,0.9803577065467834,0.1971455812454223,0.0018057051538923,0.0018625076695341,2.817720022619917e-05,-0.0066063404083251,0.0140228271484375,0.010894775390625,0,0,0,0
24.9,1788526123719,0.0,0.0,0.0017806062242016,0.005379763431847,-0.9973255395889282,0.0728681981563568,0.0,0.0,0.0,0.002009104238823,0.0020828898996114,3.238792123738676e-05,-0.0031775934621691,-0.004677265882492,0.980358064174652,0.1971449255943298,0.0015896339893303,0.0016856509315258,2.693132961864745e-05,-0.0041983127593994,0.0177347660064697,-0.0172843933105468,0,0,0,0
25.0,1788526123819,0.0,0.0,0.0018503392348065,0.0053230081684887,-0.997325599193573,0.0728687718510627,0.0,0.0,0.0,0.001241207239218,0.0013161320239305,2.14724332181504e-05,-0.0032335743308067,-0.0045981435105204,0.980358362197876,0.1971443593502044,0.001354911687147,0.0014350753205216,2.1834277097331244e-05,-0.0150732398033142,0.0212551355361938,-0.0010356903076171,0,0,0,0
25.1,1788526123919,0.0,0.0,0.0019352354574948,0.0052553159184753,-0.997325837612152,0.0728693902492523,0.0,0.0,0.0,0.0021764968987554,0.0023787540849298,3.4276767109986395e-05,-0.0033035306259989,-0.0045030312612652,0.9803587794303894,0.1971436887979507,0.0010695743087892,0.0011738166697764,1.906762457902121e-05,-0.0139263868331909,-0.0032799243927001,0.023777961730957,0,0,0,0
25.2,1788526124019,0.0,0.0,0.001987969269976,0.0052139186300337,-0.997325837612152,0.0728699043393135,0.0,0.0,0.0,0.0007552890456281,0.0008234499837271,1.387721385981422e-05,-0.0033431528136134,-0.0044480022042989,0.980358898639679,0.1971433460712433,0.0009962599091758,0.0010575532283545,1.5072461273526044e-05,0.0126970410346984,0.0004450678825378,0.0075941085815429,0,0,0,0
25.3,1788526124119,0.0,0.0,0.0020587826147675,0.0051551656797528,-0.9973260164260864,0.0728703290224075,0.0,0.0,0.0,0.001114840619266,0.0011308253742754,1.5025319953565486e-05,-0.003375387750566,-0.0043988479301333,0.9803590178489684,0.1971430778503418,0.0008987891504091,0.0008641493634794,1.3929496286322108e-05,-0.0093507170677185,-0.02484792470932,0.0032224655151367,0,0,0,0
25.4,1788526124219,0.0,0.0,0.0020947351586073,0.0051226974464952,-0.9973260760307312,0.0728705301880836,0.0,0.0,0.0,0.0006915509584359,0.0006596620078198,6.461555585701717e-06,-0.0034031039103865,-0.0043547023087739,0.980359137058258,0.1971428394317627,0.0007593784854784,0.0007148699994883,1.1201291455496524e-05,0.0032018423080444,0.0272571444511413,-2.384185791015625e-05,0,0,0,0
25.5,1788526124319,0.0,0.0,0.0021380868274718,0.0050832419656217,-0.9973260760307312,0.0728708654642105,0.0,0.0,0.0,0.0012542316690087,0.00119469454512,1.669860830588732e-05,-0.0034385472536087,-0.0043007778003811,0.9803593754768372,0.1971426159143448,0.000606392340301,0.000644480866351,6.653479070620793e-06,0.0124701857566833,-0.0081097483634948,-0.0101385116577148,0,0,0,0
25.6,1788526124419,0.0,0.0,0.0021667946130037,0.0050595770590007,-0.9973261952400208,0.0728709399700164,0.0,0.0,0.0,0.0004352099495008,0.0004710264911409,4.612906195688993e-06,-0.0034616868942976,-0.0042697638273239,0.9803593754768372,0.197142481803894,0.0005554309828274,0.0006322695555681,6.997681114197763e-06,-0.0053851008415222,-0.0261610746383667,0.010772705078125,0,0,0,0
25.7,1788526124519,0.0,0.0,0.0022096147295087,0.005027329083532,-0.9973262548446656,0.0728711783885955,0.0,0.0,0.0,0.0006345779984258,0.000737322086934,7.2115935836336575e-06,-0.0034832786768674,-0.0042422330006957,0.9803594946861268,0.1971423774957656,0.0004849740023988,0.0005674789167459,6.97812704072446e-06,-0.0070664286613464,0.0189228057861328,-0.007145881652832,1,0,0,0
25.8,1788526124619,0.0,0.0,0.0022329716011881,0.0050097415223717,-0.9973263144493104,0.0728713497519493,0.0,0.0,0.0,0.0003787984605878,0.000427380669862,7.5341781666793395e-06,-0.0035020858049392,-0.0042157182469964,0.9803596138954164,0.1971422731876373,0.0005248409230333,0.000509222405336,7.0361664577729526e-06,0.0036280155181884,-0.0196210145950317,0.001591682434082,0,0,0,0
25.9,1788526124719,0.0,0.0,0.0022608032450079,0.0049830242060124,-0.9973263740539552,0.0728715285658836,0.0,0.0,0.0,0.0008959661936387,0.0007729966309852,1.270592383662006e-05,-0.0035232892259955,-0.0041770339012146,0.9803597331047058,0.1971421092748642,0.0004758768033079,0.0003948352069332,6.474790188236536e-06,0.0037257075309753,-0.0434152483940124,-0.0125999450683593,0,0,0,0
26.0,1788526124819,0.0,0.0,0.0022723346482962,0.0049710148014128,-0.9973263740539552,0.0728715434670448,0.0,0.0,0.0,0.0,0.0,0.0,-0.0035376818850636,-0.0041534872725605,0.9803597331047058,0.1971419751644134,0.0004108628957902,0.0004184944802898,5.983288427766741e-06,-0.010211706161499,-0.0015490055084228,-0.0265188217163085,0,0,0,0
26.1,1788526124919,0.0,0.0,0.0023087495937943,0.0049396120011806,-0.9973264932632446,0.0728717446327209,0.0,0.0,0.0,0.000451355415862,0.0005161332665011,5.313971087161917e-06,-0.0035538980737328,-0.0041333381086587,0.9803598523139954,0.1971418708562851,0.0003594482060132,0.0004478877556707,4.977041914413945e-06,-0.0168433785438537,-0.0392338633537292,-0.024306297302246,0,0,0,0
26.2,1788526125019,0.0,0.0,0.0023275886196643,0.0049279518425464,-0.9973264336586,0.0728719159960746,0.0,0.0,0.0,0.0004434451693668,0.0006118336459621,9.910809239954688e-06,-0.0035771680995821,-0.0041115991771221,0.9803598523139954,0.1971416920423507,0.0002680379055269,0.0004516536056246,5.985214524432226e-06,-0.0038313269615173,0.0057712793350219,-0.0062427520751953,4,0,0,0
26.3,1788526125119,0.0,0.0,0.002346406225115,0.0049188393168151,-0.9973264336586,0.0728719681501388,0.0,0.0,0.0,0.0004031687276437,0.0006978044984862,6.318302439467516e-06,-0.00357729755342,-0.0040889717638492,0.9803608059883118,0.1971375495195388,0.0008822114100768,-0.000562261223305,0.0002754927121072,0.0085459947586059,0.006805419921875,-0.0128736495971679,0,0,0,0
26.4,1788526125219,0.0,0.0,0.0023502693511545,0.0048982636071741,-0.9973262548446656,0.0728762149810791,0.0,0.0,0.0,0.0,0.0,0.0,-0.0036142189055681,-0.0040598455816507,0.980353832244873,0.1971722394227981,0.0007674775817218,0.0010426499470235,-0.0001719109298724,0.0029929280281066,-0.0117210149765014,0.0020332336425781,1,0,0,0
26.5,1788526125319,0.0,0.0,0.0023779687471687,0.0048361206427216,-0.9973288178443908,0.0728446617722511,1.5613864827792758e-05,-1.6751531566136393e-05,-7.189477558124543e-08,0.0015104080084711,-0.00050534598995,0.0001631725754123,-0.0036192797124385,-0.0040301857516169,0.9803509712219238,0.197186604142189,-0.0012936508813602,0.0024580988769102,-0.0005463184225487,-0.0009426474571228,0.0129635334014892,-0.0172843933105468,1,0,0,0
26.6,1788526125419,0.0,0.0,0.0024041458964347,0.0048375320620834,-0.9973289370536804,0.072841927409172,-6.823883394842748e-06,9.1728739610518e-06,4.813497112474231e-08,1.717897248454392e-05,0.0008891617762856,-8.842117676977068e-05,-0.0035845935344696,-0.0040128286927938,0.980350911617279,0.1971877515316009,0.0006212871977775,-0.0006832110774618,-0.0008821299423842,-0.003039002418518,-0.0107438564300537,-0.0150327682495117,1,0,0,0
26.7,1788526125519,0.0,0.0,0.0023820851929485,0.0048171547241508,-0.9973310232162476,0.0728153735399246,-8.871682338242162e-05,0.0001026658533922,4.6675442172939613e-07,0.0007357438444159,-0.0009147977689281,-0.0010450038826093,-0.0036348141729831,-0.0039703454822301,0.9803533554077148,0.1971755474805832,0.0001347940095406,0.0018786656428827,0.0008752439105484,0.0011509656906127,-0.011294662952423,0.0621585845947265,112,297,3835,9845
26.8,1788526125619,0.7042253613471985,3.690140962600708,0.0023122166749089,0.0048377574421465,-0.9971726536750792,0.0749527812004089,0.0102158955039896,-0.0048171167080088,1.6384586578914703e-06,-0.0025679327081888,-0.00600625295192,0.0959594771265983,-0.0032360637560486,-0.0040763281285762,0.9832467436790466,0.1822057068347931,0.0049326134783467,-0.0081753047181705,0.4665404315459061,0.3309717178344726,0.2119529843330383,-0.0438699722290039,671,183,13428,13656
26.9,1788526125719,2.11267614364624,6.14084529876709,0.0022640563547611,0.0047992747277021,-0.9950079917907716,0.0996536165475845,0.0894741612029897,-0.0008348059294467,1.1291816037710022e-05,0.0009227363043464,0.003702619113028,0.4637599885463714,-0.0035732416436076,-0.0033931750804185,0.9870221614837646,0.1605086326599121,0.0371146403471475,0.0048019948306738,0.588903508918629,0.6653608083724976,0.2869107723236084,0.1849374771118164,567,173,17377,19375
27.0,1788526125819,3.9718310832977295,7.267605781555176,0.0045684385113418,0.0030635930597782,-0.992090106010437,0.1254066526889801,0.1568864745189493,-0.001048791284978,-0.0001621271478437,0.0468787439167499,0.0614679530262947,0.5657200217247009,-0.0065868701785802,-0.0003474727272987,0.990776002407074,0.1353494971990585,0.0620678685849774,0.0790170189378665,0.5430215582686062,0.1886202096939087,0.3956729173660278,-0.5442266464233398,216,61,14805,19156
27.1,1788526125919,3.549295663833618,6.788732528686523,0.0054891407489776,0.0017111041815951,-0.9885600209236144,0.1507187336683273,0.1923671800209915,0.0059777057631599,-0.0001341501341055,0.0127176810055971,-0.0493244230747222,0.4908521771430969,-0.0066081825643777,0.0010261991992592,0.9943296313285828,0.106131412088871,0.0697837404253655,0.061272620903405,0.4647156221628554,-0.5130459070205688,0.2656441330909729,-1.1975078582763672,204,101,12358,19399
27.2,1788526126019,3.380281686782837,6.873239517211914,0.0046958741731941,0.001059795031324,-0.9849137663841248,0.1729790568351745,0.1767500926204356,0.0057357218339537,0.0002451534238261,-0.0259293094277381,-0.092400386929512,0.5085911750793457,-0.0048241652548313,-0.0007877815514802,0.9965029954910278,0.0834143534302711,-0.0281792050974982,-0.0513372621887726,0.5412787331080103,-0.0744761228561401,0.179535686969757,-0.08587646484375,83,125,10502,19292
27.3,1788526126119,3.802816867828369,6.676056385040283,0.0042557884007692,0.0019329101778566,-0.979075014591217,0.203446164727211,0.173924922045083,-0.0030810973840336,-3.747150002412229e-05,-0.0026231706142425,-0.0119683528319001,0.5631874799728394,-0.0047859707847237,-0.0010438412427902,0.998221218585968,0.0594180598855018,-0.0241625408855253,0.0093846956933072,0.4679478621467701,-0.4192138910293579,0.0734513401985168,-0.1928644180297851,67,66,11087,17579
27.4,1788526126219,3.492957830429077,6.422535419464111,0.0041945548728108,0.002839932218194,-0.9744753241539,0.2244374454021453,0.1672777463266432,0.0043909858774824,4.923269986530741e-05,-0.0144930044189095,0.0044816574081778,0.4422335922718048,-0.0048855878412723,-0.0018317820504307,0.999278485774994,0.0376204214990139,-0.0095013020118271,0.0078468855665968,0.4461378643056303,0.3429497480392456,0.059126853942871,-0.5782556533813477,206,20,14323,16239
27.5,1788526126319,4.253520965576172,6.253520965576172,0.002482958137989,0.004278558306396,-0.97010737657547,0.2426253110170364,0.180865165013257,-0.0040604091220494,9.555831310034084e-05,-0.0504257529973983,-0.0571493059396743,0.3425507843494415,-0.001939607784152,-0.005704085342586,0.9998356103897096,0.0171010512858629,-0.0927920412349264,-0.0628908594876497,0.3485885670993724,-0.2899032831192016,0.5766334533691406,0.308964729309082,100,64,10913,16858
27.6,1788526126419,3.323943614959717,6.11267614364624,-0.0006241371156647,0.0064212940633296,-0.966163158416748,0.2578509747982025,0.1641033595613734,0.0054699686893233,0.0001066141313355,-0.0411943681538105,-0.0511375144124031,0.3667813539505005,0.0007293317466974,0.0060672350227832,-0.9999789595603944,0.0022114757448434,0.03259616767685,0.0440324241506333,0.4433333840163858,1.085228681564331,-0.1541393995285034,0.4234161376953125,474,144,19051,18073
27.7,1788526126519,3.436619758605957,6.2816901206970215,0.0004129009321331,0.0055551421828567,-0.9601776599884032,0.279334545135498,0.1687928106779571,0.0030258925119173,-0.0001903690420357,0.0372880809009075,0.052091334015131,0.427637904882431,0.0020075822249054,0.0049110371619462,-0.9997639656066896,0.0210667662322521,0.0139468993062393,-0.0043578346178477,0.4025828608950293,0.1405121088027954,-0.4080607891082763,-0.5163660049438477,484,93,20670,17447
