time_s,timestamp_ms,wheel_vels__velocity_left,wheel_vels__velocity_right,odom__orient_x,odom__orient_y,odom__orient_z,odom__orient_w,odom__lin_x,odom__lin_y,odom__lin_z,odom__ang_x,odom__ang_y,odom__ang_z,imu__orient_x,imu__orient_y,imu__orient_z,imu__orient_w,imu__angvel_x,imu__angvel_y,imu__angvel_z,imu__acc_x,imu__acc_y,imu__acc_z,wheel_status__current_ma_left,wheel_status__current_ma_right,wheel_status__pwm_left,wheel_status__pwm_right
0.0,1788522949437,0.0,0.0,-0.0024065114557743,0.0012095379643142,0.2502186596393585,0.9681856632232666,1.7975044306634814e-05,-2.089917685375949e-05,4.447547606976485e-10,-0.0005739501793868,0.0011525321751832,0.0002164654724765,-0.0023623164743185,0.001307581551373,0.2117915153503418,0.9773111343383788,-0.0003363718872903,0.0007044261929148,-0.000433944708448,0.0106616020202636,-0.0126040577888488,-0.0181646347045898,0,0,0,0
0.1,1788522949537,0.0,0.0,-0.0024240629281848,0.0012209101114422,0.2502013146877289,0.96819007396698,-4.792139045511307e-05,5.5751294555955726e-05,-1.6239588865453383e-10,-0.0004366124339867,0.000477517285617,-0.0005535405362024,-0.0023935623466968,0.001345332711935,0.2117693275213241,0.9773159027099608,-0.0007003645317932,0.0023648785989187,-0.0007846542816973,-0.0300233364105224,-0.0250182747840881,0.0228118896484375,0,0,0,0
0.2,1788522949637,0.0,0.0,-0.0024240629281848,0.0012209101114422,0.2502013146877289,0.96819007396698,-4.792139045511307e-05,5.5751294555955726e-05,-1.6239588865453383e-10,-0.0004366124339867,0.000477517285617,-0.0005535405362024,-0.0023935623466968,0.001345332711935,0.2117693275213241,0.9773159027099608,-0.0007003645317932,0.0023648785989187,-0.0007846542816973,-0.0300233364105224,-0.0250182747840881,0.0228118896484375,0,0,0,0
0.3,1788522949737,0.0,0.0,-0.0024240629281848,0.0012209101114422,0.2502013146877289,0.96819007396698,-4.792139045511307e-05,5.5751294555955726e-05,-1.6239588865453383e-10,-0.0004366124339867,0.000477517285617,-0.0005535405362024,-0.0023935623466968,0.001345332711935,0.2117693275213241,0.9773159027099608,-0.0007003645317932,0.0023648785989187,-0.0007846542816973,-0.0300233364105224,-0.0250182747840881,0.0228118896484375,0,0,0,0
0.4,1788522949837,0.0,0.0,-0.002475352725014,0.0012199790216982,0.2502485811710357,0.9681776762008668,0.0,0.0,0.0,0.0,0.0,0.0,-0.0023781098425388,0.0012800963595509,0.2118643969297409,0.9772953987121582,0.0010966899210298,-0.0023671901888722,0.0013631717178653,-0.0221151709556579,-0.0015081763267517,-0.0021533966064453,0,0,0,0
0.5,1788522949937,0.0,0.0,-0.002475352725014,0.0012199790216982,0.2502485811710357,0.9681776762008668,0.0,0.0,0.0,0.0,0.0,0.0,-0.0024018613621592,0.0012956792488694,0.2118109464645385,0.9773069024086,-0.0015267855296692,0.0018998310746634,-0.0019801249037822,0.0053537487983703,-0.0027754306793212,-0.0217599868774414,0,0,0,0
0.6,1788522950037,0.0,0.0,-0.002475352725014,0.0012199790216982,0.2502485811710357,0.9681776762008668,0.0,0.0,0.0,0.0,0.0,0.0,-0.0024306206032633,0.0013147331774234,0.2118232697248459,0.9773041009902954,-0.0004322920168356,0.0003035235831355,-0.0002903443869533,0.0072847008705139,-0.0045551061630249,0.0429019927978515,3,0,0,0
0.7,1788522950137,0.0,0.0,-0.002475352725014,0.0012199790216982,0.2502485811710357,0.9681776762008668,0.0,0.0,0.0,0.0,0.0,0.0,-0.0024419333785772,0.0012868214398622,0.2118517011404037,0.977297842502594,-0.0003626102497062,-0.0023897547761654,0.0012935967060665,0.0052657127380371,0.008634865283966,0.0016736984252929,0,0,0,0
0.8,1788522950237,0.0,0.0,-0.0024883630685508,0.0011942868586629,0.2502728104591369,0.9681714177131652,0.0,0.0,0.0,0.0,0.0,0.0,-0.0024833120405673,0.0013225944712758,0.2118520736694336,0.9772977232933044,-0.0003253200868513,0.0019007654866187,0.0019060746264302,-0.03171306848526,-0.0250207185745239,0.0245590209960937,0,0,0,0
0.9,1788522950337,0.0,0.0,-0.0024883630685508,0.0011942868586629,0.2502728104591369,0.9681714177131652,0.0,0.0,0.0,0.0,0.0,0.0,-0.0024846224114298,0.0013665594160556,0.2118363231420517,0.9773010015487672,-0.0002794351108476,-2.5768521144131157e-05,-0.0003699618415049,-0.0236214399337768,-0.0089902281761169,0.0193243026733398,0,0,0,0
1.0,1788522950437,0.0,0.0,-0.0024883630685508,0.0011942868586629,0.2502728104591369,0.9681714177131652,0.0,0.0,0.0,0.0,0.0,0.0,-0.0024894792586565,0.00132392719388,0.2118647396564483,0.977294921875,-0.000659700519762,-0.0010840819960116,-0.0013062808499602,0.0151845812797546,-0.0104449987411499,0.0069694519042968,0,0,0,0
1.1,1788522950537,0.0,0.0,-0.0024883630685508,0.0011942868586629,0.2502728104591369,0.9681714177131652,0.0,0.0,0.0,0.0,0.0,0.0,-0.0024858498945832,0.001341501250863,0.2118731886148452,0.977293074131012,0.0004429135997211,0.0004011528995735,0.0012819872264799,0.0084745287895202,0.0147172808647155,-0.0162458419799804,0,0,0,0
1.2,1788522950637,0.0,0.0,-0.0024883630685508,0.0011942868586629,0.2502728104591369,0.9681714177131652,0.0,0.0,0.0,0.0,0.0,0.0,-0.0024858498945832,0.001341501250863,0.2118731886148452,0.977293074131012,0.0004429135997211,0.0004011528995735,0.0012819872264799,0.0084745287895202,0.0147172808647155,-0.0162458419799804,0,0,0,0
1.3,1788522950737,0.0,0.0,-0.0024883630685508,0.0011942868586629,0.2502728104591369,0.9681714177131652,0.0,0.0,0.0,0.0,0.0,0.0,-0.0024858498945832,0.001341501250863,0.2118731886148452,0.977293074131012,0.0004429135997211,0.0004011528995735,0.0012819872264799,0.0084745287895202,0.0147172808647155,-0.0162458419799804,0,0,0,0
1.4,1788522950837,0.0,0.0,-0.0024883630685508,0.0011942868586629,0.2502728104591369,0.9681714177131652,0.0,0.0,0.0,0.0,0.0,0.0,-0.0024858498945832,0.001341501250863,0.2118731886148452,0.977293074131012,0.0004429135997211,0.0004011528995735,0.0012819872264799,0.0084745287895202,0.0147172808647155,-0.0162458419799804,0,0,0,0
1.5,1788522950937,0.0,0.0,-0.0024883630685508,0.0011942868586629,0.2502728104591369,0.9681714177131652,0.0,0.0,0.0,0.0,0.0,0.0,-0.0025027506053447,0.0013415589928627,0.2118500620126724,0.9772980213165284,0.0004039147474062,0.0005035171624763,0.0008471381436159,-0.0022753477096557,-0.0155982971191406,-0.0039548873901367,0,0,0,0
1.6,1788522951037,0.0,0.0,-0.0024883630685508,0.0011942868586629,0.2502728104591369,0.9681714177131652,0.0,0.0,0.0,0.0,0.0,0.0,-0.0025027506053447,0.0013415589928627,0.2118500620126724,0.9772980213165284,0.0004039147474062,0.0005035171624763,0.0008471381436159,-0.0022753477096557,-0.0155982971191406,-0.0039548873901367,0,0,0,0
1.7,1788522951137,0.0,0.0,-0.0024883630685508,0.0011942868586629,0.2502728104591369,0.9681714177131652,0.0,0.0,0.0,0.0,0.0,0.0,-0.0025027506053447,0.0013415589928627,0.2118500620126724,0.9772980213165284,0.0004039147474062,0.0005035171624763,0.0008471381436159,-0.0022753477096557,-0.0155982971191406,-0.0039548873901367,0,0,0,0
1.8,1788522951237,0.0,0.0,-0.0024883630685508,0.0011942868586629,0.2502728104591369,0.9681714177131652,0.0,0.0,0.0,0.0,0.0,0.0,-0.0025027506053447,0.0013415589928627,0.2118500620126724,0.9772980213165284,0.0004039147474062,0.0005035171624763,0.0008471381436159,-0.0022753477096557,-0.0155982971191406,-0.0039548873901367,0,0,0,0
1.9,1788522951337,0.0,0.0,-0.0024883630685508,0.0011942868586629,0.2502728104591369,0.9681714177131652,0.0,0.0,0.0,0.0,0.0,0.0,-0.0024957014247775,0.0013218056410551,0.2118602842092514,0.9772958755493164,0.0005795219091222,-0.0003761834067024,0.0003044862470262,-0.0081406831741333,0.0003802180290222,0.0104990005493164,0,0,0,0
2.0,1788522951437,0.0,0.0,-0.0024883630685508,0.0011942868586629,0.2502728104591369,0.9681714177131652,0.0,0.0,0.0,0.0,0.0,0.0,-0.0025266129523515,0.0013148412108421,0.2118549793958664,0.9772969484329224,-0.0010131921144588,-0.0003778222826251,-0.0003299308229244,-0.0117248892784118,-0.0205504298210144,0.0085315704345703,0,0,0,0
2.1,1788522951537,0.0,0.0,-0.0024883630685508,0.0011942868586629,0.2502728104591369,0.9681714177131652,0.0,0.0,0.0,0.0,0.0,0.0,-0.0025004055351018,0.001321199350059,0.211852416396141,0.9772976040840148,0.0007759164408733,0.0015784240552268,-0.0014500781737116,0.013529896736145,-0.0012251734733581,-0.0073509216308593,0,0,0,0
2.2,1788522951637,0.0,0.0,-0.0024883630685508,0.0011942868586629,0.2502728104591369,0.9681714177131652,0.0,0.0,0.0,0.0,0.0,0.0,-0.0024812715128064,0.0013080239295959,0.2118527442216873,0.9772976040840148,0.0005491207846877,-0.0015395122628831,0.0016189056517633,-0.0120311379432678,0.0073376893997192,0.0069265365600585,0,0,0,0
2.3,1788522951737,0.0,0.0,-0.0024883630685508,0.0011942868586629,0.2502728104591369,0.9681714177131652,0.0,0.0,0.0,0.0,0.0,0.0,-0.0024812715128064,0.0013080239295959,0.2118527442216873,0.9772976040840148,0.0005491207846877,-0.0015395122628831,0.0016189056517633,-0.0120311379432678,0.0073376893997192,0.0069265365600585,0,0,0,0
2.4,1788522951837,0.0,0.0,-0.0024883630685508,0.0011942868586629,0.2502728104591369,0.9681714177131652,0.0,0.0,0.0,0.0,0.0,0.0,-0.0025083161890506,0.0013490309938788,0.2118319123983383,0.9773019552230836,-0.0009094802095663,0.0003801608525613,-0.0004869572928534,0.0032679438591003,-0.0156391859054565,0.0014514923095703,0,0,0,0
2.5,1788522951937,0.0,0.0,-0.0024883630685508,0.0011942868586629,0.2502728104591369,0.9681714177131652,0.0,0.0,0.0,0.0,0.0,0.0,-0.0025097643956542,0.0013887342065572,0.2118566036224365,0.9772965908050536,0.0003874076582012,0.0011454170289541,0.0007978373253472,-0.0228816866874694,0.0004094839096069,-0.0021839141845703,0,0,0,0
2.6,1788522952037,0.0,0.0,-0.0024883630685508,0.0011942868586629,0.2502728104591369,0.9681714177131652,0.0,0.0,0.0,0.0,0.0,0.0,-0.0025339126586914,0.0013804649934172,0.2118453383445739,0.9772989153862,0.0005683544570249,-2.532517925614924e-05,0.0011670003972506,-0.0049919486045837,0.0170472264289855,-0.0001688003540039,0,0,0,0
2.7,1788522952137,0.0,0.0,-0.0024883630685508,0.0011942868586629,0.2502728104591369,0.9681714177131652,0.0,0.0,0.0,0.0,0.0,0.0,-0.0025236476212739,0.0013716928660869,0.2118609994649887,0.9772955179214478,0.000588967987911,-0.001255524247749,-0.0002334414943458,-0.0285207629203796,-0.0010461211204528,-0.0058212280273437,0,0,0,0
2.8,1788522952237,0.0,0.0,-0.0024883630685508,0.0011942868586629,0.2502728104591369,0.9681714177131652,0.0,0.0,0.0,0.0,0.0,0.0,-0.0024891123175621,0.0013651922345161,0.2118845582008361,0.9772905707359314,0.0002139338365137,-0.0016372726035933,-0.0006167669585604,-0.0017465353012084,-0.0033686161041259,-0.0218467712402343,0,0,0,0
2.9,1788522952337,0.0,0.0,-0.0024883630685508,0.0011942868586629,0.2502728104591369,0.9681714177131652,0.0,0.0,0.0,0.0,0.0,0.0,-0.0024949591606855,0.0014308709651231,0.2118878066539764,0.9772897958755492,-0.0001272596333598,0.0006708906233991,0.0024353477566945,0.0047146677970886,0.0034320950508117,0.0087709426879882,0,0,0,0
3.0,1788522952437,0.0,0.0,-0.0024883630685508,0.0011942868586629,0.2502728104591369,0.9681714177131652,0.0,0.0,0.0,0.0,0.0,0.0,-0.002514443360269,0.0014238376170396,0.2118617594242096,0.9772953987121582,-0.0003600801022937,0.0006079581697686,-0.0004912869976509,-0.0042791366577148,-0.0266887545585632,0.0085039138793945,0,0,0,0
3.1,1788522952537,0.0,0.0,-0.0024883630685508,0.0011942868586629,0.2502728104591369,0.9681714177131652,0.0,0.0,0.0,0.0,0.0,0.0,-0.0025281570851802,0.001426076516509,0.2118929624557495,0.977288544178009,-0.0008633690259922,-0.0006348258583786,-0.0008608578861153,0.026355504989624,-0.0120723843574523,0.0087842941284179,0,0,0,0
3.2,1788522952637,0.0,0.0,-0.0024883630685508,0.0011942868586629,0.2502728104591369,0.9681714177131652,0.0,0.0,0.0,0.0,0.0,0.0,-0.0025201365351676,0.0014784401282668,0.2118935883045196,0.9772883653640748,0.0014820130886401,-3.1995981944867866e-05,0.0010205346750472,0.0165626406669616,0.0163049697875976,0.0071268081665039,0,0,0,0
3.3,1788522952737,0.0,0.0,-0.0024883630685508,0.0011942868586629,0.2502728104591369,0.9681714177131652,0.0,0.0,0.0,0.0,0.0,0.0,-0.0025007911026477,0.0014747446402907,0.2118892818689346,0.9772893190383912,0.0003253141885793,0.0009636444909653,-0.0007055030318447,0.0055549144744873,0.0014870762825012,0.0195264816284179,0,0,0,0
3.4,1788522952837,0.0,0.0,-0.0024883630685508,0.0011942868586629,0.2502728104591369,0.9681714177131652,0.0,0.0,0.0,0.0,0.0,0.0,-0.0025349538773298,0.0014691585674881,0.211890310049057,0.9772890210151672,-0.0003254873693397,0.0002950198917468,-0.0011136810987254,-0.0030991435050964,-0.0046643614768981,-0.0308685302734375,0,0,0,0
3.5,1788522952937,0.0,0.0,-0.0025909910909831,0.0013679139083251,0.2503156661987304,0.968159794807434,0.0001513421241713,-0.0001760398139308,2.1771968110565603e-10,-0.0022438922896981,0.0077629401348531,0.0017916517099365,-0.0025140177458524,0.0014347694814205,0.2119139283895492,0.977284014225006,-0.0001112198605977,-0.0010683108388071,-0.0009410975191391,0.0013191103935241,0.0127761960029602,0.0052003860473632,0,0,0,0
3.6,1788522953037,0.0,0.0,-0.0025909910909831,0.0013679139083251,0.2503156661987304,0.968159794807434,0.0001513421241713,-0.0001760398139308,2.1771968110565603e-10,-0.0022438922896981,0.0077629401348531,0.0017916517099365,-0.0025140177458524,0.0014347694814205,0.2119139283895492,0.977284014225006,-0.0001112198605977,-0.0010683108388071,-0.0009410975191391,0.0013191103935241,0.0127761960029602,0.0052003860473632,0,0,0,0
3.7,1788522953137,0.0,0.0,-0.0025909903924912,0.0013452295679599,0.2503220438957214,0.9681581854820251,0.0,0.0,0.0,-1.1003804090137237e-08,-6.771571747776761e-09,3.4670447348617017e-06,-0.0025140177458524,0.0014347694814205,0.2119139283895492,0.977284014225006,-0.0001112198605977,-0.0010683108388071,-0.0009410975191391,0.0013191103935241,0.0127761960029602,0.0052003860473632,0,0,0,0
3.8,1788522953237,0.0,0.0,-0.0025909910909831,0.0013452291022986,0.250322163105011,0.9681581258773804,0.0,0.0,0.0,-2.1558903995355653e-08,-1.014536632482077e-08,2.9218654162832536e-06,-0.0025226976722478,0.0014192601665854,0.2119171023368835,0.9772833585739136,0.0002489313125517,-0.0008256198850876,0.0009145419892574,-0.0007631182670593,0.0183794498443603,0.0070085525512695,0,0,0,0
3.9,1788522953337,0.0,0.0,-0.0025944216176867,0.001327370526269,0.2503288388252258,0.9681564569473268,-2.926532771975825e-05,3.404117996547272e-05,-2.4034462867029674e-10,-0.000393245514715,0.0006948139634914,-0.0003376710810698,-0.0025190478190779,0.0013830624520778,0.2119398862123489,0.977278470993042,0.0005711230552417,-0.001755618462654,0.0014902699824636,0.0076165795326232,-0.0137379169464111,-0.0129346847534179,0,0,0,0
4.0,1788522953437,0.0,0.0,-0.0025958495680242,0.001277397503145,0.250345766544342,0.9681521654129028,-5.050281338679488e-05,5.87460437850073e-05,-1.1296853209261431e-09,-0.0008093939977698,-2.4883374862838537e-05,-0.0005867172731086,-0.0025654602795839,0.0014134095981717,0.2119139283895492,0.9772839546203612,-0.0006404301488552,0.0014416171328249,9.407579990266312e-05,-0.016821265220642,0.012095034122467,-0.0021343231201171,0,0,0,0
4.1,1788522953537,0.0,0.0,-0.002591477939859,0.0012836150126531,0.2503663897514343,0.9681468605995178,0.0001339009138225,-0.0001557472870653,9.497580507070819e-10,0.000749425671529,-0.0007396565051749,0.0015494648832827,-0.0025613699108362,0.0013975510373711,0.2119217664003372,0.9772823452949524,-0.000989917961748,0.001350329892808,-0.0005806821547085,0.0024887919425964,-0.0150058269500732,0.0175399780273437,0,0,0,0
4.2,1788522953637,0.0,0.0,-0.0026084454730153,0.0012845306191593,0.2503449916839599,0.9681522846221924,2.2708825730118653e-05,-2.6417204768726103e-05,-5.540277164964958e-10,0.0004040217609144,-0.000358067889465,0.0002644920023158,-0.0025586811825633,0.0013894326984882,0.2119114249944687,0.9772844910621644,0.0003149132850957,0.0003881564277432,-0.0009015173982158,-0.0137206315994262,-0.0112786889076232,-0.0040922164916992,2,0,0,0
4.3,1788522953737,0.0,0.0,-0.0026218516286462,0.0012905274052172,0.2503231167793274,0.968157947063446,-7.76147652251871e-05,9.02864685442084e-05,-1.3386865355120348e-10,-0.0004576550854835,0.0003686707641463,-0.0009046989143826,-0.0025613000616431,0.0014047641307115,0.2119063884019851,0.977285623550415,0.0002375735217168,-2.934888932950736e-05,0.0006600213530837,-0.0133914947509765,0.0138866901397705,-0.009307861328125,0,0,0,0
4.4,1788522953837,0.0,0.0,-0.0026163351722061,0.0012899877037853,0.2503288984298706,0.9681564569473268,7.643018351423865e-06,-8.887519795473548e-06,2.9955795231488967e-10,-0.0002142332377843,-0.0009444381576031,8.359813364222646e-05,-0.0025843176990747,0.0013733524829149,0.2118936777114868,0.9772883653640748,-0.0009909468199205,0.0004178990697244,-0.0004560064724552,0.0022069811820983,2.366304397583008e-05,-0.0003423690795898,0,0,0,0
4.5,1788522953937,0.0,0.0,-0.0025991462171077,0.0012933562975376,0.2503618001937866,0.9681479930877686,0.0001075977497745,-0.0001251593718489,-8.508018956605252e-09,0.0010640497785061,0.0003168297989759,0.0012521807802841,-0.0025822641327977,0.0014060828834772,0.2118905335664749,0.9772890210151672,0.0005755762433216,0.0020299795886016,-0.000200305578538,-0.0187278985977172,-0.0037454962730407,-0.0004968643188476,0,0,0,0
4.6,1788522954037,0.0,0.0,-0.0026062279939651,0.0013002401683479,0.250367522239685,0.9681463837623596,4.146012964702736e-05,-4.823036243676721e-05,-7.404659977346731e-10,-0.0002494625514373,0.0006722825346514,0.0004834809806197,-0.0025344099849462,0.0013692220672965,0.2119683176279068,0.9772722721099854,8.31451490786704e-05,-0.0014410123860495,-0.0014780319625166,0.0143457651138305,-0.0046839714050292,0.0230340957641601,0,0,0,0
4.7,1788522954137,0.0,0.0,-0.0025944015942513,0.00128778826911,0.2503841519355774,0.96814227104187,5.066366559872447e-05,-5.89416964212089e-05,-1.7928547068579645e-09,0.000175498687895,0.0007750086952,0.0005904351128265,-0.0025241645053029,0.0013618636876344,0.211976483464241,0.977270483970642,0.0012278829536096,-0.0027619943702458,0.0016823532730403,0.0018948912620544,0.0080902576446533,-0.0290460586547851,0,0,0,0
4.8,1788522954237,0.0,0.0,-0.0025814685504883,0.0012242088560014,0.25041064620018,0.9681355357170104,7.987908856895488e-05,-9.291531788713856e-05,2.0099966440295452e-09,-0.0001167644149973,-0.0021949657239019,0.0009199150372296,-0.0025359997525811,0.0013062572106719,0.211960881948471,0.9772740006446838,-0.0001038563087883,-0.000913869660242,-0.0009510890826389,-0.0101387500762939,-0.0420202016830444,0.010040283203125,0,0,0,0
4.9,1788522954337,0.0,0.0,-0.0025708591565489,0.0012290248414501,0.2504081130027771,0.968136191368103,2.150443842544509e-05,-2.5023234325942365e-05,-5.658080639024201e-10,0.0005362792871892,0.0001667332253418,0.0002490193000994,-0.0025151539593935,0.0012883199378848,0.2119791656732559,0.9772701263427734,-0.0003308616323996,-0.0018424747101455,-0.0005982255867658,-0.0176519751548767,-0.0045059919357299,-0.0077056884765625,0,0,0,0
5.0,1788522954437,0.0,0.0,-0.0025577095802873,0.0011783379595726,0.2503825724124908,0.968142867088318,-0.0001146008475237,0.0001333236183629,-1.5049641679259587e-09,7.339627336477861e-05,-0.0009031377849169,-0.0013356902636587,-0.0024961084127426,0.0012528225779533,0.211992397904396,0.977267324924469,0.0005887000353032,-0.0018292323843611,0.0027815254686982,0.0317685604095459,-0.0317941904067993,0.0103521347045898,0,0,0,0
5.1,1788522954537,-0.8450704216957092,1.6901408433914185,-0.0025577095802873,0.0011783379595726,0.2503825724124908,0.968142867088318,-0.0001146008475237,0.0001333236183629,-1.5049641679259587e-09,7.339627336477861e-05,-0.0009031377849169,-0.0013356902636587,-0.0025588562712073,0.0013726698234677,0.2123699486255645,0.9771850109100342,-0.0011028434870233,0.0058916183868858,0.0154539775234607,-0.9948954582214355,0.3211023807525635,-0.0024347305297851,207,284,-8614,5877
5.2,1788522954637,-3.6056337356567374,3.549295663833618,-0.0025235642679035,0.001435863552615,0.2675641179084778,0.9635356664657592,0.0014100509806155,0.0026746462312405,7.274949850155462e-07,0.0069944057613611,-0.0056590898893773,0.7437803745269775,-0.0020383717492222,0.0010766554623842,0.2721852660179138,0.9622421264648438,-0.0008236305907339,-0.0206176951662867,1.0817662788270277,-0.1492218375205993,0.1784451603889465,0.8925189971923828,73,47,-9887,9197
5.3,1788522954737,-2.985915422439575,3.014084577560425,-0.0021569477394223,0.0009332343470305,0.3313702344894409,0.9434979557991028,0.0090371988532198,-0.0058781524580149,3.92443438403979e-06,-0.0074669197201728,-0.0108981020748615,1.1385890245437622,-0.0020994208753108,0.0014235088601708,0.3183020949363708,0.9479859471321106,0.0045106259584792,0.0124094524638611,1.0186643955189831,-0.388586163520813,0.0588768720626831,-0.3419265747070312,52,19,-8055,7278
5.4,1788522954837,-2.3943662643432617,2.507042169570923,-0.0021407958120107,0.0010636504739522,0.3719820082187652,0.9282367825508118,0.0022669382428944,-0.0032165137977804,-7.512654155877852e-09,-0.0049060001038014,-0.0124325808137655,0.850916862487793,-0.0019495887681841,0.0011626668274402,0.3515061438083648,0.9361828565597534,0.0068448948329224,0.0040664508656421,0.7364830374731425,0.0710610747337341,0.1648108959197998,0.0908527374267578,32,60,-7954,7039
5.5,1788522954937,-2.563380241394043,2.5352113246917725,-0.0021365410648286,0.0008863294497132,0.4040003716945648,0.9147559404373168,-0.0037041333415395,-0.0030206082515335,-3.12411266780211e-07,-0.0099761020392179,-0.0042164060287177,0.7075280547142029,-0.0020389454439282,0.00072802323848,0.3815392255783081,0.9243501424789428,-0.0017555875899426,-0.012234894651937,0.8248123091460244,0.1944110989570617,-0.0142263770103454,0.029250144958496,91,75,-8019,7168
5.6,1788522955037,-2.563380241394043,2.7042253017425537,-0.0021365410648286,0.0008863294497132,0.4040003716945648,0.9147559404373168,-0.0037041333415395,-0.0030206082515335,-3.12411266780211e-07,-0.0099761020392179,-0.0042164060287177,0.7075280547142029,-0.002256816253066,0.0003480082377791,0.4278183579444885,0.9038618206977844,-0.0169274211794617,-0.0045584536425114,0.9135565237203258,0.1344492435455322,-0.111043632030487,0.7915725708007812,91,75,-8019,7168
5.7,1788522955137,-2.7887322902679443,2.9577465057373047,-0.0023587211035192,0.0001002690987661,0.484050989151001,0.8750365972518921,0.0014503532524879,-0.0099156220723119,1.4085023380029108e-06,-0.0073549780063331,-0.0057248142547905,0.9478214979171752,-0.0024898201227188,-1.6621313989162445e-05,0.4723566174507141,0.8814039826393127,-0.007923593817283,-0.013145108697145,0.8354455108043374,-0.0655348896980285,0.308954656124115,-0.4244451522827148,25,56,-8908,7962
5.8,1788522955237,-2.7042253017425537,2.901408433914185,-0.0024639540351927,-1.1125230230391026e-05,0.5185303092002869,0.8550557494163513,0.0065505925815509,-0.0035842238525884,2.882203812284428e-06,-0.0012947290670126,-0.0085442680865526,0.8533719778060913,-0.0024685906246304,0.0001379810273647,0.4873557090759277,0.8732000589370728,0.0037468443636867,0.0044879261513433,0.876684601456194,-0.0041804909706115,0.2214763760566711,-0.2181549072265625,39,70,-7784,6718
5.9,1788522955337,-3.436619758605957,3.436619758605957,-0.0024967333301901,-8.867611177265644e-05,0.5544427633285522,0.8322181701660156,-0.0041723069469247,-0.0068913874086755,1.7105212660283284e-07,-0.002339148428291,-0.0075683337636291,0.8954939246177673,-0.002259012311697,-0.0003627063706517,0.5343899130821228,0.8452349305152893,-0.0007265717431883,-0.0213191209335325,1.0479094314256,-0.0523591041564941,0.3406187891960144,0.7541599273681641,70,75,-8985,9444
6.0,1788522955437,-3.0985915660858154,3.183098554611206,-0.0024364709388464,-0.0005948162288405,0.5936917066574097,0.8046886920928955,-0.0026648580425539,-0.0118918125938617,8.004587882199571e-07,-0.004177049268037,-0.009071915410459,1.0506302118301392,-0.0025714403018355,-0.0006470214575529,0.5894237756729126,0.807819664478302,-0.0208781686553019,-0.0029102659877213,0.9726773365797672,-0.2335458397865295,-0.7901684045791626,0.1056232452392578,55,54,-9566,8707
6.1,1788522955537,-2.7042253017425537,2.929577350616455,-0.002589363604784,-0.0008265718352049,0.6397694945335388,0.7685619592666626,0.0041619381535797,-0.0087483775267635,5.311578360709929e-06,-0.008663791231811,-0.0052832425571978,0.980480968952179,-0.002834552899003,-0.000817198306322,0.6260699033737183,0.7797614336013794,-0.0110830246512881,-0.0047975853241828,0.8925584153783467,-0.0693364143371582,-0.8032932281494141,0.1513872146606445,54,72,-9064,7923
6.2,1788522955637,-2.676056385040283,3.492957830429077,-0.0029552646446973,-0.001407588366419,0.6856839656829834,0.7278920412063599,0.0020011612290923,0.0016756163559238,-2.911613785774816e-07,-0.0167952328920364,-0.0075544021092355,0.8639524579048157,-0.0030636060982942,-0.0012180963531136,0.6556148529052734,0.7550882697105408,-0.0229187888752704,0.0078372328629547,0.8577970113378258,-0.0145513415336608,-0.2320333123207092,-1.0656442642211914,52,154,-9182,11251
6.3,1788522955737,-2.7323944568634038,3.7183098793029785,-0.0028941517230123,-0.0013706573517993,0.7033151388168335,0.7108710408210754,0.0136767084909899,-0.0102848927331968,5.7487494287684095e-06,0.0018841890851035,-0.0038721375167369,1.0417149066925049,-0.0024282867088913,-0.0014057010412216,0.6970364451408386,0.7170302867889404,0.0056774867116403,-0.0347094882345913,0.895648727585116,-0.0683880448341369,-0.5562496781349182,0.0112791061401367,45,54,-8905,9525
6.4,1788522955837,-2.422535181045532,3.126760482788086,-0.0015935766277834,-0.0021218853071331,0.7426098585128784,0.6697189807891846,0.015731696418342,-0.0072584602997808,1.1196286084816433e-05,0.003800872946158,-0.0407861582934856,0.9781137704849244,-0.0015339087694883,-0.0020619491115212,0.7327743768692017,0.680466890335083,0.0095383208528843,-0.0311338726473895,0.7584220648316865,0.2871458530426025,-0.2682511210441589,0.478947639465332,44,73,-7804,9310
6.5,1788522955937,-2.6478872299194336,3.3521127700805664,-0.0011237757280468,-0.002243289258331,0.7698816657066345,0.6381816267967224,0.0179010529549248,-0.0076448555650469,-3.3340048514763697e-06,0.0068576354533433,-0.017015341669321,0.8362646698951721,-0.000485579483211,-0.0021592257544398,0.7609316110610962,0.6488284468650818,0.0324676588975491,-0.0578185399082142,0.8876329535855938,-0.0949131846427917,-0.0457407236099243,0.6328620910644531,83,101,-7373,8880
6.6,1788522956037,-2.9577465057373047,3.577464818954468,-0.0013238546671345,-0.0021360600367188,0.7947989702224731,0.6068677306175232,0.0135246580099306,-0.006223956881271,1.1436893529074167e-06,-0.0093782367184758,0.0084306569769978,0.8846989870071411,-0.0029673622921109,-0.0022319024428725,0.7843266129493713,0.6203371286392212,-0.0434940375997966,0.0517793460747134,1.0292746548920446,0.2547280788421631,-0.1022365093231201,-0.3123245239257812,49,162,-8823,11107
6.7,1788522956137,-1.5492957830429075,5.88732385635376,-0.0037869936786592,-0.0031156269833445,0.8236411213874817,0.5670902729034424,0.0171785953669077,-0.0046854859003073,2.533621352163416e-06,-0.0481004565954208,0.0078845592215657,1.0620113611221311,-0.0037137269973754,-0.0039042038843035,0.8070892095565796,0.5904050469398499,-0.062662546668202,-0.0487675390855253,1.0851752394189644,0.1473193168640136,-0.0198843479156494,0.0110149383544921,117,222,0,17935
6.8,1788522956237,1.6901408433914185,8.507041931152344,-0.0036489348858594,-0.0055766757577657,0.8557974696159363,0.5172682404518127,0.1050391673894251,-0.003916360522402,-0.0001757667065437,-0.0136998649686574,0.0101001448929309,1.0014039278030396,-0.0028719753026962,-0.0059979921206831,0.8422669172286987,0.5390197038650513,0.0093287104826957,-0.094590243720464,0.9752125881841496,0.256524384021759,0.2796980738639831,0.2439908981323242,145,204,4689,21682
6.9,1788522956337,1.2957746982574463,8.028168678283691,-0.0022344877943396,-0.0051127192564308,0.8928390145301819,0.4503414332866668,0.1747825807700536,-0.0161371722639879,6.687479339632327e-05,0.0321720279753208,-0.0333557575941085,1.1190201044082642,-0.0024069845676422,-0.0049232514575123,0.8762482404708862,0.4818287789821625,0.0201362848119955,-0.0347796728823566,1.124156574775412,0.4003233313560486,0.2813557386398315,-1.587418556213379,124,66,7047,19291
7.0,1788522956437,1.94366192817688,8.28169059753418,-0.0023388736881315,-0.0040420172736048,0.9135283827781676,0.4067482650279999,0.1749720243330366,-0.0037356973315369,9.60791381610112e-06,0.013892819173634,-0.0066393110901117,0.9064190983772278,-0.0024315910413861,-0.0039426712319254,0.8961346745491028,0.4437581598758697,0.0148053706249249,-0.0201353513753181,0.8670074807254881,-0.1895937919616699,0.5221356749534607,0.835479736328125,43,65,5853,19063
7.1,1788522956537,1.3239436149597168,6.591549396514893,-0.0028363168239593,-0.0035233185626566,0.9232367277145386,0.3842050433158874,0.175427886925109,-0.0019503764880033,-8.818071893489402e-05,0.0100614884868264,0.0215083099901676,0.9571414589881896,-0.0034467997029423,-0.0031583048403263,0.917990744113922,0.396574318408966,0.001635550440929,0.0121904071674551,0.856944069750742,-1.1268692016601562,-0.2321621179580688,1.1352043151855469,38,76,4001,10007
7.2,1788522956637,0.7887324094772339,3.492957830429077,-0.0029726314824074,-0.0033610581886023,0.9370635151863098,0.349130243062973,0.1410827940926684,-0.0051040249540283,1.7013845156246563e-05,0.0042845462448894,-0.0130670610815286,0.7294753193855286,-0.0030564693734049,-0.0032227281481027,0.9298442006111144,0.3679268956184387,0.0030012337876935,-0.0154197265922049,0.4675758769690623,-0.4586747288703918,-0.1496195793151855,-0.016972541809082,1,33,4992,5305
7.3,1788522956737,0.2816901504993438,0.98591548204422,-0.0030388487502932,-0.0032197604887187,0.9459609985351562,0.3242502212524414,0.0578144683743094,-0.0063558516839127,6.206165399244065e-07,0.0034578994382172,0.0030622533522546,0.3663007318973541,-0.0030703945085406,-0.0031481320038437,0.9342864155769348,0.3564963042736053,0.0020230389555831,-0.0043527889269371,0.1406298399265656,-0.2661811113357544,-0.0452659130096435,0.2291812896728515,24,45,456,0
7.4,1788522956837,0.0,0.0,-0.0030480334535241,-0.0032271430827677,0.9477570652961732,0.3189622461795807,0.0082203919450588,-0.0038872296260979,2.1685700622708905e-07,0.001184917637147,-8.063891436904669e-05,0.0571402721107006,-0.0030298540368676,-0.0031568640843033,0.9338243007659912,0.357705295085907,0.0021434208827952,-0.0036097455354855,-0.0497251166368954,0.0695645213127136,0.1441647410392761,0.0995988845825195,0,0,0,0
7.5,1788522956937,0.0,0.0,-0.0028995526954531,-0.0032968437299132,0.946998119354248,0.3212091028690338,-0.0054364836592349,0.0013342635283075,-1.0745916881930225e-07,-0.0002294185833306,-0.0013438917230814,-0.0453720055520534,-0.0030776876956224,-0.0031341454014182,0.9335331916809082,0.3584641516208648,0.0016451942167062,3.5434811920437864e-05,0.0097786087974668,-0.0062585473060607,0.0530381202697753,0.0248594284057617,0,0,0,0
7.6,1788522957037,0.0,0.0,-0.0029579696711152,-0.0032482841052114,0.9469313025474548,0.3214060664176941,0.0004587234890262,0.0004755378246289,3.7802077485237586e-10,0.0,0.0,0.0,-0.0031448174268007,-0.003121294081211,0.9335463643074036,0.3584292232990265,0.0002245032858166,0.0030389920020065,-0.003327044744097,0.0094207525253295,0.0119509696960449,0.0264558792114257,0,0,0,0
7.7,1788522957137,0.0,0.0,-0.0030307453125715,-0.0032209784258157,0.946988046169281,0.3212384581565857,0.0002245107192769,0.0002053447264362,-6.747317582656956e-10,0.0009340760880149,0.0034259562380611,0.0001720461732475,-0.0031555071473121,-0.0030988529324531,0.933571755886078,0.3583630919456482,0.000853956644027,0.0008913720154779,0.0035648568951563,-0.0207853317260742,0.0061879158020019,0.0316238403320312,0,0,0,0
7.8,1788522957237,0.0,0.0,-0.0030159093439579,-0.0032279940787702,0.9469497799873352,0.3213510513305664,-0.0004084790380368,0.0004752373270546,-4.0029575000904806e-10,-6.628117989748716e-05,-0.0006319071981124,-0.0047507490962743,-0.0031131114810705,-0.0031066481024026,0.9335620403289796,0.3583888709545135,0.0002984028172373,-0.0017075061420693,0.0045354744398781,-0.008992314338684,0.0222611427307128,0.0228281021118164,0,0,0,0
7.9,1788522957337,0.0,0.0,-0.0029763304628431,-0.0032303486950695,0.9469826221466064,0.3212549686431885,0.0003495756779734,-0.0004066159499505,4.828612030135486e-10,0.0004116322379559,-0.0015436325920745,0.0040497896261513,-0.0030947895720601,-0.0031322874128818,0.9335116147994996,0.3585201501846313,8.982072917646685e-05,0.0016824654429314,-0.003134539884292,0.0010657906532287,0.0044168233871459,0.0550928115844726,0,0,0,0
8.0,1788522957437,0.0,0.0,-0.002983440645039,-0.0032438524067401,0.9469375014305116,0.3213876783847809,0.0,0.0,0.0,7.139898894337193e-09,0.0,0.0,-0.0031223241239786,-0.0030975136905908,0.9335164427757264,0.358507752418518,-0.0011283214789142,0.0005059937005307,-0.0055176743649976,0.0181605815887451,-0.0047913193702697,0.0245904922485351,1,0,95,443
8.1,1788522957537,0.0,2.619718313217163,-0.003005197038874,-0.0032135134097188,0.9469438791275024,0.3213687241077423,-0.0001601767772965,0.0001863197718686,-6.86618924114849e-10,-0.0005661916802637,0.000688315660227,-0.0018542036414146,-0.0030961148440837,-0.0031351018697023,0.9353615045547484,0.3536656498908996,0.0025680336410856,0.0032689331491773,0.2742863922678585,0.1324864625930786,0.3687612414360046,0.0764112472534179,157,202,5284,9809
8.2,1788522957637,0.8450704216957092,4.985915660858154,-0.0034288808237761,-0.0033263028599321,0.954649031162262,0.2976951003074646,0.0821575598313752,-0.0002551564718766,7.418784492806552e-06,-0.0030276668258011,0.00483302725479,0.5088276267051697,-0.0033813882619142,-0.0032547479495406,0.9416572451591492,0.3365406394004822,0.0016579419259176,-0.0120396386696716,0.4833362555970269,0.4819933772087097,0.0384294986724853,0.2862911224365234,85,185,6279,15208
8.3,1788522957737,1.5774648189544678,6.056337833404541,-0.003212503157556,-0.0035076937638223,0.9591770768165588,0.2827660739421844,0.1049952014223951,0.0045993293820612,1.711463724598669e-05,-0.0057734604924917,-0.0129812331870198,0.6216110587120056,-0.0030880142003297,-0.0034247189760208,0.9524197578430176,0.3047546744346618,0.0042647583866862,-0.0303098366566393,0.762567024691138,0.4280753135681152,0.2161061763763427,2.083399772644043,107,20,6638,12377
8.4,1788522957837,2.05633807182312,2.873239517211914,-0.0032954537309706,-0.0036982465535402,0.969624638557434,0.244547426700592,0.1392470080795178,-0.0006519881475448,2.306797794394064e-05,-0.0109410686418414,0.0040864441543817,0.70460045337677,-0.0035354271531105,-0.0035858834162354,0.9596403241157532,0.2811853885650635,-0.0221872389731119,0.0144182473422454,0.6530329512507541,-0.8768092393875122,-0.3804057240486145,-1.3071575164794922,92,46,7810,5404
8.5,1788522957937,2.7042253017425537,0.9577465057373048,-0.0034508812241256,-0.0037346549797803,0.9719706773757936,0.2350472509860992,0.0773164612515681,-0.0063554500592189,8.130356527037385e-08,0.0040614763274788,-0.0022488485556095,0.0567593574523925,-0.0036734538152813,-0.0035085780546069,0.9609435200691224,0.2766980528831482,-0.0006271804785139,-0.0025120187884595,-0.2086165890376349,-0.4580808877944946,-0.2299220561981201,0.1405038833618164,77,32,8440,0
8.6,1788522958037,3.070422649383545,-2.6478872299194336,-0.003932911902666,-0.0033974810503423,0.9654011726379396,0.2607176005840301,0.0349824883439937,-0.0014982714328443,-4.4334943964447164e-06,0.0086305243894457,0.0178848169744014,-0.5059108734130859,-0.0041040107607841,-0.0032028369605541,0.9528177976608276,0.3034980297088623,0.007706041709137,0.0216847616532688,-0.6518113171656342,-0.4874245524406433,-0.3793004751205444,-0.3223466873168945,95,280,10868,-10053
8.7,1788522958137,3.2957746982574463,-3.6619718074798575,-0.0041635492816567,-0.003349908394739,0.9598160982131958,0.280579000711441,0.0159973371462788,0.0042734892956656,-1.8784427333106788e-06,0.0017879350343719,0.0129122687503695,-0.8208555579185486,-0.0040884660556912,-0.0031703067943453,0.9400197863578796,0.3410806357860565,0.0077290076425068,-0.0059807097137427,-1.0969045983690298,-0.1446524262428283,-0.2726661562919616,0.052250862121582,40,58,9989,-9326
8.8,1788522958237,3.2676055431365967,-3.4647886753082275,-0.0038297502323985,-0.0029263899195939,0.9409691095352172,0.3384581804275512,-0.0096465320874765,0.0094056290300481,3.953533874477739e-06,0.0148028433322906,0.0055222995579242,-1.1156649589538574,-0.0044452110305428,-0.002462700009346,0.913823425769806,0.4060800075531006,-0.0002750571836518,0.0338689595736428,-0.9839482884573448,0.0594455599784851,0.4427509307861328,-0.6563615798950195,36,61,9848,-9264
8.9,1788522958337,3.211267709732056,-3.2957746982574463,-0.0045840255916118,-0.0026626731269061,0.922867238521576,0.3850815594196319,0.0068992516265561,0.0134372678621327,-5.157251604657349e-06,-0.0038525823038071,0.0235627423971891,-0.921820342540741,-0.0049367118626832,-0.0022407369688153,0.8999773859977722,0.4359030127525329,0.0093990743779123,0.0243776048639593,-0.9499898239540676,-0.1694439053535461,0.1996502876281738,0.5062789916992188,55,119,9601,-9766
9.0,1788522958437,3.380281686782837,-3.2957746982574463,-0.0046606292016804,-0.0023164756130427,0.8952544927597046,0.4455248117446899,-0.0046383003544396,0.0068987630673043,-1.982184314244133e-06,0.0104173021391034,-0.0073961000889539,-0.9947604537010192,-0.0048780580982565,-0.002033662982285,0.872336745262146,0.4888769090175628,0.0069642097594701,0.0214032774156834,-1.0060764824650332,0.2614728212356567,0.2421348690986633,-0.4482221603393554,84,81,9290,-9369
9.1,1788522958537,3.323943614959717,-3.380281686782837,-0.0051386533305048,-0.0021438691765069,0.8840217590332031,0.4674125611782074,-0.0055556492823813,0.0120730556051596,-3.485322405671232e-08,0.0007162588299252,0.0248168781399726,-1.0041593313217163,-0.0044542541727423,-0.0019347174093127,0.8470518589019775,0.5314880013465881,0.0101810037112725,-0.012812954333204,-1.0056225420443572,0.0780776143074035,0.2058054208755493,-0.305877685546875,89,71,9733,-8828
9.2,1788522958637,3.4084506034851074,-3.3521127700805664,-0.0049553751014173,-0.0016738913254812,0.8568899631500244,0.5154730081558228,-0.0047658329594675,0.0107197235950791,1.9596610001614462e-06,0.0083001693710684,0.0233456958085298,-1.0079339742660522,-0.0049073938280344,-0.0014852527529001,0.8197407722473145,0.5727117657661438,-0.0061172961256638,-0.0226233088859493,-1.0265249987304923,-0.0099967718124389,0.0804600119590759,0.2082118988037109,41,83,9428,-8958
9.3,1788522958737,3.492957830429077,-3.2957746982574463,-0.0048357564955949,-0.0016061019850894,0.830036461353302,0.5576858520507812,-0.0026089383074746,0.0090477820492902,4.618549444906799e-07,0.0043608746491372,0.00243437057361,-0.9978668093681335,-0.0044897738844156,-0.0017010131850838,0.7930799126625061,0.6090987920761108,-0.0064043058329864,-0.0328486610690451,-0.9992668279227006,0.1144108772277832,0.3060733079910278,0.71527099609375,68,64,8874,-9092
9.4,1788522958837,2.873239517211914,-2.873239517211914,-0.004525882191956,-0.0022102575749158,0.8019876480102539,0.5973194241523743,-0.0054851622609656,0.0068329620351122,-4.351226989770449e-07,-0.0109394183382391,-0.0001443731453036,-0.9914160966873168,-0.0045318650081753,-0.0019393740221858,0.765135645866394,0.6438503861427307,0.00668818293306,-0.0023102445611386,-0.974293465268104,0.0474552512168884,0.5053020119667053,0.0930299758911132,70,69,8686,-8136
9.5,1788522958937,3.014084577560425,-2.901408433914185,-0.0046789310872554,-0.0019064988009631,0.774247407913208,0.6328629851341248,-0.0077829694382863,0.009148278862973,1.7785634999425426e-07,0.0032695573754608,0.0163603313267231,-0.9654425382614136,-0.0046418774873018,-0.0015630666166543,0.7351835370063782,0.6778504848480225,0.0027397291700921,-0.0181995882502161,-0.8488339114644314,0.2615000009536743,0.4433217048645019,0.1818666458129882,77,62,8568,-8062
9.6,1788522959037,2.901408433914185,-2.619718313217163,-0.0047905542887747,-0.0019623653497546,0.7474110126495361,0.6643418073654175,0.0058014564465721,0.0131801850062714,-4.469899455746003e-07,-0.0099902153015136,3.808225301327184e-05,-0.8369309306144714,-0.0050705922767519,-0.0015331041067838,0.7177154421806335,0.6963163018226624,-0.0037497598796619,0.0217921849349578,-0.7422428700624083,-0.1176856160163879,-0.4046404957771301,0.6298551559448242,83,128,9274,-9342
9.7,1788522959137,2.422535181045532,-2.5915493965148926,-0.005383619107306,-0.0016877916641533,0.7126972079277039,0.7014490962028503,-0.0047732629902961,0.0075007811306403,3.217531193879987e-07,-0.0046112961135804,0.0205159485340118,-0.8634294271469116,-0.005318934097886,-0.0013378644362092,0.6703479290008545,0.7420267462730408,0.0064147632931314,-0.0190744410822915,-0.6854384267499408,-0.0821844339370727,0.2452278733253479,1.0118656158447266,55,56,8217,-7384
9.8,1788522959237,2.6478872299194336,-2.5352113246917725,-0.0053480803035199,-0.0014025277923792,0.6899116635322571,0.7238724827766418,-0.009345947434215,0.0050418369138042,2.997475576193454e-06,0.0045916978269815,0.0128040732815861,-0.6891956925392151,-0.005586078390479,-0.0008606575429439,0.6544061303138733,0.7561221718788147,0.008354858910491,0.0298839968173074,-0.7289150794963872,0.0795772075653076,-0.152129590511322,-0.610133171081543,106,110,7988,-7838
9.9,1788522959337,2.563380241394043,-2.676056385040283,-0.0055305934511125,-0.000976747367531,0.6760493516921997,0.7368350028991699,-0.0047174564993679,-0.0004396013767937,2.4344109981394684e-06,0.0085118040442466,0.0211850628256797,-0.7635871767997742,-0.0057258363813161,-0.0004214067012071,0.6364045739173889,0.7713340520858765,0.0078466559954866,0.0270204644958103,-0.8015618419892914,0.0690639019012451,-0.0616874098777771,-0.2215852737426757,72,76,8089,-7190
10.0,1788522959437,2.281690120697021,-2.11267614364624,-0.0061278664506971,-0.0001150020398199,0.6308561563491821,0.7758755683898926,-0.0063708197077901,0.0008552659754616,-4.413955334194399e-06,0.0054000695236027,-0.0131658762693405,-0.6507983207702637,-0.0059799207374453,-0.0002909312024712,0.5860320329666138,0.8102657794952393,-0.0030659363451832,-0.0181904292140994,-0.6554004500180589,0.1040728092193603,-0.3866240382194519,0.6726255416870117,96,99,6920,-7194
10.1,1788522959537,1.94366192817688,-1.887323975563049,-0.0060482770204544,-0.000531792640686,0.5936108827590942,0.8047293424606323,-0.0064154428422773,0.0045657303362958,2.0307268470028003e-06,0.0015949739608913,0.0050309048965573,-0.6810700297355652,-0.0060302289202809,-0.0003759292885661,0.5607660412788391,0.8279522657394409,0.001718723242683,-0.0132406208767687,-0.6917063710571334,-0.0386680364608764,-0.0003519058227539,0.1626148223876953,62,38,5769,-5759
10.2,1788522959637,1.887323975563049,-1.887323975563049,-0.0059752324596047,-0.0005226435605436,0.580999493598938,0.8138818144798279,-0.0025767162238822,0.0030803551911341,5.656991578663132e-07,0.0045892992056906,0.001835798844695,-0.6335991621017456,-0.0060042897239327,-0.0003068968653678,0.5328792333602905,0.8461700081825256,0.0012847990869604,-0.0026795824767005,-0.5429942296834323,-0.1098899841308593,0.0215044617652893,0.2323999404907226,67,46,6246,-5577
10.3,1788522959737,1.7464789152145386,-1.8309859037399288,-0.0058655417524278,-0.0005978203844279,0.5576637387275696,0.8300459980964661,-0.0063810015201016,-0.0012717728292494,-1.6949556674365518e-07,0.0044324658811092,-0.0018274144968017,-0.5417401790618896,-0.0057086218148469,-0.000202857889235,0.5112091302871704,0.8594374060630798,0.0088884259191388,0.0010860460741327,-0.4813898118961049,0.2191799283027649,0.0068846940994262,0.12646484375,94,76,7017,-5805
10.4,1788522959837,1.408450722694397,-1.4647886753082275,-0.0057508489117026,-0.0002815439365804,0.5384160280227661,0.8426594734191895,-0.002722951670247,0.00376430722136,8.491965752761554e-07,0.0049612475559115,0.0095429122447967,-0.5172909498214722,-0.0059004053473472,0.0003501391038298,0.4869794249534607,0.8733935356140137,0.0021074138736762,0.0184708674256353,-0.6024623781295175,-0.0724549293518066,0.1354156732559204,0.1633615493774414,56,102,6049,-5022
10.5,1788522959937,1.4647886753082275,-1.4647886753082275,-0.0059330388903617,0.0001571830362081,0.510424017906189,0.8599023222923279,-0.0011369105012882,0.0045928904118605,3.7713235504469147e-08,0.0016462479252368,0.0052643562667071,-0.5206926465034485,-0.0058922227472066,0.0002890545874834,0.468380331993103,0.883507251739502,9.089928491971072e-06,-0.0034555714407908,-0.4015881699504386,-0.1038265228271484,0.023223876953125,-0.2381582260131836,56,80,5732,-5130
10.6,1788522960037,1.6338027715682983,-1.6056338548660278,-0.0056393295526504,-0.0001611839979887,0.4951792359352112,0.8687725067138672,-0.00224951743595,0.0043077820533665,2.452241243770863e-07,0.005264620296657,-0.0105033805593848,-0.3725719451904297,-0.0056688738986849,0.0004094066098332,0.448908120393753,0.8935598731040955,0.0076070130756137,0.0228534541054504,-0.5201493286338112,-0.2456637620925903,0.213520348072052,0.013798713684082,53,39,5664,-4907
10.7,1788522960137,1.4929577112197876,-1.5774648189544678,-0.0056358999572694,0.0001042478252202,0.4730433225631714,0.8810210824012756,-0.0041849831391976,0.0060695224262625,-7.647102007490947e-07,0.0018040016293525,-0.0003331430198159,-0.5218290686607361,-0.0055485144257545,0.0004110503941774,0.4293104112148285,0.9031399488449096,0.0059053834010909,-0.0090210181928527,-0.4254727522373182,0.0833566784858703,0.070844292640686,-0.2600746154785156,48,74,5736,-4882
10.8,1788522960237,1.5211267471313477,-1.6056338548660278,-0.0055487044155597,0.0003744263667613,0.4514833986759186,0.8922621607780457,0.0004035033721267,0.0032586429715875,2.9476845155622306e-07,0.0044694351963698,0.0051405611447989,-0.4395865797996521,-0.0055278735235333,0.000595299527049,0.4154774248600006,0.9095865488052368,0.0037292592490327,-9.099673650051088e-05,-0.489106862840411,0.0929358601570129,-0.1541921496391296,-0.0819950103759765,68,44,5466,-4343
10.9,1788522960337,1.042253494262695,-1.154929518699646,-0.0051396652124822,-0.0001299816649407,0.4297581911087036,0.9029293656349182,-0.0042317329041719,-0.0001028250452704,-4.980762371100788e-07,0.001952342572622,-0.0167537610977888,-0.4616920351982116,-0.0050844438374042,2.650730311870575e-05,0.385318398475647,0.9227697253227234,0.0020509289986993,0.0037088650702341,-0.3387037867159969,-0.0942417383193969,0.188601553440094,0.1887578964233398,57,83,4991,-4073
11.0,1788522960437,1.0704225301742554,-1.183098554611206,-0.0050792838446795,-0.000191283179447,0.4166589975357055,0.9090486168861388,-0.0033537442911871,0.0031660426526711,1.850613949053591e-07,0.0006841507274657,0.0006601187051273,-0.285252183675766,-0.0050410358235239,0.0001540733501315,0.374695211648941,0.927134335041046,0.0048647349357983,0.0066544436516694,-0.2446824001423418,0.1084136962890625,-0.0113922953605651,0.0951395034790039,71,112,5411,-4324
11.1,1788522960537,1.2394366264343262,-1.183098554611206,-0.0049566435627639,1.0139192454516888e-05,0.4032139182090759,0.9150922894477844,0.0015832780105277,0.0056814785902922,3.3727550739272e-07,0.0049249306321144,0.0024012255016714,-0.3506203889846802,-0.0042476113885641,0.0001717712730169,0.3517981171607971,0.936066210269928,0.0201045525871171,-0.0003017237630684,-0.4426329450872397,0.0279691219329834,-0.0603512525558471,-0.0026788711547851,78,53,4725,-4220
11.2,1788522960637,0.7605633735656738,-0.7887324094772339,-0.0039514955133199,-0.0001051697181537,0.3842388093471527,0.9232252836227416,-0.0051022033116417,-0.0006690683950767,-6.87601714844839e-08,0.0228628572076559,-0.0078865960240364,-0.4654500484466553,-0.0032795276492834,-0.0002760356292128,0.3354383707046509,0.9420563578605652,0.0114234468746538,-0.0131365923171525,-0.3591265269289934,0.0642182826995849,0.3223605751991272,-0.0230522155761718,0,11,3350,-2115
11.3,1788522960737,0.0,0.0,-0.0033003818243741,-0.0003750228788703,0.3681960105895996,0.9297422766685486,0.0051556539041646,0.0035851289759588,-2.0093460644670002e-07,-0.0010370607487857,0.0019091551657766,-0.1328964382410049,-0.0033150361850857,-0.0001786360517144,0.3304111957550049,0.9438313245773317,0.0009780909081182,0.0052022314191643,-0.0372441486470216,-0.3500055074691772,-0.0002335309982299,0.146428108215332,62,51,1251,0
11.4,1788522960837,1.436619758605957,1.5492957830429075,-0.0033013981301337,-0.0003794871736317,0.3669503331184387,0.9302346110343932,-0.0019254342402905,0.0024053320647263,-7.813263958565691e-09,-0.0002242025657324,-0.0004111578164156,-0.0316988378763198,-0.0031723845750093,-0.000568495132029,0.3300209939479828,0.9439681172370912,0.0016955509124403,-0.0184066345928932,-0.0094787406467904,2.4135870933532715,-0.1292541027069091,0.0883035659790039,228,204,10407,8980
11.5,1788522960937,5.380281925201416,5.464788913726807,-0.0036275151651352,-0.0006318922387436,0.3658994436264038,0.9306471347808838,0.0924402723259606,-0.0016055238480865,1.4398755361152616e-05,-0.0159968864172697,-0.0025286397431045,-0.0639710798859596,-0.0049700820818543,-8.538831025362015e-05,0.3280214667320251,0.944657266139984,-0.0150684192575399,0.0328607196528768,0.0119742164928516,0.9180847406387328,0.0931857824325561,0.0809516906738281,144,157,15394,15003
11.6,1788522961037,5.070422649383545,5.239436626434326,-0.004957091063261,-0.0005119295092299,0.365254670381546,0.9308943152427672,0.1761009618610421,-0.0012911381514906,1.4095011687474235e-09,-0.0091309379786252,0.0049150283448398,0.0176799111068248,-0.0051564574241638,-0.000319842249155,0.3282987773418426,0.9445598721504213,0.0050039967804046,-0.0101400891383321,-0.0163737041021923,-0.0912159085273742,-0.2345604300498962,0.1391258239746093,51,75,14101,13091
11.7,1788522961137,4.985915660858154,4.929577350616455,-0.0053361197933554,0.0007460358319804,0.3641426563262939,0.9313276410102844,0.1824294718920101,5.086964309899852e-05,2.660981702631742e-05,0.0103489374741911,0.0176797807216644,-0.0416268780827522,-0.0053576752543449,0.0011679800227284,0.3261067271232605,0.9453170895576476,-0.0023088568868781,0.0236135442678677,-0.0216370362437866,-0.3446186184883117,0.0449661612510681,1.964442253112793,43,86,13629,13525
11.8,1788522961237,5.295774459838867,4.901408672332764,-0.0053248233161866,0.0007421525660902,0.3636929988861084,0.9315033555030824,0.1678772664623181,-9.368224410100238e-05,-7.134150814300429e-11,0.0,0.0,0.0,-0.0053114853799343,0.0011009061709046,0.3262340426445007,0.945273458957672,0.0014287537495622,-0.0052817903618603,0.0089665212776297,-0.2331569194793701,0.0673336386680603,2.295757293701172,86,78,13726,12571
11.9,1788522961337,5.408450603485107,4.957746505737305,-0.0053248233161866,0.0007421525660902,0.3636929988861084,0.9315033555030824,0.1663275955057181,0.0010165686422174,-3.6273687534877607e-10,0.0,0.0,0.0,-0.0049120504409074,0.0014458214864134,0.3263318538665771,0.9452414512634276,-0.0035936310457947,-0.0036995495413945,-0.0406573854246139,0.0578203797340393,0.1736927032470703,-0.3870515823364258,63,66,13787,12335
12.0,1788522961437,5.042253494262695,4.929577350616455,-0.0050524976104497,0.0011353938607499,0.3613269627094269,0.932424783706665,0.1778265565147616,0.0014292974518402,7.949249779650247e-05,-0.007723091635853,-0.0122001525014638,-0.0545333959162235,-0.004954713396728,0.0015964908525347,0.3256050050258636,0.94549161195755,0.0005645589417044,0.0081900669585091,-0.0394213399496873,0.073357880115509,0.0348809361457824,-0.0790004730224609,67,70,14794,12311
12.1,1788522961537,5.6619720458984375,4.535211086273193,-0.0051236636936664,-9.742914699018002e-06,0.359342485666275,0.93319171667099,0.1694627105989239,0.0001130825699284,0.0001241616079565,-0.0005590989603661,-0.0122011937201023,-0.0537727437913417,-0.0050930613651871,0.0002623368054628,0.3194750547409057,0.9475809335708618,-0.0075901470055876,-0.0554441582008527,-0.1367272220327936,-0.1903223991394043,0.0942704677581787,-0.0190296173095703,69,54,15066,11455
12.2,1788522961637,5.323943614959717,4.619718074798584,-0.0053125140257179,0.0008878702064976,0.3511457145214081,0.9363053441047668,0.1715831730649717,0.0035146495678883,-2.2988881998690054e-05,0.0029846436809748,0.0129989441484212,-0.1190275624394416,-0.0052733086049556,0.0010969620198011,0.3138983845710754,0.9494413137435912,0.0061293654694614,0.0215522754271829,-0.1009133487445472,-0.2494904994964599,-0.118542194366455,2.67513370513916,81,26,15865,11128
12.3,1788522961737,5.070422649383545,4.957746505737305,-0.0053024068474769,0.0006768349558115,0.348727285861969,0.9372089505195618,0.1678785509186014,-0.0024131713535004,3.2096486224194614e-05,-0.0023044352419674,-0.0075530894100666,-0.1031641438603401,-0.0054835677146911,0.0007802778854966,0.3090149462223053,0.9510411024093628,-0.0087187805167494,0.0155598400207308,-0.0960073416043447,-0.0983918905258178,-0.1930524706840515,0.8685779571533203,39,55,14374,12479
12.4,1788522961837,5.380281925201416,4.985915660858154,-0.0055663329549133,0.000295648467727,0.3450975716114044,0.9385502338409424,0.1693156400863676,0.000105511344,1.223111752517914e-05,-0.0071158343926072,-0.0112557141110301,-0.0657547190785408,-0.0055751148611307,3.3156946301460266e-05,0.3051602840423584,0.9522847533226012,0.0049995009057736,-0.0032412200636539,-0.069841701377884,-0.3272948861122131,-0.2131831049919128,-0.7170963287353516,62,83,13306,12341
12.5,1788522961937,5.267605781555176,4.873239517211914,-0.0052799596451222,-0.0002530930796638,0.3431437909603119,0.9392679333686828,0.1595045506593335,-0.0054702456815573,5.3011999416749945e-05,0.0100090131163597,-0.0066125052981078,0.0261988136917352,-0.0047995066270232,0.0006595645099878,0.3064413368701935,0.9518771767616272,0.0245349381706204,0.0115281442432641,0.0237429076049021,0.4985504150390625,0.0049142837524414,1.1608896255493164,118,84,14638,12874
12.6,1788522962037,5.6619720458984375,4.535211086273193,-0.0044187088496983,0.0008300038753077,0.3427492380142212,0.9394161701202391,0.1766814770985848,0.0003976898411481,-4.897550639111783e-05,0.019591512158513,0.0164476856589317,-0.0431584492325782,-0.0043942769989371,0.0011542746797204,0.3031585216522217,0.9529293775558472,-0.0013679421954163,-0.0056610599051885,-0.0913211881865294,0.5787355899810791,-0.4035391807556152,-0.9628190994262696,98,65,15176,11471
12.7,1788522962137,5.464788913726807,4.535211086273193,-0.0045175589621067,0.0011195987462997,0.3373359143733978,0.941372811794281,0.1735852611555825,-0.0002980174980167,-3.0042218778823767e-05,-1.95551328943111e-05,0.0110000763088464,-0.1622053533792495,-0.0040555503219366,0.0014045713469386,0.295725405216217,0.9552633166313172,0.003604356932381,-0.0176935397902589,-0.1334274603570424,-0.1953571438789367,0.2586650252342224,0.6071205139160156,70,62,15586,11757
12.8,1788522962237,5.464788913726807,4.507042407989502,-0.0042968238703906,0.0015295888297259,0.3310108184814453,0.9436159133911132,0.1754411779639487,-0.0004183761641666,-3.122999187124402e-05,-0.0011887026485055,0.0222353171557188,-0.1547394543886184,-0.0046040248125791,0.0025432584807276,0.289633959531784,0.9571229815483092,-0.0090482293657465,0.0358608782406406,-0.1652265257932865,0.1176308989524841,-0.0675942301750183,0.3408470153808594,60,61,15417,11736
12.9,1788522962337,5.943662166595459,4.591549396514893,-0.0060607269406318,0.006495832465589,0.3217156231403351,0.9467946290969848,0.1670808263868242,-0.0039436913906152,-0.0001898717246936,0.0014360465575009,0.1231689006090164,-0.1648620516061782,-0.005896215327084,0.0066813537850975,0.2818176746368408,0.9594266414642334,-0.0058417955734725,-0.000723826080054,-0.1573368617261722,-1.2151027917861938,-0.7093110680580139,-2.092334747314453,140,111,15754,12296
13.0,1788522962437,5.267605781555176,4.957746505737305,-0.0058664660900831,0.0052003478631377,0.31476491689682,0.9491372108459472,0.1558124130024538,-0.0044591540507465,0.0002727113094469,-0.004088164307177,-0.0059571708552539,-0.1674085706472396,-0.0056991074234247,0.0057322196662425,0.2726788818836212,0.9620711207389832,-0.0018230034772735,0.0622145014378323,-0.1126690279708556,0.1208623051643371,-0.1745315194129943,0.4086837768554687,42,90,13794,12769
13.1,1788522962537,5.267605781555176,4.957746505737305,-0.0058664660900831,0.0052003478631377,0.31476491689682,0.9491372108459472,0.1558124130024538,-0.0044591540507465,0.0002727113094469,-0.004088164307177,-0.0059571708552539,-0.1674085706472396,-0.0054728239774703,0.0051717534661293,0.2713084518909454,0.9624630212783812,0.0025578190660571,-0.0200826102607135,-0.0481535367476489,0.2949382662773132,-0.0743755102157592,-2.477902889251709,42,90,13794,12769
13.2,1788522962637,5.126760482788086,4.788732528686523,-0.0056074582971632,0.0049967532977461,0.3086788952350616,0.951136589050293,0.1844080104270839,-0.0001408325283606,1.1850092403521278e-05,0.0119532775133848,-0.0053922426886856,-0.0242341663688421,-0.0050153918564319,0.0053283758461475,0.2693893015384674,0.9630035161972046,0.0143976824373719,0.0203455588860366,-0.0318605398828614,0.0866317749023437,0.1550084948539734,0.6100959777832031,42,90,13794,12769
13.3,1788522962737,5.070422649383545,5.126760482788086,-0.0047922129742801,0.0050964830443263,0.3060861527919769,0.9519781470298768,0.178510608417314,-0.0033224966738912,-4.012724030792018e-06,0.0124491490423679,-0.002944893669337,-0.0433028414845466,-0.0037794839590787,0.0048441877588629,0.2669713795185089,0.963684856891632,0.036563198912249,-0.0119138811094046,-0.0525552992093812,-0.0636162161827087,-0.2657798528671264,-0.9475278854370116,66,93,13377,12662
13.4,1788522962837,4.591549396514893,5.295774459838867,-0.0016754614189267,0.0036122549790889,0.3058770596981048,0.9520626664161682,0.1849988302040052,-0.0020811646381978,0.0002969522696497,0.0829349905252456,-0.0693839490413665,0.0382346995174884,-0.0018398948013782,0.0039477804675698,0.2692306041717529,0.9630658626556396,-0.0151719522688773,-0.0250862629195098,0.0271943362321657,-0.1748456954956054,-0.337022602558136,2.040149688720703,64,85,14136,13006
13.5,1788522962937,4.873239517211914,5.6619720458984375,-0.0023671572562307,0.0044549820013344,0.3067702651023865,0.9517701864242554,0.1679574571078745,-0.0052858001506088,-9.274835002536132e-05,-0.0171831734478473,0.012536303140223,0.0049088182859122,-0.0019654585048556,0.0039635403081774,0.2717332243919372,0.96236252784729,0.0068439846426381,-0.0389506793202479,0.1375813508360948,0.0251325964927673,0.1616010069847107,-0.615269660949707,49,66,11205,14374
13.6,1788522963037,4.788732528686523,5.549295902252197,-0.0025986456312239,0.0043676537461578,0.3143906593322754,0.9492800235748292,0.1769683141059371,0.0037592613453157,-8.141836735238225e-05,-0.013584429398179,0.0147986058145761,0.1649747937917709,-0.0026689115911722,0.0051859505474567,0.2787530720233917,0.9603450894355774,-0.0037859421735736,0.0704313222120331,0.1555246159898714,0.1076133847236633,-0.2407708764076233,-1.801218032836914,62,95,11462,14415
13.7,1788522963137,4.619718074798584,5.605633735656738,-0.0025353003293275,0.0032590085174888,0.3220445811748504,0.946715533733368,0.1639816064647359,0.0045834894150139,0.0002138063661066,-0.0144278248772025,-0.0520370751619339,0.1676323562860489,-0.0022524278610944,0.0020551001653075,0.2879158556461334,0.9576508402824402,-0.0068155975460689,-0.0524457619161532,0.1529175279531741,-0.1004012823104858,-0.0373298525810241,0.8948478698730469,70,90,11988,13878
13.8,1788522963237,4.8450703620910645,5.267605781555176,-0.0030110427178442,-0.0017234026454389,0.3307507038116455,0.9437118172645568,0.1740790601519539,0.0055769362625347,0.0002104861153662,-0.0502667091786861,-0.0908898189663887,0.0839244201779365,-0.003308686427772,-0.0016263844445347,0.293149471282959,0.956059455871582,-0.0676306366464953,-0.1119715092410504,0.0596545349321205,-0.05551278591156,-0.1580502390861511,2.1265993118286133,55,63,13530,12942
13.9,1788522963337,5.014084339141846,5.267605781555176,-0.0034568607807159,-0.0009135654545389,0.332218587398529,0.9431955814361572,0.1658757888204522,0.0005599654191716,-5.4257214879346994e-05,-0.0064301574602723,0.0383707173168659,0.0660070851445198,-0.0036388207226991,-0.0002954164519906,0.2955469787120819,0.9553213119506836,0.0051683486907157,0.0052123333737619,0.0156008826213103,-0.0666058659553527,-0.2261854410171508,0.3746318817138672,103,89,13917,13490
14.0,1788522963437,4.929577350616455,5.098591327667236,-0.0033216271549463,-0.0007633308414369,0.3337005376815796,0.9426730275154114,0.1725060272822697,-0.000371076867182,2.643734243371141e-05,0.0165323261171579,-0.0238537956029176,0.042091466486454,-0.0034067016094923,-0.000787116587162,0.2971199750900268,0.9548337459564208,-0.0025152089993922,-0.0035596215801259,0.0143871169588513,-0.2358311414718628,-0.1771665811538696,1.103271484375,69,95,13553,13982
14.1,1788522963537,5.070422649383545,5.295774459838867,-0.003463523229584,-0.0009262200910598,0.3362725675106048,0.94175785779953,0.1731102039574479,0.0017868651955028,-4.659189453497387e-05,-0.0013860914623364,0.021230848506093,0.0327455997467041,-0.0034698126837611,-0.0006379708647727,0.2989472150802612,0.954263150691986,0.001211968513768,0.0380738582234208,0.032835318453653,-0.0381529331207275,-0.1954489946365356,0.4289379119873047,72,99,12974,13252
14.2,1788522963637,5.352112770080566,5.070422649383545,-0.0034298067912459,-0.0005080535192973,0.337054580450058,0.9414787292480468,0.1805693159500828,-0.0005904764016054,-4.373358927896177e-05,0.0070079234428703,0.0154510047286748,0.0338634736835956,-0.003700234927237,-0.0004526190459728,0.2996085286140442,0.9540548920631408,-0.0094540915264774,0.0107825527511144,-0.0074747600954461,-0.1884751915931701,-0.1755475997924804,-0.6603107452392578,65,73,12827,12756
14.3,1788522963737,5.239436626434326,4.873239517211914,-0.0039644730277359,-0.0002466776641085,0.3369578123092651,0.9415113925933838,0.1671531298453073,0.0014016831212514,-4.296912207906745e-05,-0.0143297212198376,0.0270785856992006,-0.0071272063069045,-0.0043000448495149,0.0007809875532984,0.298361212015152,0.9544430375099182,-0.0015034484005119,0.0435953735286712,-0.0432571074126123,0.3194125294685364,-0.1193951368331909,-0.6659669876098633,81,79,14798,12627
14.4,1788522963837,5.154929637908936,4.929577350616455,-0.0044358777813613,0.0011860834201797,0.3343676924705505,0.9424315094947816,0.1728151130402458,0.001581415195501,-9.316653060592965e-05,0.0033149402588605,0.0243303216993808,-0.0576723851263523,-0.0043874783441424,0.0013838037848472,0.2967047691345215,0.954958200454712,0.0062585981904892,0.0050176224265059,-0.0528831821440874,0.0172013640403747,0.034278929233551,1.984452247619629,58,52,14507,12281
14.5,1788522963937,5.239436626434326,4.760563373565674,-0.004293352831155,0.0008178864372894,0.3319340348243713,0.943292498588562,0.1700912267219001,-0.0002442785317862,-2.003460088648906e-05,-0.0016330209327861,0.0041782325133681,-0.0600960962474346,-0.0041944971308112,0.001210831105709,0.2941305041313171,0.955755352973938,0.0108180584973758,-0.0012836710337871,-0.0667957488961514,0.0069925785064697,-0.0486499667167663,1.4234046936035156,73,78,14199,12887
14.6,1788522964037,5.154929637908936,5.154929637908936,-0.0044422298669815,0.0007374068954959,0.329508364200592,0.944141924381256,0.176251564373967,0.0027166471215673,-3.912146613519849e-05,-0.0051752887666225,0.0154358772560954,-0.0490341410040855,-0.0043968874961137,0.0009455876424908,0.291688472032547,0.9565027952194214,0.0087647851419521,0.0290863717985879,0.0115911743263722,-0.3587769269943237,0.0412714481353759,-0.8718252182006836,51,55,13293,12820
14.7,1788522964137,4.957746505737305,5.070422649383545,-0.0048575424589216,0.0004719096468761,0.3302392363548279,0.9438846707344056,0.1710237886906654,-0.0003124340904061,7.498683073164866e-05,-0.0064691524021327,0.0029911929741501,0.0310046132653951,-0.0049118716269731,0.0007203621789813,0.2925778031349182,0.9562288522720336,-0.0118044692281711,0.0345522557362468,0.0342815897013315,0.1078501939773559,-0.0501797199249267,1.409648895263672,88,82,14098,13350
14.8,1788522964237,5.295774459838867,4.901408672332764,-0.0049393973313272,0.0004158890806138,0.3308472633361816,0.9436713457107544,0.1818480544280581,-0.000706116849022,3.148195478640113e-06,-0.0066432124003767,-0.0019637236837297,0.0440708920359611,-0.0053313625976443,0.0014248266816139,0.2932575047016144,0.9560176134109496,0.0013901754704743,0.0089615376450887,-0.0266916092411449,-0.0874429941177368,-0.1810425519943237,0.6387977600097656,86,54,14035,12328
14.9,1788522964337,5.323943614959717,4.873239517211914,-0.0050800233148038,0.0011861335951834,0.3295197188854217,0.9441342949867249,0.1725081085034806,-0.0008656190838409,4.57518408212369e-05,0.0135443862527608,-0.0139938257634639,-0.0424935519695282,-0.0049909651279449,0.0018820455297827,0.2912522256374359,0.9566314816474916,0.0122251867824305,0.0311499876535906,-0.0506368746253318,-0.0025926232337951,-0.0520083904266357,0.4408254623413086,81,61,14009,12501
15.0,1788522964437,5.352112770080566,4.901408672332764,-0.0046680802479386,0.0013341803569346,0.3277974724769592,0.944735586643219,0.1761866918235006,0.0003106140041838,7.338249075618463e-05,0.0103523274883627,-0.0210381913930177,-0.0305162519216537,-0.0047047957777976,0.002034074626863,0.2887962162494659,0.9573768377304076,0.007447449011496,0.0341913861974854,-0.046170755039579,-0.0791109204292297,-0.2075768113136291,-1.022812843322754,88,70,13886,12375
15.1,1788522964537,5.633802890777588,4.507042407989502,-0.0042088632471859,0.0015439247945323,0.3256956934928894,0.945464015007019,0.1726635857088614,-7.838401455164639e-05,2.4019935499424577e-05,0.0179811492562294,-0.013060568831861,-0.037337452173233,-0.0048075225204229,0.0020812889561057,0.2836745679378509,0.958906352519989,-0.0449814109025279,0.083696267437025,-0.2253336976853399,-0.2994049787521362,-0.1791216731071472,-0.9520711898803712,98,57,15203,11466
15.2,1788522964637,5.549295902252197,4.422535419464111,-0.0047740316949784,0.0022898185998201,0.3169811069965362,0.948417067527771,0.161634648485408,0.0004404306449092,-0.000125551844028,-0.0053568608127534,0.0359331555664539,-0.2214584499597549,-0.004511022940278,0.0023920545354485,0.2748162448406219,0.9614832401275636,0.0071562270645035,-0.0127083455459522,-0.1944960396375583,0.1144072413444519,-0.3227481245994568,0.1288633346557617,78,95,15225,12171
15.3,1788522964737,5.6619720458984375,4.478873252868652,-0.0047129364684224,0.0031837695278227,0.308758944272995,0.951123297214508,0.1722567524809927,-0.0032912856458133,-7.005632194579136e-05,0.0078557431697845,0.0395884588360786,-0.1663148701190948,-0.0044878013432025,0.0033954558894038,0.2701100409030914,0.9628129601478576,0.0085942221878714,0.0374110872238441,-0.1608721750771948,-0.0230324268341064,-0.1197963953018188,-1.1421613693237305,79,68,14826,12075
15.4,1788522964837,5.6619720458984375,4.647887229919434,-0.0044749900698661,0.0036057175602763,0.3009074032306671,0.9536360502243042,0.1726819180467186,0.00240156948499,-1.177681396322024e-05,0.0066611105576157,0.0116132358089089,-0.1727485805749893,-0.004327761940658,0.0035741720348596,0.2594412267208099,0.9657425880432128,-0.0044491392566072,-0.0289861182228377,-0.1557078111005441,0.058992326259613,0.2785199880599975,0.783045768737793,63,84,14568,11608
15.5,1788522964937,5.126760482788086,4.901408672332764,-0.0042251320555806,0.0040278723463416,0.2907584309577942,0.9567787051200868,0.1726624642845283,-0.0024424924952759,-6.41412724283664e-05,0.0064275357872247,0.0047282953746616,-0.1361895650625229,-0.0040963841602206,0.0037774108350276,0.2520345151424408,0.9677022099494934,-0.0187178599206405,-0.0396798189517398,-0.1273194081288187,0.0596133470535278,0.1217289566993713,0.4460687637329101,59,77,14035,12808
15.6,1788522965037,5.154929637908936,4.929577350616455,-0.0042819618247449,0.0037229643203318,0.2872212529182434,0.9578474760055542,0.1754355881225074,-0.0009183059933577,3.7380919779018965e-05,-0.0038817196618765,-0.0082643395289778,-0.1154708787798881,-0.0042597213760018,0.0039876839146018,0.2476346045732498,0.9688360095024108,-0.0008529967305903,0.0205607728534521,-0.0580951501656882,-0.1029053926467895,-0.0995817184448242,-0.1617565155029297,55,75,13869,12765
15.7,1788522965137,5.126760482788086,4.901408672332764,-0.0043761963024735,0.0035682180896401,0.28563392162323,0.9583221077919006,0.1718080325314726,-0.0020419611324339,-4.792913602238019e-09,0.0,8.019515718160619e-09,0.0,-0.0039438251405954,0.0046147042885422,0.2477217316627502,0.9688122272491456,0.0128167521787574,0.0199503642105881,-0.0093540179330684,0.0354782938957214,-0.1191818714141845,0.0599126815795898,78,67,14284,12556
15.8,1788522965237,5.183098793029785,4.873239517211914,-0.0041074138134717,0.0040154391899704,0.2856471836566925,0.9583176374435424,0.1741365110209416,-0.0048525330188285,2.2633211054802936e-05,-0.0023469631560146,-0.0088853621855378,0.0020750497933477,-0.004178506322205,0.0042892154306173,0.2457681000232696,0.9693101644515992,-0.0004182074863627,-0.0094169283864074,-0.0407112299087547,-0.321586012840271,0.0342158675193786,1.8550138473510744,64,86,14076,12530
15.9,1788522965337,4.788732528686523,5.295774459838867,-0.0043446165509521,0.0041208746843039,0.2838515937328338,0.958849549293518,0.1728980883929041,-8.009346909913623e-06,-1.0419554244589053e-05,0.0025548511184751,0.0016891106497496,-0.015385097824037,-0.0036933543160557,0.0045469999313354,0.2467947453260421,0.9690500497817992,0.0210104194606053,0.0238496278661909,0.0679994488208636,-0.2723206281661987,-0.0163056254386901,0.8886260986328125,56,72,13397,13446
16.0,1788522965437,5.211267471313477,5.042253494262695,-0.0039548757486045,0.0044294744729995,0.2853852212429046,0.958394467830658,0.1792964014704138,0.0021140299511249,-1.3191086255946656e-05,0.0003739478124771,0.0075017479248344,0.0418309420347213,-0.0037483628839254,0.0044852001592516,0.2482521086931228,0.968677818775177,-0.0041605013563276,-0.0128317136994114,0.0088883959706154,0.0371809601783752,0.0895947813987732,-0.1900720596313476,85,72,13100,12861
16.1,1788522965537,4.957746505737305,5.070422649383545,-0.0036616744473576,0.0042446642182767,0.2865259051322937,0.958056092262268,0.1636519440888464,0.0016636275660628,2.298647479459352e-05,0.0077156908810138,-0.0064237597398459,0.0113514456897974,-0.0031122518703341,0.0044246464967727,0.2487848401069641,0.9685436487197876,0.0209914637784212,-0.0065986938931149,-0.0020979950066517,0.1105940341949462,-0.1415701508522033,0.3457937240600586,101,79,13516,12958
16.2,1788522965637,5.183098793029785,4.873239517211914,-0.0031831092201173,0.0041943970136344,0.2867995202541351,0.9579761028289796,0.1722736401964263,0.0012237451091282,3.841411677023254e-05,0.0176761038601398,-0.0074253981001675,0.0114572821184992,-0.0022557107731699,0.0050669452175498,0.2488731741905212,0.9685202240943908,0.0236385650882118,0.0070047917684587,-0.0020913291167157,0.3322167992591858,0.0770503878593444,0.9756345748901368,69,37,14019,12197
16.3,1788522965737,5.183098793029785,4.873239517211914,-0.0016139557119458,0.0022686519660055,0.2858193516731262,0.9582794904708862,0.1699758147651935,0.0010887923634634,-9.32339271350442e-05,0.00846644397825,-0.0796141326427459,-0.0506026446819305,-0.0010064616799354,0.0007596956565976,0.2456092536449432,0.9693681597709656,-0.0232005208416639,0.0020567730413947,-0.1129884625848515,0.1657012701034546,0.2170848846435547,-0.9121646881103516,125,80,14844,12412
16.4,1788522965837,5.352112770080566,4.985915660858154,-0.0008432012982666,0.0006359441904351,0.2817359268665313,0.9594913721084596,0.1755117222555526,-0.002243827343339,-1.3152612272334043e-05,0.0081118894740939,0.0030508115887641,-0.0663362145423889,-0.0006584282964468,-0.0003089448437094,0.2415138781070709,0.9703971147537231,-0.0150204490128542,-0.0271906916511946,-0.0650936561039656,-0.1478658318519592,-0.1884114742279052,0.0872840881347656,75,87,14371,12760
16.5,1788522965937,5.154929637908936,4.8450703620910645,-0.0007580941892229,-0.0004952047602273,0.2783858478069305,0.960468888282776,0.1561767847330508,-0.0002703664947209,7.93108608803536e-06,-0.0103195086121559,-0.0095710325986146,-0.076578751206398,-0.0008148867636919,-0.0003523742780089,0.2404055595397949,0.9706721305847168,-0.0108356514669037,-0.0002486083016023,-0.0761570585826797,0.067747950553894,-0.2353029251098632,0.0558853149414062,67,104,14363,12781
16.6,1788522966037,5.267605781555176,5.014084339141846,-0.0007580941892229,-0.0004952047602273,0.2783858478069305,0.960468888282776,0.1561767847330508,-0.0002703664947209,7.93108608803536e-06,-0.0103195086121559,-0.0095710325986146,-0.076578751206398,-0.0011059548705816,0.0005610333755612,0.2357995510101318,0.971800982952118,-0.0132905936923142,0.0048380628408863,-0.0714248109781299,0.0645632147789001,0.2042373418807983,-0.1943902969360351,53,91,14288,12323
16.7,1788522966137,5.183098793029785,5.211267471313477,-0.0009836775716394,6.136542651802301e-05,0.2731939852237701,0.9619584679603576,0.1729422396483271,0.0016027747690611,6.342629884415017e-06,-0.0019715393427759,-0.016970932483673,-0.056161992251873,-0.00041098985821,-0.0002985624596476,0.2349334955215454,0.9720113277435304,0.0239254832665772,-0.0277858457587219,0.0190137114944313,-0.1985368132591247,-0.0891343355178833,0.7240591049194336,73,91,13137,12381
16.8,1788522966237,4.957746505737305,5.014084339141846,-0.0001489713322371,-0.0008786579710431,0.2732323110103607,0.9619476795196532,0.1861832805942837,-0.0031410537258439,0.000108918258424,0.0094510978087782,-0.0463380515575408,0.0125933932140469,-0.00309041980654,8.992478251457214e-05,0.2346237897872924,0.972081422805786,-0.0463019139359255,-0.0127113482944213,0.0063360538468819,0.1133796572685241,-0.153615117073059,-0.0249919891357421,70,118,14050,14039
16.9,1788522966337,5.126760482788086,4.873239517211914,-0.0039471508935093,0.0002938094548881,0.2726221978664398,0.962113082408905,0.1784871162750083,-0.0004131908428096,-5.004878183604497e-05,-0.0012687675189226,0.027365269139409,-0.0225653015077114,-0.0042358599603176,0.000266496092081,0.233942449092865,0.972241222858429,-0.0111081184386219,0.023325631374811,-0.0331845353636971,0.032939076423645,0.32365483045578,0.6485462188720703,95,87,14537,12822
17.0,1788522966437,5.014084339141846,5.323943614959717,-0.0044988375157117,0.0001033351290971,0.2713998258113861,0.9624561071395874,0.1803334465942277,5.554562692286445e-05,7.672128655524875e-10,0.0,0.0,0.0,-0.0053609414026141,0.0003335019573569,0.2339239716529846,0.9722400307655334,-0.0142344642904898,0.002243374308121,0.0578673178267271,-0.3552485704421997,0.2569676637649536,0.1572036743164062,50,76,12522,13383
17.1,1788522966537,4.901408672332764,5.154929637908936,-0.0054803253151476,-0.0002634990960359,0.2726147472858429,0.9621076583862304,0.1797154755487781,-0.0012930718581762,-7.685227570293705e-05,-0.041797861456871,-0.0036813160404562,0.0504395551979541,-0.0054260902106761,-0.0014356328174471,0.2354397475719452,0.9718726873397828,0.0090319048168841,-0.083798782335944,0.0474166028244815,-0.6367329359054565,-0.0746169090270996,1.12689208984375,62,83,12755,13690
17.2,1788522966637,5.154929637908936,5.070422649383545,-0.0043115764856338,-0.000498907000292,0.2785407602787018,0.9604145884513856,0.1682551301574129,-0.0024811004309625,-0.0001329276257447,0.0383049808442592,0.0117730386555194,0.1634920239448547,-0.0040744869038462,-0.00022335909307,0.2408530563116073,0.9705529808998108,0.0165987900864638,-0.0004770481944665,-0.0158536579624646,-0.0702464580535888,-0.0307596921920776,0.8950939178466797,60,60,14073,12765
17.3,1788522966737,5.070422649383545,4.8450703620910645,-0.0041898423805832,-0.0001095921033993,0.2786287367343902,0.9603897929191588,0.1709996781681172,-0.0016658018100381,-2.2254829878882496e-05,0.0071346159093081,0.0132429115474224,-0.0179819576442241,-0.0039401734247803,-0.0001962520182132,0.2401732355356216,0.9707220196723938,0.0090020053246849,-0.0179985066208258,-0.0049310355893798,0.1410534977912902,-0.0552659034729003,-0.8425168991088867,80,46,15006,12320
17.4,1788522966837,5.014084339141846,4.985915660858154,-0.0043600685894489,-0.0001132143661379,0.2763258814811706,0.9610540866851808,0.169163004250686,-0.0017483010115395,-9.374530158755902e-05,-0.0098237181082367,0.0233721751719713,-0.0406408235430717,-0.0042051561176776,-9.970646351575851e-05,0.2386741787195205,0.9710906147956848,-0.0128575295673826,0.0088256773238773,-0.0599011146812671,-0.0775205492973327,0.0528560876846313,0.7752895355224609,61,81,14134,13095
17.5,1788522966937,5.126760482788086,4.8450703620910645,-0.0044476087205111,-0.0001518925419077,0.2751857936382293,0.9613807797431946,0.1784821225624317,0.0026544399708,4.955323996894658e-05,-0.0038125184364616,-0.0003250720037613,-0.0483519285917282,-0.0047461539506912,0.0004781885072588,0.2350164651870727,0.9719796776771544,0.0045077625687853,0.0048307998426707,-0.0771279034739193,0.0938764214515686,-0.2557818293571472,-0.461674690246582,89,63,14263,12271
17.6,1788522967037,5.154929637908936,4.901408672332764,-0.0043341517448425,0.0002333914162591,0.2712072134017944,0.9625112414360046,0.1697555648094622,-0.0005391872576031,-5.66376646241002e-06,0.0174677520990371,0.0045857466757297,-0.0401932261884212,-0.004179916344583,6.47539272904396e-05,0.2326942235231399,0.9725410342216492,0.0119458180857487,-0.0214945896190962,-0.0434617637499211,-0.055177628993988,-0.1306983232498169,0.1580257415771484,64,56,13901,12767
17.7,1788522967137,4.901408672332764,4.901408672332764,-0.0043087382800877,-0.0002205680939368,0.2684605121612549,0.9632810354232788,0.1517743016593315,-0.0010357099104813,-2.2886598426176166e-06,-0.0104201519861817,0.0132109113037586,-0.0681936591863632,-0.0043796813115477,0.000173270702362,0.2299426198005676,0.9731943011283876,-0.0050432632788008,0.0415541890323945,-0.060539743718295,-0.118890643119812,-0.0199058651924133,0.4619779586791992,64,90,12836,13111
17.8,1788522967237,5.070422649383545,5.098591327667236,-0.0043087382800877,-0.0002205672208219,0.2684603333473205,0.9632810950279236,0.1722574279868843,0.0008968937557411,7.952754106339189e-09,2.306849822275581e-08,2.8211156077873056e-08,-3.6110279779677512e-06,-0.0048281103372573,-0.0001382930204272,0.2298407852649688,0.9732162952423096,-0.0257518186262726,-0.0272951540148501,-0.0141366046737714,-0.0679905414581298,-0.0014571547508239,-0.9283151626586914,103,28,14306,12033
17.9,1788522967337,5.098591327667236,4.788732528686523,-0.00514108967036,0.0004430055851116,0.2678550779819488,0.9634454250335692,0.1746509028722207,0.0044583883925182,-4.975216988280927e-06,-0.0249334312975406,0.0346269235014915,-0.0249742493033409,-0.0054669920355081,0.0001237289980053,0.2286397814750671,0.9734957814216614,-0.0143858588326636,-0.0538777307176713,-0.0501323379518195,0.1809116005897522,-0.0973861217498779,0.0346956253051757,79,91,14278,12682
18.0,1788522967437,5.183098793029785,4.929577350616455,-0.0051547307521104,-0.0006440734723582,0.2640145719051361,0.9645046591758728,0.1844843579671198,-0.0043458577425839,0.0002961892925828,0.0065442393533885,-0.0980257093906402,-0.0484179966151714,-0.0054526105523109,1.7365440726280212e-05,0.2254344373941421,0.9742430448532104,-0.0098726019237575,-0.0259831494420882,-0.0462374836374545,0.578697144985199,-0.2199667692184448,1.0675983428955078,65,84,14991,12411
18.1,1788522967537,5.183098793029785,4.929577350616455,-0.0057478547096252,0.0008948426693677,0.2611908614635467,0.9652696847915648,0.1707779812938811,-0.0010489903017495,1.1416955465354453e-05,-0.009324986487627,0.0021527910139411,-0.0665951073169708,-0.0056307110935449,0.0013402411714196,0.2225382328033447,0.974906861782074,0.0146913551962466,0.0413169871668302,-0.0625948992510404,0.0901389122009277,-0.1236715912818908,0.2513036727905273,96,95,14615,13018
18.2,1788522967637,5.239436626434326,4.985915660858154,-0.0062056733295321,0.0014426225097849,0.2590076625347137,0.965854287147522,0.1861979942545981,-0.0025900200610244,-1.566374710175336e-05,-0.01075573079288,0.0066207922063767,-0.0578196570277214,-0.0062672952190041,0.0013783164322376,0.2197365164756775,0.97553813457489,-0.0102367024017773,-0.0188812837500367,-0.0573346367433919,-0.174804151058197,-0.1262155175209045,-0.6659965515136719,71,57,14029,12201
18.3,1788522967737,5.154929637908936,4.8450703620910645,-0.0062785735353827,0.0012686684494838,0.25722536444664,0.9663302898406982,0.1747483727105874,-0.0040871743555098,8.537818460556043e-05,0.0008391529554501,-0.0029119097162038,-0.0265378188341856,-0.0061700595542788,0.0010263612493872,0.2185960859060287,0.9757954478263856,0.0050937342611027,-0.0185869712957771,-0.0185990038717067,0.1118467450141906,0.1370136737823486,1.1757736206054688,53,61,13916,12405
18.4,1788522967837,5.605633735656738,4.535211086273193,-0.0057469313032925,0.0010205961298197,0.2529378831386566,0.9674648642539978,0.1854352522772736,-0.0073767440511914,-3.4659874343608855e-05,0.0132661340758204,0.0075840260833501,-0.1065245270729065,-0.0054251747205853,0.0013170139864087,0.2137892395257949,0.9768639206886292,0.0310180251132369,0.0297168552744306,-0.1227713748483782,-0.2391098141670227,-0.1741584539413452,0.0973234176635742,55,58,14927,11343
18.5,1788522967937,5.633802890777588,4.676056385040283,-0.0040480233728885,0.0001984321861527,0.2485093772411346,0.968621015548706,0.1840347327762587,-0.0078221958462631,-2.896932836125487e-05,0.0393502116203308,-0.0047262297011911,-0.1031063720583915,-0.0036096256226301,3.856886178255081e-05,0.2093624621629715,0.977831482887268,0.0630084283058518,-0.0673046604174,-0.1386761503050256,-0.2173036336898803,-0.2020707130432129,-0.8654451370239258,77,17,14822,10951
18.6,1788522968037,5.549295902252197,4.394366264343262,-0.0039434912614524,-3.92841175198555e-05,0.2386035025119781,0.9711090326309204,0.1674184171901251,-0.003266487402725,-5.846075192516636e-06,-0.0039308248087763,0.0084562180563807,-0.2404483556747436,-0.0041311280801892,8.358247578144073e-05,0.1967587620019912,0.980443239212036,-0.012629229641138,0.000140047358046,-0.2092535822820675,0.1695372462272644,0.2170093655586242,-0.0357494354248046,77,113,15261,11947
18.7,1788522968137,5.549295902252197,4.591549396514893,-0.0045269462279975,-0.0005813345778733,0.2295200824737548,0.9732932448387146,0.1814376594052645,-0.0092398258458904,7.779923267645095e-05,-0.0123692071065306,-0.009435505606234,-0.1710673719644546,-0.0047477465122938,-0.0009804368019104,0.189003899693489,0.981964349746704,-0.0214608346502002,-0.0335523615058632,-0.1688432463036229,-0.0194376111030578,0.2040940523147583,0.48944091796875,61,60,14293,11633
18.8,1788522968237,5.521126747131348,4.507042407989502,-0.0039258948527276,0.0006598569452762,0.2215017527341842,0.9751518368721008,0.1753845357035938,-0.0062262525914087,-0.0002159930529749,0.0249461885541677,0.0410902239382267,-0.1379589736461639,-0.0039078211411833,0.0008746022358536,0.1826653778553009,0.9831669926643372,0.0035798995223986,0.0503110320668166,-0.1582297408523413,0.1463307738304138,-0.0650357007980346,-0.2408981323242187,61,77,14673,11802
18.9,1788522968337,5.295774459838867,4.901408672332764,-0.003281473647803,0.0005159337888471,0.2149690836668014,0.9766152501106262,0.1815184138494078,-0.0043768880497727,4.44329322795157e-05,0.0120614683255553,-0.0200250204652547,-0.1426301002502441,-0.0032032774761319,0.0005451189354062,0.1760314255952835,0.9843791723251344,0.0183027082403464,-0.0311718287482596,-0.1415139621805009,0.292151391506195,0.0991312265396118,-0.0430555343627929,85,141,13617,13669
19.0,1788522968437,5.295774459838867,4.788732528686523,-0.0030674212612211,0.0003219548962078,0.21188285946846,0.9772902131080629,0.1872539580325138,-0.002721186204375,4.549574498623066e-05,0.0033731972798705,-0.0106089962646365,-0.0914477556943893,-0.0032442715018987,0.0002346783876419,0.1718126237392425,0.9851243495941162,-0.0138313344880508,-0.0108031001019804,-0.0833822184886505,0.1549288630485534,-0.1906483173370361,-0.9547576904296876,65,96,14704,12788
19.1,1788522968537,5.211267471313477,4.929577350616455,-0.0033834350761026,0.0002558292471803,0.2091795206069946,0.9778713583946228,0.1797086031615215,-0.0048469144497453,9.758526301065622e-06,0.0009059267467819,-0.0079156570136547,-0.0405206233263015,-0.0034634619951248,0.0004160245880484,0.1700661033391952,0.9854265451431274,-0.0044267653179466,0.0037701864243909,-0.0321254830518149,-0.0161542892456054,0.2062733769416809,-0.1806325912475586,48,74,14590,13188
19.2,1788522968637,5.183098793029785,5.070422649383545,-0.003528042929247,-0.0001691133948042,0.2079465538263321,0.9781337976455688,0.1782240371404586,-0.0047276082171993,2.642874601898829e-05,-0.0076229651458561,-0.0126837454736232,-0.0419941395521163,-0.0038435934111475,-0.0002566911280155,0.1680866479873657,0.9857646822929382,-0.0148379014274312,-0.0281751824175593,-0.0455377885560405,0.0355873703956604,-0.0634102225303649,-0.3097047805786133,90,59,13848,12629
19.3,1788522968737,5.154929637908936,4.873239517211914,-0.0040088556706905,-0.0001401840127073,0.2051931768655777,0.9787132740020752,0.1758091141622982,-0.0016532466450068,7.9062424294777e-06,-0.0012319987872615,0.012044433504343,-0.0499226488173007,-0.0041745975613594,-2.9709190130233765e-05,0.1653366684913635,0.9862284064292908,-0.0183985439478594,-0.018024829017612,-0.0477831610629748,-0.0297408699989318,0.0422197580337524,-0.2195596694946289,68,71,13626,12549
19.4,1788522968837,5.183098793029785,4.8450703620910645,-0.0043383133597671,-0.0002049853792414,0.2020167559385299,0.9793724417686462,0.1917618059091034,-0.0060937979222522,8.83624780547519e-06,-0.0095066241919994,-1.7809898054110818e-05,-0.0657016932964325,-0.0044181067496538,0.0001050345599651,0.1625517606735229,0.9866902232170104,-0.0079118726391742,0.0175905825908764,-0.0640544849388792,-0.0750499963760376,-0.2766474485397339,1.286686897277832,66,74,14165,12721
19.5,1788522968937,5.014084339141846,4.788732528686523,-0.004677222110331,0.0012540875468403,0.1998107880353927,0.97982257604599,0.1765889350717628,-0.006096189121962,-3.3364962462628646e-05,0.0045178923755884,0.0755227506160736,-0.0306739695370197,-0.0048768138512969,0.0032976604998111,0.1606925278902053,0.9869869947433472,0.0005424942228038,0.2281512579654692,-0.0357655614035557,0.456385850906372,0.4034656286239624,0.4503841400146484,112,108,14282,12785
19.6,1788522969037,5.211267471313477,4.929577350616455,-0.0048251994885504,0.001297835027799,0.1976530998945236,0.9802592396736144,0.1888228615133692,-0.0061632716224989,0.0004883266691329,-0.0027311916928738,-0.092898890376091,-0.0520373880863189,-0.0048136105760931,0.000666631385684,0.1576785147190094,0.987478494644165,-0.0114110281840815,-0.0848988259461493,-0.0586267978298854,-0.0906318426132202,0.2027225494384765,0.1314296722412109,59,74,13688,11764
19.7,1788522969137,6.02816915512085,4.169013977050781,-0.0048611918464303,0.0007120892987586,0.1935437768697738,0.9810792803764344,0.170101451950323,-0.0045206935547958,-1.245134066822327e-06,0.0022703777067363,0.0132762286812067,-0.1407590508460998,-0.0049109105020761,0.0011007385328412,0.1522369980812072,0.9883312582969666,-0.0047396331238555,0.0265873084966661,-0.2286383106908879,0.0593963265419006,-0.3106259703636169,0.4411993026733398,166,57,16469,10576
19.8,1788522969237,5.88732385635376,4.2253522872924805,-0.0046893106773495,0.0011332300491631,0.1809167116880417,0.9834865927696228,0.1829120363217464,-0.0086368916580334,1.515882939420582e-05,0.0093499226495623,-0.0015821593115106,-0.2623188197612762,-0.004762589931488,0.0015008095651865,0.1403788328170776,0.990085244178772,-0.0075041566080531,0.0203166692711735,-0.2553593554441596,-0.1817142367362976,0.0568156242370605,1.570343017578125,68,64,16051,10933
19.9,1788522969337,5.633802890777588,4.366197109222412,-0.0050450810231268,0.001765330787748,0.1657494306564331,0.9861533641815186,0.1670638292853397,-0.0039220647230935,-7.187401244681201e-06,-0.0044345068745315,0.0062511689029634,-0.3154389262199402,-0.004747312515974,0.0020960606634616,0.1228993982076644,0.9924055933952332,0.0165590999938073,0.0081451215346126,-0.2537539520626334,0.1837531924247741,-0.0454109907150268,-1.1314563751220703,55,78,15018,12172
20.0,1788522969437,5.549295902252197,4.563380241394043,-0.004688543267548,0.0031004946213215,0.1564230024814605,0.9876741766929626,0.1781295161141913,-0.0042381485084137,3.635692572012464e-05,-0.0001032119689625,0.0229900702834129,-0.1515935808420181,-0.0045091779902577,0.0031132632866501,0.116417109966278,0.99318528175354,0.0022060236782391,0.0402045766833748,-0.1579880715027073,-0.017217993736267,-0.3163347840309143,-1.346515655517578,86,89,14782,12350
20.1,1788522969537,5.549295902252197,4.478873252868652,-0.004139500670135,0.0028553365264087,0.1492250263690948,0.9887904524803162,0.1731369903193322,-0.005905019354366,8.604830594797115e-05,0.0053503639064729,-0.0182784907519817,-0.167635902762413,-0.0041373688727617,0.0032391902059316,0.1064528077840805,0.9943039417266846,-0.0037681339792288,0.008750725277358,-0.1882924315805095,0.1297287344932556,0.1108315587043762,-0.2325973510742187,93,94,14527,12151
20.2,1788522969637,5.97183084487915,4.591549396514893,-0.0058399490080773,-2.2332475055009127e-05,0.1395490616559982,0.9901979565620422,0.2037187070772373,-0.0076955205315757,0.0002232350419513,-0.0782215595245361,-0.1190954223275184,-0.2194162607192993,-0.0041567115113139,-0.0005971230566501,0.0990185886621475,0.9950767755508424,0.1026627236343988,-0.0618876430362041,-0.0859373465020472,-0.5816304683685303,-0.3813159465789795,2.218844413757324,19,49,13569,11584
20.3,1788522969737,5.267605781555176,4.422535419464111,-0.0041039194911718,5.627644713968039e-05,0.1359837353229522,0.9907025694847108,0.1658369252528535,0.0036380085025243,-0.0001475991056933,-0.0030603546183556,0.0176954846829175,-0.0892699211835861,-0.003914251923561,0.0007731774821877,0.0953286737203598,0.9954378604888916,0.0240873071331658,0.0273549819477697,-0.1595954178423089,0.1571353077888488,-0.8534281849861145,1.6557559967041016,108,40,16025,11519
20.4,1788522969837,5.7183098793029785,4.591549396514893,-0.0050570406019687,0.0012805254664272,0.125720590353012,0.9920519590377808,0.1749096479911331,-0.0055095340193664,-0.0002007651213953,-0.0229841489344835,0.0415063872933387,-0.1747981011867523,-0.0050025284290313,0.0014792270958423,0.0864468589425087,0.9962427616119384,-0.0247526770974882,0.0214547712598369,-0.141517664187846,0.0449016094207763,0.0367808938026428,-0.2102270126342773,86,55,14278,11693
20.5,1788522969937,5.464788913726807,4.985915660858154,-0.005275116302073,0.0013074274174869,0.1191403195261955,0.9928625226020812,0.1820291854174974,-0.0067836096869175,8.033219723367174e-05,-0.0097072338685393,-0.0086302440613508,-0.1539144665002823,-0.0052030654624104,0.0017787460237741,0.0798125863075256,0.9967947602272034,-0.003281331447343,0.0374899652587958,-0.1488554572975474,-0.2629197835922241,-0.0534923672676086,1.1398200988769531,55,88,14138,12787
20.6,1788522970037,5.070422649383545,5.014084339141846,-0.0053863059729337,0.0008534477674402,0.1150726974010467,0.9933421611785888,0.175413648977881,-0.0030427996621262,-1.801707955954596e-05,0.00901978649199,0.0010663147550076,-0.0472122468054294,-0.0052508134394884,0.0017213560640811,0.0756802037358284,0.9971168637275696,0.0142038865239292,0.0652703876720987,-0.0100189906081222,0.0460028648376464,0.2851619124412536,-2.1303553581237797,79,92,13252,12460
20.7,1788522970137,5.126760482788086,5.014084339141846,-0.0051683001220226,0.0009828265756368,0.1153592839837074,0.9933099746704102,0.1756618339701335,-0.0014813071653161,-0.0001724079189847,-5.445412898552604e-05,0.0074646244756877,0.0273767486214637,-0.0050791874527931,0.0010353494435548,0.0761093720793724,0.9970860481262208,-0.013007889300571,-0.0524583804931946,0.0248373798870731,0.0060354471206665,-0.0802516937255859,0.1892910003662109,87,92,13492,12882
20.8,1788522970237,5.098591327667236,5.042253494262695,-0.0053604682907462,0.0011358459014445,0.1158075183629989,0.9932565689086914,0.1746175168824679,-0.0003939674104204,4.941387241943523e-05,-0.0098929181694984,-0.0081499358639121,-0.0025022930931299,-0.0053350171074271,0.0014082929119467,0.0764539018273353,0.997057855129242,-0.0116247490844744,0.0061399631147001,-0.0075389005965632,0.0214356184005737,-0.0871580243110656,-2.0163650512695312,70,91,13919,13238
20.9,1788522970337,4.985915660858154,5.267605781555176,-0.0053618298843503,0.001110469456762,0.117571085691452,0.993049383163452,0.187831176443771,-0.0013146950022214,1.4638525255931024e-05,0.0033713267184793,-0.0059607117436826,0.0490814112126827,-0.0053503727540373,0.0012576766312122,0.0789198502898216,0.9968658685684204,-0.0028557990009993,-0.0042869672742185,0.0440558563334388,-0.0328986644744873,-0.1575767397880554,0.6375551223754883,54,74,13806,13161
21.0,1788522970437,4.732394218444824,5.267605781555176,-0.0050210165791213,0.0007937052869237,0.1203591376543045,0.9927173852920532,0.177221589437112,0.0015077017557618,-1.9323126765274328e-05,0.0081727355718612,-0.0025107047986239,0.0657463893294334,-0.0049468800425529,0.0009545609354972,0.0812791883945465,0.9966787099838256,0.0097507314398675,-0.0117987223204446,0.0533924036800115,-0.0190922021865844,0.0264608263969421,-0.0292387008666992,58,93,13864,13724
21.1,1788522970537,4.8450703620910645,4.985915660858154,-0.0046515702269971,0.001099566812627,0.1234841719269752,0.992335081100464,0.1833732600935029,0.0031847014570059,-3.4884086665183e-05,0.005829176865518,0.0075672515667974,0.0574717447161674,-0.0043254755437374,0.0018600635230541,0.0850715860724449,0.9963637590408324,0.0217774088960988,0.0366334241968435,0.0586399264550782,-0.0314717292785644,-0.0161062479019165,-0.5254230499267578,102,45,13957,12765
21.2,1788522970637,4.901408672332764,5.042253494262695,-0.004419217351824,0.0028197742067277,0.1246076747775077,0.9921923279762268,0.1900886759446874,-0.0059892733659509,-0.0001167536509232,-0.0029922563116997,-0.0376494973897933,-0.005060349125415,-0.0040565058588981,0.0014612236991524,0.0850932598114013,0.9963636994361876,0.0100988530229136,-0.1111425446505864,-0.0177330623535044,-0.2422673106193542,0.0055383443832397,5.160153388977051,96,53,13573,12914
21.3,1788522970737,5.183098793029785,4.929577350616455,-0.004079099278897,0.0014625507174059,0.1234754100441932,0.9923381805419922,0.1840006032437096,-0.004335916243556,-4.801452406465342e-05,-0.0008176713017746,0.0212655309587717,-0.0236330144107341,-0.0040974803268909,0.0016920287162065,0.0840667635202407,0.9964503049850464,-0.0076859601096693,0.0278530007037053,-0.0183707220711576,-0.1397219896316528,-0.0235406160354614,1.599609375,56,81,14019,13151
21.4,1788522970837,4.901408672332764,5.295774459838867,-0.0037997583858668,0.0005602397723123,0.1233235970139503,0.9923590421676636,0.1810963503827355,0.0008771343547836,0.0001304705505771,0.0066441013477742,-0.0245125871151685,-0.0084593640640378,-0.0036049969494342,0.000738994218409,0.083670824766159,0.9964867234230042,0.0132355059238956,-0.0099781842967687,-0.025034440741373,-0.3015250563621521,-0.1595773100852966,0.5155878067016602,68,67,13307,13484
21.5,1788522970937,4.901408672332764,5.295774459838867,-0.0029046048875898,0.0013641247060149,0.1245177164673805,0.992212176322937,0.1705014065699108,0.0009991223252992,-3.1941822235475545e-05,0.0238065384328365,0.0195129755884408,0.0591007135808467,-0.0027964152395725,0.00128910318017,0.0857507139444351,0.996311902999878,0.0089755745672222,-0.0029860393661561,0.0599282547016172,0.307473361492157,-0.0447021722793579,-0.3188142776489258,88,80,14198,13235
21.6,1788522971037,4.957746505737305,5.154929637908936,-0.0026931487955152,0.0010758503340184,0.126652255654335,0.9919429421424866,0.1828990461674051,-0.0022000346921886,5.5400646754397154e-05,-0.0107142142951488,-0.015307368710637,0.0357965193688869,-0.0026485631242394,0.0011813631281256,0.0873817801475524,0.996170699596405,-0.0269858745205607,-0.0085079802070108,0.0186816046871362,-0.4344184994697571,0.2515563368797302,0.830235481262207,56,70,13286,13084
21.7,1788522971137,5.211267471313477,4.8450703620910645,-0.0030274558812379,0.0003114960563834,0.1258552521467209,0.9920439720153807,0.1789795277891149,0.0010268333172443,0.0001053954355801,-0.0023563229478895,-0.0354226417839527,-0.0497553646564483,-0.0032440945506095,-0.0001586768776178,0.0857284590601921,0.9963133335113524,-0.0279099275321689,-0.04578933661525,-0.0704414637750911,0.1133161187171936,0.1673528552055359,-1.2936792373657229,86,57,14081,12327
21.8,1788522971237,5.295774459838867,4.929577350616455,-0.0043146791867911,-0.0015752068720757,0.1220159009099006,0.9925174713134766,0.1878652428296023,-0.002896478745211,0.0001762791529515,-0.0461508780717849,-0.0438143648207187,-0.0878780633211135,-0.0042753303423523,-0.0018283389508724,0.0818995758891105,0.9966297745704652,-0.0216898342648331,-0.0349680338181252,-0.0984772670012305,-0.6032766103744507,-0.4891676902770996,1.303903579711914,54,70,14288,12616
21.9,1788522971337,5.295774459838867,4.901408672332764,-0.0018172601703554,-0.0007745551993139,0.1223710179328918,0.9924824237823486,0.1851190833182487,0.0009722410941023,7.351860287902576e-05,0.0422799661755561,-0.0288591310381889,0.0210395697504282,-0.0015799822285771,-0.0009748386219143,0.0829763859510421,0.9965498447418212,0.0461765308226529,-0.0410277041177906,-0.0224172104033226,-0.1967710852622985,-0.4362800121307373,1.173725128173828,67,53,14283,12369
22.0,1788522971437,5.211267471313477,4.8450703620910645,-0.0022910011466592,0.0004242348950356,0.1176368072628974,0.9930539131164552,0.1762324552034088,-0.0060563476637269,-1.9128871275324656e-06,-0.0076167378574609,0.0122802518308162,-0.1121850684285163,-0.0023991772904992,-5.3223222494125366e-05,0.077591173350811,0.9969823360443116,-0.016231419343804,-0.0459237774327761,-0.0818033401095801,-0.2419392466545105,0.1406100392341613,2.925039291381836,69,91,13954,13300
22.1,1788522971537,5.098591327667236,5.042253494262695,-0.0022590688895434,0.0002634038391988,0.1154564768075943,0.9933099746704102,0.1818262456797091,-0.0046526179676907,-3.987887575025558e-09,0.0085053024813532,-0.0003388619225006,-0.0308935176581144,-0.0020001623779535,0.000199107453227,0.0757079944014549,0.9971280694007874,0.0156383282283531,-0.0113683313556565,-0.0289180602717584,-0.1581310033798217,-0.1212739944458007,2.2285633087158203,76,68,14082,12729
22.2,1788522971637,5.380281925201416,4.873239517211914,-0.0020027852151542,0.0002620846498757,0.1131708920001983,0.9935734868049622,0.1757937083339379,-0.0068965811797707,-5.506596689904389e-05,-0.0013349776854738,0.0115674650296568,-0.0582654550671577,-0.0022881543263792,0.0007122680544853,0.0725707709789276,0.9973604679107666,-0.015854110115423,0.0252846385857695,-0.0673203103240785,-0.0032163262367248,-0.0611106753349304,0.2594518661499023,73,95,14104,12691
22.3,1788522971737,5.352112770080566,4.901408672332764,-0.0023021970409899,0.0003178807382937,0.1104316040873527,0.9938809871673584,0.1826960579954006,-0.0070746158879982,-3.3027283553673813e-06,0.0008855197811499,-0.0023159505799412,-0.0461905263364315,-0.0024565495550632,0.0002254536375403,0.0704471617937088,0.9975124597549438,-0.0120430313045533,-0.0112754575154646,-0.0433875286894664,-0.0481811761856079,0.0513997673988342,-0.0992164611816406,78,77,14068,12930
22.4,1788522971837,5.154929637908936,4.901408672332764,-0.0020084283314645,0.0002045387373073,0.1086992844939231,0.9940726161003112,0.1801799244416509,-0.0046042041331715,2.466262899279952e-05,0.0058470289222896,0.0099970921874046,-0.0299806799739599,-0.0020197303965687,0.0002682907506823,0.0690768882632255,0.997609317302704,-0.0101961975997524,0.0113495249113731,-0.0482700742169941,0.0301779508590698,-0.2149924635887146,0.4921112060546875,73,73,14143,12901
22.5,1788522971937,5.323943614959717,4.873239517211914,-0.0021022811997681,0.0003796031814999,0.1064286082983017,0.9943180680274964,0.186692737525674,-0.0036110897839975,1.254092474639114e-05,-0.0049453894607722,-0.0066584744490683,-0.0480363629758358,-0.0020104488357901,0.0002809530124068,0.0662770196795463,0.9977991580963136,0.0065929879759445,-0.0173436334866061,-0.0608550202063872,0.2254796028137207,0.0166134238243103,-2.292574882507324,77,108,13998,12723
22.6,1788522972037,5.323943614959717,4.816901206970215,-0.0023277627769857,8.793969755060971e-05,0.1031761392951011,0.9946603775024414,0.1798350563214186,-0.0030492480828969,9.787953462317058e-05,-0.0138597907498478,-0.0186299476772546,-0.0788172706961631,-0.0024420656263828,6.658956408500671e-05,0.0627697259187698,0.9980250597000122,-0.0053128221801142,-0.0066585662805854,-0.0480173721334412,-0.0369647145271301,0.1765059232711792,1.0496225357055664,56,87,13878,12731
22.7,1788522972137,4.8450703620910645,5.183098793029785,-0.0025882835034281,0.0004876436141785,0.100954458117485,0.9948875308036804,0.1808440391061129,-0.0058598838280238,-7.822647537261027e-06,-0.0048103751614689,0.0134813589975237,-0.042141918092966,-0.0022560795769095,0.0004481496289372,0.0621147118508815,0.9980663657188416,0.0200998185804611,-0.010792397427233,0.0352704397679726,0.1612037420272827,0.1007913947105407,-0.5556554794311523,80,82,14097,12923
22.8,1788522972237,5.098591327667236,5.098591327667236,-0.0023205273319035,0.0004589319287333,0.1024393364787101,0.9947364330291748,0.1835751821691326,0.0003097029256198,-2.24160896957384e-05,0.0074742040596902,0.0093190548941493,0.0203177873045206,-0.0024763410910964,-4.658475518226624e-05,0.0629496052861213,0.9980136156082152,-0.0186397210607266,-0.0533161394178395,-0.0156333388962415,-0.0294237732887268,0.2887958884239197,1.2371549606323242,75,58,13499,12698
22.9,1788522972337,5.014084339141846,4.873239517211914,-0.0026026228442788,0.0010927502298727,0.1020379289984703,0.9947765469551086,0.1787576091363558,-0.0037103397346029,0.000197915145351,-0.0063024992123246,-0.0703520849347114,-0.0050837169401347,-0.0027550067752599,0.0021556308493018,0.0622934773564338,0.9980517625808716,0.0001893910883843,0.0601662908813814,-0.0134513709256146,-0.0357033610343933,0.0807167291641235,0.8277578353881836,100,107,14560,13626
23.0,1788522972437,4.985915660858154,5.042253494262695,-0.0033173158299177,0.0006363135762512,0.1019013375043869,0.9947887659072876,0.1814684551471685,0.0004838042596777,-1.183468163897952e-08,-0.0143282106146216,-0.0176124554127454,0.0078907078132033,-0.0032941866666078,0.0011381572112441,0.0626696199178695,0.99802827835083,0.0054247881593172,-0.0051235453370641,0.0053435208356036,-0.2422297596931457,-0.1330271363258361,-0.2993507385253906,70,74,13171,12762
23.1,1788522972537,4.8450703620910645,5.352112770080566,-0.0034704252611845,0.0019422858022153,0.1021454930305481,0.9947615265846252,0.1745665551716205,0.0039884969104233,2.0131855551305763e-05,-0.0039239395409822,0.0378375574946403,0.0028772498480975,-0.0036395546048879,0.0012791650369763,0.0631460919976234,0.9979968667030334,-0.0059929140455955,-0.027122004704533,0.026585536639707,0.0923501253128051,0.0197875499725341,1.37054443359375,58,103,12708,13676
23.2,1788522972637,4.929577350616455,5.352112770080566,-0.0038417987525463,0.0009830018971115,0.1047887057065963,0.9944866299629213,0.1788749952773116,0.0013169745679903,0.0001106823653297,-0.0113231381401419,-0.0135300746187567,0.0579503066837787,-0.0040136557072401,0.0011640395969152,0.0653185695409774,0.9978557229042052,-0.0147519800140069,0.0117144783472758,0.0431047940644671,-0.2392512559890747,-0.0616654157638549,0.9818344116210938,66,67,13265,13592
23.3,1788522972737,4.957746505737305,5.211267471313477,-0.0041014114394783,0.0002736743190325,0.1060357466340065,0.9943538308143616,0.1782487867632346,0.0018552632229315,-2.441339656471821e-10,7.47984896243281e-10,9.308257276074984e-09,-1.021248749566439e-06,-0.0045300237834453,0.0009084930643439,0.0673829913139343,0.99771648645401,-0.0137373432564734,0.0068915654175296,0.0325046036511142,-0.0159124732017517,0.3405570983886719,0.1795539855957031,83,64,14710,12488
23.4,1788522972837,4.253520965576172,5.464788913726807,-0.004711537156254,0.0008035219507291,0.1074882373213768,0.9941948652267456,0.1821769296359979,-0.0026604220425427,4.419088859030305e-05,-0.0044600400142371,-0.0081993052735924,0.0228705611079931,-0.0047941301017999,0.0010995622724294,0.0688966289162635,0.9976117014884948,-0.0047389689586553,0.036519694531365,0.0357683896549249,0.2658610343933105,-0.1800981163978576,-1.194732666015625,86,82,13054,12951
23.5,1788522972937,4.8450703620910645,5.267605781555176,-0.0059717097319662,-0.0008737053722143,0.1124327331781387,0.9936410188674928,0.1823146378571842,0.0056746323470858,0.0001145466811348,-0.0416602864861488,-0.0642434805631637,0.0907496213912963,-0.0056811617687344,-0.0007894840091466,0.0735737383365631,0.9972733855247498,-0.0052475059931721,-0.0702426172108909,0.0752935302012351,-0.6196420788764954,-0.3359410762786865,-0.4680156707763672,71,68,13222,13025
23.6,1788522973037,4.8450703620910645,5.295774459838867,-0.0036552536766976,-0.0008268137462437,0.1181389316916465,0.992990016937256,0.1801834662910119,0.0080181189965408,0.0001035480911986,0.0444431342184543,-0.0368298031389713,0.0629696473479271,-0.003500155173242,-0.0006881449371576,0.0785702988505363,0.9969021677970886,0.0831177623213633,-0.0410348119366646,0.0597458862664384,-0.0599029064178466,-0.7804465889930725,-0.8020124435424805,83,60,13390,12961
23.7,1788522973137,5.098591327667236,5.126760482788086,-0.0043341349810361,0.0002365394029766,0.1197721362113952,0.9927919507026672,0.1724750876395821,0.0077998725697905,-4.133454756838814e-05,-0.004197746515274,0.0226550698280334,0.0362353101372718,-0.0044856602326035,0.0001693256199359,0.0809866189956665,0.9967051148414612,-0.01698893168294,0.0314714208035081,0.0661172037387581,0.1179976463317871,0.0652639269828796,-1.0249757766723633,72,61,14417,12687
23.8,1788522973237,5.154929637908936,5.126760482788086,-0.0044279168359935,0.0007782743196003,0.1213325560092926,0.992601752281189,0.1799154251314166,-0.0053717081610474,7.623854806108291e-05,-0.0079291556030511,0.0178895555436611,0.0050013968721032,-0.0045632384717464,0.0008887946605682,0.0823182985186576,0.9965953230857848,-0.0053232080965204,0.0150474148047862,0.0223017178862709,-0.0704393982887268,0.0988985896110534,-1.6689424514770508,90,101,13833,13155
23.9,1788522973337,5.126760482788086,5.014084339141846,-0.0047375131398439,4.037993494421244e-05,0.1219194456934928,0.9925286769866944,0.1798263245324958,-0.0051826974940599,-4.764838215502563e-05,-0.0088141756132245,-0.0114173563197255,0.0130976755172014,-0.0048334412276744,2.5350600481033325e-05,0.0824421569705009,0.996584177017212,-0.0174534039892474,-0.0605078017717228,-0.0291214424884481,-0.4096841216087341,-0.1785461902618408,2.1853322982788086,61,66,13421,12525
24.0,1788522973437,5.154929637908936,5.042253494262695,-0.0048884805291891,-2.368929563090205e-05,0.1214465796947479,0.992585837841034,0.1774074553582801,-0.0051158188477092,-5.064548336413362e-05,-0.0052943085320293,0.0140302181243896,-0.0051068635657429,-0.005004409700632,0.000390007160604,0.0820213258266449,0.9966179728507996,-0.0100634496298264,0.0342320808862734,-0.008652802625324,0.2723243832588196,0.0829891562461853,-0.1186685562133789,47,69,13951,13092
24.1,1788522973537,5.183098793029785,4.873239517211914,-0.0049951774999499,0.000167497433722,0.1212546154856681,0.9926088452339172,0.1871099904922017,-0.0061178811615692,-3.980763179966726e-08,2.4374409157701393e-09,2.699934675831628e-08,-1.5359628378064372e-06,-0.0050349440425634,0.0001393659040331,0.0814559683203697,0.9966642260551452,-0.0230508190284923,0.0043092061059405,-0.0457156986466239,-0.0550891160964965,-0.131279706954956,0.3520870208740234,68,62,13620,12281
24.2,1788522973637,5.042253494262695,4.985915660858154,-0.0049402960576117,0.0005978530971333,0.1180451437830925,0.9929957389831544,0.1717954376470296,-0.0011445410234223,-3.080663791299134e-06,0.0037769451737403,0.0174324344843626,-0.0875833481550216,-0.0048362789675593,0.0008860938251018,0.0785185843706131,0.9969005584716796,0.0205898317390966,0.0318880684021881,-0.0416611599686647,0.1004905104637146,-0.066256582736969,0.1019353866577148,76,83,13760,13036
24.3,1788522973737,5.042253494262695,4.957746505737305,-0.0048797465860843,0.0010367353679612,0.1177986040711402,0.9930249452590942,0.1695367055897711,0.0012934034356184,-0.0001177716480854,0.0042872983030974,0.0164218693971633,-0.0094005577266216,-0.005290918983519,0.0010665152221918,0.0782812610268592,0.9969167113304138,-0.0342781265397454,-0.0037016702296818,-0.0119176819104188,-0.0515353679656982,0.1630060076713562,0.3950557708740234,53,112,13915,13329
24.4,1788522973837,4.816901206970215,5.239436626434326,-0.0048797470517456,0.0010367350187152,0.1177986338734626,0.9930249452590942,0.1816067577961627,0.0025533182796393,-5.977641321158755e-09,0.0,0.0,0.0,-0.005311713553965,0.0010612653568387,0.0793485641479492,0.996832311153412,-0.0172497086435445,-0.0218159320211975,0.0358463201167,0.0321597456932067,0.3171053528785705,0.0847158432006836,70,96,13921,12976
24.5,1788522973937,5.042253494262695,5.154929637908936,-0.005464487709105,0.0018641308415681,0.1193715929985046,0.9928328394889832,0.1850550701995388,-0.0016479020902483,-2.1018052672826163e-08,0.0,0.0,0.0,-0.0056040082126855,0.0024507623165845,0.0800844430923461,0.9967693090438844,-0.0021709285863069,0.0428671738674647,-0.0105938847067708,0.1278764605522155,-0.0999664664268493,-2.250605583190918,61,83,13398,12973
24.6,1788522974037,4.957746505737305,5.014084339141846,-0.0057776039466261,0.0017943088896572,0.1198609620332717,0.9927722811698914,0.1815861258185553,-0.0028313023482581,0.0003388227675117,0.0020759974140673,-0.1035267487168312,0.0196945164352655,-0.0053099794313311,0.001885955221951,0.0808423310518264,0.996711015701294,0.0283529667305669,0.002487070976049,0.0137739068212338,0.0579771995544433,-0.030746579170227,-2.516939640045166,108,69,13740,13262
24.7,1788522974137,5.098591327667236,5.070422649383545,-0.0054172528907656,0.0020191760268062,0.1202594637870788,0.992725670337677,0.1732485780408597,0.0031276135675447,1.0082747175251705e-08,0.0,-2.217511507751624e-09,0.0,-0.005141426809132,0.0017374865710735,0.080933891236782,0.9967047572135924,0.0097983590707777,-0.0400522537516782,-0.0110159965302749,0.0508204698562622,0.0138475894927978,-1.607391357421875,77,86,13672,13248
24.8,1788522974237,5.098591327667236,5.126760482788086,-0.0054154084064066,0.0021484200842678,0.1202766448259353,0.992723286151886,0.1842210889485309,-0.0002901795218613,-0.0002282375644371,0.0015542829642072,0.0402858182787895,0.0050138481892645,-0.0054979128763079,0.0017839996144175,0.0812320634722709,0.9966785311698914,-0.0149395052204763,-0.0466698098340464,0.0155080115801169,-0.1176584362983703,0.1119971871376037,1.1821441650390625,74,60,13672,13036
24.9,1788522974337,5.014084339141846,5.070422649383545,-0.0051312837749719,0.0022881384938955,0.1210799887776374,0.9926268458366394,0.1745261509320105,0.0026559721055428,-6.825614130368154e-05,0.0106247598305344,0.0383121520280838,0.0130003886297345,-0.0050758123397827,0.0027679931372404,0.0816804692149162,0.9966418743133544,-0.0026584657312704,0.0152341619001263,-0.010071709490508,-0.0517725348472595,-0.0422776937484741,-0.0484943389892578,73,79,13955,12784
25.0,1788522974437,5.070422649383545,5.070422649383545,-0.0045803459361195,0.0022182369139045,0.1211841106414794,0.9926169514656068,0.1784954153372008,0.0006057760029656,4.592150679223321e-09,0.0215211901813745,-0.0054632648825645,0.0042171902023255,-0.0042098835110664,0.0024856971576809,0.0820139572024345,0.9966192245483398,0.0219355676625596,0.006281785111922,0.0102558499211664,0.1075024008750915,-0.1027354001998901,-0.4754056930541992,62,57,14276,12851
25.1,1788522974537,5.042253494262695,5.154929637908936,-0.0045803459361195,0.0022182369139045,0.1211841106414794,0.9926169514656068,0.1817043274632189,0.0026827526893963,-1.1472305309929214e-08,0.0,-2.3180033448255703e-09,0.0,-0.0041180867701768,0.0021503828465938,0.0819976776838302,0.9966217279434204,0.0003067108266206,-0.0189651177397803,0.0104514109361487,-0.0105645656585693,0.1594838500022888,0.0704421997070312,59,68,13434,12679
25.2,1788522974637,5.042253494262695,4.957746505737305,-0.0048366952687501,0.0009399785194545,0.1197657063603401,0.9927899837493896,0.1849625573973881,0.0010284242046215,0.0002285617605234,-0.0089396769180893,-0.0234585925936698,-0.0514080114662647,-0.0049638506025075,0.0006657475605607,0.0803432688117027,0.9967547655105592,-0.0019354935650482,-0.0262844224964491,-0.0698161060482646,-0.55901038646698,-0.5264868140220642,0.8622188568115234,58,100,13503,13354
25.3,1788522974737,5.183098793029785,4.8450703620910645,-0.0027354299090802,0.0012970475945621,0.12299345433712,0.9924028515815736,0.18697018187778,0.0046447951759734,0.0001167668191273,0.0458560511469841,-0.0150417080149054,0.0571696385741233,-0.0029104817658662,0.0019506169483065,0.0828724130988121,0.9965540766716005,-0.0169328865091157,0.0713058517864534,-0.0700443968557729,-0.1621677279472351,0.3545505404472351,0.0640211105346679,116,28,14910,11711
25.4,1788522974837,5.267605781555176,4.8450703620910645,-0.0037523442879319,0.0024393934290856,0.117954209446907,0.9930089712142944,0.1656016190658741,-0.003141107946333,-8.252709229284419e-05,-0.0199057962745428,0.0156599748879671,-0.1365881264209747,-0.0036461809650063,0.0029611829668283,0.0769850611686706,0.99702125787735,0.0051485692013144,0.0311869005660783,-0.1187680557989243,0.3974249958992004,0.1890496611595153,-0.7818374633789062,102,104,14949,13009
25.5,1788522974937,5.267605781555176,5.014084339141846,-0.0041854530572891,0.0019848877564072,0.1138677075505256,0.993485152721405,0.1805383017926097,-0.0037547414434994,-7.158202625546386e-05,-0.012157212011516,-0.0090164151042699,-0.0676423460245132,-0.0041969446465373,0.0017198370769619,0.0737248212099075,0.9972682595252992,-0.0238996253132123,-0.0636464681163184,-0.0889518547784687,-0.1114099621772766,0.0348129272460937,-0.2834405899047851,59,52,14120,12414
25.6,1788522975037,5.183098793029785,4.929577350616455,-0.0044491845183074,0.0021698274649679,0.1091987937688827,0.9940075874328612,0.180582828078686,-0.0051372753372877,-2.9725672773611907e-05,0.0040497197769582,0.0129282735288143,-0.0783124715089798,-0.0043545849621295,0.0020213853567838,0.0689667239785194,0.9976074695587158,-0.0020851274250051,-0.0323022746510811,-0.0498989285289973,-0.1267162561416626,0.1402792930603027,-0.0613927841186523,70,94,14062,12838
25.7,1788522975137,5.014084339141846,5.098591327667236,-0.0043905633501708,0.0022468012757599,0.1086066886782646,0.9940725564956664,0.1704164985736597,0.0001525194585068,1.8612898441315352e-08,0.0038409396074712,0.0147887729108333,0.0026250008959323,-0.0041509671136736,0.0023190854117274,0.0694832503795623,0.99757182598114,0.0079631405233432,-0.0147826893605652,0.0281705338049455,0.1521865725517273,-0.1504906415939331,-1.2712678909301758,74,64,13611,12668
25.8,1788522975237,4.816901206970215,5.183098793029785,-0.0045213131234049,0.0026731612160801,0.1089693158864975,0.9940312504768372,0.1807820760397734,-0.0006646364849197,-1.7787566979197074e-08,-0.0034623104147613,0.0178517028689384,0.0149883842095732,-0.0044304467737674,0.0029988065361976,0.0699750334024429,0.997534453868866,-0.0018948309092093,0.0355785050130978,0.0302232074607615,-0.0139464139938354,0.25860595703125,0.648310661315918,100,57,14031,12663
25.9,1788522975337,5.211267471313477,5.042253494262695,-0.0043329717591404,0.0018836844246834,0.1115229427814483,0.9937505722045898,0.1729043684598443,0.0045681998863384,0.0001207698355184,0.0034580409992486,-0.0236273985356092,0.0353615917265415,-0.0043191453441977,0.001809436827898,0.0733331590890884,0.9972965717315674,0.0028052838356801,-0.0255039786346241,0.0426705333191662,0.1005735397338867,0.198279857635498,1.1221065521240234,45,72,14217,13056
26.0,1788522975437,4.8450703620910645,5.098591327667236,-0.0044242544099688,0.0013989687431603,0.1131241470575332,0.9935700297355652,0.1795201636342848,4.976950513840917e-05,8.264231885673793e-05,-0.0012001573340967,-0.0093902889639139,0.0176192075014114,-0.0044443430379033,0.0020097754895687,0.0739931315183639,0.99724680185318,0.0081916756184412,0.0265991458528402,0.0018413123453049,0.1382146477699279,-0.1137300133705139,0.026071548461914,80,78,13010,12901
26.1,1788522975537,5.070422649383545,5.014084339141846,-0.004246327560395,0.0020418032072484,0.1137598231434822,0.9934971332550048,0.1844296357275577,0.0039933659268838,8.373276262558069e-09,0.0122750755399465,0.0011479441309347,0.015890397131443,-0.00389966648072,0.0022536879405379,0.0747780129313469,0.997189998626709,0.0393125924822038,-0.0293190867902546,0.0378174361917799,-0.1144163012504577,0.0061198472976684,1.796217918395996,77,55,14215,12939
26.2,1788522975637,4.985915660858154,4.985915660858154,-0.0040491442196071,0.0040045334026217,0.1151318848133087,0.9933338761329652,0.1741084674157559,0.0027970330256874,-2.8175205159920147e-05,0.0002750014245975,0.02412267960608,0.0194899681955575,-0.0039273696020245,0.0050541562959551,0.0757756680250167,0.9971044063568116,0.0019792920066061,0.0567534564469132,-0.0044247599165435,0.7092301845550537,-0.0509315133094787,-2.3918471336364746,91,65,13994,13125
26.3,1788522975737,4.873239517211914,5.211267471313477,-0.0038168453611433,0.0024826780427247,0.1161802038550376,0.993217706680298,0.1745077240693444,0.0008402131809989,0.000474725538792,-0.0052961106412112,-0.0573539845645427,0.0413115806877613,-0.0039014806970953,0.0030773887410759,0.0775015205144882,0.996979832649231,-0.0102164851058834,0.0721440453573322,0.0513379194388128,0.0302377343177795,0.0855202078819274,-1.5992116928100586,99,144,13997,13957
26.4,1788522975837,4.985915660858154,5.211267471313477,-0.0039966786280274,0.0020514281932264,0.1180753856897354,0.9929944276809692,0.1824087058992945,0.0004747720916664,9.1816201368781e-06,-0.0018727348651736,-0.0017049389425665,0.0237991251051425,-0.0040193973109126,0.0020652450621128,0.0791934356093406,0.9968491196632384,-0.0042416419941333,0.0160323448594622,0.015127963190282,-0.2388096451759338,-0.1517134308815002,0.1755571365356445,92,68,12873,13579
26.5,1788522975937,4.873239517211914,5.239436626434326,-0.0035358949098736,0.0023185755126178,0.121129035949707,0.992627739906311,0.1747660975454172,0.0016879256025827,-2.801144203193568e-05,0.0135776838287711,0.0149622401222586,0.1008069366216659,-0.0033935233950614,0.0024416595697402,0.0824237242341041,0.99658864736557,0.0030645114544436,-0.0061272580030184,0.1115029849100939,0.0928194522857666,0.0066181421279907,0.5395536422729492,63,84,13768,13578
26.6,1788522976037,4.901408672332764,5.183098793029785,-0.0031762151047587,0.0030734203755855,0.1235911324620246,0.992323398590088,0.1857872075335117,-0.001580089412354,-1.6878331954865976e-05,0.002015761565417,0.0241293739527463,0.0410266518592834,-0.0032975291833281,0.0029608188197016,0.0846059545874595,0.9964046478271484,-0.0162101767662924,-0.0174353716026199,0.0169015565473784,0.140439748764038,-0.1384362578392028,-1.2483758926391602,84,48,13959,12497
26.7,1788522976137,5.154929637908936,5.098591327667236,-0.00347994081676,0.0031107349786907,0.1242039650678634,0.9922457337379456,0.1788790962855408,-0.0023572118291298,-0.0001019507640326,0.0010272583458572,0.0139332311227917,0.0048412350006401,-0.0034254612401127,0.0032717334106564,0.0850944370031356,0.9963616132736206,-0.0099238249250853,-0.0240537854048209,-0.003546765916442,-0.2245523333549499,0.1083186268806457,1.7004890441894531,86,68,13655,13116
26.8,1788522976237,5.042253494262695,5.070422649383545,-0.0040102316997945,0.0024677901528775,0.1240045130252838,0.9922704100608826,0.1910485929519621,-0.0044028765410176,9.37883860106226e-05,-0.0176144316792488,-0.0166293941438198,-0.005960154812783,-0.0041680242866277,0.0026445025578141,0.0843438282608985,0.9964245557785034,-0.0200883239828706,0.0062826379151103,-0.0329844268790544,-0.2457324266433715,0.0037296414375305,0.6507568359375,59,55,12525,12742
26.9,1788522976337,4.873239517211914,5.295774459838867,-0.0047465898096561,0.00140162918251,0.1234165802597999,0.9923425912857056,0.1771431375487187,0.0037671472181586,0.0001116961707774,0.0239389631897211,0.0052493470720946,0.0261206105351448,-0.0044322190806269,0.0019882246851921,0.0842174813151359,0.9964355826377868,0.061073802543639,0.063646305587852,0.0490391400583398,-0.5363386869430542,-0.522510290145874,-0.0065364837646484,62,56,13103,13247
