time_s,timestamp_ms,wheel_vels__velocity_left,wheel_vels__velocity_right,odom__orient_x,odom__orient_y,odom__orient_z,odom__orient_w,odom__lin_x,odom__lin_y,odom__lin_z,odom__ang_x,odom__ang_y,odom__ang_z,imu__orient_x,imu__orient_y,imu__orient_z,imu__orient_w,imu__angvel_x,imu__angvel_y,imu__angvel_z,imu__acc_x,imu__acc_y,imu__acc_z,wheel_status__current_ma_left,wheel_status__current_ma_right,wheel_status__pwm_left,wheel_status__pwm_right
0.0,1788352749288,0.0,0.0,-0.0038514996413141,0.0033433106727898,-0.9090240001678468,0.4167124629020691,0.0,0.0,0.0,0.0,1.1824421441986033e-08,0.0,-0.0045214025303721,0.0023224931210279,-0.7848346829414368,0.6196843385696411,0.0003932832920946,-0.0006003927866493,0.0003280570210866,-0.0141328573226928,0.0026366114616394,0.0160722732543945,0,0,0,0
0.1,1788352749388,0.0,0.0,-0.0038514996413141,0.0033433106727898,-0.9090240001678468,0.4167124629020691,0.0,0.0,0.0,0.0,1.1824421441986033e-08,0.0,-0.0045214025303721,0.0023224931210279,-0.7848346829414368,0.6196843385696411,0.0003932832920946,-0.0006003927866493,0.0003280570210866,-0.0141328573226928,0.0026366114616394,0.0160722732543945,0,0,0,0
0.2,1788352749488,0.0,0.0,-0.0038514996413141,0.0033433106727898,-0.9090240001678468,0.4167124629020691,0.0,0.0,0.0,0.0,1.1824421441986033e-08,0.0,-0.0045214025303721,0.0023224931210279,-0.7848346829414368,0.6196843385696411,0.0003932832920946,-0.0006003927866493,0.0003280570210866,-0.0141328573226928,0.0026366114616394,0.0160722732543945,0,0,0,0
0.3,1788352749588,0.0,0.0,-0.0038514996413141,0.0033433106727898,-0.9090240001678468,0.4167124629020691,0.0,0.0,0.0,0.0,1.1824421441986033e-08,0.0,-0.0045214025303721,0.0023224931210279,-0.7848346829414368,0.6196843385696411,0.0003932832920946,-0.0006003927866493,0.0003280570210866,-0.0141328573226928,0.0026366114616394,0.0160722732543945,0,0,0,0
0.4,1788352749688,0.0,0.0,-0.0038514996413141,0.0033433106727898,-0.9090240001678468,0.4167124629020691,0.0,0.0,0.0,0.0,1.1824421441986033e-08,0.0,-0.0045214025303721,0.0023224931210279,-0.7848346829414368,0.6196843385696411,0.0003932832920946,-0.0006003927866493,0.0003280570210866,-0.0141328573226928,0.0026366114616394,0.0160722732543945,0,0,0,0
0.5,1788352749788,0.0,0.0,-0.0038514996413141,0.0033433106727898,-0.9090240001678468,0.4167124629020691,0.0,0.0,0.0,0.0,1.1824421441986033e-08,0.0,-0.0045214025303721,0.0023224931210279,-0.7848346829414368,0.6196843385696411,0.0003932832920946,-0.0006003927866493,0.0003280570210866,-0.0141328573226928,0.0026366114616394,0.0160722732543945,0,0,0,0
0.6,1788352749888,0.0,0.0,-0.0038514996413141,0.0033433106727898,-0.9090240001678468,0.4167124629020691,0.0,0.0,0.0,0.0,1.1824421441986033e-08,0.0,-0.0045214025303721,0.0023224931210279,-0.7848346829414368,0.6196843385696411,0.0003932832920946,-0.0006003927866493,0.0003280570210866,-0.0141328573226928,0.0026366114616394,0.0160722732543945,0,0,0,0
0.7,1788352749988,0.0,0.0,-0.0038514996413141,0.0033433106727898,-0.9090240001678468,0.4167124629020691,0.0,0.0,0.0,0.0,1.1824421441986033e-08,0.0,-0.0045214025303721,0.0023224931210279,-0.7848346829414368,0.6196843385696411,0.0003932832920946,-0.0006003927866493,0.0003280570210866,-0.0141328573226928,0.0026366114616394,0.0160722732543945,0,0,0,0
0.8,1788352750088,0.0,0.0,-0.0038514996413141,0.0033433106727898,-0.9090240001678468,0.4167124629020691,0.0,0.0,0.0,0.0,1.1824421441986033e-08,0.0,-0.0045214025303721,0.0023224931210279,-0.7848346829414368,0.6196843385696411,0.0003932832920946,-0.0006003927866493,0.0003280570210866,-0.0141328573226928,0.0026366114616394,0.0160722732543945,0,0,0,0
0.9,1788352750188,0.0,0.0,-0.0038514996413141,0.0033433106727898,-0.9090240001678468,0.4167124629020691,0.0,0.0,0.0,0.0,1.1824421441986033e-08,0.0,-0.0045214025303721,0.0023224931210279,-0.7848346829414368,0.6196843385696411,0.0003932832920946,-0.0006003927866493,0.0003280570210866,-0.0141328573226928,0.0026366114616394,0.0160722732543945,0,0,0,0
1.0,1788352750288,0.0,0.0,-0.0038554687052965,0.0033208238892257,-0.9090306162834167,0.4166984260082245,-3.8860941172257145e-05,4.44609424713139e-05,5.768242000821087e-07,0.0005308853578753,-0.0003653164894785,-0.0004428877437021,-0.0045231543481349,0.0023314729332923,-0.7848506569862366,0.6196641325950623,-0.0004017136140405,0.0002114048013388,-0.0012604274783354,0.000317633152008,0.02083021402359,-0.0126123428344726,0,0,0,0
1.1,1788352750388,0.0,0.0,-0.0038144825957715,0.003328287275508,-0.9090398550033568,0.4166784882545471,1.5474977893933823e-05,-1.7678141238853853e-05,-2.2874394546915417e-07,0.0009442011360079,0.0007786011556163,0.0001762117317412,-0.0044888220727443,0.0023431060835719,-0.7848424911499023,0.619674563407898,-0.0002975597674346,0.0004817654014366,0.0003859598873177,0.0261138677597045,0.0205493569374084,0.007155418395996,0,0,0,0
1.2,1788352750488,0.0,0.0,-0.0038187419995665,0.003339096205309,-0.9090369939804076,0.4166845083236694,0.0,0.0,0.0,0.0,0.0,0.0,-0.0044937524944543,0.0023910216987133,-0.7848421335220337,0.6196749210357666,0.0002067738832469,-2.017012696377839e-05,0.0014772340828254,0.0104338526725769,0.0123694539070129,0.0089426040649414,0,0,0,0
1.3,1788352750588,0.0,0.0,-0.0038187419995665,0.003339096205309,-0.9090369939804076,0.4166845083236694,0.0,0.0,0.0,0.0,0.0,0.0,-0.0044788364320993,0.0024009607732295,-0.7848439812660217,0.6196725964546204,2.809779826777495e-05,0.0020528186357408,0.0014436250624946,-0.001804232597351,-0.0145660638809204,-0.0036907196044921,0,0,0,0
1.4,1788352750688,0.0,0.0,-0.0038187419995665,0.003339096205309,-0.9090369939804076,0.4166845083236694,0.0,0.0,0.0,0.0,0.0,0.0,-0.0045156767591834,0.0023429282009601,-0.7848489284515381,0.6196662783622742,0.0003836935723305,-0.0032165097394941,-0.0015557271112691,0.0435978770256042,0.0118955969810485,0.0107688903808593,0,0,0,0
1.5,1788352750788,0.0,0.0,-0.0038187419995665,0.003339096205309,-0.9090369939804076,0.4166845083236694,0.0,0.0,0.0,0.0,0.0,0.0,-0.0045213550329208,0.0023572230711579,-0.7848259210586548,0.6196953654289246,-0.0012087640275489,-0.0003779839295212,0.000582317734791,0.0131341218948364,0.0103619694709777,0.0233345031738281,0,0,0,0
1.6,1788352750888,0.0,0.0,-0.0038322736509144,0.0033768638968467,-0.9090301394462584,0.4166991114616394,0.0,0.0,0.0,0.0,0.0,0.0,-0.0045086527243256,0.0023515094071626,-0.7848370671272278,0.6196812987327576,0.0013045951874371,-0.001123811827502,0.0007872816791757,-0.0083145499229431,0.0119166374206542,0.0233278274536132,0,0,0,0
1.7,1788352750988,0.0,0.0,-0.0038322736509144,0.0033768638968467,-0.9090301394462584,0.4166991114616394,0.0,0.0,0.0,0.0,0.0,0.0,-0.0045245708897709,0.0023609790951013,-0.7848553657531738,0.6196580529212952,-0.0003150110644209,0.0013459768365734,0.0007474527532074,-0.0120478272438049,-0.0200126767158508,-0.0018939971923828,0,0,0,0
1.8,1788352751088,0.0,0.0,-0.0038322736509144,0.0033768638968467,-0.9090301394462584,0.4166991114616394,0.0,0.0,0.0,0.0,0.0,0.0,-0.0045330971479415,0.0023696757853031,-0.7848455309867859,0.6196704506874084,-0.0012126232348332,0.0008572797175972,-0.0011837887367506,-0.008481740951538,-0.007112979888916,-0.0377826690673828,0,0,0,0
1.9,1788352751188,0.0,0.0,-0.0038322736509144,0.0033768638968467,-0.9090301394462584,0.4166991114616394,0.0,0.0,0.0,0.0,0.0,0.0,-0.0045466246083378,0.0023667467758059,-0.7848401069641113,0.6196772456169128,-0.0006758038780042,-0.0010928670842262,-0.0006647806779481,-0.0033597350120544,-0.0142601132392883,-0.0072593688964843,0,0,0,0
2.0,1788352751288,0.0,0.0,-0.0038322736509144,0.0033768638968467,-0.9090301394462584,0.4166991114616394,0.0,0.0,0.0,0.0,0.0,0.0,-0.004519572481513,0.0023868512362241,-0.784845769405365,0.6196701526641846,0.0011009948239109,0.0005025507389776,5.563696974048613e-05,-0.0134896636009216,-0.0269113779067993,0.0142555236816406,0,0,0,0
2.1,1788352751388,0.0,0.0,-0.0038322736509144,0.0033768638968467,-0.9090301394462584,0.4166991114616394,0.0,0.0,0.0,0.0,0.0,0.0,-0.004519572481513,0.0023868512362241,-0.784845769405365,0.6196701526641846,0.0011009948239109,0.0005025507389776,5.563696974048613e-05,-0.0134896636009216,-0.0269113779067993,0.0142555236816406,0,0,0,0
2.2,1788352751488,0.0,0.0,-0.0038322736509144,0.0033768638968467,-0.9090301394462584,0.4166991114616394,0.0,0.0,0.0,0.0,0.0,0.0,-0.004519572481513,0.0023868512362241,-0.784845769405365,0.6196701526641846,0.0011009948239109,0.0005025507389776,5.563696974048613e-05,-0.0134896636009216,-0.0269113779067993,0.0142555236816406,0,0,0,0
2.3,1788352751588,0.0,0.0,-0.0038322736509144,0.0033768638968467,-0.9090301394462584,0.4166991114616394,0.0,0.0,0.0,0.0,0.0,0.0,-0.0045957760885357,0.00226607080549,-0.7848544120788574,0.6196590662002563,-0.0006710351494599,0.0010329551253475,-0.0013702174491725,-0.0017900466918945,-0.0116409659385681,-0.0144252777099609,0,0,0,0
2.4,1788352751688,0.0,0.0,-0.0038322736509144,0.0033768638968467,-0.9090301394462584,0.4166991114616394,0.0,0.0,0.0,0.0,0.0,0.0,-0.0045781629160046,0.002288170158863,-0.7848660349845886,0.619644284248352,0.0002129253762356,-3.84533385315142e-05,5.949225782934515e-05,0.0148980617523193,-0.0115947127342224,0.0125255584716796,0,0,0,0
2.5,1788352751788,0.0,0.0,-0.0038322736509144,0.0033768638968467,-0.9090301394462584,0.4166991114616394,0.0,0.0,0.0,0.0,0.0,0.0,-0.0045387679710984,0.0023334426805377,-0.7848675847053528,0.619642436504364,0.0008116256475174,-0.0006254889244672,0.0027564795546222,0.005271553993225,0.0155539512634277,0.0125923156738281,0,0,0,0
2.6,1788352751888,0.0,0.0,-0.0038322736509144,0.0033768638968467,-0.9090301394462584,0.4166991114616394,0.0,0.0,0.0,0.0,0.0,0.0,-0.0045326584950089,0.0023529268801212,-0.7848827242851257,0.6196233034133911,-0.0001366840407645,0.0008492047318287,-0.0004736371368714,-0.0087742209434509,-0.0093859434127807,0.0179147720336914,0,0,0,0
2.7,1788352751988,0.0,0.0,-0.0038322736509144,0.0033768638968467,-0.9090301394462584,0.4166991114616394,0.0,0.0,0.0,0.0,0.0,0.0,-0.0045607155188918,0.0023082252591848,-0.7848711013793945,0.6196380257606506,-0.0003070816740475,-3.4236276188413525e-05,-0.0009969858866396,0.0225902795791625,0.0011017322540283,-0.0071907043457031,0,0,0,0
2.8,1788352752088,0.0,0.0,-0.0038322736509144,0.0033768638968467,-0.9090301394462584,0.4166991114616394,0.0,0.0,0.0,0.0,0.0,0.0,-0.0045778155326843,0.002274484373629,-0.7848806977272034,0.6196259260177612,-0.000136624949939,-0.0003921019645919,-0.0019189491240329,0.0093414783477783,-0.0207728743553161,-0.0072479248046875,0,0,0,0
2.9,1788352752188,0.0,0.0,-0.0038322736509144,0.0033768638968467,-0.9090301394462584,0.4166991114616394,0.0,0.0,0.0,0.0,0.0,0.0,-0.0045765740796923,0.0022699451074004,-0.7848724722862244,0.6196361780166626,0.0002162020766221,-0.0004010629517293,0.0020068011521542,0.0075085163116455,0.0006690621376037,-0.0018033981323242,0,0,0,0
3.0,1788352752288,0.0,0.0,-0.0038322736509144,0.0033768638968467,-0.9090301394462584,0.4166991114616394,0.0,0.0,0.0,0.0,0.0,0.0,-0.0046510761603713,0.002249414101243,-0.7848856449127197,0.6196191310882568,3.647233695655301e-05,-0.0007202287448905,-0.0009744090411286,0.0114975571632385,0.0066305994987487,2.288818359375e-05,0,0,0,0
3.1,1788352752388,0.0,0.0,-0.0038322736509144,0.0033768638968467,-0.9090301394462584,0.4166991114616394,0.0,0.0,0.0,0.0,0.0,0.0,-0.0046689370647072,0.0022250954061746,-0.7848933935165405,0.6196092963218689,-0.0001342633854442,0.0006724736869984,-0.0017170617870604,0.0235017538070678,0.002908170223236,-0.0161399841308593,0,0,0,0
3.2,1788352752488,0.0,0.0,-0.0038322736509144,0.0033768638968467,-0.9090301394462584,0.4166991114616394,0.0,0.0,0.0,0.0,0.0,0.0,-0.004671792499721,0.0021658260375261,-0.7848668694496155,0.619642972946167,-0.0001208160831798,-0.0012338476644593,0.0003976537606078,0.0011866092681884,-0.0033512711524963,-0.0197563171386718,0,0,0,0
3.3,1788352752588,0.0,0.0,-0.0040375492535531,0.0032051894813776,-0.9090564846992492,0.416640967130661,-6.0897494962138085e-05,6.975925188510165e-05,9.213219021808732e-07,-0.000287659902824,-0.0010826434008777,-0.0007135197520256,-0.0046913726255297,0.0021577198058366,-0.784855306148529,0.6196575164794922,0.0012960307383119,-0.0007571451890504,0.0025532346563273,0.0133549571037292,0.014687180519104,-0.0071287155151367,0,0,0,0
3.4,1788352752688,0.0,0.0,-0.0040305578149855,0.0032264336477965,-0.9090416431427002,0.4166734218597412,-2.358155242828376e-05,2.691117913564196e-05,3.583129959989676e-07,-0.0004485776880756,0.0010610530152916,-0.0002624002518132,-0.0046627754345536,0.002204549498856,-0.7848605513572693,0.6196510195732117,-0.0004799790467583,0.0017359210687372,-0.0006484517320808,-0.0125759243965148,-0.0244258046150207,-0.0198049545288085,0,0,0,0
3.5,1788352752788,0.0,0.0,-0.0040201852098107,0.0032008476555347,-0.9090269804000854,0.4167055785655975,0.0001610683314892,-0.0001843397096504,-2.4421111358936834e-06,0.0014324365183711,-0.0011288457317277,0.0018506915075704,-0.0046782633289694,0.0021817088127136,-0.7848484516143799,0.6196663975715637,-0.0014908542497862,0.0005408140244033,-0.0010979614873076,0.0030645132064819,-0.0067130923271179,0.0125846862792968,0,0,0,0
3.6,1788352752888,0.0,0.0,-0.0040232129395008,0.0032313521951436,-0.9090337157249452,0.4166905283927917,3.9979965364271965e-05,-4.581778066053844e-05,-6.089612808854161e-07,0.0003127573581878,0.0005126949981786,0.0004545570118352,-0.0046911099925637,0.0021822033450007,-0.784843385219574,0.6196724772453308,-0.0004844143557498,-0.0002156733292353,-0.0011990030936496,-0.0114998221397399,0.0239456295967102,0.0270338058471679,0,0,0,0
3.7,1788352752988,0.0,0.0,-0.0040232129395008,0.0032313521951436,-0.9090337157249452,0.4166905283927917,0.0,0.0,0.0,0.0,8.943352725054865e-09,0.0,-0.0046872682869434,0.0021485555917024,-0.7848401069641113,0.6196768283843994,0.0018128549493332,0.0003067256307689,0.0023635768015268,-0.033387541770935,0.0001279711723327,-0.0125436782836914,0,0,0,0
3.8,1788352753088,0.0,0.0,-0.0040232129395008,0.0032313521951436,-0.9090337157249452,0.4166905283927917,0.0,0.0,0.0,0.0,9.296162950533926e-09,0.0,-0.004700100980699,0.0021006762981414,-0.7848412394523621,0.6196755170822144,0.0004172969815456,0.0001396032756429,0.0007951266802492,-0.0467317104339599,-0.0112127661705017,-0.0215539932250976,0,0,0,0
3.9,1788352753188,0.0,0.0,-0.0040232129395008,0.0032313521951436,-0.9090337157249452,0.4166905283927917,0.0,0.0,0.0,0.0,7.853643957389522e-09,0.0,-0.004717394709587,0.0020637027919292,-0.7848562002182007,0.6196566224098206,0.0002313865843195,-0.0003862503005896,-0.0024361502178195,-0.0187036395072937,0.026151955127716,-0.0250368118286132,0,0,0,0
4.0,1788352753288,0.0,0.0,-0.0040962300263345,0.0031198698561638,-0.9090428352355956,0.4166708588600158,0.0,0.0,0.0,0.0,0.0,0.0,-0.0047093890607357,0.0020809937268495,-0.7848198413848877,0.6197026968002319,-0.0003070432384399,-0.0005771470055946,0.0013060900130056,0.004980444908142,0.0100418925285339,0.0198345184326171,0,0,0,0
4.1,1788352753388,0.0,0.0,-0.0040431376546621,0.0031672236509621,-0.9090399146080016,0.4166772663593292,-0.0004121802298615,-2.098030616102101e-06,1.9572927590897283e-06,-0.0006918269209563,0.0018539974698796,-0.002248324919492,-0.0046709598973393,0.0020802905783057,-0.7848260998725891,0.6196949481964111,0.0011122027455041,-0.0014559265388123,0.000938630158754,-0.0087857842445373,0.0203949809074401,-0.0016984939575195,0,0,0,0
4.2,1788352753488,0.0,0.0,-0.0040594795718789,0.0031185038387775,-0.9090290665626526,0.4167013466358185,9.283420068238064e-05,-0.0001063646341499,-1.4083039267775898e-06,0.001507198321633,-0.0014162198640406,0.0010505015961825,-0.004684230312705,0.0021245637908577,-0.7848427295684814,0.6196736693382263,-0.0004595191503641,0.0006382793831794,0.0005649578169061,-0.0174205899238586,-0.0110679268836975,-0.0125494003295898,0,0,0,0
4.3,1788352753588,0.0,0.0,-0.0040511563420295,0.0031631155870854,-0.909026861190796,0.4167056381702423,0.0002238615969193,0.000239970094116,1.1316141784187331e-06,0.0,-1.072564703719081e-08,0.0,-0.004698010161519,0.0020836265757679,-0.7848427295684814,0.6196736097335815,-0.0001261931009192,-0.0018019445546974,-0.0011923990617418,0.0034335851669311,-0.0043381452560424,-0.0161104202270507,0,0,0,0
4.4,1788352753688,0.0,0.0,-0.004073723219335,0.0031407363712787,-0.9090359210968018,0.4166859090328216,0.0,0.0,0.0,0.0,0.0,0.0,-0.0047331331297755,0.0020690755918622,-0.7848274111747742,0.619692862033844,-0.00046199324703,-0.001225766544894,-0.000638975913336,-0.0116471648216247,-0.0113971829414367,0.0144128799438476,0,0,0,0
4.5,1788352753788,0.0,0.0,-0.0040949648246169,0.0031275846995413,-0.9090273976325988,0.4167044162750244,-0.0002843611427622,-0.000142450520577,7.626722329592916e-08,1.1417962923587766e-05,-0.0002460373798385,-0.0008362520602531,-0.0047116307541728,0.0020696409046649,-0.7848243713378906,0.6196969151496887,0.000447255931942,-0.0004305686369126,0.0008483156327283,-0.0112935900688171,0.062037169933319,-0.0051536560058593,0,0,0,0
4.6,1788352753888,0.0,0.0,-0.0040983627550303,0.0031404560431838,-0.90902978181839,0.416699081659317,-1.4373632003191588e-05,1.6362606272349134e-05,2.1843748780588454e-07,-0.0003690644516609,6.467053754022345e-05,-0.0001625074655748,-0.0047158943489193,0.0021243477240204,-0.7848458886146545,0.6196694374084473,-0.001185620797771,0.0013807610118044,0.0004183284478358,-0.0035056471824645,-0.0215144753456115,0.0036268234252929,0,0,0,0
4.7,1788352753988,0.0,0.0,-0.0040689199231565,0.0031653130427002,-0.9090210795402528,0.4167182147502899,0.0002252057155398,0.0002413975075215,1.136008146383201e-06,0.0,0.0,0.0,-0.0046670474112033,0.0021587237715721,-0.784852147102356,0.619661808013916,-0.0007903338212125,0.0020009467701051,-0.0011184412509753,-0.0041160583496093,-0.0161470770835876,-0.014322280883789,0,0,0,0
4.8,1788352754088,0.0,0.0,-0.0040322504937648,0.0031933239661157,-0.9090380072593688,0.4166814684867859,0.0,0.0,0.0,0.0,0.0,0.0,-0.0046792728826403,0.0021121418103575,-0.7848389744758606,0.6196785569190979,0.0004071196197141,-0.0010889066349414,-0.0011930276541202,0.0238744020462036,-0.0041815638542175,0.0018892288208007,0,0,0,0
4.9,1788352754188,0.0,0.0,-0.0040163584053516,0.0032027051784098,-0.909040629863739,0.4166758060455322,-0.000381829664413,-5.093897084155428e-05,1.3331480004200329e-06,-0.0013102632947266,0.0016899647889658,-0.0018308707512915,-0.0046796901151537,0.0021495167165994,-0.7848423719406128,0.6196740865707397,-0.0001277401553428,-0.0016179883034273,0.001113108787042,0.0153440237045288,0.0017351508140563,0.0216636657714843,0,0,0,0
5.0,1788352754288,0.0,0.0,-0.0040684901177883,0.0032127960585057,-0.90904700756073,0.416661262512207,-0.0002272912226751,-5.693697978867829e-05,5.417942617035433e-07,-0.0008534483495168,-0.0005496396915987,-0.0009654575260356,-0.0047089578583836,0.0021325284615159,-0.7848535180091858,0.6196598410606384,0.0013851291386573,-0.0005985416456466,0.0011950351449688,-0.0014566183090209,0.0216748118400573,-0.0142068862915039,0,0,0,0
5.1,1788352754388,0.0,0.0,-0.0040874266996979,0.0031773494556546,-0.9090393781661988,0.4166779518127441,0.0002341881268379,0.0002428304274148,1.1140040909952369e-06,-8.631127275293693e-05,-0.0005214570555835,4.099647412658669e-05,-0.0047220597043633,0.0021258285269141,-0.7848750948905945,0.6196324825286865,0.0001489369239821,0.0010665958545605,-0.001790371724797,-0.0125069618225097,0.0037746429443359,-0.0178403854370117,0,0,0,0
5.2,1788352754488,0.0,0.0,-0.0040570078417658,0.0031938657630234,-0.9090518951416016,0.4166508316993713,3.0335018995178623e-05,-3.473534308785479e-05,-4.641449674431297e-07,3.047360951313749e-05,0.0012872492661699,0.000366517691873,-0.0047114128246903,0.0021279538050293,-0.7848668694496155,0.619642972946167,-0.000938787044967,-0.0011691843076576,-0.0009302622767876,0.0236167907714843,-0.0178791284561157,-0.0178813934326171,0,0,0,0
5.3,1788352754588,0.0,0.0,-0.0040439758449792,0.0032176540698856,-0.909042477607727,0.4166713654994964,0.0001053900110964,-0.0001207077528873,3.1689513803951687e-06,-0.0004468964762054,0.0020428646821528,0.0012433301890268,-0.0046764202415943,0.0021839598193764,-0.7848402857780457,0.6196765899658203,-0.0001210665283353,0.0012196232476024,0.0016628471234919,-0.0074942111968994,-0.0229185223579406,0.0162229537963867,0,0,0,0
5.4,1788352754688,0.0,0.0,-0.004039404913783,0.0032398235052824,-0.9090481400489808,0.4166587591171264,-0.0001349066523562,0.0001542962434947,2.0484442652765327e-06,-0.0006582108908332,-0.0001944134128279,-0.0015443592565134,-0.0046782838180661,0.0021886005997657,-0.7848547101020813,0.6196582317352295,0.0008646805999641,-0.0002290620946126,0.0018819052571776,-0.0128400325775146,0.0275184512138366,-0.006993293762207,0,0,0,0
5.5,1788352754788,0.0,0.0,-0.0040590930730104,0.0032120621763169,-0.9090380668640136,0.4166810214519501,0.0002469484785116,0.0002315507837807,9.94134085982788e-07,0.0004196503141429,-0.0015410295454785,0.0001564880658406,-0.0046840189024806,0.0021944791078567,-0.7848631143569946,0.6196476221084595,-0.0002965184561826,0.0024681246132468,-0.0004661074116545,-0.025421142578125,-0.0405459403991699,-0.0197391510009765,0,0,0,0
5.6,1788352754888,0.0,0.0,-0.0040283212438225,0.0032285510096699,-0.9090393781661988,0.4166781604290008,6.862106535267712e-05,-7.847197172400473e-05,-1.0438139679732108e-06,0.0004679134872276,-1.247201089427108e-05,0.0007951782899908,-0.0046690525487065,0.0021828645840287,-0.7848532795906067,0.6196601986885071,-0.0004636063685056,-1.5062400521087923e-05,-0.0009770070377417,-0.0037856101989746,0.000291109085083,0.0234813690185546,0,0,0,0
5.7,1788352754988,0.0,0.0,-0.003994227387011,0.0032324041239917,-0.9090434312820436,0.4166694581508636,3.0781546860505104e-05,-3.527283181320081e-05,-4.679014108729135e-07,0.0004051205178257,0.0011693403357639,0.0003768750175368,-0.0046533429995179,0.0021860152482986,-0.7848498821258545,0.6196646094322205,0.0002361420983498,-0.0009136379120756,0.0007725471073009,-0.010678231716156,-0.0051952004432678,0.0055046081542968,0,0,0,0
5.8,1788352755088,0.0,0.0,-0.0040118233300745,0.0032266336493194,-0.90904700756073,0.4166618287563324,-6.833755672231567e-05,7.82055294177477e-05,1.033443061191946e-06,-0.0002176799607696,-0.0001842323545133,-0.0007708638440817,-0.0046296045184135,0.002210484817624,-0.7848445773124695,0.6196713447570801,0.0010357998092092,-0.0013822352031148,0.0016187969543409,-0.020789623260498,-0.001548409461975,0.0198831558227539,0,0,0,0
5.9,1788352755188,0.0,0.0,-0.004000169225037,0.0032333992421627,-0.9090446829795836,0.4166668355464935,0.0001452381046143,0.0003457623274825,2.5262730875631987e-06,-8.72735254233703e-05,-0.0011490866309031,-0.0009788445895537,-0.0046420283615589,0.0022379923611879,-0.7848646640777588,0.619645893573761,-0.0008271865483447,0.0019354446789159,0.0002437057072857,-0.0224348306655883,-0.0206877589225769,0.0018806457519531,0,0,0,0
6.0,1788352755288,0.0,0.0,-0.0039758551865816,0.0032644639723002,-0.9090371131896972,0.4166834354400635,9.544718711296002e-05,-0.0001091690424616,-1.4423949993312849e-06,0.0003536200965754,9.552756819175556e-05,0.0010994910262525,-0.0046513685956597,0.0022273492068052,-0.7848597168922424,0.6196520328521729,-0.0006553312546433,-1.0160233161588128e-05,-0.0017218479135027,-0.0280924439430236,-0.0207548737525939,0.0090656280517578,0,0,0,0
6.1,1788352755388,0.0,0.0,-0.0039896699599921,0.0032904017716646,-0.9090286493301392,0.4167012572288513,0.0001348762290227,-0.000154242246392,-2.04444700649481e-06,-0.0004445995728019,0.0005504841101355,0.0015486669726669,-0.0046986527740955,0.0022301394492387,-0.7848310470581055,0.6196879744529724,5.363869557949832e-05,-0.0023236211687352,-0.0004850753154993,-0.0108160376548767,0.0373256206512451,0.0146188735961914,0,0,0,0
6.2,1788352755488,0.0,0.0,-0.0040316628292202,0.0032990472391247,-0.909034013748169,0.4166893064975738,-7.439474259227434e-05,8.520539075582651e-05,1.1351461784728008e-06,-0.0004477513721212,-6.607144314330071e-05,-0.0008577973349019,-0.004709392786026,0.0022082868963479,-0.7848326563835144,0.6196858882904053,0.0018305430375277,-0.0025004730066876,0.0011209459065558,-0.0058575868606567,0.0083526372909545,0.0253286361694335,0,0,0,0
6.3,1788352755588,0.0,0.0,-0.0040792161598801,0.003250362817198,-0.9090274572372437,0.4167037308216095,-3.860616304641098e-06,4.481007096193462e-06,5.966211886509498e-08,-9.987740486394614e-05,-0.0008610190125182,-4.337673817644827e-05,-0.0047336909919977,0.0022165589034557,-0.7848376631736755,0.6196794509887695,-0.0007985581443467,0.0008287189649162,5.670455968666172e-05,-0.0420475006103515,-0.0343043208122253,0.0126447677612304,0,0,0,0
6.4,1788352755688,0.0,0.0,-0.0040543554350733,0.0032604685984551,-0.9090229272842408,0.4167137145996094,5.432635479354012e-05,-6.235631126661726e-05,-8.37432376313621e-07,0.0008309480617754,0.0006365470471791,0.0006190729327499,-0.0046953223645687,0.0022526355460286,-0.7848638296127319,0.619646430015564,-0.0006555419579026,0.0023006211219878,-0.0022520232167794,0.0092766880989074,-0.0270149707794189,0.003697395324707,0,0,0,0
6.5,1788352755788,0.0,0.0,-0.0040301410481333,0.0032982393167912,-0.9090479612350464,0.4166589677333832,0.0,0.0,0.0,0.0,0.0,0.0,-0.004699969664216,0.0022490313276648,-0.7848672270774841,0.6196421384811401,-0.0008335234863231,-0.0008993740590919,-0.001198284190619,0.0037744045257568,-0.0090681314468383,0.0091314315795898,0,0,0,0
6.6,1788352755888,0.0,0.0,-0.0040321904234588,0.0032908769790083,-0.9090470671653748,0.4166610538959503,0.0,0.0,0.0,0.0,0.0,0.0,-0.0047131357714533,0.0021988172084093,-0.7848687171936035,0.6196402311325073,0.001821350058396,-0.0017872518716991,0.0009385106462085,-0.0167893171310424,-0.0096640586853027,0.0019378662109375,0,0,0,0
6.7,1788352755988,0.0,0.0,-0.0040321904234588,0.0032908769790083,-0.9090470671653748,0.4166610538959503,0.0,0.0,0.0,0.0,0.0,0.0,-0.0047463728114962,0.002145473845303,-0.7848770618438721,0.6196296811103821,-0.0001126636768964,-1.1277152333735287e-05,0.0008908610311214,-0.0269273519515991,-0.0298423767089843,0.0036773681640625,0,0,0,0
6.8,1788352756088,0.0,0.0,-0.0040321904234588,0.0032908769790083,-0.9090470671653748,0.4166610538959503,0.0,0.0,0.0,0.0,0.0,0.0,-0.004738176241517,0.0021814629435539,-0.7848732471466064,0.6196343302726746,-0.000827909652487,0.0010574047047825,5.956328943218896e-05,-0.0299510359764099,-0.0312051773071289,0.0126466751098632,0,0,0,0
6.9,1788352756188,0.0,0.0,-0.0040978505276143,0.0032212971709668,-0.9090546369552612,0.4166443645954132,0.0,0.0,0.0,0.0,-9.328381622708548e-09,0.0,-0.0047595743089914,0.002147720195353,-0.7848700284957886,0.6196383833885193,-0.0004640130521715,-0.0006983101972644,-0.0013370988960327,0.0285909175872802,-0.0081114768981933,0.0109338760375976,0,0,0,0
7.0,1788352756288,0.5352112650871277,1.380281686782837,-0.004081177059561,0.0032510799355804,-0.9090639352798462,0.4166238903999328,-5.631091276426502e-05,6.452247683886297e-05,8.666402244225783e-07,-0.0005799427744932,0.0007951447623781,-0.0006414577364921,-0.0047444812953472,0.0021868832409381,-0.7848437428474426,0.6196717023849487,5.866877288144467e-05,-0.0025460262582744,0.0048695386568186,0.2068597674369812,0.0892751812934875,0.016819953918457,94,301,4052,7620
7.1,1788352756388,2.2253520488739014,4.2816901206970215,-0.0041863555088639,0.003280600067228,-0.9071808457374572,0.4207073748111725,0.0642006407315515,0.0044548665828441,-1.4214427938888052e-05,-0.0021797399967908,0.0100091779604554,0.1669139415025711,-0.0049194488674402,0.0022147092968225,-0.778052568435669,0.6281760931015015,-0.0017963155191754,-0.0040940554166989,0.2690368309933418,0.7264538407325745,0.1736423969268798,-0.1659774780273437,166,209,9788,15657
7.2,1788352756488,3.7183098793029785,6.591549396514893,-0.0044874204322695,0.0034908461384475,-0.9011501669883728,0.4334698319435119,0.1293401912969789,0.0022186965821703,2.200816140895412e-05,-0.0097893588244915,-0.0074858544394373,0.3187806010246277,-0.0047798110172152,0.0023988084867596,-0.7676275372505188,0.6408739686012268,0.0133080531676569,0.0224143946177483,0.4385051317348011,0.8078864812850952,0.0032250881195068,-0.2526130676269531,131,203,11578,21067
7.3,1788352756588,2.676056385040283,7.323943614959717,-0.003522619837895,0.0036655075382441,-0.8908239603042603,0.4543202519416809,0.1830357463515184,0.0050231002858903,3.859284285766201e-06,0.0001951938320416,0.0175568796694278,0.5009667873382568,-0.00391645450145,0.0029890416190028,-0.7546254396438599,0.6561372876167297,0.005376934630481,0.0356155320348402,0.4693849747774919,-0.0944675207138061,0.0205517411231994,-1.3216161727905271,56,108,9311,21341
7.4,1788352756688,2.901408433914185,7.295774459838867,-0.0030842565465718,0.0039018241222947,-0.8783966302871704,0.4779063463211059,0.1807912953210104,0.0020280873556777,2.852440245285249e-05,-7.742139132460579e-05,-0.0100390780717134,0.6202277541160583,-0.0037620840594172,0.0031169410794973,-0.7329572439193726,0.6802571415901184,0.0041866273681021,0.0067961477053252,0.7112213978538339,-0.0950989127159118,-0.0096339583396911,0.0972108840942382,28,98,7803,19628
7.5,1788352756788,1.8028168678283687,5.352112770080566,-0.0027173361741006,0.0042238570749759,-0.8594487905502319,0.5111972689628601,0.1891654883201577,0.0093583194425258,4.9039948268182665e-06,0.0005564784514717,-0.0028275200165808,0.6690661907196045,-0.0032640881836414,0.0034267054870724,-0.7053144574165344,0.7088788151741028,0.0140472384735519,0.0158880723048518,0.5850158036641597,-0.8936076760292053,-0.0178644657135009,-0.3628902435302734,40,83,5259,9538
7.6,1788352756888,0.9577465057373048,2.4788732528686523,-0.0023374748416244,0.0038951924070715,-0.846912682056427,0.531712532043457,0.0902975546912157,-0.0018165978492359,1.0204656619736162e-05,0.0061166225932538,-0.0015943860635161,0.3836281895637512,-0.0031737685203552,0.0031148362904787,-0.6934347748756409,0.7205057740211487,0.0058234293702283,-0.0069689363742178,0.3337604007145977,-0.7930577993392944,0.003757357597351,0.2460346221923828,61,43,2637,3411
7.7,1788352756988,0.0,0.0,-0.0024290033616125,0.0036036290694028,-0.8402082920074463,0.542246401309967,0.0227937750430605,-0.0033142593420283,2.999054963033001e-06,0.0027129154186695,-0.0040945829823613,0.1696344912052154,-0.0032456209883093,0.0029029864817857,-0.6884952783584595,0.7252277731895447,-0.0015485885538992,-0.0044792364630725,-0.0090826942135368,0.2759018540382385,0.042068600654602,-0.006789207458496,8,0,0,0
7.8,1788352757088,0.0,0.0,-0.0024290035944432,0.0036036286037415,-0.8402082324028015,0.542246401309967,-0.0018034407064029,-0.0010790591930285,5.978595662123946e-07,0.0,0.0,0.0,-0.0032563777640461,0.0028992295265197,-0.6885746717453003,0.725152313709259,0.0005839306562366,-0.0031020713836118,0.0192396603251417,0.1661325097084045,0.0673157572746276,-0.006758689880371,0,0,0,0
7.9,1788352757188,0.0,0.0,-0.0024290035944432,0.0036036286037415,-0.8402082324028015,0.542246401309967,0.0002639573023716,-0.0002469216350339,-2.1916214269626702e-06,0.0,0.0,0.0,-0.0032839309424161,0.002893328666687,-0.6886270642280579,0.7251025438308716,0.0018921680653986,0.0006224333635489,0.0030689981957346,0.0381538271903991,0.0604888796806335,-0.0247764587402343,0,0,0,0
8.0,1788352757288,0.0,0.0,-0.0024290035944432,0.0036036286037415,-0.8402082324028015,0.542246401309967,0.0,0.0,0.0,0.0,0.0,0.0,-0.0033094258978962,0.0028921877965331,-0.6886265873908997,0.7251029014587402,0.0007705199003111,0.0010247091178341,0.0004150481538891,0.0108510851860046,-0.0110166072845458,-0.021371841430664,0,0,0,0
8.1,1788352757388,0.0,0.0,-0.0024290035944432,0.0036036286037415,-0.8402082324028015,0.542246401309967,0.0,0.0,0.0,0.0,0.0,0.0,-0.0033356184139847,0.0029110517352819,-0.6885876655578613,0.7251395583152771,-0.0004699423407952,-0.0018007277885932,-0.0038576961236172,0.044893205165863,0.025509238243103,-0.012282371520996,0,0,0,0
8.2,1788352757488,0.0,0.0,-0.0024290035944432,0.0036036286037415,-0.8402082324028015,0.542246401309967,0.0,0.0,0.0,0.0,0.0,0.0,-0.0033057862892746,0.0028805388137698,-0.688506543636322,0.725216805934906,0.0015898916430782,-0.0025320816075139,0.0034964372028937,0.0161383152008056,0.0193175673484802,-0.0248851776123046,0,0,0,0
8.3,1788352757588,0.0,0.0,-0.0024290035944432,0.0036036286037415,-0.8402082324028015,0.542246401309967,0.0,0.0,0.0,0.0,0.0,0.0,-0.0032914699986577,0.0028710104525089,-0.6885020732879639,0.7252211570739746,0.0013133520308702,-0.0020237270864834,0.0049045350403414,-0.0305107831954956,0.0117282271385192,0.0038166046142578,0,0,0,0
8.4,1788352757688,0.0,0.0,-0.0024290035944432,0.0036036286037415,-0.8402082324028015,0.542246401309967,0.0,0.0,0.0,0.0,0.0,0.0,-0.0032844562083482,0.0028395419940352,-0.6885836124420166,0.7251439094543457,0.0010641396345922,-0.0012144397207315,0.0005519360414074,-0.0052478909492492,-0.0004754066467285,-0.0006523132324218,0,0,0,0
8.5,1788352757788,1.2394366264343262,1.5492957830429075,-0.0025169900618493,0.0035357370506972,-0.8403854370117188,0.5419718623161316,0.0003147654093814,-0.0003608474633366,1.4359665650111652e-06,0.000244389520958,-0.0002429143642075,0.0036121967714279,-0.0033184373751282,0.0024801651015877,-0.6874067783355713,0.726260781288147,0.0150314703148459,-0.0130384955892027,0.0964803931245462,1.4275562763214111,0.1078510284423828,-0.160745620727539,189,398,8555,12263
8.6,1788352757888,3.4084506034851074,5.549295902252197,-0.0008946189773268,0.0029483980033546,-0.8363490104675293,0.5481887459754944,0.0956807301938836,0.0064828916887841,-7.285871490682979e-05,0.0419112555682659,0.0465066693723201,0.2042489647865295,-0.0008653290569782,0.0025354176759719,-0.6804563403129578,0.7327836751937866,0.0392460843240836,0.0252108737333128,0.2441557809906524,0.5099047422409058,0.2063204050064087,-0.1483287811279297,149,161,12604,16231
8.7,1788352757988,3.91549301147461,6.619718074798584,-0.0026350999251008,0.0032844168599694,-0.8287916779518127,0.5595415234565735,0.1691629320461498,0.0096841962876257,0.0002133020354007,-0.0536623075604438,-0.0537116602063179,0.2520418167114258,-0.0030416324734687,0.0028612529858946,-0.6681644916534424,0.7440019845962524,0.0045181487065218,-0.0032133499595342,0.3938212877799523,-0.5602667331695557,0.1964538097381591,0.0669546127319336,60,58,11534,17534
8.8,1788352758088,3.9718310832977295,6.366197109222412,-0.0024298781063407,0.002853128593415,-0.8185352683067322,0.574444055557251,0.1860704576895392,0.0020356234182663,7.96055029851121e-05,0.0184041280299425,-0.0317499749362468,0.4619334638118744,-0.002994661219418,0.0020333360880613,-0.6535995006561279,0.7568320035934448,0.0079032923584958,-0.0071656971224783,0.4000920032031103,-0.1950322985649109,-0.0290916562080383,0.2460546493530273,33,68,10768,16832
8.9,1788352758188,4.366197109222412,5.915493011474609,-0.0023263834882527,0.0026502434629946,-0.8070250749588013,0.5905065536499023,0.1674627162656811,0.0009696836147283,3.372124941387946e-05,0.0022330512292683,-0.0039759036153554,0.3654842376708984,-0.0032258769497275,0.0015047416090965,-0.6415831446647644,0.7670453190803528,0.0062354881389741,-0.037824527825072,0.3087953820837496,-0.019716739654541,-0.0819441676139831,0.0537958145141601,67,81,11809,16113
9.0,1788352758288,4.422535419464111,5.915493011474609,-0.0029756743460893,0.0021191658452153,-0.7999634146690369,0.6000375747680664,0.1766129177412242,0.0008842170233001,3.995480072106288e-05,0.0044082514941692,-0.0187932439148426,0.229400560259819,-0.0033420752733945,0.0011852011084556,-0.6303569674491882,0.7762973308563232,0.0015811326942165,-0.0133636262035264,0.2400732843482491,0.1906940340995788,0.2230384945869445,-0.5650110244750977,54,76,11712,16497
9.1,1788352758388,4.3380279541015625,5.915493011474609,-0.0027028124313801,0.0022885894868522,-0.791625440120697,0.6109963059425354,0.1710481568571213,0.0081155672857064,-5.947839605248078e-05,-0.003625584533438,0.0128773432224988,0.2518511414527893,-0.0031863562762737,0.0014389883726835,-0.6209901571273804,0.7838106751441956,0.0046121492143384,-0.0103393375280054,0.2915993985061054,-0.1248226761817932,0.0216028094291687,1.338226318359375,40,65,11831,16549
9.2,1788352758488,3.9718310832977295,5.85915470123291,-0.0025278921239078,0.0023211992811411,-0.7830131649971008,0.621995747089386,0.1774088972431912,0.0013147538296302,6.471601719700422e-05,-0.0007145090494304,-0.0061715245246887,0.2779730856418609,-0.003275629132986,0.0010465364903211,-0.6111720204353333,0.791490375995636,0.016675108338911,-0.054893200024747,0.3018540548136112,-0.0586243271827697,0.0922538638114929,-0.8312530517578125,78,72,13182,16644
9.3,1788352758588,3.9718310832977295,5.943662166595459,-0.0021281400695443,0.0025443516205996,-0.7748053073883057,0.6321912407875061,0.1733941191603287,0.0055391916459929,-1.967993669329597e-05,0.0006619695341214,0.0185152012854814,0.2551806271076202,-0.0027809357270598,0.0018047420307993,-0.5987711548805237,0.8009132742881775,-0.0046703044515659,-0.0045402082135838,0.2514746567632042,-0.1082715988159179,0.0444898009300231,-0.5350589752197266,91,62,13393,16622
9.4,1788352758688,4.760563373565674,5.521126747131348,-0.0023701719474047,0.0021322371903806,-0.7678632736206055,0.6406058073043823,0.1829339279291609,0.0010471502435231,5.406248267297937e-05,0.0058750254102051,-0.010099109262228,0.2284017950296402,-0.0032154228538274,0.0012783883139491,-0.5915021300315857,0.8062959909439087,-0.0094443261104165,-0.0361749228264056,0.1579236054385251,0.0029287934303283,0.0779345035552978,-0.6588497161865234,94,84,13920,15450
9.5,1788352758788,4.2253522872924805,5.943662166595459,-0.0024168263189494,0.0022086044773459,-0.7622290849685669,0.6472991704940796,0.1683933061993159,0.0023457657645559,-5.537343963468369e-06,0.0041998336091637,0.0097642242908477,0.1450726687908172,-0.0023787152022123,0.0015819184482097,-0.5844030380249023,0.8114585280418396,0.0180221251034889,0.0064601739217333,0.2048645576047799,-0.1474424600601196,0.3367008566856384,-0.2793188095092773,85,84,12345,16642
9.6,1788352758888,4.056337833404541,6.0,-0.001585884951055,0.0022016225848346,-0.7548574209213257,0.655883252620697,0.1729640920355541,0.0060181942583171,3.977594575017041e-05,0.0074418266303837,0.0191970728337764,0.2712490260601043,-0.002131750807166,0.0015710890293121,-0.5746394991874695,0.8184024691581726,3.972924117576194e-05,-0.0264731464133398,0.2593404657787689,0.0154697299003601,0.1440837979316711,0.4135217666625976,97,85,12986,16500
9.7,1788352758988,3.8309860229492183,5.85915470123291,-0.0017613102681934,0.0016516272444278,-0.7464401721954346,0.6654481291770935,0.1713140435818526,5.521984385696642e-06,5.965823915209616e-05,0.012127480469644,-0.0130608631297945,0.2724858522415161,-0.0020246459171175,0.0010862033814191,-0.564766526222229,0.8252475261688232,0.0081121286516572,-0.0033647991571468,0.2659951673645208,-0.0246380567550659,-0.0476107001304626,0.2477693557739257,113,94,13586,16752
9.8,1788352759088,4.056337833404541,5.88732385635376,-0.0018000162672251,0.001421311404556,-0.7381546497344971,0.6746276617050171,0.1879932262418782,-0.0039792730239661,-5.541828674136143e-05,-0.0030772413592785,-0.0109248161315917,0.2552020847797394,-0.0020590992644429,0.0007006209343671,-0.5524604916572571,0.8335363268852234,0.0260852989936087,-0.030134396441258,0.24891889590448,-0.0431426167488098,0.0554245114326477,0.0073471069335937,84,88,12758,16761
9.9,1788352759188,4.2816901206970215,5.943662166595459,-0.0017069751629605,0.0008215269772335,-0.7289887070655823,0.6845231056213379,0.1705972941583483,0.0043526757281511,4.016458557696539e-05,0.0140276253223419,-0.0098947389051318,0.2640763819217682,-0.0017886450514197,0.000469728372991,-0.5424565672874451,0.8400818705558777,-0.0020522975359311,0.0078007165829898,0.2648015602146892,0.1324533820152282,0.0451467633247375,-0.0303497314453125,106,82,11963,16473
10.0,1788352759288,4.450704097747803,5.88732385635376,-0.0016647883458063,0.0006919308798387,-0.7201823592185974,0.6937825083732605,0.1787034870340462,0.0009725414341694,-8.569553563939118e-05,0.0050309961661696,-0.0050248447805643,0.2491042613983154,-0.0015435954555869,0.0008934997022151,-0.5331940650939941,0.8459911942481995,-0.0111681761699148,0.0366030135046066,0.2161765042264255,-0.0985841155052185,0.3159871697425842,1.0137872695922852,77,99,11332,16716
10.1,1788352759388,4.3380279541015625,5.7183098793029785,0.0006425175233744,0.0009904681937769,-0.7110616564750671,0.7031286954879761,0.171872341440265,0.0026878888857694,-9.739010910859504e-05,0.0556620545685291,0.0523573420941829,0.3003800213336944,0.0012225816026329,0.0012992778792977,-0.5188274383544922,0.8548771739006042,0.0039786960449091,0.0177018659476811,0.2580906987313686,0.3562618494033813,0.0865776538848877,-1.651960372924805,165,91,12680,17401
10.2,1788352759488,4.788732528686523,5.6619720458984375,-0.0014901794493198,0.0012662503868341,-0.7032462358474731,0.7109436392784119,0.1853738171985288,0.0036840652501444,0.0002166399376521,-0.0661786273121833,-0.0529113449156284,0.1367930173873901,-0.0018804585561156,0.0007262350991368,-0.514041543006897,0.8577629327774048,-0.000954800469266,0.0091843747361283,0.1090302804885069,-0.2722883820533752,0.1142762303352356,-0.730778694152832,21,74,12211,15037
10.3,1788352759588,4.394366264343262,5.633802890777588,-0.0022829622030258,0.0008179253782145,-0.6983084678649902,0.7157927751541138,0.1675681609961886,0.0032836999153828,-3.665739909199381e-05,-0.0092066247016191,-0.0139783425256609,0.1677484363317489,-0.0025216890498995,0.0007597357034683,-0.5076490044593811,0.8615599274635315,-0.025750926337828,0.0211156595125588,0.1566763507717583,-0.0876666903495788,-0.2266804575920105,0.0281925201416015,52,97,13448,15581
10.4,1788352759688,4.02816915512085,5.943662166595459,-0.0025707797612994,0.0016896326560527,-0.6922398209571838,0.7216609716415405,0.1744783254873417,0.0030790800527772,-6.273435425503295e-05,-0.0150019377470016,0.0142414979636669,0.17379030585289,-0.0030311774462461,0.0012131733819842,-0.4980264008045196,0.8671557903289795,-0.005249799185373,0.0010510466434659,0.2119491312761367,-0.1614490747451782,0.2206634879112243,-0.4699726104736328,62,89,12510,17008
10.5,1788352759788,4.084506988525391,5.915493011474609,-0.0021369168534874,0.0027753300964832,-0.684203565120697,0.7292826771736145,0.1792744625693473,0.0010788054140916,-8.905891858556966e-05,-0.0091839553788304,0.0398315824568271,0.258858323097229,-0.0029623974114656,0.0025089820846915,-0.4881606698036194,0.8727452158927917,-0.0201905510391979,0.0210795368330029,0.2515623158417348,-0.2081338167190551,-0.3388318419456482,0.1015958786010742,76,97,12398,16847
10.6,1788352759888,4.253520965576172,5.577464580535889,-0.0026423940435051,0.0029619513079524,-0.6755040884017944,0.7373456358909607,0.1673114467155895,0.0093168749840899,4.899041522199809e-05,-0.0064876195974648,-0.0084289973601698,0.2625972926616668,-0.0032929722219705,0.0026266602799296,-0.476451963186264,0.8791904449462891,-0.0103629583303959,0.0242672888559626,0.2615975234156101,0.1205638647079467,-0.2059007287025451,-0.1386032104492187,127,74,14056,15387
10.7,1788352759988,4.985915660858154,5.577464580535889,-0.0028830869123339,0.0029855526518076,-0.6669872403144836,0.7450574636459351,0.171987953967023,0.0013076879403747,6.279613073986525e-05,-0.0004573549667838,-0.0089777940884232,0.1586706489324569,-0.0035935519263148,0.0022784378379583,-0.4696454107761383,0.8828449249267578,-0.0061885259959035,-0.0027151140023104,0.1560771248337204,-0.1767845153808593,0.3418852090835571,-0.0959892272949218,98,80,12012,15610
10.8,1788352760088,4.11267614364624,6.0,-0.0032790335826575,0.0025660537648946,-0.6598914861679077,0.7513493299484253,0.1646962779719802,0.0057793974777611,7.002954362312719e-05,0.0008413372561335,-0.0184071790426969,0.232950285077095,-0.0038894331082701,0.0014415178447961,-0.4604187607765198,0.8876920938491821,0.0074882915106563,-0.0231012058691549,0.259517555991443,-0.0763778686523437,-0.016004741191864,-0.1794919967651367,49,91,12580,16678
10.9,1788352760188,4.14084529876709,5.943662166595459,-0.0034532337449491,0.0029337657615542,-0.6499826312065125,0.7599354982376099,0.1780462123628138,0.0010770105634627,4.511999902190787e-05,-0.0117789302021265,-0.0118664875626564,0.2673423588275909,-0.0036828014999628,0.0023895921185612,-0.4460455477237701,0.8949995636940002,0.0026964794108141,0.0083417971478398,0.2666244271930766,-0.0874959230422973,0.2035163640975952,0.8520402908325195,63,109,12579,16712
11.0,1788352760288,4.0,5.915493011474609,-0.0028849390801042,0.0026895757764577,-0.6404724717140198,0.7679710388183594,0.171553067269653,0.0052313430679257,-1.0410258105944051e-05,0.0156005257740616,-0.0088020367547869,0.270925909280777,-0.0036779036745429,0.0013795169070363,-0.4353313148021698,0.9002617001533508,-0.0033409350231088,-0.04497408752754,0.2449312383910359,0.0559558272361755,0.1634802818298339,-0.2957658767700195,61,81,13342,16500
11.1,1788352760388,4.478873252868652,5.690140724182129,-0.002736817812547,0.0024359836243093,-0.6294635534286499,0.7770214080810547,0.1703351258960904,0.0042524655385563,6.852506759457277e-06,0.0117664067074656,-0.01475097425282,0.2679645121097564,-0.0033044824376702,0.0017776805907487,-0.4249434173107147,0.9052122235298156,-0.002074739501814,0.0119409694526827,0.2652762935391263,-0.1808914542198181,-0.228062629699707,-0.1567659378051757,169,30,13810,14880
11.2,1788352760488,4.563380241394043,5.521126747131348,-0.0028311086352914,0.0015953420661389,-0.620888352394104,0.7838922739028931,0.1659825157238817,0.005749110590165,4.415591387754972e-05,0.011039100587368,-0.0173997115343809,0.1934836357831955,-0.0033321231603622,0.000351975671947,-0.4150384366512298,0.9097977876663208,-0.0129624522162651,-0.0543045334028452,0.1336173132294796,0.2055781483650207,-0.0774725675582885,-0.1939983367919922,40,77,13405,15459
11.3,1788352760588,4.788732528686523,5.183098793029785,-0.0025271731428802,0.0013812168035656,-0.6157346367835999,0.7879483103752136,0.1609217619487976,0.0025241865169722,-9.25345715946002e-05,0.0136213768273592,0.0230085533112287,0.1282573491334915,-0.0024037817493081,0.0005234843119978,-0.4098060131072998,0.9121693968772888,0.0257621280954156,-0.0007099159605458,0.1133966307285712,0.1842973828315735,-0.0409276485443115,-0.7274179458618164,121,116,13559,15808
11.4,1788352760688,4.676056385040283,5.577464580535889,-0.0017597539117559,0.0006571296253241,-0.6108599901199341,0.7917364239692688,0.1789031213909341,-0.0007064373656669,-6.211426953881678e-05,0.0166195556521415,-0.0002550887293182,0.1044799089431762,-0.0016989894211292,0.0006674267351627,-0.4052310287952423,0.9142125844955444,0.0027390710358355,0.0353902989751238,0.1362093156128425,-0.1431894302368164,0.0443692803382873,-0.6267509460449219,58,78,12601,15422
11.5,1788352760788,4.14084529876709,5.436619758605957,-0.0013592479517683,0.0005514550721272,-0.6056145429611206,0.7957567572593689,0.1688519546362561,0.0047673511209004,1.3904870172466072e-05,0.0160232558846473,0.0129428757354617,0.1513875126838684,0.0008656503632664,0.0010450994595885,-0.3956916332244873,0.9183824062347412,0.0827748439383861,0.0747008135527134,0.2232602138813242,0.2305289506912231,0.01022869348526,-0.6661596298217773,146,84,14981,16295
11.6,1788352760888,5.098591327667236,5.464788913726807,-0.0003646027762442,0.000559952284675,-0.5992408990859985,0.8005685210227966,0.1831207523046638,-0.0002564220477455,8.904659954012538e-05,-0.0394056998193264,-0.0379898585379123,0.1129297465085983,-0.0022262148559093,-0.000369019806385,-0.3926045894622803,0.9197046160697936,-0.0408885235636201,-0.0541674800364961,0.0310430703177812,-0.5677873492240906,-0.3691896200180053,-0.5452766418457031,27,94,11138,16043
11.7,1788352760988,4.732394218444824,5.211267471313477,-0.0021662015933543,-0.000170603627339,-0.5944275856018066,0.8041462302207947,0.1680951762560866,-0.0039983743341874,0.0001591538326134,0.0105991410091519,-0.0203326176851987,0.1882768422365188,-0.0021436568349599,-0.0009576911106705,-0.3858439028263092,0.9225611090660096,0.0037741174000543,-0.0291791794681013,0.1888723154162879,0.1336374878883361,0.0823873281478881,-0.2870407104492187,111,63,14357,14609
11.8,1788352761088,4.253520965576172,5.577464580535889,-0.0024187816306948,-0.0006728948210366,-0.589863657951355,0.8074989914894104,0.1676610870791783,0.0007586398112437,2.115659624026284e-05,0.0026406885590404,-0.0143906008452177,0.0883131772279739,-0.0022364594042301,-0.0010940693318843,-0.3817794919013977,0.924250066280365,-0.0038729419405219,0.0152736200719018,0.0220472007517891,-0.0346394181251525,-0.0264524221420288,-0.2532310485839844,58,83,12489,15771
11.9,1788352761188,4.647887229919434,5.408450603485107,-0.0027398895472288,-0.0011745241936296,-0.5857471823692322,0.8104882836341858,0.1842901041011827,-0.0007371490752877,6.748877749713243e-05,0.0087266275659203,-0.0384909026324749,0.1383642703294754,-0.0024982402101159,-0.0021808175370097,-0.3749081492424011,0.927056074142456,0.00587681495752,-0.0194123946951931,0.1490432997297204,-0.0977153182029724,-0.0429078340530395,0.8172874450683594,65,85,12367,16235
12.0,1788352761288,4.197183132171631,5.633802890777588,-0.0031285197474062,-0.0014857789501547,-0.579046368598938,0.8152872323989868,0.1694091992325084,0.0042932604823237,-6.983420648109872e-05,-0.0044147660955786,-0.0031278138048946,0.1815346777439117,-0.0029140710830688,-0.0020013013854622,-0.3671059906482696,0.9301725029945374,-0.017861760681524,0.0068986446678781,0.200572167082213,0.2049432396888733,-0.1759145855903625,-0.4096841812133789,91,99,14259,15681
12.1,1788352761388,4.929577350616455,5.239436626434326,-0.003690518438816,-0.0023175487294793,-0.5708308815956116,0.821056067943573,0.1671127637241548,0.0023686674629681,5.002837873537055e-05,0.003354265820235,-0.0176478940993547,0.1645379215478897,-0.0032005971297621,-0.0032046129927039,-0.3589852452278137,0.9333322644233704,-0.0106406262889113,0.0104641882187791,0.0756348897358304,-0.0432758331298828,-0.094379723072052,-0.3483152389526367,162,77,14525,14545
12.2,1788352761488,4.788732528686523,5.295774459838867,-0.0038877786137163,-0.0024485569447278,-0.5687581896781921,0.8224918842315674,0.1697751305892624,-0.0011542248117968,-4.411532472010475e-06,-0.0044742017053067,0.004504578653723,0.0325619205832481,-0.003506027162075,-0.0033251643180847,-0.3578860461711883,0.9337527751922609,-0.0021003813116569,-0.0339517095147195,0.0194448041992671,-0.2363731861114502,-0.1684009432792663,0.2926874160766601,115,75,14672,14449
12.3,1788352761588,4.647887229919434,5.267605781555176,-0.0043561728671193,-0.0019798800349235,-0.566956102848053,0.8237341642379761,0.1678163635753506,0.0004672107904173,-6.809540039231947e-05,-0.0120701622217893,0.0122338337823748,0.0495952740311622,-0.0039137927815318,-0.0036110328510403,-0.3549348711967468,0.9348759055137634,0.0065887758816877,-0.0483077938276942,0.0524362444432835,0.2283774018287658,-0.2480370998382568,-0.7382421493530273,56,75,15077,14533
12.4,1788352761688,4.957746505737305,5.014084339141846,-0.0048523168079555,-0.0026276293210685,-0.5651698112487793,0.8249561786651611,0.1775535381594553,0.0009999106971441,-1.0470084961208e-05,-0.0040864795446395,-0.0146325463429093,0.0389855988323688,-0.0038982247933745,-0.0032513542100787,-0.3542615175247192,0.9351325631141664,0.0063105136870276,0.0261417455100505,-0.0082932712644693,-0.1818485856056213,0.0412533283233642,0.1118593215942382,92,80,15390,14351
12.5,1788352761788,5.323943614959717,5.154929637908936,-0.0049305465072393,-0.0024649484548717,-0.5652214288711548,0.8249208331108093,0.1654929203041815,0.0038662025945556,2.222006130644719e-05,-0.0044376486912369,-0.006628633942455,0.0017263423651456,-0.0042639374732971,-0.0038697766140103,-0.3532285988330841,0.935519278049469,-0.0015579172086966,-0.0129117289846704,0.0407450576811318,0.0773918628692627,-0.0671645402908325,-0.0534324645996093,98,68,13818,13938
12.6,1788352761888,4.760563373565674,5.295774459838867,-0.0053456472232937,-0.0033757104538381,-0.5635761022567749,0.8260399699211121,0.1673649505742651,-0.0009166312804317,4.418773995758623e-05,0.0046978145837783,-0.0270100887864828,0.0342868641018867,-0.0044219214469194,-0.0042109489440917,-0.3511229753494262,0.9363094568252563,-0.0088650988326145,0.0290225559384067,0.0953841622132161,-0.3250044584274292,-0.0432343482971191,0.0238142013549804,94,88,14400,14898
12.7,1788352761988,5.323943614959717,5.267605781555176,-0.0050978567451238,-0.0032296827994287,-0.5600393414497375,0.8284440040588379,0.1814763302824781,0.0008178049957166,4.567874280363525e-05,0.0083806775510311,-0.0176012236624956,0.045020867139101,-0.0038882624357938,-0.0038262158632278,-0.347586840391159,0.9376319646835328,0.0109474115455969,0.0308841431305537,0.0355185065376355,-0.203136146068573,0.0042883157730102,1.2721261978149414,72,98,12532,14894
12.8,1788352762088,4.422535419464111,5.295774459838867,-0.0049927025102078,-0.0030424911528825,-0.557904064655304,0.8298848271369934,0.1785021879250217,0.0010742389308292,7.683623240678794e-06,-0.0051741409115493,-0.0111759230494499,0.0583036765456199,-0.0036287335678935,-0.0037620663642883,-0.3448412716388702,0.93864643573761,0.0234394107680449,0.0354896016779808,0.0805474221344972,0.0108609199523925,-0.1155455112457275,-1.2301101684570312,168,90,15891,14884
12.9,1788352762188,4.8450703620910645,5.549295902252197,-0.0020804493688046,-0.002321139909327,-0.5539875626564026,0.8325190544128418,0.1735489799978111,-0.0006125829316022,-0.0003073572145513,0.0358323194086551,0.0392622239887714,0.0921603590250015,-0.004059131257236,-0.0042340420186519,-0.3419721722602844,0.939691722393036,-0.0755134072819039,-0.0966993463853031,-0.0225695159271538,-0.8448105454444885,-0.3139275312423706,-1.0439586639404297,22,90,12031,15981
13.0,1788352762288,4.2816901206970215,5.521126747131348,-0.0046829753555357,-0.0029383902437984,-0.5513818860054016,0.8342346549034119,0.1586367432050466,0.0043956748888363,-5.769183975002425e-06,-0.0037291748449206,-0.0027640787884593,0.1405931264162063,-0.0040475334972143,-0.0041720494627952,-0.3335976302623749,0.9426977038383484,-0.0081877873727752,-0.0150868384334077,0.2038659808398797,0.1370618343353271,0.0914300084114074,0.3259868621826172,95,110,13466,16068
13.1,1788352762388,4.929577350616455,5.633802890777588,-0.0045425379648804,-0.0027380001265555,-0.5420490503311157,0.840330183506012,0.165690223279922,0.0004715013752713,-1.741677793405538e-05,0.0064982613548636,0.0149309430271387,0.1932211816310882,-0.0036682002246379,-0.003771343268454,-0.3256714940071106,0.9454683661460876,0.00896999192472,-0.0038284218015517,0.1513487678926656,-0.2118058204650879,-0.0083450675010681,0.0040092468261718,91,82,11733,15410
13.2,1788352762488,5.577464580535889,4.929577350616455,-0.0042214374989271,-0.0019461070187389,-0.536900520324707,0.843632698059082,0.1736684680386221,0.0022534600144748,-0.0001054966200646,-0.0012178962351754,0.0336891897022724,0.0921608284115791,-0.0036248927935957,-0.0031396690756082,-0.3221834897994995,0.946665108203888,0.0098316194671079,-0.0325066982662174,-0.0080414921828098,0.0019243955612182,-0.0841085910797119,-1.3055744171142578,140,62,14354,13437
13.3,1788352762588,5.464788913726807,4.901408672332764,-0.0040769698098301,-0.0018519212026149,-0.537732720375061,0.8431034684181213,0.1744704670069097,-0.0027139672319001,3.338026308958556e-06,0.002741455566138,0.0064824768342077,-0.0400759652256965,-0.003337082453072,-0.0020708590745925,-0.3244961202144623,0.9458788633346558,-0.0049205664072563,0.0227978101998474,-0.0597735419943349,-0.0221868157386779,-0.0492962598800659,1.0418462753295898,121,75,14267,13586
13.4,1788352762688,4.873239517211914,5.126760482788086,-0.0037307539023458,-0.0012400441337376,-0.5397306680679321,0.8418286442756653,0.1718472734776339,0.0005354152323524,3.7067598725751192e-06,-0.0005895094946026,0.0020097950473427,-0.0468619838356971,-0.0030481256544589,-0.0016535120084881,-0.3262903690338135,0.9452632665634156,0.0105792591819313,0.0233737003248717,-0.0221241675651337,0.2839286923408508,-0.0373169779777526,0.1743946075439453,158,124,14794,15526
13.5,1788352762788,4.788732528686523,5.070422649383545,-0.0033148950897157,-0.0006856260588392,-0.5402763485908508,0.8414808511734009,0.1739052697291282,0.0026787587684794,3.331724001536704e-06,0.0023451666347682,0.0189293380826711,-0.0012140026083216,-0.0026795463636517,-0.0004972461611032,-0.3262245953083038,0.945288360118866,0.0005845753930902,0.0289189229440904,-0.0037882597064706,0.0618940591812133,0.0263124704360961,-0.610504150390625,88,73,15471,14391
13.6,1788352762888,4.929577350616455,5.042253494262695,-0.0026071215979754,0.0005295029259286,-0.5404228568077087,0.8413893580436707,0.1758344189729003,0.0005367237807664,-0.0001218893151984,-0.005862574558705,0.023378849029541,-0.0049610738642513,-0.0021922271698713,0.0012467270717024,-0.3265786170959472,0.9451667070388794,0.0051527764897539,0.0657364915777217,-0.0050583901641411,-0.039695918560028,-0.0581936836242675,0.9679784774780272,71,107,15007,14600
13.7,1788352762988,5.211267471313477,4.985915660858154,-0.0017930448520928,0.0019914009608328,-0.5406360030174255,0.8412524461746216,0.1662477422254329,-0.0031884260792084,-0.0001776690009795,-0.0010535115143284,0.0391349084675312,-0.0015989763196557,-0.0019703451544046,0.0017913691699504,-0.3269523382186889,0.9450370669364928,0.0071447256279831,0.0262372662244172,-0.0183467974493507,0.2832919359207153,-0.002271294593811,-1.490619659423828,53,97,13854,15064
13.8,1788352763088,5.126760482788086,5.183098793029785,-0.0009980115573853,0.002768812701106,-0.541706383228302,0.840562641620636,0.172043777622938,-0.0002543601895279,-5.285459661772311e-05,0.0060502798296511,0.0307038147002458,-0.0215864274650812,-0.001691211014986,0.0032300809398293,-0.3271278142929077,0.9449730515480042,-0.0163778793928984,0.0433786435319703,0.0352410215876596,0.1030303835868835,-0.0063715577125549,-0.4003553390502929,105,103,13231,15375
13.9,1788352763188,4.535211086273193,5.211267471313477,-0.0009365832665935,0.0041823238134384,-0.5398581027984619,0.8417450785636902,0.1851334274014992,0.0013803278977818,-9.604495098464225e-06,-0.0123567236587405,0.0038076930213719,0.0298659317195415,-0.0017378246411681,0.0042168702930212,-0.3248418271541595,0.9457573890686036,0.0050252372405664,0.0117511111264258,0.0322454477532261,-0.0530984997749328,0.077655553817749,-0.3084659576416015,100,76,14972,14929
14.0,1788352763288,4.704225540161133,5.239436626434326,-0.0005223150365054,0.0048836078494787,-0.5382291674613953,0.8427842259407043,0.1663130730732172,-0.0011288922668039,-7.260934868815654e-05,-0.0025698852259665,0.0197972394526004,0.0502847582101821,-0.0016225334256887,0.0050276350229978,-0.3224717676639557,0.9465643763542176,-0.0001234672007528,0.0047469762922067,0.0563874191667668,0.0687474608421325,-0.0743238925933837,-0.1775722503662109,111,99,14303,14924
14.1,1788352763388,4.563380241394043,5.098591327667236,-1.8133781850337986e-05,0.0055903517641127,-0.5353182554244995,0.8446319699287415,0.1741521149064955,0.0020540997765671,-9.733893726837016e-05,0.0073109627701342,0.0250806082040071,0.064347006380558,-0.000352811999619,0.0057660592719912,-0.3192921280860901,0.9476388096809388,0.0565631729875591,0.0312555578398792,0.0942390762006279,-0.0495469570159912,-0.1677523255348205,0.0378322601318359,96,70,16260,14221
14.2,1788352763488,5.464788913726807,5.323943614959717,0.0002910413313657,0.0050153308548033,-0.5331776738166809,0.845988392829895,0.184399544856758,0.0002035007016221,0.0001949354939426,-0.041385531425476,-0.0612635686993598,0.0050744414329528,-0.0016476586461067,0.0047270404174923,-0.3188819587230682,0.947781264781952,-0.0100597059640235,-0.0010467090009746,-0.0299385762245076,-0.5983079671859741,-0.3771509528160095,1.6893386840820312,19,85,11816,14333
14.3,1788352763588,4.704225540161133,5.295774459838867,-0.0007363021140918,0.0040547563694417,-0.5316867232322693,0.8469310402870178,0.1759247504773498,-0.0005476582897205,5.754116203448682e-05,0.0073553319089114,-0.0145990969613194,0.071941390633583,-0.0018925415351986,0.0034536691382527,-0.3157676458358764,0.948828399181366,-0.0072609442851922,-0.0239214069996027,0.0512777398335506,0.0239689350128173,-0.104001760482788,-0.4832181930541992,108,83,14244,14404
14.4,1788352763688,4.507042407989502,5.183098793029785,-0.001422633533366,0.0032767648808658,-0.5300981402397156,0.8479287028312683,0.174404689368194,0.0013434113109295,2.4717190423253765e-05,-0.0067129000090062,-0.0148066570982337,0.0318888463079929,-0.0024827951565384,0.0023929206654429,-0.3141167163848877,0.9493781328201294,-0.0040602156991359,-0.0439182526387119,0.039346582847527,0.1424805521965026,-0.1813178658485412,-0.1475820541381836,47,87,15031,14965
14.5,1788352763788,5.323943614959717,5.070422649383545,-0.0017309805843979,0.0030427444726228,-0.5281343460083008,0.8491536974906921,0.1747269921989787,0.0015861849647002,-4.472305969661148e-05,0.0013967582490295,-0.0036838073283433,0.0566626042127609,-0.0023512048646807,0.0025284262374043,-0.311491847038269,0.9502425789833068,0.002688273998379,-0.0019107798375802,0.0386002413982744,-0.190485417842865,-0.2368246912956237,1.2393999099731443,53,94,12395,15051
14.6,1788352763888,4.760563373565674,5.211267471313477,-0.0022817256394773,0.0020251865498721,-0.5256127119064331,0.8507185578346252,0.1787868194441972,0.0037481304687499,9.189219701834648e-05,0.0004075354081578,-0.0388529933989048,0.0624604374170303,-0.0028628790751099,0.001454041339457,-0.3088351488113403,0.9511101841926576,-0.0090352659403125,0.0122061035917737,0.0560733494342536,0.163975715637207,0.1123872399330139,-1.408219337463379,133,88,14719,14139
14.7,1788352763988,4.647887229919434,5.211267471313477,-0.0023699910379946,0.001684786286205,-0.5241783857345581,0.8516035676002502,0.1664662334350144,0.0005139075477151,1.6869989529221807e-05,0.0059991693124175,-0.0074497088789939,0.0283048395067453,-0.0026618177071213,0.0008128210902214,-0.3080273270606994,0.9513734579086304,0.0137912194982598,-0.0294754324030206,-0.0016439250356131,-0.2598510384559631,-0.284284234046936,-0.1967449188232422,59,61,14741,14612
14.8,1788352764088,4.788732528686523,5.211267471313477,-0.0024636958260089,0.0008152776863425,-0.5230157375335693,0.8523190021514893,0.1642399528784462,0.0022357499752683,2.1454577610051136e-05,0.0029379504267126,-0.0114706996828317,0.0324442125856876,-0.002753896638751,-0.0003003850579261,-0.305139422416687,0.95230370759964,-0.0039022346733606,-0.0164210019869076,0.0608080523461723,-0.0077961087226867,-0.095130443572998,-0.4271707534790039,65,93,14465,14810
14.9,1788352764188,5.211267471313477,5.323943614959717,-0.0026881382800638,0.000352322065737,-0.520550012588501,0.8538268208503723,0.179905044627695,0.0016154211533211,3.142950559364818e-05,0.0008815652108751,-0.0012084515765309,0.0562543272972106,-0.002294129692018,-0.0002170288935303,-0.3031007647514343,0.952955722808838,0.0208468174760748,0.0092507451265138,0.0449718947039483,-0.2664645314216614,0.1862965822219848,0.4922084808349609,109,74,13353,14406
15.0,1788352764288,5.042253494262695,5.070422649383545,-0.0020763620268553,0.0002412920002825,-0.5182929039001465,0.8552006483078003,0.1763828301602788,0.0007887829764448,-1.7968358474610745e-05,0.0080762458965182,0.0090057272464036,0.0476360246539115,-0.0022576646879315,-0.000108596868813,-0.3010912537574768,0.9535926580429076,-0.0208549138133642,0.0025046503339135,0.0492162118024795,-0.1136587858200073,0.1048340201377868,-0.5194492340087891,121,82,14567,14904
15.1,1788352764388,5.380281925201416,5.070422649383545,-0.0025705927982926,0.0002926546731032,-0.5164691805839539,0.8563018441200256,0.1733979879054307,0.000411357900907,7.652426159526333e-07,-0.0045195478014647,1.7022714018821716e-05,0.0422742776572704,-0.0024105049669742,0.0004095425829291,-0.298324853181839,0.9544612169265748,-0.0083194813120987,0.0276990521346986,0.0325535086570057,-0.0586547255516052,-0.0298050045967102,0.835963249206543,87,66,13752,14212
15.2,1788352764488,5.211267471313477,5.014084339141846,-0.0024473862722516,0.0007340785232372,-0.5153759121894836,0.8569604158401489,0.1715504984975667,8.786438650203807e-06,1.9851961466417645e-06,-2.3232253898441972e-09,2.787870556630878e-08,-7.136948624975048e-06,-0.0026178229600191,2.0675361156463623e-05,-0.2980419397354126,0.9545491933822632,0.0020268219222888,0.0010462042534524,-0.0008311924638039,-0.1491934657096862,0.1375709772109985,-0.2921304702758789,141,74,13923,14379
15.3,1788352764588,4.704225540161133,5.154929637908936,-0.0028325831517577,0.0002478456590324,-0.514643132686615,0.8573998212814331,0.1696967882986852,-0.0004398283846658,3.360805759325371e-05,-0.0014648612122982,-0.0202090684324502,0.0253452770411968,-0.0027179298922419,-0.0003864495083689,-0.2971566617488861,0.9548248648643494,0.0050976548331432,0.0044426593859487,0.0226106185404463,0.0861356258392334,-0.0852443575859069,-0.1167984008789062,86,82,14468,15099
15.4,1788352764688,4.647887229919434,5.239436626434326,-0.002306193113327,0.0001260959543287,-0.512610137462616,0.8586183190345764,0.1755286170473069,0.0045398262790286,-3.2351651600416564e-05,0.0194626413285732,0.0075962506234645,0.0789121612906456,0.0003825984895229,0.0012054629623889,-0.2920529544353485,0.9564013481140136,0.070606519266855,0.0953098584497785,0.1165399929874982,0.2838276624679565,0.0202646255493164,-0.5557060241699219,115,88,15501,15043
15.5,1788352764788,5.183098793029785,5.126760482788086,-0.0024660385679453,-2.097547985613346e-05,-0.5100407004356384,0.860146701335907,0.1895372341318444,0.0029584470229963,0.0001882669699099,-0.0636778697371482,-0.0766339376568794,0.0001798134617274,-0.0024220468476414,-0.0004047779366374,-0.2918951511383056,0.9564472436904908,0.004757363578635,0.0395753724785184,0.0429548144862158,-0.260377287864685,-0.3949556350708008,0.1532402038574218,28,66,12303,14978
15.6,1788352764888,5.267605781555176,5.042253494262695,-0.0024081941228359,0.0001724212197586,-0.5073481798171997,0.8617377877235413,0.1629970916894837,-5.56211751844557e-05,-6.2256412954093055e-06,-0.0029171090573072,0.0076616634614765,0.0820647329092025,-0.0025270618498325,-0.0007189838215708,-0.2888159453868866,0.9573810696601868,-0.0069764892892905,-0.0280422372613278,0.0361185669400094,0.2353606820106506,-0.3591946363449096,-0.2417020797729492,85,102,12387,15371
15.7,1788352764988,4.704225540161133,5.295774459838867,-0.0029884856194257,-0.0006982001941651,-0.5048136115074158,0.8632228970527649,0.1860510059555525,0.0007107572828129,2.89611164571582e-05,0.0038944969419389,-0.030653778463602,0.0614928789436817,-0.0028103664517402,-0.0018803803250193,-0.2857486307621002,0.9582986235618592,0.0095257612864538,-0.0224513999130211,0.0279683507091152,-0.0689808130264282,-0.1511170268058776,-0.2594366073608398,99,79,14370,14586
15.8,1788352765088,5.014084339141846,5.183098793029785,-0.0031164831016212,-0.0011542767751961,-0.503791332244873,0.8638190627098083,0.172486822913012,-0.0015489383164223,8.016751454957509e-05,0.0069285263307392,-0.0125577794387936,0.0250803232192993,-0.0027179354801774,-0.0016146469861268,-0.2857462763786316,0.9583001136779784,-0.005499138238162,0.0171777250076247,0.0044627957137233,-0.437813401222229,0.2554901242256164,0.3412351608276367,46,105,14368,14948
15.9,1788352765188,5.042253494262695,5.239436626434326,-0.0031607039272785,-0.0008056083461269,-0.5020310282707214,0.8648433685302734,0.1716454541404634,0.0007182887204899,-4.813233756971142e-05,-0.0069729150272905,0.0208639334887266,0.0861920416355133,-0.0028327917680144,-0.0014266474172472,-0.2828085422515869,0.9591711163520812,-0.0031531803019736,0.0017591066408825,0.0487192400726691,0.0445529222488403,-0.1187047362327575,0.4932060241699219,138,74,13664,14802
16.0,1788352765288,4.704225540161133,5.239436626434326,-0.0028883733320981,-0.0009667297126725,-0.4998201727867126,0.8661237955093384,0.1749207477992986,0.0003874330266362,6.5115951991039255e-06,0.0066238595172762,-0.0005538226687349,0.0483069270849227,-0.0024318918585777,-0.0009863879531621,-0.27991783618927,0.9600204825401306,-0.0020713594065393,0.0275523997443533,0.0468842511768803,-0.0548993349075317,-0.0468106865882873,0.7520456314086914,73,101,14740,14919
16.1,1788352765388,5.126760482788086,5.154929637908936,-0.0024541998282074,-0.0004185613361187,-0.4973118305206299,0.86756831407547,0.1727038235522856,0.0015504955515724,-1.036961755058359e-05,0.0057454812340438,0.0014886676799505,0.070200577378273,-0.002193302847445,-0.0008959714323282,-0.2769536077976227,0.96088045835495,0.0032740055006656,0.0074690627304072,0.0629790191584107,-0.1219671368598938,0.0017430782318115,-0.54058837890625,59,57,11825,14298
16.2,1788352765488,2.5352113246917725,4.11267614364624,-0.0021503795869648,-0.0006187293911352,-0.4948293566703796,0.8689873218536377,0.1777285439368101,-0.0014394650116871,2.38512159052961e-05,0.014081984758377,-0.0079738283529877,0.072201058268547,-0.0014914292842149,-0.0008819187059998,-0.2728369832038879,0.9620587825775146,0.0195472064254805,0.0260582368846381,0.1668331931966156,-1.5028572082519531,0.2810059189796448,0.3487358093261719,69,24,3748,9742
16.3,1788352765588,0.0,2.7887322902679443,-0.0015735375927761,0.0003768062160816,-0.4824588000774383,0.8759171962738037,0.0714729817409614,0.0047460082755646,-7.662214425353533e-06,-0.0080438051372766,0.0095386747270822,0.3328293859958648,-0.0015541603788733,0.0002523362636566,-0.2518349587917328,0.9677689671516418,0.0021908069045912,0.0096023691455495,0.4301832112318052,-0.2740804553031921,0.2009954452514648,0.0812644958496093,76,29,-3446,6962
16.4,1788352765688,-2.0281689167022705,1.6056338548660278,-0.0015055241528898,0.0005011786706745,-0.4625096023082733,0.8866127729415894,0.0211094693148902,-0.0013182343602286,2.834990277389059e-06,0.0002333103184355,-0.0046807751059532,0.4699026048183441,-0.0015528816729784,0.0001309523358941,-0.2295144349336624,0.973304033279419,0.0018564789871656,0.0028935597494685,0.5779422703585523,-0.1534608006477356,-0.116711676120758,-0.1996936798095703,128,58,-8985,6293
16.5,1788352765788,-1.8309859037399288,1.6901408433914185,-0.0016388508956879,0.0006159048061817,-0.4381127059459686,0.8989184498786926,-0.0072549175072903,-0.0014602431084638,-4.69160519762093e-07,-0.0069695743732154,0.0028412316460162,0.5433658361434937,-0.0017451867461204,0.0003308188170194,-0.205016478896141,0.9787569642066956,-0.0020312280088675,0.0067395372039247,0.5670945734535039,0.3370208144187927,0.1261188387870788,0.0543279647827148,115,102,-7744,7075
16.6,1788352765888,-1.5211267471313477,1.6056338548660278,-0.0016022998606786,0.0007328929495997,-0.4142529666423797,0.9101600646972656,0.0061765884643001,-0.0062141925205625,1.7570290481135691e-06,0.0006318902014754,-0.0020438742358237,0.5761297345161438,-0.0017450591549277,0.0002839416265487,-0.1795568913221359,0.98374605178833,-0.0002852740286113,-0.0033067900452618,0.5496467312375085,0.2760066986083984,-0.1573951244354248,-0.1152458190917968,129,94,-6389,5294
16.7,1788352765988,-1.5774648189544678,1.436619758605957,-0.0018226634711027,0.0005892385961487,-0.3892929553985595,0.9211120009422302,0.0027624854434777,-0.0056569577242105,-3.372684816945495e-07,-0.0026397283654659,-0.0085320975631475,0.4518280029296875,-0.0019409656524658,7.810723036527634e-05,-0.1508609056472778,0.9885530471801758,0.0001202932285638,-0.0005431204226695,0.40170062736294,0.2418518662452697,-0.046940267086029,0.0826025009155273,127,118,-6529,5734
16.8,1788352766088,-1.5211267471313477,1.5492957830429075,-0.0020191855728626,0.0004531535960268,-0.3690523207187652,0.9294063448905944,0.0036355337904895,-0.0056534299012336,-2.9794855295289685e-07,-0.0042521120049059,-0.0051143518649041,0.4498726427555084,-0.0022234097123146,0.0001591695472598,-0.1280113011598587,0.9917702078819276,-0.0076255947179804,0.0117316416429348,0.4729954633102909,-0.1515448689460754,-0.1542983651161193,0.0768251419067382,60,9,-4285,3618
16.9,1788352766188,-1.0704225301742554,1.0985915660858154,-0.0020995484665036,0.0008924382273107,-0.3481015264987945,0.9374540448188782,0.0069085966012703,-0.0074552311176314,-1.089713753962234e-06,-0.0021561211906373,0.0073554944247007,0.460646390914917,-0.0023292349651455,0.0003579715266823,-0.1098941937088966,0.993940532207489,-0.0038282965719922,-0.0011746577064478,0.3211890621989213,-0.2620556354522705,-0.1356239318847656,0.084024429321289,120,60,-5337,4754
17.0,1788352766288,-1.2394366264343262,1.154929518699646,-0.0022324156016111,0.0007286653853952,-0.3316491842269897,0.9433999061584472,-0.0018198211675048,-0.0045107398126662,-4.107238468425332e-06,0.0001334648841293,-0.0050378111191093,0.2998015880584717,-0.0023300806060433,0.0001846104860305,-0.0959035605192184,0.9953879714012146,0.0007990694510603,-0.0047913740649946,0.3328363312257931,-0.0186561942100524,0.1124599575996398,-0.1379842758178711,86,109,-5364,5014
17.1,1788352766388,-1.2676056623458862,1.183098554611206,-0.0023581897839903,0.0005949824117124,-0.3161989450454712,0.948689877986908,-5.714427331761965e-05,-0.0040156769910414,1.5335012918544071e-06,-0.0022756534162908,-0.0048212511464953,0.3595544695854187,-0.0024405540898442,-0.0002122670412063,-0.0735580474138259,0.997287929058075,0.0005966983718086,-0.0088310044576742,0.3817198329015505,0.10193532705307,0.1029433012008667,-0.0068464279174804,121,75,-5078,4772
17.2,1788352766488,-1.183098554611206,1.183098554611206,-0.0024987843353301,0.0002484161814209,-0.2980939149856567,0.9545332193374634,0.0020247684299363,0.0005328147345314,-3.984233379242835e-06,-0.0012678278144448,-0.006473627872765,0.3860015869140625,-0.0025109108537435,-0.0004271660000085,-0.0568079426884651,0.9983819127082824,-0.0006242575347898,-0.0028552964708785,0.3787212365464197,0.1487435102462768,-0.0232827067375183,-0.0215129852294921,71,51,-5147,4649
17.3,1788352766588,-0.8169013857841492,0.9014084339141846,-0.0025751397479325,7.815490243956447e-05,-0.2823197543621063,0.9593168497085572,0.0045153346227548,-0.0032630854104427,2.1354308205000035e-06,-6.9829343374294695e-06,-0.0040345070883631,0.2950075566768646,-0.0025428403168916,-0.0005615372210741,-0.0444186478853225,0.9990096688270568,-0.0012528526143245,-0.0025402152908248,0.2162177639945399,-0.1263312101364135,-0.0281465649604797,0.025090217590332,72,49,-4051,3395
17.4,1788352766688,0.2535211145877838,0.1971831023693084,-0.0026131027843803,4.890421405434609e-05,-0.2740052938461303,0.961724579334259,0.0034206090158935,-0.0026640124997535,-1.0274889974507862e-06,-0.0001207667010021,-0.0003087738878093,0.127041220664978,-0.0025516059249639,-0.00057630892843,-0.0389016866683959,0.9992396235466005,0.0008857209567033,0.0003465047826731,0.0475602728565428,-0.0347468852996826,-0.0601841807365417,0.0016899108886718,109,266,4340,6868
17.5,1788352766788,3.323943614959717,4.2816901206970215,-0.0025897158775478,-8.295715088024735e-05,-0.2710379362106323,0.9625651836395264,0.0665653547266178,-0.0002393512846173,6.518970464749198e-06,0.0049452539533376,0.0043116915039718,0.1329194605350494,-0.0025104908272624,-0.0005807662382721,-0.0328694730997085,0.9994563460350036,-0.0021094086330028,0.0034737157718397,0.1494200705620471,0.2455764412879943,0.0747396945953369,0.3361930847167969,181,215,10859,15356
17.6,1788352766888,4.197183132171631,6.253520965576172,-0.0024421277921646,-0.0003526266082189,-0.2618685364723205,0.9651004076004028,0.1418633065998381,0.0030363202848099,4.706774584192536e-05,0.0085102003067731,-0.0118401050567626,0.2203776836395263,-0.002237201668322,-0.0009842403233051,-0.0226479060947895,0.9997406005859376,0.0038334618375576,-0.0047902920867296,0.2510192889224378,0.744941771030426,0.0579997301101684,-0.1504335403442382,149,125,14318,17817
17.7,1788352766988,4.2816901206970215,6.0,-0.0020440414082258,-0.0005975622916594,-0.2472167760133743,0.9689578413963318,0.1895191755421408,0.0045625748391026,-9.58048569361376e-06,0.0116801466792821,-0.0195345915853977,0.3364512622356415,-0.0018371967598795,-0.0003920746967196,-0.0031237890943884,0.99999338388443,0.0046466336703837,0.02353815948099,0.3077364719505118,-0.3169337511062622,-0.0793290138244628,0.7900056838989258,153,66,12888,16548
17.8,1788352767088,4.2816901206970215,5.943662166595459,-0.0016189110465347,-0.0004890414420515,-0.233848363161087,0.9722716212272644,0.1712302772598067,0.0064327655135645,4.14223147901741e-05,0.0164248198270797,-0.0204099453985691,0.2832447290420532,-0.0010468596592545,-0.0011032866314053,0.0078845517709851,0.999967873096466,0.01492262387868,0.0090198379598583,0.2636922902793508,0.1890939474105835,0.1977771520614624,-1.188410758972168,157,69,12744,16190
17.9,1788352767188,4.478873252868652,5.97183084487915,-0.0008128930348902,-0.0015152900014072,-0.2206738144159317,0.9753461480140686,0.1688026630183511,0.006014648604453,3.399711539286914e-05,0.0185826979577541,-0.0137945413589477,0.2330358475446701,-0.0001491280272603,-0.0022052023559808,0.0213366225361824,0.9997699856758118,0.0178886680381395,-0.0143765172297269,0.2083145149376409,-0.2013028860092163,-0.1770209074020385,0.4342851638793945,113,72,11790,16151
18.0,1788352767288,4.366197109222412,5.943662166595459,-0.0007714641978964,-0.0025454810820519,-0.2102914303541183,0.977635145187378,0.1724188707809989,0.003629516688678,3.681054349381326e-05,0.0028437664732337,-0.0190570019185543,0.2159277349710464,0.0002087103202939,-0.0027995212003588,0.0316334217786788,0.9994956254959106,0.0208438061482406,0.0133734874396832,0.2763520588284122,0.1678522229194641,0.0663114786148071,-0.2222719192504882,55,103,12026,16639
18.1,1788352767388,4.169013977050781,5.943662166595459,-0.0007784054614603,-0.0027667635586112,-0.1984923779964447,0.9800981879234314,0.1828828143889027,0.0025066617792524,2.1717523005681575e-05,-0.0120741827413439,0.0045441342517733,0.2409591674804687,6.582587957382202e-06,-0.0028484361246228,0.0428015030920505,0.9990795254707336,0.0082982064861741,0.0006691010981679,0.2647400716458696,-0.0379397273063659,0.0637067556381225,0.4978847503662109,40,84,12354,16596
18.2,1788352767488,4.197183132171631,5.915493011474609,-0.0005382906529121,-0.0024534645490348,-0.1870819926261901,0.9823410511016846,0.1643843299029887,0.0055134554024605,-5.839926854907504e-05,0.0024399496614933,0.0178937166929245,0.2492087036371231,4.0978193283081055e-08,-0.0027315393090248,0.0538481511175632,0.9985454082489014,-0.0061545601627136,-0.02196646789873,0.2326765962525814,-0.0014874935150146,0.1667323112487793,0.48736572265625,35,78,12182,16718
18.3,1788352767588,4.873239517211914,5.577464580535889,-0.0010064085945487,-0.0024508824571967,-0.1737831979990005,0.9847803711891174,0.1691489672642839,0.004769894645992,-6.650261972514094e-05,-0.0236491579562425,0.0297843124717474,0.2522366940975189,-0.0004147123545408,-0.001947971060872,0.0685741230845451,0.9976440072059632,0.0059917923976345,0.0347063020252786,0.2261408295249456,-0.355553388595581,0.1045397520065307,0.4834127426147461,112,78,12349,15489
18.4,1788352767688,4.732394218444824,5.549295902252197,0.0008450174937024,-0.0004756654379889,-0.163531020283699,0.9865376949310304,0.1665009715753273,0.0019434238133494,-0.0002264113852231,0.0542598292231559,0.0636404454708099,0.196140706539154,0.0002075973898172,-0.0006386954337358,0.0758489519357681,0.9971190690994264,-0.0511947859543431,-0.0223896174618853,0.1038677634488631,0.2964187264442444,0.185494840145111,-0.7716894149780273,72,45,15403,13459
18.5,1788352767788,4.985915660858154,4.929577350616455,-0.0018325173296034,-0.002067889785394,-0.161319151520729,0.9868984818458556,0.1879729010027486,0.0072768203247983,0.0001876298000701,-0.013586320914328,-0.0256404113024473,0.0009928508661687,-0.0018738731741905,-0.00207738019526,0.0773263275623321,0.997001886367798,-0.00825951447407,0.0322224362631115,0.0331490072437353,0.0829754471778869,0.2436230182647705,-1.1200075149536133,38,73,14812,14099
18.6,1788352767888,5.211267471313477,5.183098793029785,-0.0023765126243233,-0.0016979093197733,-0.1603956818580627,0.9870485663414,0.172456222534463,0.0052544998342208,-8.741298080998993e-06,-0.0048962975852191,0.0018010662170127,0.0085422843694686,-0.0021381163969635,-0.0022765137255191,0.0780046433210372,0.9969481825828552,-0.0107852047019557,-0.0002448817081192,0.0112779810977883,0.1528968811035156,0.1572263836860656,-0.2993669509887695,70,89,13552,14041
18.7,1788352767988,5.436619758605957,5.070422649383545,-0.00277731847018,-0.0018704594112932,-0.159437745809555,0.987202286720276,0.1834700667843781,-0.0004144099889923,1.3756926546801052e-05,-0.015244516544044,-0.0099170999601483,0.0275545064359903,-0.0024986760690808,-0.0025259172543883,0.0782163739204406,0.9969300627708436,-0.0139617795961315,0.0157225234314103,-0.0134541655003599,0.0947383642196655,0.030239462852478,-0.4110250473022461,105,84,13259,14370
18.8,1788352768088,4.647887229919434,5.464788913726807,-0.0031410953961312,-0.0016609738813713,-0.1599203497171402,0.9871235489845276,0.1791531909124747,0.0051630894203888,-5.096532547623215e-05,-0.0099554006010293,0.0088123818859457,-0.0180688127875328,-0.0031936448067426,-0.0024801082909107,0.0809343829751014,0.996711254119873,-0.0269005859934587,0.0169780510383408,0.1378008124956669,-0.0432526469230651,0.1082251071929931,-0.2922916412353515,114,132,12415,16619
18.9,1788352768188,4.591549396514893,5.6619720458984375,-0.0040242350660264,-0.0014829246792942,-0.1523132622241974,0.9883229732513428,0.1755232563794652,0.0011891059882897,3.77583806607747e-05,-0.0150367356836795,0.0050209616310894,0.191023901104927,-0.0033680731430649,-0.0030292375013232,0.09015853703022,0.9959171414375304,0.0052921133005734,-0.0406727494380973,0.2217191621573598,0.2864112257957458,0.1147765517234802,-0.2849140167236328,78,85,12692,15763
19.0,1788352768288,5.042253494262695,4.816901206970215,-0.0040672472678124,-0.0016253045760095,-0.1423727571964264,0.989803433418274,0.1745347490284094,0.0019972154247326,-2.7315153794486632e-05,-0.0029365925583988,0.0100897746160626,0.1601109653711319,-0.0035439888015389,-0.0030341995880007,0.0965803638100624,0.9953143000602722,-0.0078182994830108,-0.0350852437129402,0.1177838116566354,0.3227498531341553,0.0336846709251403,0.6021766662597656,147,42,16343,13733
19.1,1788352768388,5.014084339141846,5.352112770080566,-0.0041771065443754,-0.0013123431708663,-0.1416694670915603,0.9899043440818788,0.1663834365193885,-0.0027691274814517,3.238300636085364e-06,-0.0008410490700043,0.006589681841433,-0.0247920602560043,-0.0037889666855335,-0.0026682522147893,0.0956200361251831,0.9954071044921876,-0.0013647503606668,-0.0535259927055259,0.0034663437198243,-0.1779706478118896,0.0830044150352478,0.4548473358154297,103,36,13598,14171
19.2,1788352768488,4.957746505737305,5.098591327667236,-0.0039955163374543,-0.0014115738449618,-0.140073612332344,0.9901320338249208,0.1618271095009964,0.0013173074271599,-8.178569127324797e-05,0.0104475189000368,0.0091582844033837,0.0843045264482498,-0.0034685535356402,-0.0017058467492461,0.098587617278099,0.995120882987976,0.0092666411601862,0.0295233814453958,0.0298444170764898,-0.1880749464035034,-0.0433229207992553,-0.3268918991088867,164,39,16427,13149
19.3,1788352768588,5.154929637908936,4.901408672332764,-0.0039164600893855,-0.0010504766833037,-0.139287918806076,0.9902436137199402,0.1746389898471238,-0.0028082975953466,2.139147402196077e-05,-0.000162688025739,-0.0034948599059134,0.0145082250237464,-0.0036042621359229,-0.0018888432532548,0.0976345241069793,0.9952141046524048,-0.0032945815451558,-0.0126828860906738,-0.0604576391800156,0.0993595123291015,-0.1403819918632507,0.163309097290039,126,75,15612,13636
19.4,1788352768688,5.239436626434326,4.8450703620910645,-0.0038415773306041,-0.0011037378571927,-0.1429712772369384,0.9897187948226928,0.1646343447908862,-0.0043098454349344,1.5440798013589455e-06,0.0023688843939453,-0.0057403850369155,-0.0698731765151023,-0.0034182462841272,-0.0016406495124101,0.0944090038537979,0.9955262541770936,0.0014725282130718,0.0436384684479041,-0.0779546306404089,-0.1386765241622924,-0.2006140947341919,-0.3991279602050781,129,75,14904,13869
19.5,1788352768788,4.676056385040283,5.070422649383545,-0.0036174724809825,-0.0006393101648427,-0.1456817537546157,0.989324688911438,0.1731010388729795,0.0010474697810131,-6.226937210935072e-05,0.0014009955339133,0.0080282092094421,-0.0771255642175674,-0.0033597098663449,-0.0005765510722994,0.092198334634304,0.9957348108291626,0.0063143224817161,0.0536443647658543,0.0267811759164341,-0.0714595317840576,-0.0366049408912658,-0.4364614486694336,90,157,14390,15814
19.6,1788352768888,4.450704097747803,5.211267471313477,-0.0035079116933047,0.000111808971269,-0.1439725458621978,0.9895755052566528,0.1753092436551425,0.0048087058677928,-8.381635644985239e-06,-0.0031450944952666,-0.00333385146223,0.0725780874490737,-0.0026918165385723,-0.0004154769703745,0.0955692380666732,0.9954190850257874,0.0432781220729657,0.0110313831898009,0.0929537432219098,-0.1537197232246399,0.0851011872291565,-0.5601568222045898,113,103,15337,15053
19.7,1788352768988,5.267605781555176,5.211267471313477,-0.0016545869875699,0.0015303239924833,-0.1395134329795837,0.9902175664901732,0.1832570022158072,-0.0008028191502364,-0.0002751212833842,0.0056893099099397,0.0226630810648202,0.066750593483448,-0.0031931335106492,-5.680322647094727e-05,0.0977918356657028,0.9952017664909364,-0.1052934813170119,-0.0838565782048714,-0.0446933851479268,0.3086580634117126,0.0645803809165954,-0.2133893966674804,28,92,12860,14913
19.8,1788352769088,5.267605781555176,5.014084339141846,-0.0036430340260267,-0.0002297394676133,-0.138658195734024,0.9903335571289062,0.1738607142085345,-0.0010110316333258,8.427486105945365e-06,0.0012174588628113,-0.0062886024825274,0.0661183148622512,-0.0035049812868237,-0.0015973970293998,0.1003220379352569,0.9949475526809692,-0.004057163273877,-0.0346025244510199,0.047843332136478,0.110425055027008,-0.2291092276573181,0.1971864700317382,68,64,13326,14307
19.9,1788352769188,4.591549396514893,5.211267471313477,-0.0037652740720659,-0.0003164512454532,-0.1357620954513549,0.9907342195510864,0.1676920807050402,0.0017523417395674,-1.182795488167704e-05,-0.0016976975603029,0.0066260085441172,0.0592695027589798,-0.0038290806114673,-0.0013130819424986,0.1030483841896057,0.994668185710907,-0.0169261436630712,-0.006188194829816,0.0581839683410418,-0.1616052985191345,0.0350955724716186,0.2929763793945312,54,65,14725,14885
20.0,1788352769288,5.183098793029785,5.239436626434326,-0.0039464607834815,-8.754082955420017e-05,-0.1334542781114578,0.9910470843315125,0.1754685521056002,0.0025920532718088,-8.53995133285231e-05,0.0023471771273761,0.0270399618893861,0.0461774431169033,-0.0038831634446978,-0.0010572234168648,0.1054667532444,0.9944146871566772,0.0006017191174327,0.0002106024639441,0.052248440804334,-0.0016238689422607,-0.0361087918281555,-0.4417629241943359,66,82,12860,14651
20.1,1788352769388,4.816901206970215,5.239436626434326,-0.0045132995583117,-0.0003163851215504,-0.1308983713388443,0.9913854002952576,0.1690311334818855,0.0026944826104354,1.4211120723551974e-05,-0.0170202553272247,-0.002971526235342,0.0536566898226738,-0.0043483935296535,-0.0014411294832825,0.1086362674832344,0.9940710067749025,0.0023359757558491,-0.0261983956145632,0.0571047881271077,-0.0997230410575866,-0.0605981349945068,0.3772335052490234,106,63,14353,14850
20.2,1788352769488,4.563380241394043,5.267605781555176,-0.0043633510358631,-0.0006799048860557,-0.1273857653141021,0.9918434023857116,0.1715949872088013,0.0024791968981523,4.616774418823915e-05,0.0080729015171527,-0.0095629347488284,0.0650212839245796,-0.0038590980693697,-0.0016623688861727,0.11148701608181,0.9937570691108704,0.0116488778966625,0.0018414133036903,0.058954393730298,-0.0327862501144409,0.1513063907623291,-0.3209295272827148,80,79,15252,14556
20.3,1788352769588,5.154929637908936,5.154929637908936,-0.0041321837343275,-0.0013232306810095,-0.1246912032365799,0.9921860694885254,0.1730340118669502,0.0007640101464718,0.0001247270956442,0.0023800905328243,-0.0162250883877277,0.0519072376191616,-0.003529087640345,-0.0024636182934045,0.1137982308864593,0.9934945702552797,0.0078187175759477,-0.0192757439608348,0.0473825559125993,0.027845025062561,-0.2587280869483948,0.031437873840332,70,70,13206,14940
20.4,1788352769688,5.239436626434326,5.014084339141846,-0.0041537997312843,-0.0012754218187183,-0.1229203194379806,0.9924070239067078,0.178967474778684,0.0068649758258505,2.35267213750416e-05,-0.0015851055504754,-0.0123473461717367,0.0213731005787849,-0.0032965904101729,-0.0019103400409221,0.1161835789680481,0.9932204484939576,0.0192035773157245,0.0172044818708535,0.0290543783104569,-0.1105661392211914,-0.1869606375694275,0.1445693969726562,103,63,14280,14258
20.5,1788352769788,5.605633735656738,4.8450703620910645,-0.0036989273503422,-0.0010307861957699,-0.121533378958702,0.9925799369812012,0.1769583656825202,0.0013451673268826,2.064255930476701e-05,0.0022709658369421,-0.0032609878107905,0.0151710649952292,-0.0033042905852198,-0.001987675204873,0.1165521964430809,0.9931771159172058,0.0012991479549285,0.0180674613136238,-0.0041639223260441,0.2871575951576233,0.0844531655311584,-1.095139503479004,130,63,13995,13706
20.6,1788352769888,4.873239517211914,4.873239517211914,-0.0035283886827528,-0.0009726705029606,-0.1232212111353874,0.9923725128173828,0.1725567748679838,-0.0001049004617878,-0.0001212021023144,0.0021428130567073,0.0065853805281221,-0.0598453879356384,-0.003108687698841,-0.00157758500427,0.1141104400157928,0.9934620261192322,0.0151661258451599,0.0088193387792154,-0.0677984852110304,-0.1920021176338195,-0.0870782732963562,1.2713871002197266,137,70,14547,13586
20.7,1788352769988,5.183098793029785,4.647887229919434,-0.0033334996551275,-0.001165650668554,-0.126130536198616,0.992007315158844,0.169245727365575,-0.0018605638045343,9.63042055138755e-05,0.0017796212341636,-0.014003312215209,-0.0591081008315086,-0.0029127849265933,-0.0018580397590994,0.1101555004715919,0.9939084053039552,0.004966155897083,0.0050366390362425,-0.07217631238406,0.1425456404685974,0.0364798903465271,-0.0135097503662109,135,97,15224,14620
20.8,1788352770088,5.323943614959717,4.957746505737305,-0.003183631459251,-0.0008418591460213,-0.1294182389974594,0.9915846586227416,0.1802094468373191,0.002063637531735,-2.2195307376806296e-05,0.0016026907833293,0.0104792183265089,-0.0592694729566574,-0.0029706778004765,-0.0013588108122348,0.1075652241706848,0.9941926598548888,-0.0057951650739455,0.0117618252527055,-0.0493081589233699,-0.1747053265571594,0.0163065791130065,0.6987733840942383,110,55,14576,13718
20.9,1788352770188,5.014084339141846,4.873239517211914,-0.0022312861401587,0.0001161449763458,-0.1315342783927917,0.9913090467453004,0.1659823327640148,0.0037865303211772,-0.0001153415011504,0.0327049233019351,0.0538300760090351,-0.0360448621213436,-0.0010364772751927,0.0015195971354842,0.1066569164395332,0.9942942261695862,0.0900994336643591,0.1192739580909177,0.0161763992403369,0.4815670251846313,0.0342551469802856,-0.6558084487915039,154,93,16452,14138
21.0,1788352770288,5.352112770080566,4.873239517211914,-0.0028621931560337,-0.0003486733476165,-0.1342458426952362,0.9909439086914062,0.1794712510138988,-0.0025150486516258,0.0002292644589722,-0.0766453295946121,-0.0892849341034889,-0.1168676912784576,-0.0026579294353723,-0.000739213079214,0.1011137291789054,0.9948710799217224,0.020106509997242,-0.0162626357410006,-0.052432301331527,-0.160473883152008,0.2086296081542968,0.7780084609985352,108,73,13930,13873
21.1,1788352770388,5.830986022949219,4.647887229919434,-0.0027975216507911,-0.0004135317285545,-0.1374427676200866,0.9905056953430176,0.1685217336456013,0.0003664849214231,4.2791252264074834e-05,0.0015105977654457,-0.0134537247940897,-0.0264361966401338,-0.0026827417314052,-0.0012639006599783,0.0997445806860923,0.995008647441864,-0.0031278505727635,-0.0024501415046812,-0.0289221696391791,0.3849611282348633,0.1209576725959777,-0.6532649993896484,110,71,14625,12487
21.2,1788352770488,5.183098793029785,4.563380241394043,-0.0032264394685626,-0.0015570148825645,-0.1410580724477768,0.9899948835372924,0.170450533035924,-0.0014833881820271,7.19663259713237e-05,-0.006632377859205,-0.0236462559551,-0.0910910069942474,-0.0027045290917158,-0.00217732694,0.0959070920944213,0.9953842163085938,0.0060936136586532,0.0116670868830333,-0.0639618262317034,0.2212990522384643,-0.2341198921203613,-0.0560550689697265,77,68,17135,12897
21.3,1788352770588,4.873239517211914,5.098591327667236,-0.0033097823616117,-0.0020040343515574,-0.1469169408082962,0.989141285419464,0.183396288293537,0.0023092409470963,1.3741272122756187e-06,0.0001690583885647,-0.020799271762371,-0.1573001593351364,-0.0030030217021703,-0.0020529730245471,0.0879915505647659,0.9961146116256714,-0.014355773900848,0.0215161907362655,-0.1142483902640925,-0.1463085412979126,-0.0446577072143554,0.2783918380737304,94,72,14542,14342
21.4,1788352770688,5.802816867828369,4.647887229919434,-0.0035223718732595,-0.0012191571295261,-0.1506152153015136,0.9885854721069336,0.1618008688049007,0.0007761495281532,9.992154360074068e-06,-0.0042301528155803,0.0006409653578884,-0.0320499204099178,-0.0029728133231401,-0.0022102128714323,0.086737684905529,0.9962243437767028,0.0129893865046905,0.0014278992019149,-0.0313672597172093,0.1885966062545776,-0.0037512779235839,-1.1205453872680664,143,81,16371,14129
21.5,1788352770788,5.352112770080566,4.873239517211914,-0.003303657984361,-0.0014985675225034,-0.1540318429470062,0.9880592226982116,0.1722773935416097,-0.000781788739642,3.65871787360993e-07,0.0084037566557526,-0.0077243661507964,-0.1151941791176796,-0.0028789527714252,-0.0021902676671743,0.0819558575749397,0.9966294169425964,-0.0021892800194243,-0.0004060512301694,-0.1377842996826349,-0.2683150172233581,0.0536285638809204,0.937774658203125,57,111,14552,13901
21.6,1788352770888,4.873239517211914,4.901408672332764,-0.0035342907067388,-0.0016757424455136,-0.1604270786046981,0.9870399832725524,0.163492688995384,-0.006057433088785,-2.562936492504217e-05,-0.0072370651178061,0.000636477372609,-0.1232999637722969,-0.0028145220130681,-0.002360044978559,0.0760675072669982,0.9970959424972534,0.0112329506323198,0.0202713347119605,-0.0372037638839126,0.0586093664169311,-0.0249340534210205,0.2695436477661133,150,119,16337,14244
21.7,1788352770988,5.098591327667236,4.957746505737305,-0.0033173048868775,-0.0013036146992817,-0.16289784014225,0.9866364598274232,0.1656986852174032,-0.0025081765072257,-7.982251875034167e-06,-0.0031666613649576,0.0127250840887427,-0.0489025972783565,-0.0028340024873614,-0.001968553289771,0.0739169046282768,0.9972584247589112,-0.0026258352384956,-0.009329643105135,-0.045222813295577,-0.1063084602355957,0.1414415836334228,0.4207544326782226,95,61,15515,13809
21.8,1788352771088,5.014084339141846,4.816901206970215,-0.0031753110233694,-0.000618577003479,-0.1654595732688903,0.9862112402915956,0.166226063646506,-0.0013956569925152,-0.0001289460738403,-0.0012207097606733,0.0197544321417808,-0.0472684614360332,-0.0027835527434945,-0.0008534044027328,0.0718887150287628,0.997408390045166,0.0152655956662561,0.027283866938083,-0.0395510996438885,0.1241136789321899,-0.0226694345474243,-1.057844161987305,123,90,15765,14311
21.9,1788352771188,4.8450703620910645,5.014084339141846,-0.0031047309748828,-0.0007509823772124,-0.16751229763031,0.9858648777008056,0.1709249515598495,0.0007442642084016,0.0001258752728415,-0.0008107409230433,-0.0132673662155866,-0.0611471571028232,-0.0025223549455404,-0.0010151742026209,0.0690113753080368,0.9976121783256532,0.0071726831460252,0.0202263031876028,-0.0239618009879427,-0.047107994556427,-0.1340792775154113,0.5582971572875977,107,115,15050,14759
22.0,1788352771288,5.295774459838867,4.929577350616455,-0.0027250254061073,-0.0007113112369552,-0.1688610911369323,0.9856358766555786,0.1818803893888997,0.0038754222439441,8.059166699555033e-05,0.0031839476432651,-0.0137631548568606,-0.0124975284561514,-0.0025596274062991,-0.0013669338077306,0.0690884590148925,0.99760639667511,-0.0102414509198745,0.0009989814055509,0.010920368377544,0.0253596901893615,0.2356549501419067,-0.2777032852172851,99,65,14414,13858
22.1,1788352771388,4.591549396514893,5.070422649383545,-0.0021440854761749,-0.0006496455753222,-0.1685990393161773,0.9856821894645692,0.1645675748183041,0.0027074147224942,1.801268575592905e-06,0.0256596524268388,0.0140571184456348,0.0046446043998003,-0.0007759928703308,0.0007282709702849,0.070515900850296,0.9975101351737976,0.0250774773900493,0.039739948826162,0.0373247932784198,0.270502507686615,0.2214290499687194,-0.3405847549438476,167,94,16439,14603
22.2,1788352771488,5.239436626434326,5.154929637908936,-0.0028261602856218,-0.0006557671586051,-0.1687932908535003,0.9856471419334412,0.1945772136511407,0.0040491020247055,0.0001292872341431,-0.0737472996115684,-0.072448506951332,-0.0565245859324932,-0.0030142376199364,-0.0003469204530119,0.0665750354528427,0.9977768659591676,0.0061632813012994,0.1118976101400409,-0.0692598180517864,-0.165643036365509,0.0498313903808593,-1.9486150741577148,40,95,14242,14012
22.3,1788352771588,5.211267471313477,4.957746505737305,-0.0030324773397296,-0.0002068909234367,-0.1699826866388321,0.9854423999786376,0.1744688183097459,0.001043426677053,-1.4617612511705388e-05,0.0014306824887171,-0.0073732705786824,0.0547429881989955,-0.0028798645362257,-0.0010680658742785,0.0687825456261634,0.997627019882202,0.0029307078040167,-0.0123723198311454,0.0849902573851566,-0.2290610671043396,-0.2831525802612304,0.5075902938842773,36,117,12505,15711
22.4,1788352771688,5.408450603485107,4.985915660858154,-0.0031215730123221,-0.0003431365475989,-0.1674946248531341,0.985867977142334,0.1818726039358462,0.000343128457874,-2.80201341640307e-05,-0.0040696747601032,-0.0011701832991093,0.0429833829402923,-0.0029151365160942,-0.0012273890897631,0.0706944838166236,0.9974929690361024,0.0018126088027488,-0.0156788954546057,0.0068732468785692,0.0014894008636474,-0.3180175423622131,0.4626836776733398,131,34,14227,13441
22.5,1788352771788,5.014084339141846,5.126760482788086,-0.0032499046064913,-0.000399200071115,-0.1681557893753051,0.9857549667358398,0.1833942618489127,0.0044250758148185,-2.4081365445087988e-05,-0.0057432642206549,0.0034026612993329,-0.0467657595872879,-0.0030766427516937,-0.0013324553146958,0.0688043087720871,0.9976246356964112,-0.0024564815313626,-0.0004771519805624,-0.0255868202449713,-0.1529406309127807,0.3171667456626892,-0.1248559951782226,109,124,13789,14876
22.6,1788352771888,3.91549301147461,4.563380241394043,-0.0034039039164781,-0.0006418179837055,-0.1676739007234573,0.985836386680603,0.1835968587937467,0.0026200637500524,4.759551703278538e-05,-0.0051392749883234,-0.0025790156796574,0.0472300611436367,-0.0032691108062863,-0.0008211387321352,0.069515086710453,0.9975752234458924,4.948507927866112e-05,0.0299747118798419,-0.0373730164852981,-0.3816856145858764,-0.2899879813194275,0.4105548858642578,35,25,10108,12513
22.7,1788352771988,1.408450722694397,3.91549301147461,-0.0031054855789989,0.0002864501439034,-0.1646147668361663,0.986353039741516,0.128570042323307,-0.0008171093735189,-9.156160265764654e-05,0.0085423765704035,0.0280035063624382,0.1654786318540573,-0.0030280519276857,-0.0002946555614471,0.0818890705704689,0.9966368079185486,-0.0043481795918108,0.0210390999542413,0.3859602039815012,-0.929495632648468,0.1649473309516906,0.1941804885864257,53,31,2110,11016
22.8,1788352772088,-0.4507042169570923,3.2676055431365967,-0.0028891970869153,0.0001004852820187,-0.1430318802595138,0.9897139072418212,0.0655797355618265,-0.0023552853174352,1.1675613822551802e-05,0.0056853904388844,-0.0133086508139967,0.5196442604064941,-0.0027793310582637,-0.0008484851568937,0.1062911450862884,0.9943308234214784,-0.0010187680325069,-0.011807743915499,0.5950820850357329,-0.5315497517585754,0.1457682847976684,-0.0715694427490234,223,34,-8163,9740
22.9,1788352772188,-3.0985915660858154,2.873239517211914,-0.0028676504734903,-0.0001871412096079,-0.1107394769787788,0.993845283985138,0.0094640547044131,-0.0092176143457476,-3.749000796401387e-06,0.0030616808217018,-0.0064150351099669,0.7389700412750244,-0.0028176587074995,-0.0008739000186324,0.1405513882637024,0.9900690913200378,-0.0047139471339273,-0.0027934172510401,0.896373502951504,-0.3663741946220398,0.1609618067741394,-0.6498212814331055,177,80,-11818,8641
23.0,1788352772288,-2.7887322902679443,2.985915422439575,-0.0029330789111554,-0.000326981768012,-0.0690331310033798,0.9976099729537964,-0.0072547349764334,-0.0141010179977969,-7.041438472820186e-07,0.0014938329113647,-0.0102135557681322,0.9423065185546876,-0.0027805753052234,-0.0011545540764927,0.1817531436681747,0.983339548110962,-0.0024389123715898,-0.0087475391433667,0.8823535797728571,-0.0591165423393249,0.0710257887840271,0.3522777557373047,94,47,-10595,8606
23.1,1788352772388,-2.7042253017425537,2.5915493965148926,-0.0028701173141598,-0.0003800212871283,-0.0224114768207073,0.9997446537017822,0.0081382687686492,-0.0037276541200916,-2.2756091364580614e-06,0.0068714078515768,0.0040819747373461,0.8201896548271179,-0.0026375697925686,-0.0010010730475187,0.229935809969902,0.9732017517089844,0.0027662927043832,-0.0054770828669145,0.7960971368208449,-0.1509059071540832,-0.0067983865737915,0.158055305480957,105,76,-8489,7797
23.2,1788352772488,-2.0281689167022705,2.253521203994751,-0.0027080087456852,-0.0007352440152317,0.0170377176254987,0.9998509287834167,0.0008924405798765,-0.005098736531145,4.163924839802209e-06,0.0046294359490275,-0.0136565463617444,0.7742000818252563,-0.0023674517869949,-0.0013847909867763,0.2637692093849182,0.9645819664001464,0.0059339858372686,-0.0057957931479002,0.781144783687106,0.0578395724296569,0.095841109752655,0.3254194259643554,96,65,-8145,6824
23.3,1788352772588,-2.08450698852539,2.2253520488739014,-0.0026763940695673,-0.0006263036630116,0.0514505505561828,0.9986717700958252,-0.0021716223880199,-0.0032576834290264,-5.299788547146207e-06,-0.0009365130681544,0.0010487070539966,0.6403623223304749,-0.0025237696245312,-0.0009371927008032,0.3015985488891601,0.9534311890602112,0.0012384796508125,0.0082899118197317,0.6411711691642,0.1213793754577636,0.0166645646095275,-0.0142335891723632,70,53,-6895,5666
23.4,1788352772688,-1.7464789152145386,1.8309859037399288,-0.002734555164352,4.49307553935796e-05,0.0856170579791069,0.996324360370636,0.0019423343166231,-0.00153925025277,1.425492971654473e-06,-0.000932426250074,0.0094290506094694,0.6190547943115234,-0.002690527588129,-0.000624505802989,0.3267118334770202,0.9451200366020204,-0.0020457563824805,-0.0026483690899821,0.5495047780372359,0.0129609704017639,-0.0283123850822448,-0.2442808151245117,70,64,-6855,6324
23.5,1788352772788,-1.97183096408844,1.774647831916809,-0.0027456430252641,-0.0001701221917755,0.1104010716080665,0.9938833117485046,0.0023782411055869,-0.0007534576399784,1.2343934745759858e-06,-0.0002861033717636,-0.0082711074501276,0.5570411086082458,-0.0027577690780162,-0.0004864539951086,0.3501245081424713,0.9366989135742188,-0.0007168657648388,0.02159020430235,0.5084535989945757,-0.1050021648406982,-0.1031365394592285,0.2727718353271484,65,105,-6292,6829
23.6,1788352772888,-1.97183096408844,1.887323975563049,-0.0026111353654414,0.0003442363813519,0.1391562819480896,0.990266978740692,-0.0021585717386891,-0.0047748323874288,-3.475634902622707e-06,0.0051020113751292,0.000863010820467,0.6071507334709167,-0.0025282744318246,-0.0003413846716284,0.3828410506248474,0.9238107204437256,0.0014131792927431,-0.0094941073063669,0.5697388118318125,0.1600590348243713,-0.0905124545097351,0.1579217910766601,49,63,-6345,6372
23.7,1788352772988,-1.5492957830429075,1.5774648189544678,-0.0024587677326053,0.0002360565995331,0.1660610437393188,0.986112415790558,0.0014657636506292,-0.0053654797474378,-8.567198751320842e-07,0.0025959301274269,-0.0030577171128243,0.5085427165031433,-0.0023165382444858,-0.0005172146484255,0.4022286832332611,0.9155362248420716,0.002430429915775,-0.0141634295051803,0.395976880526479,-0.1652368903160095,0.1188324689865112,0.1188287734985351,96,76,-5538,5145
23.8,1788352773088,-1.5211267471313477,1.5492957830429075,-0.0022141151130199,-9.745254646986724e-05,0.1903446167707443,0.9817149043083192,-0.0008784621668438,-0.0024224821583155,1.2827227592619078e-06,0.0035139359533786,-0.0070715509355068,0.458996832370758,-0.0019899746403098,-0.0007379138842225,0.4216589033603668,0.906752109527588,0.0067541273765854,-0.0171821286860702,0.5119055990726208,0.1398953795433044,-0.1004048585891723,-0.0684366226196289,47,41,-5866,5457
23.9,1788352773188,-1.183098554611206,1.0985915660858154,-0.0021571556571871,1.6366946510970592e-05,0.2109115868806839,0.9775027632713318,0.0007494383990793,-0.001318363311873,2.616106647664897e-06,-0.0006152166752144,0.0085382694378495,0.4501062631607055,-0.0022600488737225,-0.0004198532551527,0.4452011287212372,0.8954277038574219,-0.0057512452884556,-0.0036180581318689,0.374416470382978,0.1470923423767089,-0.158035933971405,0.0194358825683593,53,49,-4573,4834
24.0,1788352773288,-1.1267606019973757,1.183098554611206,-0.0023401828948408,8.392578456550837e-05,0.2287966758012771,0.9734714031219482,0.0018353298597758,-0.0045862510175183,1.4708344235452622e-06,-0.0025613564066588,-0.0021082533057779,0.3394863307476043,-0.0023136716336011,-0.0006033442914485,0.4588172733783722,0.8885273933410645,-0.0037185526027501,-0.0058276740226164,0.3304653277176221,-0.0596994161605834,0.0294789671897888,-0.0304393768310546,97,138,-4992,5040
24.1,1788352773388,-1.1267606019973757,1.154929518699646,-0.0023827401455491,-0.0002002498076763,0.2460308223962783,0.9692590236663818,0.0056013268442493,0.0021450693055294,8.10328401061993e-07,-0.0010717349359765,-0.0049251150339841,0.3624755144119262,-0.0022129118442535,-0.0008146148175001,0.4729248881340027,0.8810997009277344,0.0013435649184441,-0.0055355502349121,0.3424426783921266,-0.0402113795280456,0.0869516730308532,-0.0105342864990234,66,129,-5337,5055
24.2,1788352773488,-1.0985915660858154,1.2394366264343262,-0.0022271499037742,4.111422458663583e-05,0.2638410031795501,0.9645636081695556,0.0049803870441539,-0.0023949762571519,-4.53132252389366e-06,0.00518156029284,0.0073181153275072,0.3321886360645294,-0.002116797491908,-0.0004098014906048,0.4860438704490661,0.8739317655563354,0.0117682011082986,0.0090408796086172,0.333030692416447,0.0473241209983825,-0.0083791613578796,-0.0412864685058593,120,100,-6451,5003
24.3,1788352773588,-1.3239436149597168,1.2394366264343262,-0.0014669793890789,0.0009938434232026,0.27901691198349,0.9602845311164856,0.0033578608791097,0.0007333163793573,3.3425184608586164e-06,0.0233836229890584,0.0152984149754047,0.3611533343791961,-0.0014309622347354,0.0010125888511538,0.5047796368598938,0.8632464408874512,0.0172267866373592,0.0074129902195599,0.3827883787134658,0.113942265510559,-0.030920922756195,0.0233659744262695,165,94,-5953,4825
24.4,1788352773688,-0.8450704216957092,0.8450704216957092,-0.0009349900647066,0.0014941757544875,0.2950161397457123,0.9554906487464904,0.0011452334215441,-0.004480823728489,-2.202088739443774e-06,0.0077235656790435,0.0018325088312849,0.3019213080406189,-0.0012325914576649,0.0011997818946838,0.515751838684082,0.8567363023757935,-0.0003751032432995,-0.0029639899704838,0.2328447250600482,-0.0481728315353393,-0.0292597413063049,-0.016183853149414,107,30,-4387,3631
24.5,1788352773788,0.0,0.1408450752496719,-0.0009342392440885,0.0013587782159447,0.3046880662441253,0.9524507522583008,-0.0002893570012048,-0.0013927111360886,-2.212138321799732e-06,-0.0015613521682098,-0.0030274230521172,0.1802065074443817,-0.0012165307998657,0.0009581139311194,0.5219836831092834,0.8529540300369263,-0.0032883108968908,-0.0043956591682382,0.0043943434924222,1.1331050395965576,0.1146096587181091,-0.020848274230957,109,272,2813,7927
24.6,1788352773888,1.211267590522766,3.6056337356567374,-0.0008750634733587,0.0011156690306961,0.3080151677131653,0.9513804316520692,0.0349490946456975,0.0008858203592273,4.65641641772129e-06,0.0004651237977668,-0.0071011949330568,0.1104310378432273,-0.0009859036654233,0.000612461939454,0.5316828489303589,0.8469427227973938,-0.006998262625814,-0.028757016662864,0.3733751634118389,0.6706037521362305,0.007541537284851,0.194249153137207,92,181,5338,13201
24.7,1788352773988,2.507042169570923,6.788732528686523,-0.0015631829155609,0.0001953322498593,0.3283095359802246,0.9445688724517822,0.1122407606059287,0.001281314123678,1.2714935590425812e-05,-0.0304987467825412,-0.013036043383181,0.4248296022415161,-0.0020958641543984,-0.0011760359629988,0.5484524965286255,0.8361783027648926,-0.0662018197239885,-0.0362973793199406,0.4609761999345322,-0.2377188205718994,0.1393020153045654,1.0743818283081057,11,203,5341,21880
24.8,1788352774088,2.7042253017425537,7.915493011474609,-0.0022521761711686,-0.000926882144995,0.3587261140346527,0.9334396719932556,0.1678729734968717,-0.0024468532756802,7.620056122244956e-05,0.0052295285277068,-0.0141431419178843,0.8051515817642212,-0.0021122051402926,-0.0010305363684892,0.5898829698562622,0.8074853420257568,0.0031545974397192,-0.0134755562081545,0.9700155920043428,0.1694992184638977,-0.1961022615432739,0.9497251510620116,41,75,7062,21632
24.9,1788352774188,2.422535181045532,7.718309879302978,-0.0019524848321452,-0.0007855927105993,0.4016776978969574,0.9157786965370178,0.1911928293154455,-0.0018940487352016,6.49068119970065e-05,0.0084471525624394,-0.0185185186564922,0.9124590158462524,-0.0017187921330332,-0.0009995810687541,0.6204583644866943,0.7842369079589844,0.0095627469741024,0.0027284712090839,0.7993404363737027,-0.3213791251182556,0.1725817918777465,0.2158918380737304,44,66,9107,19862
25.0,1788352774288,3.211267709732056,7.267605781555176,-0.0020578673575073,-0.0008463411941193,0.4330891668796539,0.901348352432251,0.1805863579632566,0.0048535644184639,-3.582689467995841e-06,-0.0079570012167096,-0.0107902605086565,0.7311968803405762,-0.0015104655176401,-0.0014103595167398,0.645131528377533,0.7640687823295593,0.012557311930245,-0.0252995410950602,0.65235000948025,-0.1600447297096252,0.0510275959968566,0.0198621749877929,41,88,7704,19759
25.1,1788352774388,2.8450703620910645,7.239436626434326,-0.0015116845024749,-0.0013308352790772,0.4650430381298065,0.8852857351303101,0.1741899440250415,0.0014095612263084,6.978093973332348e-05,0.0006628072005696,-0.0174146834760904,0.6307642459869385,-0.0014071119949221,-0.0015515880659222,0.668977677822113,0.7432796359062195,-0.0081717207181394,0.0123048338750619,0.6222158075264642,0.2024046182632446,0.0925261974334716,0.0991115570068359,103,102,8789,19994
25.2,1788352774488,3.8309860229492183,6.563380241394043,-0.0018837677780538,-0.0008118945988826,0.4923028349876404,0.8704215884208679,0.1750738337455226,0.0041242590880385,6.693097767923836e-06,-0.0025449120439589,0.0104412166401743,0.6163049340248108,-0.0019638240337371,-0.0008384715765714,0.6890209913253784,0.7247382402420044,0.0036770971873151,0.0440751407239785,0.6206557549288493,0.3522804379463196,-0.0582004785537719,0.1095552444458007,97,73,10002,17965
25.3,1788352774588,3.3521127700805664,6.873239517211914,-0.0024116716813296,-0.0006346452282741,0.5131285786628723,0.8583081364631653,0.173559564853732,0.00182649775962,-4.441437166954073e-07,-0.0141643192619085,-0.0006295951898209,0.4657531976699829,-0.0027113128453493,-0.0010278141126036,0.7095959186553955,0.7046029567718506,-0.009573172555598,0.0189303275215822,0.5082638196900073,-0.0035645365715026,0.1758788824081421,0.5644903182983398,27,95,8847,19263
25.4,1788352774688,3.211267709732056,6.619718074798584,-0.0030311441514641,-0.0003955231513828,0.5351864695549011,0.8447284698486328,0.1668903778671707,0.0005588794411223,-1.4302510812028848e-05,-0.0064737661741673,0.0004125601553823,0.5525240302085876,-0.0030090110376477,-0.001349895261228,0.7267035245895386,0.6869434118270874,-0.0215652792438176,0.0003920588840012,0.4703063750926211,0.243895411491394,0.0222718119621276,-0.1578254699707031,94,64,11439,18103
25.5,1788352774788,4.2816901206970215,6.197183132171631,-0.0033424156717956,-0.0007152312900871,0.557492196559906,0.8301751017570496,0.1745023570156529,0.0033468111646804,2.5273713386309607e-05,-0.0051178433932363,-0.0036618921440094,0.4683136343955993,-0.0029766950756311,-0.0016287174075841,0.7409564852714539,0.6715445518493652,-0.0024218112742974,-0.0221164796264448,0.4705379389207799,0.5462755560874939,0.0194604396820068,0.04522705078125,89,29,12793,15301
25.6,1788352774888,4.366197109222412,5.380281925201416,-0.0035464027896523,-0.0005575541872531,0.5715996026992798,0.8205247521400452,0.1805795732893108,0.0043951069244362,-1.6953380840826352e-05,-0.0040771309286355,0.0041681262664496,0.3420613408088684,-0.0038080578669905,-0.0011591967195272,0.7522397637367249,0.6588775515556335,-0.0052707047166013,0.0518446853099148,0.1207433675020125,-0.2519119381904602,-0.2098326683044433,1.1580429077148438,88,71,14618,15304
25.7,1788352774988,4.563380241394043,5.521126747131348,-0.0035562941338866,-0.0006241201190277,0.5776232481002808,0.8162955045700073,0.1714156099847049,-4.9936504768042615e-05,1.4261303895038645e-05,0.0035314112901687,-0.0158319547772407,0.1148569211363792,-0.0032643526792526,-0.0014089457690715,0.7556456923484802,0.6549709439277649,0.0032057008437424,0.0088896183436393,0.117020772835544,0.0467534661293029,-0.082321286201477,-0.9196710586547852,148,92,13438,15438
25.8,1788352775088,4.647887229919434,5.521126747131348,-0.0033601280301809,-0.0004632510244846,0.5824417471885681,0.8128653764724731,0.1691456203128732,0.0016796426368195,-4.322750457963914e-05,0.0071024429053068,-7.34452623873949e-05,0.1012132167816162,-0.0028782924637198,-0.0015490194782614,0.758830726146698,0.6512798070907593,-0.0054071678822442,-0.0489613728875655,0.1207239917860155,0.2637951970100403,0.246776282787323,-0.1392908096313476,68,100,12896,15844
25.9,1788352775188,4.2253522872924805,5.464788913726807,-0.002891631796956,-0.0009320728131569,0.5882521271705627,0.8086718320846558,0.1748390951654302,0.0018693466934446,4.059308741809424e-06,0.0051773875020444,-0.0095558138564229,0.1605914980173111,-0.0023966152220964,-0.0015090480446815,0.7649048566818237,0.6441369652748108,0.0017722473863572,0.026794031808385,0.1729277303544972,0.2378906011581421,0.0244248509407043,-0.1704282760620117,114,88,14418,15975
26.0,1788352775288,4.8450703620910645,5.7183098793029785,-0.0027588699012994,-0.0006832627695985,0.5940605998039246,0.804415225982666,0.1760133166668671,0.0005749410230875,9.35685443688928e-05,0.006461361888796,0.0066408314742147,0.1368308812379837,-0.0020331060513854,-0.0017693610861897,0.7688034176826477,0.6394795179367065,-0.0045274373859449,-0.0245678973444627,0.1405477255724122,0.3227254748344421,0.0889925956726074,0.2823667526245117,54,72,12182,15234
26.1,1788352775388,4.309859275817871,5.521126747131348,-0.0020986830350011,-0.0009935606503859,0.5989816188812256,0.8007594347000122,0.1769869585772742,0.0017187783620094,-8.322772901809685e-06,0.0172800589352846,0.002833102364093,0.1343858689069748,-0.001894780434668,-0.0012503489851951,0.7726601958274841,0.6348156929016113,0.0069367090089409,0.0131653336883456,0.1488811907253582,-0.1230666041374206,0.2043049931526184,-0.8238916397094727,67,74,13703,15719
26.2,1788352775488,4.535211086273193,5.577464580535889,-0.0016758515266701,-0.0012761496473103,0.6042343974113464,0.796803891658783,0.1701137342227059,0.0055923618808211,8.770475197525337e-05,-0.0018231553258374,-0.0186850037425756,0.1327890753746032,-0.0014408649876713,-0.001741993241012,0.7781255841255188,0.6281046271324158,-0.0158304702113862,0.0292400571365023,0.1425209553841735,-0.1445984244346618,-0.023342490196228,-1.00408935546875,35,106,12818,15678
26.3,1788352775588,4.309859275817871,5.577464580535889,-0.0008961047278717,-0.0011140299029648,0.6117358207702637,0.7910608649253845,0.1598101807323905,0.0090553365510258,8.235929424566351e-05,0.0276725087314844,-0.0099580036476254,0.1853915750980377,-0.0006488505750894,0.000409266911447,0.7839972972869873,0.6207637190818787,0.0746651813098647,0.0709095234469223,0.2402555577647174,0.6058022975921631,0.0527265667915344,0.3200788497924804,160,101,14892,15832
26.4,1788352775688,4.450704097747803,5.549295902252197,-0.0006638081395067,-0.0020466677378863,0.6178595423698425,0.7862855195999146,0.1980123726879347,0.0024183384723355,0.0001808719848541,-0.0724478214979171,-0.0873589515686035,0.0929345786571502,3.988388925790787e-05,-0.0029833698645234,0.7864871025085449,0.6175994873046875,-0.0502779048587591,-0.0665370178117751,0.0308610538013727,-0.6848948001861572,-0.4560749530792236,-0.5813970565795898,21,79,12730,15526
26.5,1788352775788,4.169013977050781,5.408450603485107,-0.0007202189881354,-0.0022404249757528,0.6230680346488953,0.7821640968322754,0.1781982036675161,-0.0025553651002781,1.5592140291196953e-05,0.0110540688037872,0.0079951658844947,0.1963379234075546,-0.000347732566297,-0.0023861872032284,0.7934239506721497,0.6086646914482117,-0.0132441810450519,0.0659863194851401,0.2115465000030782,0.3363919258117676,-0.4225168228149414,-0.6169672012329102,112,105,14174,16208
26.6,1788352775888,5.380281925201416,4.8450703620910645,-0.0008779919589869,-0.002427237574011,0.630199670791626,0.7764288187026978,0.178962359079763,0.0015108074291005,2.4846214847009214e-06,-0.0056265061721205,-0.0001551883178763,0.1835536360740661,0.0003306772559881,-0.003174134530127,0.7977115511894226,0.6030306816101074,-0.0028199387933142,-0.0473682474771225,0.1131297029961245,0.5066126585006714,-0.0775460004806518,1.0921316146850586,121,68,14841,13649
26.7,1788352775988,5.521126747131348,4.873239517211914,-0.0006198851624503,-0.0028291139751672,0.6315633654594421,0.7753188610076904,0.1833953508857217,0.001263023571266,-4.344337867396246e-05,0.0029955524951219,0.007730801589787,-0.0429291725158691,-3.527291119098663e-05,-0.0029699867591261,0.7959667444229126,0.6053330898284912,-0.0091453891004778,0.0002308316900534,-0.1099578535857157,-0.0919938683509826,-0.0511434078216552,-0.4095582962036133,77,80,14053,13481
26.8,1788352776088,5.211267471313477,4.647887229919434,-0.0006078428123146,-0.003378284163773,0.6274787187576294,0.7786262631416321,0.1597576735618788,-0.00247375838874,-9.07776991949264e-06,-0.0063370647840201,-0.0123911676928401,-0.094397060573101,0.0003770049661397,-0.0035936944186687,0.7920718789100647,0.6104171276092529,-0.0007992582227399,0.0022374477963528,-0.1319818152993382,-0.0629308819770813,-0.0869724154472351,-0.784947395324707,139,64,17278,12471
26.9,1788352776188,5.746479034423828,4.535211086273193,-0.0003953480627387,-0.0033608975354582,0.6224504113197327,0.7826519012451172,0.1829620106287444,-0.0071954498569624,3.0942109755267106e-06,0.0077539840713143,0.0090550407767295,-0.1543405503034591,0.0002813236787915,-0.0032484047114849,0.7877573370933533,0.6159771084785461,-0.0018350512329024,0.0013766999080666,-0.1752563091077873,-0.0561134815216064,-0.0990223288536071,0.0573539733886718,137,83,15444,12908
27.0,1788352776288,4.985915660858154,4.901408672332764,-0.0006472489330917,-0.0033378847874701,0.61506587266922,0.7884683609008789,0.1698463912994878,-0.00018731482461,6.803768855349337e-06,-0.005168086849153,0.0013155018677935,-0.1642128825187683,0.0001493487507104,-0.0034266505390405,0.7834315299987793,0.621468722820282,-0.0057139481535087,-0.0142471751015116,-0.1236441974166491,-0.0527679920196533,0.0702675580978393,-0.6534566879272461,62,107,13861,14332
27.1,1788352776388,5.492957592010498,4.760563373565674,-0.0003967523807659,-0.0031578857451677,0.6134334802627563,0.7897400856018066,0.1788396561849628,0.0025294116435743,1.0037325248496847e-05,0.0137885212898254,-0.0037475698627531,-0.0244559124112129,0.000479151494801,-0.0027925902977585,0.7817261815071106,0.6236153841018677,0.022431294553876,0.0111089889225915,-0.0487241260064365,-0.0016176104545593,-0.0990645289421081,-0.9664297103881836,123,91,14195,14526
27.2,1788352776488,5.408450603485107,5.014084339141846,-0.0001235739327967,-0.0030122622847557,0.611182689666748,0.7914838194847107,0.1807093972699845,0.0005612598448091,-1.7932192876593203e-05,-0.0015749860322102,-0.0101584726944565,-0.051274299621582,0.0004870239645242,-0.0029462492093443,0.7803024053573608,0.6253952383995056,-0.0068468355900378,-0.0066745094730422,-0.0463577759820403,-0.0381792783737182,-0.0548150539398193,0.1400794982910156,81,114,13313,14922
