time_s,timestamp_ms,wheel_vels__velocity_left,wheel_vels__velocity_right,odom__orient_x,odom__orient_y,odom__orient_z,odom__orient_w,odom__lin_x,odom__lin_y,odom__lin_z,odom__ang_x,odom__ang_y,odom__ang_z,imu__orient_x,imu__orient_y,imu__orient_z,imu__orient_w,imu__angvel_x,imu__angvel_y,imu__angvel_z,imu__acc_x,imu__acc_y,imu__acc_z,wheel_status__current_ma_left,wheel_status__current_ma_right,wheel_status__pwm_left,wheel_status__pwm_right
0.0,1788527270178,0.0,0.0,0.0014391615986824,0.0022531312424689,-0.907275140285492,0.4205290973186493,0.0004724118238061,-4.987228515252477e-05,1.1865940948081236e-07,-0.0003100222384091,-0.0011788991978392,0.0005984051385894,0.0020874124020338,0.0017075650393962,-0.9930086135864258,0.1180116459727287,-0.000657368512695,0.0013550061219304,-0.0005035652586881,-0.0086901187896728,-0.0100746750831604,0.0305995941162109,1,0,0,0
0.1,1788527270278,0.0,0.0,0.0014391615986824,0.0022531312424689,-0.907275140285492,0.4205290973186493,0.0004724118238061,-4.987228515252477e-05,1.1865940948081236e-07,-0.0003100222384091,-0.0011788991978392,0.0005984051385894,0.0020874124020338,0.0017075650393962,-0.9930086135864258,0.1180116459727287,-0.000657368512695,0.0013550061219304,-0.0005035652586881,-0.0086901187896728,-0.0100746750831604,0.0305995941162109,1,0,0,0
0.2,1788527270378,0.0,0.0,0.0014391615986824,0.0022531312424689,-0.907275140285492,0.4205290973186493,0.0004724118238061,-4.987228515252477e-05,1.1865940948081236e-07,-0.0003100222384091,-0.0011788991978392,0.0005984051385894,0.0020874124020338,0.0017075650393962,-0.9930086135864258,0.1180116459727287,-0.000657368512695,0.0013550061219304,-0.0005035652586881,-0.0086901187896728,-0.0100746750831604,0.0305995941162109,1,0,0,0
0.3,1788527270478,0.0,0.0,0.0014391615986824,0.0022531312424689,-0.907275140285492,0.4205290973186493,0.0004724118238061,-4.987228515252477e-05,1.1865940948081236e-07,-0.0003100222384091,-0.0011788991978392,0.0005984051385894,0.0020874124020338,0.0017075650393962,-0.9930086135864258,0.1180116459727287,-0.000657368512695,0.0013550061219304,-0.0005035652586881,-0.0086901187896728,-0.0100746750831604,0.0305995941162109,1,0,0,0
0.4,1788527270578,0.0,0.0,0.0014391615986824,0.0022531312424689,-0.907275140285492,0.4205290973186493,0.0004724118238061,-4.987228515252477e-05,1.1865940948081236e-07,-0.0003100222384091,-0.0011788991978392,0.0005984051385894,0.0020874124020338,0.0017075650393962,-0.9930086135864258,0.1180116459727287,-0.000657368512695,0.0013550061219304,-0.0005035652586881,-0.0086901187896728,-0.0100746750831604,0.0305995941162109,1,0,0,0
0.5,1788527270678,0.0,0.0,0.0014391615986824,0.0022531312424689,-0.907275140285492,0.4205290973186493,0.0004724118238061,-4.987228515252477e-05,1.1865940948081236e-07,-0.0003100222384091,-0.0011788991978392,0.0005984051385894,0.0020874124020338,0.0017075650393962,-0.9930086135864258,0.1180116459727287,-0.000657368512695,0.0013550061219304,-0.0005035652586881,-0.0086901187896728,-0.0100746750831604,0.0305995941162109,1,0,0,0
0.6,1788527270778,0.0,0.0,0.0014391615986824,0.0022531312424689,-0.907275140285492,0.4205290973186493,0.0004724118238061,-4.987228515252477e-05,1.1865940948081236e-07,-0.0003100222384091,-0.0011788991978392,0.0005984051385894,0.0020874124020338,0.0017075650393962,-0.9930086135864258,0.1180116459727287,-0.000657368512695,0.0013550061219304,-0.0005035652586881,-0.0086901187896728,-0.0100746750831604,0.0305995941162109,1,0,0,0
0.7,1788527270878,0.0,0.0,0.0014391615986824,0.0022531312424689,-0.907275140285492,0.4205290973186493,0.0004724118238061,-4.987228515252477e-05,1.1865940948081236e-07,-0.0003100222384091,-0.0011788991978392,0.0005984051385894,0.0020874124020338,0.0017075650393962,-0.9930086135864258,0.1180116459727287,-0.000657368512695,0.0013550061219304,-0.0005035652586881,-0.0086901187896728,-0.0100746750831604,0.0305995941162109,1,0,0,0
0.8,1788527270978,0.0,0.0,0.0014391615986824,0.0022531312424689,-0.907275140285492,0.4205290973186493,0.0004724118238061,-4.987228515252477e-05,1.1865940948081236e-07,-0.0003100222384091,-0.0011788991978392,0.0005984051385894,0.0020874124020338,0.0017075650393962,-0.9930086135864258,0.1180116459727287,-0.000657368512695,0.0013550061219304,-0.0005035652586881,-0.0086901187896728,-0.0100746750831604,0.0305995941162109,1,0,0,0
0.9,1788527271078,0.0,0.0,0.0014391615986824,0.0022531312424689,-0.907275140285492,0.4205290973186493,0.0004724118238061,-4.987228515252477e-05,1.1865940948081236e-07,-0.0003100222384091,-0.0011788991978392,0.0005984051385894,0.0020874124020338,0.0017075650393962,-0.9930086135864258,0.1180116459727287,-0.000657368512695,0.0013550061219304,-0.0005035652586881,-0.0086901187896728,-0.0100746750831604,0.0305995941162109,1,0,0,0
1.0,1788527271178,0.0,0.0,0.0014391615986824,0.0022531312424689,-0.907275140285492,0.4205290973186493,0.0004724118238061,-4.987228515252477e-05,1.1865940948081236e-07,-0.0003100222384091,-0.0011788991978392,0.0005984051385894,0.0020874124020338,0.0017075650393962,-0.9930086135864258,0.1180116459727287,-0.000657368512695,0.0013550061219304,-0.0005035652586881,-0.0086901187896728,-0.0100746750831604,0.0305995941162109,1,0,0,0
1.1,1788527271278,0.0,0.0,0.0014391615986824,0.0022531312424689,-0.907275140285492,0.4205290973186493,0.0004724118238061,-4.987228515252477e-05,1.1865940948081236e-07,-0.0003100222384091,-0.0011788991978392,0.0005984051385894,0.0020874124020338,0.0017075650393962,-0.9930086135864258,0.1180116459727287,-0.000657368512695,0.0013550061219304,-0.0005035652586881,-0.0086901187896728,-0.0100746750831604,0.0305995941162109,1,0,0,0
1.2,1788527271378,0.0,0.0,0.0014391615986824,0.0022531312424689,-0.907275140285492,0.4205290973186493,0.0004724118238061,-4.987228515252477e-05,1.1865940948081236e-07,-0.0003100222384091,-0.0011788991978392,0.0005984051385894,0.0020874124020338,0.0017075650393962,-0.9930086135864258,0.1180116459727287,-0.000657368512695,0.0013550061219304,-0.0005035652586881,-0.0086901187896728,-0.0100746750831604,0.0305995941162109,1,0,0,0
1.3,1788527271478,0.0,0.0,0.0014391615986824,0.0022531312424689,-0.907275140285492,0.4205290973186493,0.0004724118238061,-4.987228515252477e-05,1.1865940948081236e-07,-0.0003100222384091,-0.0011788991978392,0.0005984051385894,0.0020874124020338,0.0017075650393962,-0.9930086135864258,0.1180116459727287,-0.000657368512695,0.0013550061219304,-0.0005035652586881,-0.0086901187896728,-0.0100746750831604,0.0305995941162109,1,0,0,0
1.4,1788527271578,0.0,0.0,0.0014391615986824,0.0022531312424689,-0.907275140285492,0.4205290973186493,0.0004724118238061,-4.987228515252477e-05,1.1865940948081236e-07,-0.0003100222384091,-0.0011788991978392,0.0005984051385894,0.0020874124020338,0.0017075650393962,-0.9930086135864258,0.1180116459727287,-0.000657368512695,0.0013550061219304,-0.0005035652586881,-0.0086901187896728,-0.0100746750831604,0.0305995941162109,1,0,0,0
1.5,1788527271678,0.0,0.0,0.0014391615986824,0.0022531312424689,-0.907275140285492,0.4205290973186493,0.0004724118238061,-4.987228515252477e-05,1.1865940948081236e-07,-0.0003100222384091,-0.0011788991978392,0.0005984051385894,0.0020874124020338,0.0017075650393962,-0.9930086135864258,0.1180116459727287,-0.000657368512695,0.0013550061219304,-0.0005035652586881,-0.0086901187896728,-0.0100746750831604,0.0305995941162109,1,0,0,0
1.6,1788527271778,0.0,0.0,0.0014391615986824,0.0022531312424689,-0.907275140285492,0.4205290973186493,0.0004724118238061,-4.987228515252477e-05,1.1865940948081236e-07,-0.0003100222384091,-0.0011788991978392,0.0005984051385894,0.0020874124020338,0.0017075650393962,-0.9930086135864258,0.1180116459727287,-0.000657368512695,0.0013550061219304,-0.0005035652586881,-0.0086901187896728,-0.0100746750831604,0.0305995941162109,1,0,0,0
1.7,1788527271878,0.0,0.0,0.0014391615986824,0.0022531312424689,-0.907275140285492,0.4205290973186493,0.0004724118238061,-4.987228515252477e-05,1.1865940948081236e-07,-0.0003100222384091,-0.0011788991978392,0.0005984051385894,0.0020874124020338,0.0017075650393962,-0.9930086135864258,0.1180116459727287,-0.000657368512695,0.0013550061219304,-0.0005035652586881,-0.0086901187896728,-0.0100746750831604,0.0305995941162109,1,0,0,0
1.8,1788527271978,0.0,0.0,0.0014391615986824,0.0022531312424689,-0.907275140285492,0.4205290973186493,0.0004724118238061,-4.987228515252477e-05,1.1865940948081236e-07,-0.0003100222384091,-0.0011788991978392,0.0005984051385894,0.0020874124020338,0.0017075650393962,-0.9930086135864258,0.1180116459727287,-0.000657368512695,0.0013550061219304,-0.0005035652586881,-0.0086901187896728,-0.0100746750831604,0.0305995941162109,1,0,0,0
1.9,1788527272078,0.0,0.0,0.0014391615986824,0.0022531312424689,-0.907275140285492,0.4205290973186493,0.0004724118238061,-4.987228515252477e-05,1.1865940948081236e-07,-0.0003100222384091,-0.0011788991978392,0.0005984051385894,0.0020874124020338,0.0017075650393962,-0.9930086135864258,0.1180116459727287,-0.000657368512695,0.0013550061219304,-0.0005035652586881,-0.0086901187896728,-0.0100746750831604,0.0305995941162109,1,0,0,0
2.0,1788527272178,0.0,0.0,0.0014391615986824,0.0022531312424689,-0.907275140285492,0.4205290973186493,0.0004724118238061,-4.987228515252477e-05,1.1865940948081236e-07,-0.0003100222384091,-0.0011788991978392,0.0005984051385894,0.0020874124020338,0.0017075650393962,-0.9930086135864258,0.1180116459727287,-0.000657368512695,0.0013550061219304,-0.0005035652586881,-0.0086901187896728,-0.0100746750831604,0.0305995941162109,1,0,0,0
2.1,1788527272278,0.0,0.0,0.0014391615986824,0.0022531312424689,-0.907275140285492,0.4205290973186493,0.0004724118238061,-4.987228515252477e-05,1.1865940948081236e-07,-0.0003100222384091,-0.0011788991978392,0.0005984051385894,0.0020874124020338,0.0017075650393962,-0.9930086135864258,0.1180116459727287,-0.000657368512695,0.0013550061219304,-0.0005035652586881,-0.0086901187896728,-0.0100746750831604,0.0305995941162109,1,0,0,0
2.2,1788527272378,0.0,0.0,0.0014391615986824,0.0022531312424689,-0.907275140285492,0.4205290973186493,0.0004724118238061,-4.987228515252477e-05,1.1865940948081236e-07,-0.0003100222384091,-0.0011788991978392,0.0005984051385894,0.0020874124020338,0.0017075650393962,-0.9930086135864258,0.1180116459727287,-0.000657368512695,0.0013550061219304,-0.0005035652586881,-0.0086901187896728,-0.0100746750831604,0.0305995941162109,1,0,0,0
2.3,1788527272478,0.0,0.0,0.0014391615986824,0.0022531312424689,-0.907275140285492,0.4205290973186493,0.0004724118238061,-4.987228515252477e-05,1.1865940948081236e-07,-0.0003100222384091,-0.0011788991978392,0.0005984051385894,0.0020874124020338,0.0017075650393962,-0.9930086135864258,0.1180116459727287,-0.000657368512695,0.0013550061219304,-0.0005035652586881,-0.0086901187896728,-0.0100746750831604,0.0305995941162109,1,0,0,0
2.4,1788527272578,0.0,0.0,0.0014391615986824,0.0022531312424689,-0.907275140285492,0.4205290973186493,0.0004724118238061,-4.987228515252477e-05,1.1865940948081236e-07,-0.0003100222384091,-0.0011788991978392,0.0005984051385894,0.0020874124020338,0.0017075650393962,-0.9930086135864258,0.1180116459727287,-0.000657368512695,0.0013550061219304,-0.0005035652586881,-0.0086901187896728,-0.0100746750831604,0.0305995941162109,1,0,0,0
2.5,1788527272678,0.0,0.0,0.0014391615986824,0.0022531312424689,-0.907275140285492,0.4205290973186493,0.0004724118238061,-4.987228515252477e-05,1.1865940948081236e-07,-0.0003100222384091,-0.0011788991978392,0.0005984051385894,0.0020874124020338,0.0017075650393962,-0.9930086135864258,0.1180116459727287,-0.000657368512695,0.0013550061219304,-0.0005035652586881,-0.0086901187896728,-0.0100746750831604,0.0305995941162109,1,0,0,0
2.6,1788527272778,0.0,0.0,0.0014391615986824,0.0022531312424689,-0.907275140285492,0.4205290973186493,0.0004724118238061,-4.987228515252477e-05,1.1865940948081236e-07,-0.0003100222384091,-0.0011788991978392,0.0005984051385894,0.0020874124020338,0.0017075650393962,-0.9930086135864258,0.1180116459727287,-0.000657368512695,0.0013550061219304,-0.0005035652586881,-0.0086901187896728,-0.0100746750831604,0.0305995941162109,1,0,0,0
2.7,1788527272878,0.0,0.0,0.0014391615986824,0.0022531312424689,-0.907275140285492,0.4205290973186493,0.0004724118238061,-4.987228515252477e-05,1.1865940948081236e-07,-0.0003100222384091,-0.0011788991978392,0.0005984051385894,0.0020874124020338,0.0017075650393962,-0.9930086135864258,0.1180116459727287,-0.000657368512695,0.0013550061219304,-0.0005035652586881,-0.0086901187896728,-0.0100746750831604,0.0305995941162109,1,0,0,0
2.8,1788527272978,0.0,0.0,0.0014391615986824,0.0022531312424689,-0.907275140285492,0.4205290973186493,0.0004724118238061,-4.987228515252477e-05,1.1865940948081236e-07,-0.0003100222384091,-0.0011788991978392,0.0005984051385894,0.0020874124020338,0.0017075650393962,-0.9930086135864258,0.1180116459727287,-0.000657368512695,0.0013550061219304,-0.0005035652586881,-0.0086901187896728,-0.0100746750831604,0.0305995941162109,1,0,0,0
2.9,1788527273078,0.0,0.0,0.0014391615986824,0.0022531312424689,-0.907275140285492,0.4205290973186493,0.0004724118238061,-4.987228515252477e-05,1.1865940948081236e-07,-0.0003100222384091,-0.0011788991978392,0.0005984051385894,0.0020874124020338,0.0017075650393962,-0.9930086135864258,0.1180116459727287,-0.000657368512695,0.0013550061219304,-0.0005035652586881,-0.0086901187896728,-0.0100746750831604,0.0305995941162109,1,0,0,0
3.0,1788527273178,0.0,0.0,0.0014391615986824,0.0022531312424689,-0.907275140285492,0.4205290973186493,0.0004724118238061,-4.987228515252477e-05,1.1865940948081236e-07,-0.0003100222384091,-0.0011788991978392,0.0005984051385894,0.0020874124020338,0.0017075650393962,-0.9930086135864258,0.1180116459727287,-0.000657368512695,0.0013550061219304,-0.0005035652586881,-0.0086901187896728,-0.0100746750831604,0.0305995941162109,1,0,0,0
3.1,1788527273278,0.0,0.0,0.0014391615986824,0.0022531312424689,-0.907275140285492,0.4205290973186493,0.0004724118238061,-4.987228515252477e-05,1.1865940948081236e-07,-0.0003100222384091,-0.0011788991978392,0.0005984051385894,0.0020874124020338,0.0017075650393962,-0.9930086135864258,0.1180116459727287,-0.000657368512695,0.0013550061219304,-0.0005035652586881,-0.0086901187896728,-0.0100746750831604,0.0305995941162109,1,0,0,0
3.2,1788527273378,0.0,0.0,0.0014391615986824,0.0022531312424689,-0.907275140285492,0.4205290973186493,0.0004724118238061,-4.987228515252477e-05,1.1865940948081236e-07,-0.0003100222384091,-0.0011788991978392,0.0005984051385894,0.0020874124020338,0.0017075650393962,-0.9930086135864258,0.1180116459727287,-0.000657368512695,0.0013550061219304,-0.0005035652586881,-0.0086901187896728,-0.0100746750831604,0.0305995941162109,1,0,0,0
3.3,1788527273478,0.0,0.0,0.0014391615986824,0.0022531312424689,-0.907275140285492,0.4205290973186493,0.0004724118238061,-4.987228515252477e-05,1.1865940948081236e-07,-0.0003100222384091,-0.0011788991978392,0.0005984051385894,0.0020874124020338,0.0017075650393962,-0.9930086135864258,0.1180116459727287,-0.000657368512695,0.0013550061219304,-0.0005035652586881,-0.0086901187896728,-0.0100746750831604,0.0305995941162109,1,0,0,0
3.4,1788527273578,0.0,0.0,0.0014391615986824,0.0022531312424689,-0.907275140285492,0.4205290973186493,0.0004724118238061,-4.987228515252477e-05,1.1865940948081236e-07,-0.0003100222384091,-0.0011788991978392,0.0005984051385894,0.0020874124020338,0.0017075650393962,-0.9930086135864258,0.1180116459727287,-0.000657368512695,0.0013550061219304,-0.0005035652586881,-0.0086901187896728,-0.0100746750831604,0.0305995941162109,1,0,0,0
3.5,1788527273678,0.0,0.0,0.0014391615986824,0.0022531312424689,-0.907275140285492,0.4205290973186493,0.0004724118238061,-4.987228515252477e-05,1.1865940948081236e-07,-0.0003100222384091,-0.0011788991978392,0.0005984051385894,0.0020874124020338,0.0017075650393962,-0.9930086135864258,0.1180116459727287,-0.000657368512695,0.0013550061219304,-0.0005035652586881,-0.0086901187896728,-0.0100746750831604,0.0305995941162109,1,0,0,0
3.6,1788527273778,0.0,0.0,0.0014391615986824,0.0022531312424689,-0.907275140285492,0.4205290973186493,0.0004724118238061,-4.987228515252477e-05,1.1865940948081236e-07,-0.0003100222384091,-0.0011788991978392,0.0005984051385894,0.0020874124020338,0.0017075650393962,-0.9930086135864258,0.1180116459727287,-0.000657368512695,0.0013550061219304,-0.0005035652586881,-0.0086901187896728,-0.0100746750831604,0.0305995941162109,1,0,0,0
3.7,1788527273878,0.0,0.0,0.0014391615986824,0.0022531312424689,-0.907275140285492,0.4205290973186493,0.0004724118238061,-4.987228515252477e-05,1.1865940948081236e-07,-0.0003100222384091,-0.0011788991978392,0.0005984051385894,0.0020874124020338,0.0017075650393962,-0.9930086135864258,0.1180116459727287,-0.000657368512695,0.0013550061219304,-0.0005035652586881,-0.0086901187896728,-0.0100746750831604,0.0305995941162109,1,0,0,0
3.8,1788527273978,0.0,0.0,0.0014391615986824,0.0022531312424689,-0.907275140285492,0.4205290973186493,0.0004724118238061,-4.987228515252477e-05,1.1865940948081236e-07,-0.0003100222384091,-0.0011788991978392,0.0005984051385894,0.0020874124020338,0.0017075650393962,-0.9930086135864258,0.1180116459727287,-0.000657368512695,0.0013550061219304,-0.0005035652586881,-0.0086901187896728,-0.0100746750831604,0.0305995941162109,1,0,0,0
3.9,1788527274078,0.0,0.0,0.0014391615986824,0.0022531312424689,-0.907275140285492,0.4205290973186493,0.0004724118238061,-4.987228515252477e-05,1.1865940948081236e-07,-0.0003100222384091,-0.0011788991978392,0.0005984051385894,0.0020874124020338,0.0017075650393962,-0.9930086135864258,0.1180116459727287,-0.000657368512695,0.0013550061219304,-0.0005035652586881,-0.0086901187896728,-0.0100746750831604,0.0305995941162109,1,0,0,0
4.0,1788527274178,0.0,0.0,0.0014391615986824,0.0022531312424689,-0.907275140285492,0.4205290973186493,0.0004724118238061,-4.987228515252477e-05,1.1865940948081236e-07,-0.0003100222384091,-0.0011788991978392,0.0005984051385894,0.0020874124020338,0.0017075650393962,-0.9930086135864258,0.1180116459727287,-0.000657368512695,0.0013550061219304,-0.0005035652586881,-0.0086901187896728,-0.0100746750831604,0.0305995941162109,1,0,0,0
4.1,1788527274278,0.0,0.0,0.0014391615986824,0.0022531312424689,-0.907275140285492,0.4205290973186493,0.0004724118238061,-4.987228515252477e-05,1.1865940948081236e-07,-0.0003100222384091,-0.0011788991978392,0.0005984051385894,0.0020874124020338,0.0017075650393962,-0.9930086135864258,0.1180116459727287,-0.000657368512695,0.0013550061219304,-0.0005035652586881,-0.0086901187896728,-0.0100746750831604,0.0305995941162109,1,0,0,0
4.2,1788527274378,0.0,0.0,0.0014391615986824,0.0022531312424689,-0.907275140285492,0.4205290973186493,0.0004724118238061,-4.987228515252477e-05,1.1865940948081236e-07,-0.0003100222384091,-0.0011788991978392,0.0005984051385894,0.0020874124020338,0.0017075650393962,-0.9930086135864258,0.1180116459727287,-0.000657368512695,0.0013550061219304,-0.0005035652586881,-0.0086901187896728,-0.0100746750831604,0.0305995941162109,1,0,0,0
4.3,1788527274478,0.0,0.0,0.0014391615986824,0.0022531312424689,-0.907275140285492,0.4205290973186493,0.0004724118238061,-4.987228515252477e-05,1.1865940948081236e-07,-0.0003100222384091,-0.0011788991978392,0.0005984051385894,0.0020874124020338,0.0017075650393962,-0.9930086135864258,0.1180116459727287,-0.000657368512695,0.0013550061219304,-0.0005035652586881,-0.0086901187896728,-0.0100746750831604,0.0305995941162109,1,0,0,0
4.4,1788527274578,0.0,0.0,0.0014391615986824,0.0022531312424689,-0.907275140285492,0.4205290973186493,0.0004724118238061,-4.987228515252477e-05,1.1865940948081236e-07,-0.0003100222384091,-0.0011788991978392,0.0005984051385894,0.0020874124020338,0.0017075650393962,-0.9930086135864258,0.1180116459727287,-0.000657368512695,0.0013550061219304,-0.0005035652586881,-0.0086901187896728,-0.0100746750831604,0.0305995941162109,1,0,0,0
4.5,1788527274678,0.0,0.0,0.0014391615986824,0.0022531312424689,-0.907275140285492,0.4205290973186493,0.0004724118238061,-4.987228515252477e-05,1.1865940948081236e-07,-0.0003100222384091,-0.0011788991978392,0.0005984051385894,0.0020874124020338,0.0017075650393962,-0.9930086135864258,0.1180116459727287,-0.000657368512695,0.0013550061219304,-0.0005035652586881,-0.0086901187896728,-0.0100746750831604,0.0305995941162109,1,0,0,0
4.6,1788527274778,0.0,0.0,0.0014391615986824,0.0022531312424689,-0.907275140285492,0.4205290973186493,0.0004724118238061,-4.987228515252477e-05,1.1865940948081236e-07,-0.0003100222384091,-0.0011788991978392,0.0005984051385894,0.0020874124020338,0.0017075650393962,-0.9930086135864258,0.1180116459727287,-0.000657368512695,0.0013550061219304,-0.0005035652586881,-0.0086901187896728,-0.0100746750831604,0.0305995941162109,1,0,0,0
4.7,1788527274878,0.0,0.0,0.0014391615986824,0.0022531312424689,-0.907275140285492,0.4205290973186493,0.0004724118238061,-4.987228515252477e-05,1.1865940948081236e-07,-0.0003100222384091,-0.0011788991978392,0.0005984051385894,0.0020874124020338,0.0017075650393962,-0.9930086135864258,0.1180116459727287,-0.000657368512695,0.0013550061219304,-0.0005035652586881,-0.0086901187896728,-0.0100746750831604,0.0305995941162109,1,0,0,0
4.8,1788527274978,0.0,0.0,0.0014391615986824,0.0022531312424689,-0.907275140285492,0.4205290973186493,0.0004724118238061,-4.987228515252477e-05,1.1865940948081236e-07,-0.0003100222384091,-0.0011788991978392,0.0005984051385894,0.0020874124020338,0.0017075650393962,-0.9930086135864258,0.1180116459727287,-0.000657368512695,0.0013550061219304,-0.0005035652586881,-0.0086901187896728,-0.0100746750831604,0.0305995941162109,1,0,0,0
4.9,1788527275078,0.0,0.0,0.0014391615986824,0.0022531312424689,-0.907275140285492,0.4205290973186493,0.0004724118238061,-4.987228515252477e-05,1.1865940948081236e-07,-0.0003100222384091,-0.0011788991978392,0.0005984051385894,0.0020874124020338,0.0017075650393962,-0.9930086135864258,0.1180116459727287,-0.000657368512695,0.0013550061219304,-0.0005035652586881,-0.0086901187896728,-0.0100746750831604,0.0305995941162109,1,0,0,0
5.0,1788527275178,0.0,0.0,0.0014391615986824,0.0022531312424689,-0.907275140285492,0.4205290973186493,0.0004724118238061,-4.987228515252477e-05,1.1865940948081236e-07,-0.0003100222384091,-0.0011788991978392,0.0005984051385894,0.0020874124020338,0.0017075650393962,-0.9930086135864258,0.1180116459727287,-0.000657368512695,0.0013550061219304,-0.0005035652586881,-0.0086901187896728,-0.0100746750831604,0.0305995941162109,1,0,0,0
5.1,1788527275278,0.0,0.0,0.0014391615986824,0.0022531312424689,-0.907275140285492,0.4205290973186493,0.0004724118238061,-4.987228515252477e-05,1.1865940948081236e-07,-0.0003100222384091,-0.0011788991978392,0.0005984051385894,0.0020874124020338,0.0017075650393962,-0.9930086135864258,0.1180116459727287,-0.000657368512695,0.0013550061219304,-0.0005035652586881,-0.0086901187896728,-0.0100746750831604,0.0305995941162109,1,0,0,0
5.2,1788527275378,0.0,0.0,0.0014391615986824,0.0022531312424689,-0.907275140285492,0.4205290973186493,0.0004724118238061,-4.987228515252477e-05,1.1865940948081236e-07,-0.0003100222384091,-0.0011788991978392,0.0005984051385894,0.0020874124020338,0.0017075650393962,-0.9930086135864258,0.1180116459727287,-0.000657368512695,0.0013550061219304,-0.0005035652586881,-0.0086901187896728,-0.0100746750831604,0.0305995941162109,1,0,0,0
5.3,1788527275478,0.0,0.0,0.0014391615986824,0.0022531312424689,-0.907275140285492,0.4205290973186493,0.0004724118238061,-4.987228515252477e-05,1.1865940948081236e-07,-0.0003100222384091,-0.0011788991978392,0.0005984051385894,0.0020874124020338,0.0017075650393962,-0.9930086135864258,0.1180116459727287,-0.000657368512695,0.0013550061219304,-0.0005035652586881,-0.0086901187896728,-0.0100746750831604,0.0305995941162109,1,0,0,0
5.4,1788527275578,0.0,0.0,0.0014391615986824,0.0022531312424689,-0.907275140285492,0.4205290973186493,0.0004724118238061,-4.987228515252477e-05,1.1865940948081236e-07,-0.0003100222384091,-0.0011788991978392,0.0005984051385894,0.0020874124020338,0.0017075650393962,-0.9930086135864258,0.1180116459727287,-0.000657368512695,0.0013550061219304,-0.0005035652586881,-0.0086901187896728,-0.0100746750831604,0.0305995941162109,1,0,0,0
5.5,1788527275678,0.0,0.0,0.001453471602872,0.0022500776685774,-0.9072635173797609,0.4205541908740997,-0.000341894097492,-0.0001592205179786,1.157492870794521e-07,0.0008927886956371,-0.0003986835363321,0.0015290548326447,0.0020633237436413,0.0017008585855364,-0.9930051565170288,0.1180407032370567,-0.0006434512339903,3.865395045799792e-05,-0.0005796166959718,-0.0018374323844909,-0.0027821660041809,0.0037403106689453,0,0,0,0
5.6,1788527275778,0.0,0.0,0.001432950142771,0.0022601319942623,-0.9072710275650024,0.4205379486083984,-7.891062144581399e-05,9.318054353827062e-05,-8.80303870253353e-08,-0.0002909610630013,-0.0003064671182073,-0.0009273028699681,0.0020693438127636,0.0016977991908788,-0.9930052161216736,0.1180399805307388,0.0001836714796397,-0.0001736945130151,1.8476067378893584e-06,-0.0089900493621826,0.016807198524475,0.0163993835449218,0,0,0,0
5.7,1788527275878,0.0,0.0,0.0014169826172292,0.0022568819113075,-0.9072769284248352,0.4205251932144165,-0.0003944466234316,8.66063703073353e-05,-1.0208334388344589e-07,-0.0003136115265078,-0.0005424929549917,-0.0009060432203114,0.0020536910742521,0.0016974201425909,-0.993006944656372,0.118025928735733,0.0008985619781458,-0.0016111759053047,0.001236931432926,-0.0054965019226074,-0.0278168320655822,-0.0198307037353515,0,0,0,0
5.8,1788527275978,0.0,0.0,0.0014190138317644,0.0022417281288653,-0.9072687029838562,0.4205430150032043,0.0005237903863458,-0.000108174219329,1.538535110046249e-07,0.0008300861809402,-0.0014337424654513,0.0011681233299896,0.0020441422238945,0.0016903495416045,-0.9930055141448976,0.1180382594466209,0.0002936111858535,-0.0005172605317263,0.0006212599172481,-0.0148144364356994,-0.0119324922561645,0.0035724639892578,0,0,0,0
5.9,1788527276078,0.0,0.0,0.001405274728313,0.0022430527023971,-0.907276213169098,0.420526921749115,-0.0003968819842877,-7.894202250252628e-05,6.416915901554646e-08,0.0003807163448072,-0.0011217660503461,0.0007325995247811,0.0020263623446226,0.0016808435320854,-0.9930076003074646,0.1180216670036315,0.0004390662408762,-0.0001007458686733,-0.0015072372238056,-0.0169925689697265,-0.0174801349639892,0.0053033828735351,0,0,0,0
6.0,1788527276178,0.0,0.0,0.0014077126979827,0.0022342302836477,-0.9072791934013368,0.4205206334590912,-0.000108178550773,0.0001277352475989,-1.107043494749506e-07,-7.878567703301087e-05,0.0005194467375986,-0.0012589499820023,0.002070645801723,0.0016636066138744,-0.9930077791213988,0.1180194318294525,0.001253060371751,0.0001536538541474,0.001604223149954,0.0054463744163513,0.0234635472297668,-0.0050611495971679,0,0,0,0
6.1,1788527276278,0.0,0.0,0.001455444144085,0.0022135332692414,-0.9072859883308412,0.4205057621002197,0.0004257262506347,0.0001504648370945,-1.1259187977702625e-07,0.000627375091426,-6.178655166877434e-05,-0.0014053692575544,0.0020866179838776,0.0016586575657129,-0.9930098056793212,0.118001215159893,0.0003994322156074,0.0013258577900854,0.0007802911760382,-0.0356179475784301,-0.0072674751281738,0.0034465789794921,0,0,0,0
6.2,1788527276378,0.0,0.0,0.0014626227784901,0.0022068289108574,-0.9072743058204652,0.4205309152603149,0.000556467913703,-0.000141663725933,1.9582807047917658e-07,0.0005960455746389,0.0003865145263262,0.001526613952592,0.0020717205479741,0.0016535650938749,-0.9930078983306884,0.1180188357830047,-0.0006763246663859,-0.0001725765846189,-0.0001769168924421,-0.0143395662307739,0.0016803741455078,-0.0017576217651367,0,0,0,0
6.3,1788527276478,0.0,0.0,0.0014736060984432,0.0022372126113623,-0.907282829284668,0.4205123782157898,-0.0004766493391888,1.81808076178335e-05,-5.174444573168248e-08,-0.0005885860300622,0.0010846430668607,-0.000241458081291,0.0021115625277161,0.0016700755804777,-0.9930077195167542,0.118019163608551,-0.0008595734329687,0.0001611384431951,-1.9899066001228583e-06,0.0009048581123352,0.041486918926239,-0.0103826522827148,2,0,0,0
6.4,1788527276578,0.0,0.0,0.0014930788893252,0.0022480245679616,-0.90727561712265,0.4205278754234314,-9.220058695670474e-06,1.0885950652233384e-05,-1.1609662995116337e-08,-0.0004082754312548,0.0006284482660703,-0.0001022383585222,0.0021664947271347,0.0016967104747891,-0.9930084943771362,0.1180115714669227,0.0005544758324621,0.001212398685294,0.0012559091365199,-0.0033647418022155,0.00234055519104,-0.0071039199829101,0,0,0,0
6.5,1788527276678,0.0,0.0,0.0015217449981719,0.0022681995760649,-0.9072769284248352,0.4205248355865478,6.497201721246689e-05,-7.360331194577774e-05,9.158844441809833e-08,0.0006557836313731,3.5294749977765605e-05,0.0007491986616514,0.0021508382633328,0.0017175832763314,-0.9930089116096495,0.1180079877376556,-0.0013888805399201,0.000334270713233,0.0001734236558471,-0.017946720123291,-0.0115392208099365,-0.0144863128662109,0,0,0,0
6.6,1788527276778,0.0,0.0,0.0015144641511142,0.0022987662814557,-0.9072675108909608,0.4205448925495147,7.187358063090303e-05,-8.135928583104433e-05,1.0484881620523123e-07,-0.0011701703770086,0.0002358544879825,0.0008377615013159,0.0021405583247542,0.0016830516979098,-0.9930045008659364,0.1180450916290283,0.0009399286726355,0.0003559426009312,-0.0012555344679264,0.0447473526000976,0.0005029439926147,-0.031996726989746,0,0,0,0
6.7,1788527276878,0.0,0.0,0.001518624019809,0.0022671995684504,-0.9072682857513428,0.4205434322357178,-0.000470965397416,-7.0055684084844e-06,-9.997299498500918e-08,0.0,0.0,0.0,0.0021930066868662,0.0016770400106906,-0.9930030107498168,0.1180569604039192,0.0008389094731952,-0.0001887190827438,0.0011500583483135,-0.019144594669342,-0.0126053690910339,0.0088310241699218,0,0,0,0
6.8,1788527276978,0.0,0.0,0.0015571650583297,0.0022751111537218,-0.9072598814964294,0.4205614030361175,0.0,0.0,0.0,0.0,0.0,0.0,0.0021906085312366,0.0016864007338881,-0.993002951145172,0.118057906627655,-0.0011464723470306,0.0004915517304673,-0.0001699305624013,-0.0190783143043518,-0.0015351176261901,-0.00726318359375,0,0,0,0
6.9,1788527277078,0.0,0.0,0.0015555743593722,0.0022779633291065,-0.9072433710098268,0.4205969870090484,9.65263854020635e-05,-0.000110827537365,1.4439916307346645e-07,2.982643127324991e-05,-5.1516570238163695e-05,0.0011266593355685,0.0021922551095485,0.0016959086060523,-0.9930004477500916,0.1180782243609428,-0.0009098411221153,0.0005596256537247,-0.0011415585635339,0.0149837136268615,0.0074782371520996,0.0127487182617187,0,0,0,0
7.0,1788527277178,0.0,0.0,0.0015666022663936,0.002308007562533,-0.9072551727294922,0.4205714166164398,-9.527149415226548e-05,0.0001125189564505,-1.3362954387390056e-07,-0.0008854806656017,0.0008905360009521,-0.0011057653464376,0.0022096550092101,0.0016937768086791,-0.9929986596107484,0.1180925443768501,2.602961573389753e-05,0.0001569351665066,0.0003445578950492,0.0046644806861877,0.0344806313514709,-0.0086851119995117,0,0,0,0
7.1,1788527277278,0.0,0.0,0.001568887848407,0.0022932519204914,-0.9072446823120116,0.4205939471721649,-0.0004549933725102,-6.717147191831715e-06,-1.4801399303221578e-07,0.0,0.0,0.0,0.0022169137373566,0.0016795769333839,-0.9930010437965392,0.1180734038352966,0.0014513520529612,0.0015798556506321,0.0001995948888565,0.0189669728279113,0.0106274485588073,0.019968032836914,0,0,0,0
7.2,1788527277378,0.0,0.0,0.0015857964754104,0.0022849370725452,-0.907252073287964,0.4205780625343323,0.0,0.0,0.0,0.0,0.0,0.0,0.0022656600922346,0.0017133159562945,-0.9930004477500916,0.1180763021111488,-0.0006322463937953,0.0021596255090414,-0.0008185813214417,0.0111324191093444,0.000529408454895,8.869171142578125e-05,0,0,0,0
7.3,1788527277478,0.0,0.0,0.0016161571256816,0.0022872984409332,-0.9072411060333252,0.4206017255783081,5.710896154680275e-05,-6.434842273905076e-05,9.517050197501665e-08,0.0012036524713039,-0.0005964075098745,0.0006600964698009,0.0022429833188652,0.0016767280176281,-0.9929985404014589,0.1180940270423889,-0.0003128181922204,-0.0001980522319999,-0.0003545094687518,0.0107011795043945,0.0125501155853271,-0.0159931182861328,0,0,0,0
7.4,1788527277578,0.0,0.0,0.001640128204599,0.0023142409045249,-0.9072572588920592,0.4205664992332458,-0.0001336154876732,0.000157808028386,-2.085144429033144e-07,-0.000568913819734,0.0013212267076596,-0.0015436933608725,0.0023307809606194,0.0016612634062767,-0.993002712726593,0.1180568560957908,0.001947788005927,0.0022423053565885,-1.9310571500414057e-05,-0.0019434094429016,-0.0112460851669311,-0.0252180099487304,4,0,0,0
7.5,1788527277678,0.0,0.0,0.0017240301240235,0.0023194947279989,-0.9072575569152832,0.4205653965473175,-0.0004520070453001,-6.701128626968262e-06,-2.837484429790819e-07,0.0,0.0,0.0,0.0023729316890239,0.0017120772972702,-0.9930063486099244,0.118024542927742,-0.0003796640822276,0.0001598811508614,0.0002339735598405,0.0203785300254821,-0.0069566965103149,0.0018787384033203,2,0,0,0
7.6,1788527277778,0.0,0.0,0.0017260826425626,0.0023627099581062,-0.9072772264480592,0.4205228090286255,0.0,0.0,0.0,0.0,0.0,0.0,0.0023657903075218,0.0017410032451152,-0.993010401725769,0.1179902702569961,-0.0004666128318908,0.0006517900635443,-0.0001630734574912,0.0076034069061279,-0.0172938108444213,0.0214815139770507,4,0,0,0
7.7,1788527277878,0.0,0.0,0.0017274392303079,0.0023834048770368,-0.907285451889038,0.4205051362514496,-0.000303718004273,-4.543094237396795e-06,-2.094316504074944e-07,-7.106435440107361e-09,-1.0659652716071832e-08,0.0,0.0023689372465014,0.0017076125368475,-0.993011713027954,0.1179799661040306,-0.0003211553696281,-0.0009109270788305,-0.0001844362887554,0.0059806704521179,0.0146138668060302,-0.012430191040039,8,0,0,0
7.8,1788527277978,0.0,0.0,0.0017152023501694,0.0023556412197649,-0.9072929620742798,0.420489102602005,0.0,0.0,0.0,0.0,0.0,0.0,0.0023624058812856,0.0017108498141169,-0.9930079579353333,0.1180116981267929,0.0004033914078291,0.0003523289016009,0.0015200269791466,0.0146512389183044,0.0360327959060668,0.016510009765625,7,0,0,0
7.9,1788527278078,0.0,0.0,0.0017152023501694,0.0023556412197649,-0.9072929620742798,0.420489102602005,0.0,0.0,0.0,0.0,0.0,0.0,0.0023517487570643,0.0017023496329784,-0.9930126667022704,0.117972195148468,0.0008147629103791,-0.0009873014173199,-0.0005747778535535,0.0198746919631958,-0.0143095254898071,0.0036087036132812,4,0,0,0
8.0,1788527278178,0.0,0.0,0.0017152023501694,0.0023556412197649,-0.9072929620742798,0.420489102602005,0.0,0.0,0.0,0.0,0.0,0.0,0.0023517487570643,0.0017023496329784,-0.9930126667022704,0.117972195148468,0.0008147629103791,-0.0009873014173199,-0.0005747778535535,0.0198746919631958,-0.0143095254898071,0.0036087036132812,4,0,0,0
8.1,1788527278278,0.0,0.0,0.0017152023501694,0.0023556412197649,-0.9072929620742798,0.420489102602005,0.0,0.0,0.0,0.0,0.0,0.0,0.002345192246139,0.0016519064083695,-0.993014395236969,0.1179585307836532,-0.000314736982876,0.0006940876546091,-0.0008832399899439,0.0177780389785766,0.022404134273529,0.0074424743652343,1,0,0,0
8.2,1788527278378,0.0,0.0,0.0017152023501694,0.0023556412197649,-0.9072929620742798,0.420489102602005,0.0,0.0,0.0,0.0,0.0,0.0,0.0024079550057649,0.0016762409359216,-0.9930166602134703,0.1179378181695938,0.000210984122351,0.0010277712652233,0.0008985519185715,-0.0205056071281433,-0.0258110761642456,0.0140533447265625,1,0,0,0
8.3,1788527278478,0.0,0.0,0.0017152023501694,0.0023556412197649,-0.9072929620742798,0.420489102602005,0.0,0.0,0.0,0.0,0.0,0.0,0.0023702634498476,0.0016854526475071,-0.9930170178413392,0.1179350838065147,0.0005744003860316,0.0003300608587267,-0.0005256211168521,0.0020723938941955,-0.0184165239334106,0.0214195251464843,1,0,0,0
8.4,1788527278578,0.0,0.0,0.0017152023501694,0.0023556412197649,-0.9072929620742798,0.420489102602005,0.0,0.0,0.0,0.0,0.0,0.0,0.0023377519100904,0.0016533061861991,-0.9930115342140198,0.1179826110601425,0.0004094392772244,0.0003328338197255,-0.000539397217107,0.0230631232261657,0.0117464661598205,-0.00518798828125,1,0,0,0
8.5,1788527278678,0.0,0.0,0.0017152023501694,0.0023556412197649,-0.9072929620742798,0.420489102602005,0.0,0.0,0.0,0.0,0.0,0.0,0.0023750765249133,0.0016399072483181,-0.9930088520050048,0.1180040687322616,0.0010463448676294,0.0001184758564078,0.0023920120364783,-0.0302664637565612,0.0022544860839843,0.0177745819091796,1,0,0,0
8.6,1788527278778,0.0,0.0,0.0017152023501694,0.0023556412197649,-0.9072929620742798,0.420489102602005,0.0,0.0,0.0,0.0,0.0,0.0,0.0023465687409043,0.0016368757933378,-0.993007481098175,0.1180172935128212,0.0007392834719059,-0.0009356722534817,0.0017764385474405,0.0032628178596496,-0.0013566613197326,0.0215387344360351,0,0,0,0
8.7,1788527278878,0.0,0.0,0.0017152023501694,0.0023556412197649,-0.9072929620742798,0.420489102602005,0.0,0.0,0.0,0.0,0.0,0.0,0.0023097638040781,0.0016266275197267,-0.9930059909820556,0.1180303320288658,0.0003882783580925,-0.0025290103453479,0.0008759034863497,0.0151651501655578,0.0004125237464904,0.0090465545654296,1,0,0,0
8.8,1788527278978,0.0,0.0,0.0017152023501694,0.0023556412197649,-0.9072929620742798,0.420489102602005,0.0,0.0,0.0,0.0,0.0,0.0,0.0023321444168686,0.0016161613166332,-0.9930095672607422,0.1179998442530632,0.0007485486951276,0.0004853900024863,0.001079696653924,-0.0168836712837219,-0.0053771138191223,0.0303659439086914,1,0,0,0
8.9,1788527279078,0.0,0.0,0.0017152023501694,0.0023556412197649,-0.9072929620742798,0.420489102602005,0.0,0.0,0.0,0.0,0.0,0.0,0.0023010037839412,0.0016023907810449,-0.9930137991905212,0.1179646849632263,-0.0004896793464164,0.000506006551876,-0.0008799135287743,0.00965017080307,-0.03581303358078,-0.0110082626342773,0,0,0,0
9.0,1788527279178,0.0,0.0,0.0017152023501694,0.0023556412197649,-0.9072929620742798,0.420489102602005,0.0,0.0,0.0,0.0,0.0,0.0,0.0022703325375914,0.0016307150945067,-0.9930094480514526,0.1180015578866005,-0.0005386014036723,-0.0003504689273696,0.0001741493509966,0.0088818669319152,-0.0031232237815856,0.026930809020996,4,0,0,0
9.1,1788527279278,0.0,0.0,0.0017152023501694,0.0023556412197649,-0.9072929620742798,0.420489102602005,0.0,0.0,0.0,0.0,0.0,0.0,0.0022115483880043,0.0016354182735085,-0.9930068254470824,0.1180250719189643,-0.0005443393209099,-0.0017413875863612,-0.0005001289363281,-0.0045316219329833,0.0100378394126892,-0.0233545303344726,0,0,0,0
9.2,1788527279378,0.0,0.0,0.0017152023501694,0.0023556412197649,-0.9072929620742798,0.420489102602005,0.0,0.0,0.0,0.0,0.0,0.0,0.0022189430892467,0.0016480823978781,-0.9930052161216736,0.1180384010076522,0.0008931791663376,-0.0012554053182542,0.0010334183780975,-0.0008565187454223,-0.0024027824401855,-0.0090570449829101,0,0,0,0
9.3,1788527279478,0.0,0.0,0.0017152023501694,0.0023556412197649,-0.9072929620742798,0.420489102602005,0.0,0.0,0.0,0.0,0.0,0.0,0.0022256197407841,0.0016625355929136,-0.9930095672607422,0.118001602590084,0.0007453152539563,-4.7326897673769553e-05,0.0003610748507939,-0.0150756239891052,-0.009324312210083,-0.007399559020996,0,0,0,0
9.4,1788527279578,0.0,0.0,0.001589507330209,0.002272208686918,-0.9072771072387696,0.4205241799354553,0.0001324362880447,-0.0001526535483912,-3.5213148455606146e-07,0.0009072919492609,-0.0059502627700567,0.0015298693906515,0.0022064438089728,0.0016779759898781,-0.9930077195167542,0.1180173531174659,-0.0008815658235854,-0.0005943936425658,0.0001760485845384,0.009718894958496,0.0125626325607299,-0.0053043365478515,0,0,0,0
9.5,1788527279678,0.0,0.0,0.0015647285617887,0.0022825272753834,-0.907291293144226,0.4204935729503631,-0.0001112013409772,0.0001312900044693,-1.674453696495765e-07,-0.0007582505932077,-0.0006964408094063,-0.0013018808094784,0.0021560350432991,0.0016828747466206,-0.9930119514465332,0.1179820299148559,-0.0012106856668175,-0.002174555060409,0.0005132168217361,0.0214349627494812,0.012923777103424,-0.0249958038330078,0,0,0,0
9.6,1788527279778,0.0,0.0,0.0015269034774973,0.0022691674530506,-0.9072911143302916,0.4204942286014557,-0.0004634718889833,-6.944375646648224e-06,-1.0615848179265257e-07,0.0,0.0,0.0,0.0021930187940597,0.0016936743631958,-0.9930124878883362,0.1179770603775978,0.0003518053152226,-0.0008694439573751,0.0014755158038139,-0.006555438041687,0.002277672290802,-0.0252408981323242,0,0,0,0
9.7,1788527279878,0.0,0.0,0.0015607154928147,0.0022978805936872,-0.9072982668876648,0.4204783737659454,-4.193532713279739e-05,4.950432666294498e-05,-5.5948080365633086e-08,-0.0003291375178378,0.0011938756797462,-0.0004849270917475,0.0021930187940597,0.0016936743631958,-0.9930124878883362,0.1179770603775978,0.0003518053152226,-0.0008694439573751,0.0014755158038139,-0.006555438041687,0.002277672290802,-0.0252408981323242,0,0,0,0
9.8,1788527279978,0.0,0.0,0.0015082873869687,0.0022779875434935,-0.9072847366333008,0.4205079972743988,0.0005587695734734,-0.0001350508869171,3.2036488174944217e-07,-0.0001782320614438,-0.0024494046811014,0.0014213739195838,0.0021319929510354,0.0017074281349778,-0.9930076599121094,0.1180182993412017,0.0001459490072539,-0.0006310120487019,0.0006459881005076,0.0245572328567504,0.0241765975952148,-0.0159282684326171,0,0,0,0
9.9,1788527280078,0.0,0.0,0.0015145763754844,0.0023088259622454,-0.9072753190994264,0.4205281436443329,0.0,0.0,0.0,0.0,0.0,0.0,0.0021320907399058,0.0017307857051491,-0.9930099844932556,0.1179989129304885,-0.0011618412760077,0.0001446831358984,-0.0009828388856272,-0.0169857740402221,-0.0080366134643554,0.032088279724121,0,0,0,0
10.0,1788527280178,0.0,0.0,0.0015145763754844,0.0023088259622454,-0.9072753190994264,0.4205281436443329,0.0,0.0,0.0,0.0,0.0,0.0,0.0021493397653102,0.0017249304801225,-0.9930103421211244,0.1179957240819931,3.6579539676875e-05,0.0004667524714928,-0.0007098114186001,0.0015040040016174,-0.0187143683433532,-0.0038070678710937,0,0,0,0
10.1,1788527280278,0.0,0.0,0.0015145763754844,0.0023088259622454,-0.9072753190994264,0.4205281436443329,0.0,0.0,0.0,0.0,0.0,0.0,0.0021055089309811,0.0016858223825693,-0.9930115938186646,0.1179860904812812,-6.480956271904445e-05,-0.0013673843231523,-0.0014858154330102,0.0185010433197021,0.0003647208213806,-0.001774787902832,0,0,0,0
10.2,1788527280378,0.0,0.0,0.0015145763754844,0.0023088259622454,-0.9072753190994264,0.4205281436443329,0.0,0.0,0.0,0.0,0.0,0.0,0.0020955745130777,0.001707362011075,-0.9930077791213988,0.1180177628993988,-0.0007894320552455,0.0009656757577668,0.0016254658269101,0.0237432122230529,0.0169697403907775,-0.001631736755371,0,0,0,0
10.3,1788527280478,1.4647886753082275,2.309859037399292,0.0015145763754844,0.0023088259622454,-0.9072753190994264,0.4205281436443329,0.0,0.0,0.0,0.0,0.0,0.0,0.0021217428147792,0.0017220359295606,-0.9930104613304138,0.1179950758814811,0.0004421883452345,0.0009717638852277,0.0006006609414968,0.0278621315956115,0.0131985545158386,0.0607624053955078,199,238,8368,10375
10.4,1788527280578,3.436619758605957,4.816901206970215,0.0011988437036052,0.0021447457838803,-0.9036664366722108,0.4282299876213074,0.0803104985634568,0.0016543883103074,1.2577765734658471e-05,0.0004335491394158,-0.0033456103410571,0.1923568546772003,0.0019643120467662,0.0015092734247446,-0.9915112257003784,0.1299973428249359,0.0080700927586805,0.0017461774529082,0.1762286552379433,0.6599878668785095,0.3421059250831604,0.4404668807983398,151,178,12383,14325
10.5,1788527280678,4.8450703620910645,5.943662166595459,0.0017460241215303,0.0022179461084306,-0.8996580839157104,0.4365860223770141,0.1510786025704109,0.0024020921807267,-1.4567109923738404e-05,0.0020656029228121,0.0097983917221426,0.2262148857116699,0.0024574771523475,0.0019855229184031,-0.9900748133659364,0.140505775809288,-0.0199191100729317,0.0009658334004133,0.2658657720138204,0.0100826025009155,0.2804516553878784,-0.4565639495849609,84,73,14394,15671
10.6,1788527280778,4.619718074798584,5.7183098793029785,0.0013596226926892,0.0027673924341797,-0.8948031663894653,0.446450263261795,0.191483139494065,0.0020621592731112,-4.390183783270675e-06,-0.0088512934744358,-0.0142187559977173,0.2076555341482162,0.0019061155617237,0.0025809314101934,-0.9886157512664796,0.1504280716180801,-0.0166113974157234,-0.0189685240449109,0.1451632144418853,-0.0413838624954223,0.0936741232872009,-0.1977787017822265,49,23,13526,14700
10.7,1788527280878,4.507042407989502,5.126760482788086,0.0010134431067854,0.003213932737708,-0.8921354413032532,0.4517552852630615,0.1715745779119623,0.0056104510945851,-5.70168958981236e-05,-0.0091503653675317,0.0030485340394079,0.1086657717823982,0.00160629209131,0.0025090277194976,-0.9878538846969604,0.1553568989038467,0.0096968354819693,-0.0254464955259418,0.1135851936388104,-0.0411792993545532,0.1271437406539917,0.3036022186279297,21,16,9664,11726
10.8,1788527280978,2.9577465057373047,3.802816867828369,0.0006029157084412,0.0025397550780326,-0.8892441987991333,0.4574252963066101,0.1593797655182098,-0.0004411255274983,4.425357877589461e-05,0.0098811602219939,-0.0131961293518543,0.1396091133356094,0.0015738615766167,0.002236402593553,-0.987253189086914,0.1591345965862274,0.0046536030004709,0.0069712662044443,0.1070078155424094,-1.1535834074020386,-0.0608797073364257,0.4860820770263672,13,98,6357,5955
10.9,1788527281078,0.0,0.0,0.0004403724451549,0.002347775734961,-0.8882545828819275,0.4593453109264374,0.0392536828901723,-0.0004101742402647,9.398488162231222e-07,0.0010902322828769,-0.0071682655252516,0.0384437479078769,0.0010480340570211,0.0020598014816641,-0.9869336485862732,0.1611106097698211,0.0010500468942647,-0.0058523141150291,0.0130965479396862,-0.8145860433578491,-0.0307437777519226,0.2835798263549804,0,0,0,0
11.0,1788527281178,0.0,0.0,0.0004403724451549,0.002347775734961,-0.8882545828819275,0.4593453109264374,-0.0116403746906642,-0.0014179389085076,1.8809661235494682e-07,0.0,1.1760740159516556e-09,0.0,0.0010266155004501,0.0021015480160713,-0.98701810836792,0.1605919450521469,-0.0001748621974308,0.0017590022385487,0.0017534909036116,0.0074337720870971,0.061730146408081,0.032257080078125,5,0,0,0
11.1,1788527281278,0.0,0.0,0.0004403724451549,0.002347775734961,-0.8882545828819275,0.4593453109264374,0.0017394289133235,0.0002810840745976,2.017855413072452e-07,0.0,1.457372000857049e-09,0.0,0.0010248674079775,0.0020938534289598,-0.9870120882987976,0.1606287956237793,0.0010112300182648,-0.001145062482913,-0.0007615296836051,0.0002461671829223,-0.0550932884216308,0.0224084854125976,7,0,0,0
11.2,1788527281378,0.0,0.0,0.0004403724451549,0.002347775734961,-0.8882545828819275,0.4593453109264374,0.0,0.0,0.0,0.0,1.1697228741169852e-09,0.0,0.0010502487421035,0.0020944541320204,-0.9869986772537231,0.16071118414402,-0.0003001131861139,0.0003047517509043,0.0027937401197784,-0.0029351711273193,0.0219646096229553,0.0373010635375976,4,0,0,0
11.3,1788527281478,0.0,0.0,0.0004403724451549,0.002347775734961,-0.8882545828819275,0.4593453109264374,0.0002562611485325,-0.0002470448145872,-1.7723774244001448e-07,0.0,1.4720704655246664e-09,0.0,0.0010524038225412,0.0021215258166193,-0.9870141744613647,0.160615861415863,-0.0005045751122721,0.0010374487776012,0.0033812834643316,-0.0099641680717468,0.0135422945022583,0.031808853149414,2,0,0,0
11.4,1788527281578,0.0,0.0,0.0004403724451549,0.002347775734961,-0.8882545828819275,0.4593453109264374,0.0,0.0,0.0,0.0,1.1733565230542806e-09,0.0,0.0009822947904467,0.0021227803081274,-0.9869998693466188,0.1607039272785186,0.000720670791121,-0.0020034325310958,0.0063893217274146,-0.0203146934509277,0.0299243927001953,0.0354604721069335,3,0,0,0
11.5,1788527281678,0.0,0.0,0.0002808980061672,0.0023322340566664,-0.8883234858512878,0.459212064743042,0.0,0.0,0.0,0.0,-1.4909505852145342e-09,0.0,0.0009743748232722,0.0021455334499478,-0.9870149493217468,0.1606112420558929,0.0002297604969875,0.0001780259350031,-0.0007049623843957,-0.0257667303085327,-0.0108914971351623,0.0315446853637695,4,0,0,0
11.6,1788527281778,0.0,0.0,0.0002808980061672,0.0023322340566664,-0.8883234858512878,0.459212064743042,0.0,0.0,0.0,0.0,-1.1857907988854775e-09,0.0,0.0009846556931734,0.0021452857181429,-0.9870055317878724,0.160669207572937,-0.0004436534846037,-0.0008349160383128,-0.0046722305619737,0.0408984422683715,-0.0378609299659729,0.0299530029296875,8,0,0,0
11.7,1788527281878,0.0,0.0,0.0002798270434141,0.0023515727370977,-0.8883686065673828,0.4591248631477356,-0.0003334963893369,0.0003891933516007,4.3478779902645816e-08,-0.0006921500898897,0.0003204058448318,-0.0038748206570744,0.000994668342173,0.0021505998447537,-0.9870131015777588,0.1606220304965973,-0.0001617367294093,0.0003690583967262,0.0029767816897548,0.1234700083732605,0.0175805687904357,0.0739431381225586,192,326,9431,11879
11.8,1788527281978,2.8450703620910645,3.211267709732056,-0.0001480300561524,0.0022239619866013,-0.8870415687561035,0.4616841077804565,0.0873872641053296,0.0047577752856055,-1.104401533364942e-05,-0.0073991119861602,-0.0002218991430709,0.0559141859412193,0.0006717145442962,0.0021954765543341,-0.9864856600761414,0.163831815123558,-0.0060044114764269,0.0012657063789822,0.0626979241728087,0.7316740155220032,-0.1005108952522277,-0.0274362564086914,142,171,11852,13753
11.9,1788527282078,3.323943614959717,4.02816915512085,0.0003376919776201,0.0026921769604086,-0.884583592414856,0.4663738906383514,0.164867865926722,-0.0005210838692105,-5.518905984983094e-05,6.820433191023767e-05,0.0271745081990957,0.140969306230545,0.0013291165232658,0.0024223010987043,-0.9853670597076416,0.1704235672950744,0.0058237428232474,0.0260824206038463,0.170270207820167,0.5509582757949829,0.2629120945930481,0.4715394973754883,117,128,14324,16841
12.0,1788527282178,4.704225540161133,5.436619758605957,0.0019186986610293,0.0050895484164357,-0.8808563351631165,0.4733525812625885,0.18541827049183,0.0001282163944021,-0.0001581984245614,-0.0354233235120773,0.0620236545801162,0.1061463505029678,0.0027876337990164,0.0036780331283807,-0.9843509197235109,0.1761592924594879,-0.0376326130271887,0.0614944628126936,0.0922089370744741,-0.5171700119972229,0.0357075929641723,0.7437372207641602,58,137,12900,16676
12.1,1788527282278,4.816901206970215,5.633802890777588,0.0023837652988731,0.004088629502803,-0.8778277635574341,0.4789529740810394,0.1962317307894948,-0.0007103734339535,0.0001682147780225,0.0956930443644523,-0.1351329088211059,0.2288885414600372,0.0031801806762814,0.0030910968780517,-0.9828779697418212,0.1842044740915298,0.082183519259573,-0.1446398767149795,0.2811348899045136,-0.1639267206192016,0.5080783367156982,-0.8763284683227539,48,45,12094,14904
12.2,1788527282378,4.309859275817871,5.521126747131348,0.0032101203687489,0.0046929991804063,-0.8726229071617126,0.4883614182472229,0.1575427341499166,-0.0017006219266091,-8.4327139324051e-05,-0.0052065378986299,0.0327865816652774,0.1472730487585067,0.0041096769273281,0.0034129973500967,-0.9810407161712646,0.1937281936407089,-0.0054895334533986,0.0183019019728307,0.138370182763231,-0.4425763487815857,0.0668274164199829,1.854501724243164,49,51,13973,15288
12.3,1788527282478,4.8450703620910645,5.7183098793029785,0.0004441551864147,0.0030899168923497,-0.8712339997291565,0.4908580183982849,0.164589650817509,0.0039033478845361,0.0003400494670467,0.0013386419741436,-0.127781257033348,0.1136325001716613,0.0011928658932447,0.0029726503416895,-0.9796209335327148,0.2008298337459564,-0.0089658527459867,-0.0125067001531245,0.160918865834119,0.2196853756904602,0.0867050290107727,0.1396045684814453,71,74,12738,15104
12.4,1788527282578,4.676056385040283,5.295774459838867,0.0005058979149907,0.0030494136735796,-0.865595817565918,0.5007338523864746,0.16946051545749,0.0034716431616922,2.6492173962408386e-05,0.0055908965878188,0.0009677857160568,0.1629875898361206,0.0012327404692769,0.0024499306455254,-0.9774824380874634,0.2109992951154709,0.0016723259593637,-0.0193648879746278,0.1463887322864336,0.2292379736900329,0.0167999267578125,-0.1014938354492187,106,52,15634,13858
12.5,1788527282678,4.929577350616455,5.352112770080566,0.0009238191996701,0.0026339555624872,-0.8623735308647156,0.506264865398407,0.1792020505189585,0.001173397760434,-7.738721892842176e-05,0.0096650756895542,0.0116178635507822,0.0750986412167549,0.0014506578445434,0.0022159274667501,-0.9768822193145752,0.2137619256973266,0.0015509924403019,-0.0228341895850546,0.0722412557216909,0.1887547373771667,-0.1292533278465271,-0.2895584106445312,47,38,14634,13699
12.6,1788527282778,4.760563373565674,4.760563373565674,0.0009073649416677,0.0020060101523995,-0.8619314432144165,0.507020115852356,0.1570500112049173,0.0017682146482049,-4.431661348795911e-05,-0.0165658965706825,0.0154480403289198,-0.0213880501687526,0.001352485269308,0.0021032663062214,-0.9769104719161988,0.2136347144842147,-0.0222840731183088,0.0204603805433631,-0.0359076770433075,0.6475957036018372,0.2406486272811889,-0.5213031768798828,89,157,16136,15068
12.7,1788527282878,5.042253494262695,5.070422649383545,0.0001336582354269,0.0022478478495031,-0.8624840378761292,0.506079375743866,0.1752196661527061,-0.003734015575052,2.04518998865032e-05,-0.0048495619557797,-0.0244661401957273,-0.0160140749067068,0.0008260738104581,0.0024095680564641,-0.9770331978797911,0.2130722254514694,-0.0047575531739055,0.0196278668665704,0.0032320387717828,-0.1376768350601196,0.3774195909500122,-0.4315929412841797,63,75,14723,14262
12.8,1788527282978,5.183098793029785,5.126760482788086,3.703450784087181e-05,0.0025469679385423,-0.862575113773346,0.5059226751327515,0.1661775688969543,-0.0005696253887859,-6.539791495375337e-05,-0.0061514531262218,0.0122376475483179,0.0062990691512823,0.0014527328312397,0.0025156233459711,-0.9770264625549316,0.2130984812974929,0.0019741939518048,0.0419361478012533,0.0018843944214386,0.0896580815315246,-0.1437504887580871,-1.2350530624389648,85,96,14113,14045
12.9,1788527283078,4.957746505737305,5.352112770080566,1.7200130969285965e-05,0.0028312646318227,-0.8618602752685547,0.5071378350257874,0.1602469950134233,0.0003763082229126,3.6366456449543686e-05,-0.0029529726598411,-0.0099344868212938,0.0326706282794475,0.0009913258254528,0.0028694188222289,-0.9764562249183656,0.2156946808099746,-0.0075631771737083,0.0061349733379785,0.0601728958081858,0.1319120526313781,-0.2646591663360595,-0.1902933120727539,50,63,13864,15154
13.0,1788527283178,5.098591327667236,5.211267471313477,0.0005031242035329,0.0037990175187587,-0.8609238862991333,0.5087193846702576,0.1729201876618976,0.0049834460423802,-0.0001073816932816,0.006953930016607,0.0726744756102562,0.0116060655564069,0.0019529750570654,0.0029769204556941,-0.9758980870246888,0.2181979864835739,0.0158784482880118,0.0222192547935456,0.0854473565120681,-0.1800459027290344,-0.1836167573928833,0.4927396774291992,110,36,14533,13878
13.1,1788527283278,5.070422649383545,5.126760482788086,0.0009354978101328,0.0030424878932535,-0.859464168548584,0.5111861824989319,0.1655582000615219,0.0058645464118124,5.620208319777121e-05,0.0161313787102699,-0.0095497509464621,0.0412544682621955,0.0023194644600152,0.0022967252880334,-0.9756091237068176,0.2194906771183014,0.0185583365145389,-0.0033029564503356,0.0087734917849382,-0.116651177406311,0.3746439814567566,0.5006990432739258,60,65,15022,13839
13.2,1788527283378,5.098591327667236,4.760563373565674,0.0015315528726205,0.0030324389226734,-0.8592478632926941,0.5115481019020081,0.1783699043236282,-0.0006907856320737,-4.1623873674514514e-05,0.0127167999744415,0.0206122007220983,0.0172413382679224,0.0029597906395792,0.0037663709372282,-0.9758593440055848,0.2183474451303482,-0.063174009745364,0.0763571812515633,-0.0622193347182024,0.1722424626350402,0.2457455992698669,1.243268966674805,113,181,14206,16442
13.3,1788527283478,4.619718074798584,5.690140724182129,0.0018012258224189,0.003189128357917,-0.8581328988075256,0.5134144425392151,0.1874397535168487,0.0006871493429992,0.0003247995029998,0.063825286924839,-0.0585797801613807,0.1354286968708038,0.0030235843732953,0.0025510815903544,-0.9744834899902344,0.224424660205841,-0.0009275375677222,0.0334629616395024,0.1918270134816383,-0.4624550938606262,0.214644193649292,-0.7921333312988281,33,54,12412,15473
13.4,1788527283578,5.014084339141846,5.098591327667236,0.0020663698669523,0.0036775928456336,-0.8536841869354248,0.5207738876342773,0.164730072230689,-0.0037274133687359,1.305779771998344e-05,-0.0085221342742443,0.0068939207121729,0.1518990248441696,0.0031061740592122,0.0028541646897792,-0.9731934070587158,0.2299494594335556,-0.0100685131610289,0.0134700064605904,0.1348759665523714,-0.1208783388137817,0.2385995984077453,0.5930995941162109,80,40,14921,13448
13.5,1788527283678,5.154929637908936,4.901408672332764,0.001705197035335,0.003494938602671,-0.8533289432525635,0.5213584303855896,0.1721052759695085,0.0011134526706675,-9.161685177873458e-06,-0.0045714196749031,-0.0108043365180492,-0.0494283661246299,0.002507678233087,0.0026860367506742,-0.9733946323394777,0.2291059643030166,0.0089578826224991,-0.00985029620539,-0.0579726365373306,0.1788442134857177,0.0355185270309448,-0.2166395187377929,69,56,15844,13446
13.6,1788527283778,5.070422649383545,4.873239517211914,0.001310333260335,0.0032230869401246,-0.8548288941383362,0.5188984870910645,0.1683610756911456,0.0014843444990554,1.854381663118881e-05,0.0024503166787326,-0.014166934415698,-0.0758680626749992,0.0021623764187097,0.0026049949228763,-0.9738983511924744,0.2269591987133026,0.0007605195319909,-0.0196170320563457,-0.0580364014912162,0.1278907656669616,-0.1330464482307434,0.5236845016479492,62,56,16032,13518
13.7,1788527283878,5.380281925201416,4.535211086273193,0.0019014030694961,0.0033300609793514,-0.8568904399871826,0.5154843926429749,0.1701384843367407,-0.0033808311266433,-9.263070690643148e-05,0.0034429414663463,0.0191898923367261,-0.0758698508143425,0.0032350858673453,0.002842791378498,-0.9750436544418336,0.2219718098640442,-0.0097559056355285,0.0349494498759239,-0.1417509927628075,-0.1810072660446167,-0.2518864870071411,-0.4291505813598633,82,65,17750,12661
13.8,1788527283978,5.6619720458984375,4.563380241394043,0.0031179920770227,0.0044179102405905,-0.8606221079826355,0.5092154741287231,0.1700471330178267,-0.0055004260801505,-4.506162094026152e-05,-0.0038794935680925,0.0481627061963081,-0.1538151800632476,0.0041631404310464,0.0038228686898946,-0.9772827625274658,0.2118640840053558,-0.0194908932187898,-0.0010545793363857,-0.1673447322524641,0.2037396430969238,-0.7867215871810913,5.538034439086914,55,42,15828,12550
13.9,1788527284078,5.690140724182129,4.535211086273193,0.0032227146439254,0.0050326394848525,-0.8651827573776245,0.5014210343360901,0.1567324853941192,-0.0084006017770583,-6.282507080147e-05,-0.0126915592700243,0.0248423274606466,-0.2318953722715377,0.0043177306652069,0.0037447614595294,-0.979580819606781,0.2009696811437606,0.0175572338837602,-0.0204886791698167,-0.1615760432451391,-0.3292254209518432,-0.2728986740112304,1.5636005401611328,54,88,15670,13234
14.0,1788527284178,5.098591327667236,4.816901206970215,0.0030299078207463,0.0050232904031872,-0.8698683977127075,0.4932489991188049,0.1640275569809827,-0.0071073804825547,6.602507174720407e-06,0.0060666748322546,-0.0021225484088063,-0.1451121568679809,0.0045647593215107,0.0038799550384283,-0.9800086617469788,0.1988649219274521,-0.0048102411381168,0.018200640643093,-0.1421095329604016,0.0930783152580261,0.2254043817520141,-1.8394737243652344,57,144,15241,14658
14.1,1788527284278,5.464788913726807,4.591549396514893,0.0021296718623489,0.005119408480823,-0.8718476295471191,0.4897457063198089,0.186890524304557,0.0047855281163801,0.000176765040601,-0.0071417442522943,-0.0249178260564804,-0.0670544281601905,0.0028595086187124,0.004224507138133,-0.9811739325523376,0.1930588781833648,-0.0032783770654452,-0.0373642416338269,-0.063708994193281,-0.1617724299430847,0.2332414388656616,-0.1400632858276367,57,144,15241,14658
14.2,1788527284378,5.521126747131348,4.619718074798584,0.0007214976940304,0.0046209772117435,-0.8738052845001221,0.4862534701824188,0.1634515977391501,0.0002076839321142,7.909592081881334e-05,-0.0038150949403643,-0.0320946648716926,-0.0942938178777694,0.0021821353584527,0.0041966596618294,-0.9815571904182434,0.1911103725433349,-0.0047481014347994,-0.0331601520895755,-0.0994490635521948,-0.1198671460151672,-0.4320712685585022,0.4104881286621094,56,43,15794,12629
14.3,1788527284478,5.521126747131348,4.619718074798584,0.0001296865520998,0.0039756214246153,-0.8765850067138672,0.4812306761741638,0.1704727628907187,-0.000415885588105,1.991553168990764e-05,0.0012210278073325,-0.0093190995976328,-0.1646006554365158,0.0013932660222053,0.0037643667310476,-0.9826326966285706,0.1855182647705078,-0.0013650192743418,-0.0066581732218399,-0.1827504849170838,-0.0158687233924865,0.0181970596313476,0.2724084854125976,77,81,16567,13042
14.4,1788527284578,5.267605781555176,4.760563373565674,0.000170856481418,0.0034609877038747,-0.8798254132270813,0.4752843379974365,0.1742311307013516,-0.0034692131311747,-5.942506733800448e-06,-0.0095234271138906,0.0098933456465601,-0.1281672716140747,0.001109761185944,0.0033891508355736,-0.9841477274894714,0.1773149073123932,-0.0255856019119324,0.0116552284573323,-0.1539733044708019,0.0307768583297729,-0.4380632638931274,-0.0502405166625976,72,55,15390,13392
14.5,1788527284678,4.788732528686523,4.873239517211914,0.0001798934536054,0.0038777878507971,-0.8817920684814453,0.4716224670410156,0.1634670396390366,0.0011330872654641,-3.0535009955128585e-06,-0.0137743297964334,0.0084740053862333,-0.1612856090068817,0.0021970774978399,0.0057801445946097,-0.9855034351348876,0.16954305768013,-0.0779176661404726,0.0617835304524115,-0.0903490552662759,0.2371906042098999,0.3201016783714294,-0.3705272674560547,48,174,15334,15750
14.6,1788527284778,5.239436626434326,5.267605781555176,-0.0011918116360902,0.0045316657051444,-0.883830189704895,0.4677842259407043,0.1839861114976931,-0.0022303732715337,0.0001696823470603,0.0495506897568702,-0.0845663323998451,0.0528233647346496,-0.0003803595900535,0.0045222975313663,-0.98513263463974,0.1717357039451599,-0.0074451856597227,-0.0472852075341273,0.1243632774411281,-0.1211936473846435,0.5117629170417786,-0.4915552139282226,41,41,13330,13830
14.7,1788527284878,4.563380241394043,4.985915660858154,-0.0031605185940861,0.0043144272640347,-0.8824472427368164,0.4703809916973114,0.1572785824383606,0.0048421713254228,-1.8771680430700923e-05,0.0046592429280281,0.004004213027656,0.0473062247037887,-0.0019346065819263,0.0049715116620063,-0.9846749305725098,0.1743185371160507,0.005191539381168,-0.0406522460110227,0.0294981732408548,0.6572999954223633,0.2060607075691223,1.278550148010254,85,126,15226,15551
14.8,1788527284978,5.126760482788086,5.154929637908936,-0.0030022622086107,0.0043299854733049,-0.8812605142593384,0.4726015031337738,0.1678618969957551,0.0026136613063158,5.099093785703721e-05,0.0030247627291828,-0.0071426429785788,0.0685915276408195,-0.0019346065819263,0.0049715116620063,-0.9846749305725098,0.1743185371160507,0.005191539381168,-0.0406522460110227,0.0294981732408548,0.6572999954223633,0.2060607075691223,1.278550148010254,66,67,14792,14185
14.9,1788527285078,5.183098793029785,5.126760482788086,-0.0020965510047972,0.0040933643467724,-0.8807469010353088,0.4735649526119232,0.1791396618207942,0.0005238114417665,-1.8695974423568126e-05,0.0183176305145025,0.00825653411448,0.0052359434776008,-0.0004721647128462,0.0044171204790472,-0.9843060374259948,0.1764141619205474,0.0111157520631883,0.014970214188371,-0.0173327288299184,-0.3736065030097961,-0.153207778930664,0.587132453918457,71,56,14806,13766
15.0,1788527285178,4.901408672332764,5.126760482788086,-0.00243835686706,0.0032941873650997,-0.8801246881484985,0.4747248589992523,0.1664997923427385,0.0007822324398305,1.6473744296381048e-05,0.0102515127509832,-0.002669527195394,0.0504680871963501,-0.0014613065868616,0.0038553858175873,-0.983960211277008,0.1783405095338821,0.0068269631441896,-0.0113423995511307,0.0648202910747289,0.3273943662643432,0.1628354787826538,0.3152437210083008,46,88,14535,14958
15.1,1788527285278,5.154929637908936,4.985915660858154,-0.0025675985962152,0.002391783054918,-0.8793737292289734,0.4761192500591278,0.1721818082652161,0.0018252924248906,5.247941216193477e-05,0.0146636320278048,-0.0301815774291753,0.0358507744967937,-0.0020377533510327,0.0028412425890564,-0.983656644821167,0.1800208985805511,0.0205605362568825,-0.0606977508640029,0.0581769323379688,-0.0446308255195617,-0.0181463360786438,0.3208532333374023,80,68,14537,14213
15.2,1788527285378,5.042253494262695,5.183098793029785,-0.0022589291911572,0.0033582127653062,-0.8799348473548889,0.475077211856842,0.1697785433354557,-0.0027746771088916,3.88400085415768e-05,-0.0083228331059217,0.0082427700981497,-0.0534419827163219,-0.0007900856435298,0.0042482344433665,-0.98396235704422,0.1783238798379898,-0.0230048427922834,0.0228628386800616,0.008162987891987,-0.0869013667106628,0.3732562661170959,0.5081720352172852,62,101,13970,15214
15.3,1788527285478,5.070422649383545,5.183098793029785,-0.0012113729026168,0.0049026347696781,-0.879464864730835,0.4759372174739837,0.1770969186985413,-0.0011352555451823,-0.0001224248727139,-0.0237436443567276,0.0227481704205274,0.0240635052323341,0.0006660344079136,0.0052749775350093,-0.9837967157363892,0.1792086660861969,-0.0541058310271496,0.0750346998598,0.0175041020980897,-0.1144771575927734,0.3263471126556396,-0.7898044586181641,78,109,13879,15314
15.4,1788527285578,5.126760482788086,5.042253494262695,-0.0009097827132791,0.0059699211269617,-0.8783230185508728,0.4780293703079223,0.1717204754854467,0.0010426642676869,6.052261736737877e-06,-0.0110138664022088,0.0142045672982931,0.0596967600286006,-0.0003486918285489,0.0057184137403965,-0.9830288290977478,0.1833619773387909,0.0032501060389734,-0.0416725554289724,0.0763079426240043,0.3055354952812195,-0.1829161047935485,-0.4860897064208984,58,87,14600,14530
15.5,1788527285678,5.183098793029785,5.014084339141846,-0.0013391509419307,0.0057649230584502,-0.8772944808006287,0.4799159467220306,0.1805793270779292,0.0027991609633236,-0.0002140681998319,-0.0007224022992886,0.0400201454758644,0.0196141526103019,0.0011552441865205,0.0060015516355633,-0.98272705078125,0.1849600672721862,-0.0121602624628925,0.0039500631058152,0.0263333683779994,-0.0725873112678527,0.1491890549659729,0.0224552154541015,68,75,14500,14185
15.6,1788527285778,4.901408672332764,5.267605781555176,-0.0005675537977367,0.0061599193140864,-0.8767609596252441,0.4808866381645202,0.1662837592499297,0.0008038527021626,-2.400619990947633e-07,0.0,-4.6695443067790166e-09,0.0,0.0013048816472291,0.0059401541948318,-0.9826558828353882,0.1853384375572204,0.0080481926452092,-0.0144184841813749,0.0103440874185239,0.1107050776481628,0.1233279705047607,0.2126121520996093,54,76,13951,14984
15.7,1788527285878,4.901408672332764,5.295774459838867,-0.0002079487312585,0.0064931721426546,-0.8756314516067505,0.4829361736774444,0.1755011672018355,-0.0003002268183672,-8.067696033033058e-05,-0.0046777576208114,0.0261719152331352,0.0502451620995998,0.0019666198641061,0.0063608875498175,-0.9822366833686828,0.1875280439853668,-0.0110318864600642,0.0146882993762458,0.0568061692363783,-0.008795142173767,0.1619164943695068,-1.403855323791504,63,111,14173,14542
15.8,1788527285978,4.957746505737305,5.436619758605957,0.0006409399211406,0.007941709831357,-0.8751095533370972,0.4838593602180481,0.1718530119385908,0.0034920728919393,2.625140259516588e-07,0.0352950245141983,-0.0208113845437765,0.0524998567998409,0.0033024922013282,0.0078444443643093,-0.982160985469818,0.1878491938114166,0.0551555652845768,-0.0483490594538849,0.077560147801496,0.1563799381256103,-0.1842566728591919,-0.7371072769165039,62,63,14091,14782
15.9,1788527286078,5.014084339141846,5.042253494262695,0.0003672549501061,0.0064313160255551,-0.8726241588592529,0.4883498251438141,0.1831355948237914,0.0046281370479356,-4.440298517621823e-06,0.0063642961904406,0.0092960465699434,0.0607494674623012,0.00282091088593,0.0057328147813677,-0.9811512231826782,0.1931362897157669,0.0001987623035498,0.0313943595750299,-0.0218312918919593,-0.1110442876815795,0.2994422912597656,0.2194395065307617,102,60,15293,13756
16.0,1788527286178,5.239436626434326,4.901408672332764,0.0005118052940815,0.0060787191614508,-0.8734239935874939,0.4869222342967987,0.1666720450198565,0.0050543736411513,-3.892214416766184e-05,-0.000478154659504,-0.0042549208737909,-0.0677901357412338,0.0021449010819196,0.0053962590172886,-0.9815215468406676,0.191263273358345,0.0057925014120976,-0.0228422436486362,-0.0023881273011633,0.2784812450408935,0.3424052596092224,-1.236130714416504,95,56,15692,13543
16.1,1788527286278,5.098591327667236,5.154929637908936,0.0005965528544038,0.0056173279881477,-0.8738456964492798,0.4861704707145691,0.1774381556361317,0.0030505958714509,-2.0190929664859965e-05,0.0093242777511477,-0.0008904357091523,-0.0172889791429042,0.0031603351235389,0.0049872519448399,-0.9816159009933472,0.1907758265733719,0.0154360540603388,0.058225076855493,0.0040690717012719,0.0640738010406494,0.0194025635719299,-1.6224374771118164,104,70,14991,13700
16.2,1788527286378,4.957746505737305,4.985915660858154,0.0015209570992738,0.0058172494173049,-0.8740188479423523,0.485854834318161,0.172187681732521,0.0018357846955352,-5.452424126815123e-05,0.0020235544070601,0.0153522351756691,-0.0133637087419629,0.0030109556391835,0.0051839472725987,-0.9817349314689636,0.1901592314243316,-0.0265228660298327,-0.0032093047409758,-0.0077493752116138,0.3769949078559875,0.5374498963356018,0.1899881362915039,42,153,14096,15471
16.3,1788527286478,4.8450703620910645,5.352112770080566,0.0002801797818392,0.0063732089474797,-0.8743835091590881,0.4851935803890228,0.1730643020084369,0.0045829136607315,-2.80850293097091e-08,0.0,-2.84405365924556e-09,0.0,0.0017971014603972,0.004855147562921,-0.9815059900283812,0.1913617998361587,0.0344533867006707,-0.0466149785658149,0.091220835810067,-0.0220462679862976,0.3985556364059448,1.0322532653808594,50,88,14280,14272
16.4,1788527286578,5.126760482788086,5.014084339141846,0.0007709378842264,0.0058490615338087,-0.8731510043144226,0.48741415143013,0.1661785342046569,0.0065088065528966,-2.670188536994234e-05,-0.011248699389398,0.0203348826617002,0.0266490280628204,0.0022201891988515,0.0054906466975808,-0.9811801314353944,0.1930041015148162,-0.0041208666384125,-0.0199252056721002,0.0355891413321946,-0.0085339546203613,0.095086395740509,-0.3692502975463867,83,47,15106,13466
16.5,1788527286678,4.366197109222412,5.746479034423828,0.0006412710063159,0.0057482714764773,-0.8722550868988037,0.489017128944397,0.1699110434218167,0.0029327009522585,-1.933022373252681e-05,0.0053387810476124,0.0048758490011096,0.0281912293285131,0.0028267176821827,0.0056080631911754,-0.9806848168373108,0.1954941302537918,-0.0170797913338053,0.0321391049683575,0.1014678798353375,0.1857858300209045,0.4448739886283874,-0.5172433853149414,51,85,13855,15481
16.6,1788527286778,4.563380241394043,5.549295902252197,0.0009360497351735,0.0064409524202346,-0.8698557615280151,0.4932630658149719,0.1760020197041416,0.0027798273126878,7.844510592175072e-06,-0.0107567775994539,0.0108637809753417,0.1129945963621139,0.002345597371459,0.0059903915971517,-0.979316771030426,0.2022309303283691,-0.011115994485031,-0.0301253255987947,0.1498269512829811,0.0360788106918334,0.0831178426742553,0.8192682266235352,37,91,12738,15654
16.7,1788527286878,4.619718074798584,5.7183098793029785,0.0001564163248986,0.006420562043786,-0.8659836053848267,0.500031054019928,0.1781637873125052,0.0022679937463463,7.533323504339498e-05,-0.0028233139310032,-0.005956738255918,0.1725567579269409,0.0021955277770757,0.0062118470668792,-0.9782596826553344,0.2072792798280716,-0.014120260269707,0.0270845396557746,0.1732590599529011,-0.0295351147651672,-0.0224727392196655,0.1320123672485351,71,77,12675,15173
16.8,1788527286978,4.309859275817871,5.6619720458984375,6.73769973218441e-05,0.0068044033832848,-0.8618998527526855,0.5070329904556274,0.1756617833232467,0.0039791521257997,7.426450271461246e-05,-0.0065771550871431,-0.0099421488121151,0.175209492444992,0.0023350147530436,0.0065237386152148,-0.9755818843841552,0.2195266932249069,-0.003341541262382,-0.001554542238347,0.1845324471325503,0.1399500370025634,-0.012899100780487,-0.58355712890625,73,63,14075,15170
16.9,1788527287078,4.450704097747803,5.380281925201416,-4.170672036707401e-05,0.0071143074892461,-0.8567615747451782,0.5156636238098145,0.16783739063989,0.0075889062928781,4.563086722825579e-05,-0.0111655490472912,-0.0022156874183565,0.1599118560552597,0.0024046516045928,0.0087874233722686,-0.973975419998169,0.2264708131551742,-0.106055013301183,0.0440170040210582,0.1053214765578135,0.1204521059989929,0.507993757724762,-0.6874456405639648,69,140,13580,16635
17.0,1788527287178,4.478873252868652,5.802816867828369,-0.000371805159375,0.0074661010876297,-0.8526489734649658,0.5224306583404541,0.1671595959558217,0.0134397316759159,-1.6139632076119756e-05,0.054025799036026,-0.0377515293657779,0.2156711816787719,0.0012403950095176,0.0063464464619755,-0.9720473289489746,0.2346958369016647,0.100248373895362,-0.115286435205314,0.3104015915838785,0.2721959352493286,0.2865712642669678,-0.189096450805664,79,58,13556,15199
17.1,1788527287278,4.422535419464111,5.577464580535889,-0.0001080362126231,0.0062585859559476,-0.8470568060874939,0.5314653515815735,0.163651169942519,0.0058879717576682,-5.672862891667274e-05,0.0115682398900389,0.0107205566018819,0.1348074227571487,0.0030992375686764,0.006238660775125,-0.969739019870758,0.2440444976091385,0.0030572934278727,0.0883191779696432,0.1019401741262097,-0.3294596076011657,0.2654987573623657,0.4088993072509765,78,59,13139,15228
17.2,1788527287378,4.647887229919434,5.6619720458984375,-0.0022188695147633,0.0045879986137151,-0.8437179327011108,0.536762535572052,0.1663288739074472,0.000991719331634,0.000747365951846,0.0030382785480469,-0.113901674747467,0.1140775606036186,-0.0014518797397613,0.0048437472432851,-0.9680885672569276,0.2505575120449066,0.000178789624268,-0.0513209508347254,0.1457275288650063,0.1650568842887878,0.0082150697708129,-0.4502201080322265,63,72,13590,15438
17.3,1788527287478,4.535211086273193,5.521126747131348,-0.0035937004722654,0.0034484122879803,-0.8383542895317078,0.5451030731201172,0.169457124194083,0.0055550997281796,9.70792478275041e-05,0.0026295925490558,-0.0234269853681325,0.1365209221839904,-0.0025215595960617,0.0043595554307103,-0.9663068652153016,0.2573437392711639,0.0054012933232419,-0.0587628229686803,0.1424669330440579,0.1460183262825012,-0.2114597558975219,-0.6493120193481445,50,95,13478,15622
17.4,1788527287578,4.591549396514893,5.605633735656738,-0.0037878639996051,0.0032825940288603,-0.834460973739624,0.5510443449020386,0.1828472211357196,0.0001026298757073,1.5111122766652663e-05,0.0095259947702288,-0.0033426496665924,0.1415079832077026,-0.0022824695333838,0.0042527224868535,-0.9640669226646424,0.2656157612800598,0.0167648056551512,0.0207364321021594,0.1425970605272373,-0.3085284233093261,-0.1448585391044616,1.6924123764038086,57,61,13163,15259
17.5,1788527287678,4.929577350616455,5.267605781555176,-0.0029433518648147,0.0037589841522276,-0.8327775001525879,0.5535871982574463,0.1603722677920606,0.0002417339751448,-9.037916365938212e-05,0.0034362224396318,0.0454959869384765,0.1458818912506103,-0.0009210528805851,0.0041148662567138,-0.9629733562469482,0.2695637941360473,0.0451264949138005,0.0367594968119422,0.0313168476495823,-0.1052416563034057,-0.126505434513092,-0.7510242462158203,71,52,14435,14219
17.6,1788527287778,4.873239517211914,5.380281925201416,-0.0022677059751003,0.0052115186117589,-0.8319361209869385,0.5548423528671265,0.1701078861087845,-0.0043495189894677,-5.810602843551431e-05,-0.030581122264266,0.0485054776072502,-0.003896489040926,-0.0002941926941275,0.006774072535336,-0.9632543325424194,0.2685054540634155,-0.0235913579670246,-0.0323276593853308,0.0310644878526384,0.113442838191986,-0.2241684198379516,-0.8796730041503906,67,104,14300,14733
17.7,1788527287878,4.8450703620910645,5.154929637908936,-0.0018743544351309,0.0072472961619496,-0.8309022188186646,0.5563681125640869,0.1704792946704175,0.0004087849949472,3.525185268941305e-05,-0.0108073931187391,-0.0072055622003972,0.0114396503195166,0.0005772365257143,0.0076131764799356,-0.9624955654144288,0.2711900770664215,-0.0061070269379362,-0.0122341566723705,0.0214127598407074,-0.0141345262527465,0.1996945738792419,1.2025651931762695,61,98,14774,15024
17.8,1788527287978,4.704225540161133,5.352112770080566,-0.0003964256029576,0.0081308633089065,-0.8290203809738159,0.5591591596603394,0.1690486881499043,0.001314221722572,-0.0001344761181038,0.0093864575028419,0.0694131702184677,0.0791608840227127,0.0022517004981637,0.0078598242253065,-0.9616464972496032,0.2741702198982239,0.0211813597018457,0.0863558876234236,0.0759730399817036,0.0885050892829895,-0.0072549581527709,0.1132354736328125,65,67,15014,14230
17.9,1788527288078,5.126760482788086,5.042253494262695,0.0004045797977596,0.0084411744028329,-0.828495979309082,0.559931218624115,0.1747737914226862,-0.0003701368828196,-0.000205702048901,0.0092881638556718,0.0413503646850585,0.0467636361718177,0.0033696638420224,0.0078242113813757,-0.9611896872520448,0.2757570743560791,0.0111393611361605,0.035134387105549,0.0335650486376313,0.0900196433067321,-0.1849320530891418,-1.1291275024414062,73,69,14813,13922
18.0,1788527288178,4.619718074798584,5.633802890777588,0.000371424248442,0.0083780623972415,-0.8279300332069397,0.5607686042785645,0.1788129546699614,-9.074575111992427e-05,0.0001038028164552,-0.0036233593709766,-0.0190944075584411,0.0180259123444557,0.0024665240198373,0.007960264571011,-0.9602580666542052,0.2789894938468933,-0.0069561104081471,0.024172096158459,0.1552888835925082,-0.3563359379768371,-0.3487496376037597,1.2020635604858398,48,77,12669,15468
18.1,1788527288278,4.901408672332764,5.464788913726807,-0.0007239510305225,0.0089894104748964,-0.8249936699867249,0.5650699138641357,0.1752349302856658,-0.0035436936983576,-7.345418299143406e-05,-0.0381144993007183,0.0076299607753753,0.1477669328451156,0.0022265492007136,0.0099264793097972,-0.9586204290390016,0.2845055162906647,0.0298715149973552,-0.0476406299433296,0.1626479895396924,0.0089264512062072,-0.3218121528625488,0.1935377120971679,59,54,14179,14424
18.2,1788527288378,4.450704097747803,5.605633735656738,0.0003305114805698,0.0073823588900268,-0.8161306977272034,0.5778198838233948,0.1675239592017296,0.0043801733620795,-2.180662638680442e-06,0.0159327965229749,0.0070267948321998,0.1896305829286575,0.0024712849408388,0.0069660721346735,-0.955410897731781,0.29518723487854,0.0068507278782606,0.0028374924929663,0.1718568243635512,-0.0647118687629699,-0.2596856355667114,-1.292375564575195,60,72,14048,15252
18.3,1788527288478,4.619718074798584,5.633802890777588,0.0002879884559661,0.0070032700896263,-0.8145976662635803,0.5799840092658997,0.1719955492562693,-0.001463993594114,5.060739842473077e-05,0.0136401122435927,-0.0134619390591979,0.1326001286506652,0.0030238907784223,0.0060370126739144,-0.9539450407028198,0.2999053597450256,0.0133967695389576,0.0523303695239475,0.0276250678721189,-0.2586159706115722,-0.0773435235023498,-0.083475112915039,45,71,13506,15160
18.4,1788527288578,4.591549396514893,5.521126747131348,0.0011525964364409,0.0064091933891177,-0.8129822015762329,0.5822521448135376,0.1616346372201836,-0.0019186756364075,-0.0001276586487667,0.0202087312936782,0.0284502524882555,0.0634077712893486,0.0034369174391031,0.0052008731290698,-0.9522632956504822,0.305214375257492,0.0183803530625693,-0.0235321405095645,0.1565685860342303,0.0918037891387939,0.1464754939079284,0.4338703155517578,72,76,13606,15521
18.5,1788527288678,4.507042407989502,5.492957592010498,0.0017691706307232,0.0059897191822528,-0.8087935447692871,0.5880596041679382,0.1700433863336887,-0.000660703081404,-2.4062892196204293e-06,0.0052508264780044,0.0026314225979149,0.1460945904254913,0.0034952228888869,0.0048732878640294,-0.9502784609794616,0.3113435804843902,0.0130819413559813,-0.0388810620688033,0.162237474184496,-0.077166199684143,-0.2855706810951233,0.0795564651489257,36,74,13603,15701
18.6,1788527288778,4.676056385040283,5.6619720458984375,0.00111212907359,0.0050339819863438,-0.8017593622207642,0.5976247191429138,0.1731290415957336,-0.0005460967640637,9.84227555660004e-06,0.0053987982682883,-0.0233452655375003,0.1520586758852005,0.0025031762197613,0.0045109689235687,-0.9474439024925232,0.3198804855346679,-0.0040430907878076,-0.0403341765738905,0.1499077767992273,-0.1290048956871032,0.1993622183799743,-0.6178808212280273,60,86,13133,15184
18.7,1788527288878,4.704225540161133,5.211267471313477,0.0009270159061998,0.0053234910592436,-0.8003127574920654,0.5995583534240723,0.18027402960156,0.0005664277368314,-1.5879419549581483e-05,-0.018021011725068,0.000843109737616,0.1235046237707138,0.0019232900813221,0.0047391997650265,-0.9463871717453004,0.3229940533638,9.001292984877543e-05,-0.001326442062269,0.0265345461576919,0.1405674815177917,-0.2527350187301636,1.151531219482422,73,69,15449,14441
18.8,1788527288978,5.042253494262695,5.239436626434326,0.0002392050810158,0.0049624708481132,-0.7992443442344666,0.6009858250617981,0.1792692959420508,0.0027031990486965,8.675564936064584e-05,0.0043005244806408,-0.0164975114166736,0.0140337673947215,0.0018415264785289,0.0045820111408829,-0.9458467364311218,0.3245759308338165,-0.0193530882304577,-0.0071909525940444,0.0385399650715399,-0.1309462189674377,0.2601644992828369,-0.1055660247802734,73,53,14229,14438
18.9,1788527289078,4.704225540161133,5.295774459838867,0.0002897751983255,0.0049685528501868,-0.7980391383171082,0.6025850772857666,0.1633307123138655,0.0003704157434225,-3.112908791374657e-05,-0.0089259063825011,-0.0024387945886701,0.0307519733905792,0.0018411139026284,0.0049080401659011,-0.9455370903015136,0.3254722058773041,-0.0083584423614133,0.0143814594901369,0.0216843075815341,-0.0339057445526123,-0.2374418377876281,0.2435436248779297,52,84,14630,14631
19.0,1788527289178,4.8450703620910645,5.183098793029785,0.0010879964102059,0.0060539552941918,-0.7963287830352783,0.6048328280448914,0.1710198832605967,0.001361655014184,-6.205394864430727e-07,-0.0108997104689478,0.0263839792460203,0.0315227694809436,0.0029140375554561,0.0054168729111552,-0.9447734355926514,0.327666699886322,-0.0084176363322887,0.0456637713995773,0.0212286292300424,0.2648159861564636,-0.3144819736480713,-0.4628734588623047,61,102,14616,14887
19.1,1788527289278,4.901408672332764,5.154929637908936,0.0012380806729197,0.0063407006673514,-0.7958712577819824,0.605431318283081,0.1776840954995822,-0.0027282153676844,-0.0002570769268987,-0.0070501561276614,0.0144926719367504,0.0377008058130741,0.0008159605786204,0.0049296906217932,-0.9441534876823424,0.3294683694839477,0.0037603123893495,-0.0452858629978573,0.0483747985147568,0.2077916860580444,0.1713250875473022,0.2873945236206054,76,88,14146,14921
19.2,1788527289378,4.253520965576172,5.098591327667236,-0.0010852955747395,0.0043523334898054,-0.7942091822624207,0.607627809047699,0.171362961987686,0.0016536276808305,6.312817474422233e-05,0.0108813047409057,-0.0222971066832542,0.0644909814000129,0.0002208743244409,0.0042380196973681,-0.9430348873138428,0.3326670527458191,0.0026628416404949,0.0480427032946582,0.0433927027690619,-0.4828231334686279,-0.2207080721855163,0.5966682434082031,8,55,9724,13453
19.3,1788527289478,1.887323975563049,4.591549396514893,-0.0013567323330789,0.0051470790058374,-0.7930659055709839,0.609112560749054,0.1575946324439589,-0.0007087606030808,-0.0001164118743222,-0.0375514328479766,0.0417153239250183,0.0213012844324111,0.0001147659495472,0.0047080293297767,-0.940203845500946,0.3405798375606537,0.0795595999153416,-0.0873438271924004,0.4230895024290881,-0.6259491443634033,0.3622459769248962,-1.305781364440918,126,45,0,12092
19.4,1788527289578,0.0,3.633802890777588,-0.0017847489798441,0.0011820944491773,-0.7678025364875793,0.640683114528656,0.0588329314752348,0.0030921329622167,4.705267444899061e-06,-0.0098109422251582,0.0038569353055208,0.5761479139328003,-0.0016715079545974,0.0014835158362984,-0.9298858642578124,0.3678415715694427,-0.011734347657991,-0.025690577196753,0.5216163022507491,-0.6930307745933533,-0.4659155011177063,-0.8070049285888672,357,38,-10040,10417
19.5,1788527289678,-3.2957746982574463,3.126760482788086,-0.0015777022344991,0.0014544202713295,-0.7585326433181763,0.6516314744949341,0.0248919206626967,-0.0084876493356661,-1.0940349468478797e-05,-0.0033932549413293,0.0151993371546268,0.7173635959625244,-0.001520668156445,0.0018250774592161,-0.9105530381202698,0.4133853614330292,0.0080986053501292,-0.0305770414470433,1.021823168103349,-0.2577329874038696,-0.5364482998847961,0.3355731964111328,194,98,-13424,9778
19.6,1788527289778,-3.2957746982574463,3.239436626434326,-0.0020956278312951,0.001048651873134,-0.726474940776825,0.6871889233589172,-0.0014578149516857,-0.0042552843907805,-1.3759146453812109e-06,0.0084947310388088,-0.0200264807790517,1.0605840682983398,-0.0015316382050514,0.0019145170226693,-0.8900923728942871,0.4557736217975616,0.0036625047409722,-0.0029865409431135,0.980852107833164,0.2820770740509033,-0.8617876768112183,0.9327754974365234,75,52,-10870,9581
19.7,1788527289878,-3.436619758605957,3.323943614959717,-0.0021270061843097,0.0015905153704807,-0.6869379281997681,0.7267112731933594,-0.0024975636866809,-0.0168227156906426,-5.008261058477429e-07,-0.0083620138466358,0.0023653747048228,0.9838165044784546,-0.0014668749645352,0.0029022134840488,-0.866746723651886,0.498738020658493,-0.0155552875277274,0.0177994192796298,0.9894261465858236,0.1683053970336914,-0.7970220446586609,0.2121906280517578,69,48,-9744,9834
19.8,1788527289978,-3.4647886753082275,3.323943614959717,-0.0021700407378375,0.0021243777591735,-0.6503633856773376,0.7596172094345093,0.009972893690505,-0.0109567291765412,-5.031949051757129e-07,0.0080619780346751,-0.0046662110835313,1.0134516954421997,-0.0010951235890388,0.0028827553614974,-0.843566358089447,0.5370160341262817,0.0009845889401579,0.0161195276832862,0.907759131266239,0.0089904069900512,-0.746370792388916,-0.2141275405883789,73,70,-9688,9377
19.9,1788527290078,-3.3521127700805664,3.239436626434326,-0.0018609506078064,0.0024216794408857,-0.6162828207015991,0.7875189781188965,0.0045309864071692,-0.0140406867221464,1.4015030369438952e-06,-0.0004026054230052,-0.0066424054093658,0.975717544555664,-0.0002846904098987,0.0033137220889329,-0.8103589415550232,0.5859243273735046,0.0054621527008525,0.0371773551616101,1.0878553487078853,-0.217717170715332,-0.1499479413032531,-0.1861801147460937,31,64,-9941,9797
20.0,1788527290178,-3.2957746982574463,3.323943614959717,-0.0015371652552857,0.0032226238399744,-0.5764575600624084,0.817119300365448,-0.0010763670315002,-0.0074315776844925,2.469440379461216e-07,-0.010954326018691,0.0109486477449536,0.9846938848495485,0.0005776155740022,0.0046065459027886,-0.7835209369659424,0.6213480234146118,-0.0003795227403064,0.0424748326879289,0.9133358001121452,-0.198521077632904,-1.315189242362976,1.869449615478516,48,97,-9776,9500
20.1,1788527290278,-3.183098554611206,3.3521127700805664,-0.002199918963015,0.0021071250084787,-0.5365297198295593,0.8438758850097656,0.0061989095105584,0.002635012225415,-4.129962893398241e-06,0.0068459906615316,-0.1314262598752975,0.916325569152832,-0.001410155557096,0.0024975696578621,-0.7527421116828918,0.658309280872345,0.0089609124861972,-0.0439554186060549,1.0012611248926762,-0.3399801850318908,-0.0917784571647644,-1.167119026184082,39,69,-10548,9570
20.2,1788527290378,-3.4647886753082275,3.2676055431365967,-0.0024921793956309,0.002122652484104,-0.4682223498821258,0.8836045861244202,0.0036016128301039,-0.0104501753587415,1.4481927314706678e-06,-0.0010997644858434,0.0080183679237961,1.0031410455703735,-0.0018397932872176,0.0026697749271988,-0.723013162612915,0.6908267140388489,0.0018554039086617,-0.0008011220704272,0.9982653125357202,-0.1692774891853332,-0.3370169401168823,-0.1961174011230468,64,92,-9474,10022
20.3,1788527290478,-3.323943614959717,3.239436626434326,-0.0029259652364999,0.0018092130776494,-0.4504250288009643,0.8928076028823853,-0.001061249106595,-0.0059101276040927,-2.021315899205261e-06,-0.0125713432207703,-0.0272029750049114,1.0018527507781982,-0.0026065902784466,0.0025171842426061,-0.679855227470398,0.73333740234375,0.0001846200543017,0.0005887514717706,1.0577357517395638,-0.1861466765403747,0.5518462061882019,-0.012063980102539,73,80,-9728,9911
20.4,1788527290578,-3.1549296379089355,3.239436626434326,-0.003379306057468,0.0016978483181446,-0.4044488072395324,0.9145528078079224,0.0013836477277915,-0.0100457280852285,3.096694543024259e-07,-0.0060936454683542,-0.0006169824628159,0.968866229057312,-0.0027142949402332,0.0029314076527953,-0.6469337344169617,0.7625356912612915,-0.0059275090699679,0.0196760561181717,0.9325481745768788,-0.1997747421264648,0.4748271703720093,-0.6144428253173828,56,79,-10647,9909
20.5,1788527290678,-3.549295663833618,3.2957746982574463,-0.003938001114875,0.0023008999414741,-0.3542860746383667,0.9351258873939514,0.0042028300422991,0.0027972943184043,-2.3065824225601624e-06,-0.0210388805717229,0.0051853102631866,0.9907307624816896,-0.0029402524232864,0.0038186470046639,-0.6119107007980347,0.7909121513366699,-0.0081916149734672,0.0188403754431966,1.0457651255151026,-0.2169085144996643,0.0894941091537475,0.180185317993164,55,69,-8977,9711
20.6,1788527290778,-3.0985915660858154,2.929577350616455,-0.0044402317143976,0.0029748193919658,-0.3080219626426697,0.9513642191886902,0.0009869678925521,0.0099363236108627,-3.1282194455695624e-06,-0.0193702541291713,-0.0014544508885592,0.9634082317352296,-0.0037212017923593,0.0039138663560152,-0.5653632879257202,0.8248242735862732,-0.0048173679842813,-0.0306064558026423,0.8887579304303154,0.0210412144660949,0.6764194965362549,-0.5829677581787109,47,60,-8257,8529
20.7,1788527290878,-2.901408433914185,2.985915422439575,-0.0050435774028301,0.0030130404047667,-0.2681428790092468,0.9633613228797911,-0.0005668552318087,0.0006796150018939,-3.789961387980278e-07,-0.0212462581694126,0.0100085455924272,0.8399366140365601,-0.0039646131917834,0.0043340986594557,-0.5335158705711365,0.8457697033882141,0.0028533342383951,0.0012482467967312,0.8556437320057564,-0.2809348702430725,0.4570735692977905,0.2560920715332031,90,40,-9094,8672
20.8,1788527290978,-2.619718313217163,2.563380241394043,-0.0054082437418401,0.0023235357366502,-0.2264030277729034,0.9740159511566162,0.0082121765848126,0.0029285922518449,4.113676286445553e-06,-0.0061200261116027,-0.0306738447397947,0.8528499603271484,-0.0046471711248159,0.0040794862434268,-0.5012640357017517,0.8652723431587219,-0.0135333033913897,0.0233083039974927,0.8467879755507165,-0.0210738778114318,-0.4823191165924072,0.0983715057373046,38,84,-7869,7876
20.9,1788527291078,-2.5915493965148926,2.563380241394043,-0.0059532830491662,0.0023256419226527,-0.184741735458374,0.982766330242157,-0.0024708895495872,-0.0031404979125609,-2.028114632398197e-06,-0.008764125406742,-0.0098920995369553,0.7626816630363464,-0.0052127707749605,0.0041143149137496,-0.467701643705368,0.8838615417480469,-0.0154480008947728,-0.0117020449506693,0.7842693095442107,0.0201760530471801,-0.6815603375434875,0.1008491516113281,70,61,-7960,8127
21.0,1788527291178,-2.366197109222412,2.507042169570923,-0.006098651792854,0.0022752673830837,-0.1480205357074737,0.9889628887176514,0.0035907287710495,-0.0103392635924158,-1.259957080255177e-08,0.0030234060250222,-0.0003897088172379,0.7454478740692139,-0.0052308561280369,0.0039685610681772,-0.4374428987503052,0.8992222547531128,-0.0070589701276074,-0.0144338780887173,0.7791235003050242,-0.4439888000488281,-0.020962119102478,-0.1002140045166015,77,104,-8772,8415
21.1,1788527291278,-2.05633807182312,2.2253520488739014,-0.0064393999055027,0.0018962628673762,-0.1125018075108528,0.9936287999153136,0.0020767288040708,-0.0075779329213685,1.667876135517498e-06,-0.006390469148755,-0.0048211929388344,0.7740830183029175,-0.0056633260101079,0.0037383763119578,-0.3979441523551941,0.9173845052719116,-0.0051857747175918,-0.0102652798559261,0.6258738975365985,0.0832810401916503,-0.1817212104797363,-0.3137245178222656,40,54,-7676,6956
21.2,1788527291378,-2.281690120697021,2.169013977050781,-0.0066075744107365,0.0017059898236766,-0.0811284556984901,0.9966803193092346,0.0052111238463126,-0.0028953151878904,1.128635074775781e-06,-0.0035780845209956,-0.0088415471836924,0.5910035371780396,-0.0058445651084184,0.0036430843174457,-0.378501147031784,0.9255752563476562,-0.0055848988015319,-0.0070537932393275,0.5970520552180267,-0.2544415593147278,0.2639350891113281,-0.0521192550659179,75,91,-7198,7490
21.3,1788527291478,-1.7464789152145386,1.4647886753082275,-0.00727348215878,0.0017427732236683,-0.0485673137009143,0.9987919330596924,0.0026770924963462,-0.0056106314087386,1.903674902760448e-06,-0.0206116419285535,0.0038860097993165,0.6876322627067566,-0.0067115500569343,0.0047422591596841,-0.3414210975170135,0.9398745894432068,-0.0193964257773418,0.0222428193934508,0.4906480953662397,0.7136138081550598,-0.0819513797760009,-0.0522966384887695,30,169,-6675,8370
21.4,1788527291578,-1.8591549396514893,2.08450698852539,-0.0083357393741607,0.0032170934136956,-0.0215526297688484,0.9997277855873108,0.0132497830270723,-0.0074931705582578,-6.2246109490965815e-06,-0.0219260659068822,0.0272162556648254,0.4573608338832855,-0.0065692104399204,0.0059119164943695,-0.3167131841182709,0.948480188846588,0.0167629764200372,0.0056281469399355,0.652709332933513,-0.3804636001586914,0.0415166616439819,0.2474603652954101,95,83,-7520,6616
21.5,1788527291678,-1.9154930114746092,2.197183132171631,-0.0070877098478376,0.0028656420763581,0.0092131551355123,0.99992835521698,0.0145015118003894,-0.0019302526885468,8.504346428579706e-06,0.0428740084171295,-0.0380921550095081,0.7198418378829956,-0.0049548763781785,0.0037030009552836,-0.2862685620784759,0.9581294655799866,0.0385883754727983,-0.0266927292824782,0.6229749655778546,-0.1246417164802551,-0.3888689875602722,0.6443815231323242,44,24,-6412,4064
21.6,1788527291778,-1.6338027715682983,1.3239436149597168,-0.0051511260680854,0.0014776720199733,0.0438273809850215,0.9990247488021852,0.007488456106898,-0.0020354564677055,1.2930185470840506e-06,0.018015457317233,-0.0176086705178022,0.5309170484542847,-0.0044217277318239,0.0030069286003708,-0.258426308631897,0.9660162329673768,-0.0016314047179654,-0.0006191903492339,0.42825050417341,-0.0413079857826232,-0.1507348418235778,-0.0827245712280273,54,55,-5213,5183
21.7,1788527291878,-1.5774648189544678,1.4647886753082275,-0.005035744048655,0.0015048607019707,0.0632692873477935,0.9979825615882874,0.0005534863439109,0.0006209918125307,2.920779593310781e-07,0.0035706076305359,-0.0003402389411348,0.4209223687648773,-0.0042148828506469,0.0026691099628806,-0.2374868392944336,0.9713779091835022,0.00679057975218,-0.020738573321235,0.4347820599017051,0.0910232067108154,0.0144086480140686,0.0593223571777343,101,59,-5756,5183
21.8,1788527291978,-1.4929577112197876,1.5211267471313477,-0.0046766120940446,0.0011859181104227,0.0846723839640617,0.9963971972465516,-0.0010230975482463,-0.0056096799619086,-1.3860715239459902e-06,0.0070491814985871,-0.0062383343465626,0.4370396435260772,-0.0040773088112473,0.0025792755186557,-0.2288665324449539,0.9734458923339844,0.0070230335621669,-0.0049068418051763,0.4452771287768775,-0.0421509742736816,0.0667963624000549,0.0570993423461914,71,84,-6516,5174
21.9,1788527292078,-1.4929577112197876,1.5211267471313477,-0.0042933369986712,0.000685230595991,0.1072171106934547,0.994226098060608,0.0016836283921896,-0.0026336122745184,1.0866749046713345e-07,0.0075435922481119,-0.0128077827394008,0.5144781470298767,-0.0037412084639072,0.0021055173128843,-0.1964134126901626,0.9805117845535278,0.0035649491188251,0.0066850672353316,0.4537877790852986,0.2559154629707336,-0.2719757556915283,0.1588525772094726,71,84,-6516,5174
22.0,1788527292178,-0.9295774698257446,1.0704225301742554,-0.0041444138623774,0.0009022447629831,0.124432697892189,0.9922189712524414,0.0030166125327755,-0.0056346349685405,-3.223474594872431e-07,0.0025327797047793,0.0007987425196915,0.2541133165359497,-0.0036186119541525,0.0021013701334595,-0.1834120452404022,0.9830272197723388,0.0016596144103921,-0.0086778689009781,0.2627750117314306,0.0340726971626281,0.1811904907226562,-0.0494155883789062,96,49,-6166,4690
22.1,1788527292278,-1.2676056623458862,1.2394366264343262,-0.0041862381622195,0.0009755649371072,0.1401294618844986,0.9901238679885864,-0.0036778681203234,-0.0013218617773642,-1.2196257789543465e-07,-0.0030205415096133,0.0019953318405896,0.3424453735351562,-0.0039376681670546,0.0024202605709433,-0.1648088693618774,0.9863147139549256,-0.0132344837130679,0.0022438848543151,0.3878514407181223,-0.1028419137001037,-0.2214207053184509,-0.0836219787597656,62,21,-4668,4581
22.2,1788527292378,-1.042253494262695,1.183098554611206,-0.0046930774115026,0.0011074458016082,0.1593569666147232,0.9872092008590698,0.0037520030921757,-0.0006581651435059,-1.7924974523312294e-07,-0.0078283911570906,0.0008456750074401,0.3653359115123749,-0.0042898645624518,0.0025151893496513,-0.1471777260303497,0.9890975952148438,-0.0076850089943121,-0.0020479650468201,0.3455580985613495,-0.0148892998695373,-0.0396180748939514,0.0151853561401367,36,131,-5267,4972
22.3,1788527292478,-0.9014084339141846,0.7887324094772339,-0.0049215485341846,0.0011877780780196,0.1752252727746963,0.9845153093338012,0.0030330210810216,-0.002572385914988,-3.574362233942196e-07,-0.0025153351016342,0.0045098601840436,0.3688215613365173,-0.0043864892795681,0.0027883313596248,-0.1293773800134658,0.9915818572044371,-0.0049827339107712,0.0015133927819361,0.3509663780441097,-0.0591568946838378,-0.1570407748222351,0.1254444122314453,69,83,-3406,3708
22.4,1788527292578,0.0,0.0,-0.0050921565853059,0.0011349469423294,0.1910171061754226,0.9815728068351746,0.0018717334357269,-0.0029627179990354,-8.46178272398931e-08,-0.0045357793569564,-0.0070342598482966,0.2961152493953705,-0.0046006105840206,0.0026375474408268,-0.1177477687597274,0.9930293560028076,-0.0062749483484565,-0.0021331967239189,0.2288477623691749,-0.055756390094757,-0.0185972452163696,0.0653886795043945,2,0,0,0
22.5,1788527292678,0.0845070406794548,0.0,-0.0052689872682094,0.0011110185878351,0.2000477761030197,0.9797712564468384,0.0070568694741189,-0.0018071984320144,5.488628832255594e-07,-0.0021701029036194,0.0003268461732659,0.1107882410287857,-0.0046938071027398,0.0028126426041126,-0.1142796725034713,0.9934335947036744,-0.0034006624369813,0.0075202628177777,0.0270015519794176,-0.3220251202583313,-0.2289252877235412,0.1287775039672851,26,147,1806,6668
22.6,1788527292778,1.2394366264343262,3.211267709732056,-0.0052981912158429,0.0010265129385516,0.2015886306762695,0.9794554114341736,0.0085011558685835,0.0021466256991332,1.8050616724334996e-06,-0.0015317689394578,-0.0067391106858849,0.0823697969317436,-0.0047245370224118,0.0027372231706976,-0.1086886897683143,0.9940609335899352,-0.0018011936988637,0.0096021858831226,0.2910185253690751,0.8888424634933472,0.3367323279380798,-0.0809650421142578,91,226,6869,12878
22.7,1788527292878,1.887323975563049,5.77464771270752,-0.0051728063262999,0.0011746226809918,0.2160855084657669,0.9763600826263428,0.0994669711157509,0.0028437632184541,-3.39523849503094e-05,0.0037060405593365,0.0074226846918463,0.3375386297702789,-0.0046486649662256,0.0025795521214604,-0.0897102281451225,0.9959536790847778,-0.0071077067926135,-0.0078783666031294,0.4662151594021072,0.323927104473114,0.3382507562637329,-0.4094133377075195,84,220,7388,19070
22.8,1788527292978,2.6478872299194336,7.605633735656738,-0.0052713053300976,0.0010571812745183,0.2432682514190673,0.9699440598487854,0.1490926061580047,0.0018447188193478,-3.902268853994205e-07,-0.0015589876566082,0.0013925270177423,0.6445503830909729,-0.0046787578612565,0.0026628151535987,-0.0678153708577156,0.9976833462715148,-0.00064207615132,0.0016618829567917,0.6711861553972548,0.4948121905326843,0.1011315584182739,-0.4406194686889648,132,84,11424,20945
22.9,1788527293078,2.7042253017425537,7.802816867828369,-0.0049384185113012,0.000605986919254,0.2777884602546692,0.9606293439865112,0.1828427352137752,0.0004499226448267,5.796192590436347e-05,-0.0083396546542644,-0.0093194460496306,0.7364919781684875,-0.0045062424615025,0.0021092584356665,-0.0341825634241104,0.9994032382965088,-0.0267983143636829,-0.004746213695851,0.7330970494060421,0.1541017889976501,0.0613083243370056,-0.8991489410400391,34,61,7965,20882
23.0,1788527293178,3.2676055431365967,7.042253494262695,-0.005346227902919,-0.0004371044924482,0.3165745139122009,0.948552429676056,0.1707969746177803,0.0008896445802815,8.162166632120666e-07,-0.0225683860480785,-0.0152092389762401,0.7340959310531616,-0.0053189331665635,0.0008704997599124,0.0247049126774072,0.9996803402900696,-0.0016460170865229,-0.015890034080391,0.6250949859852705,0.1596696376800537,-0.0893862247467041,1.0703058242797852,62,69,9682,18389
23.1,1788527293278,2.760563373565674,7.380281925201416,-0.0052347076125442,-0.001099661225453,0.3433489203453064,0.9391927123069764,0.1717462938961201,-0.003046485579864,-3.1511922734125494e-05,0.0012016741093248,-0.0057592033408582,0.5898730158805847,-0.0051661534234881,0.0010527754202485,0.0533241145312786,0.9985634088516236,0.003641577359879,0.0038580914980421,0.5944157722177261,0.3185223340988159,0.0301170945167541,-0.1080226898193359,24,104,9184,19675
23.2,1788527293378,3.380281686782837,6.704225540161133,-0.005666172131896,0.000146743375808,0.3712228536605835,0.9285265207290648,0.1746675888298255,-0.0029807625168703,-0.0002034790082598,-0.0067919134162366,0.0492820031940937,0.6576464772224426,-0.0054498463869094,0.0025915969163179,0.082020379602909,0.9966124296188354,-0.0016583803867011,0.0046687121372113,0.6665235560828808,0.4850479960441589,-0.3165181279182434,-1.057908058166504,109,41,11728,17479
23.3,1788527293478,3.8309860229492183,6.197183132171631,-0.0067842360585927,0.0022302151191979,0.3980284333229065,0.9173452854156494,0.1739021714409151,-0.001635770887183,-0.0001567118558221,-0.0085843270644545,0.0626677349209785,0.5260594487190247,-0.006159390322864,0.0048132836818695,0.0969586744904518,0.9952576756477356,-0.0357060334381694,0.071191699091629,0.4652732449964246,-0.5055021643638611,0.0444347262382507,-1.5927457809448242,53,61,11313,17526
23.4,1788527293578,3.633802890777588,6.3380279541015625,-0.0068131685256958,0.0027072590310126,0.4160847961902618,0.9092962741851808,0.1706300184119578,0.0081062608190438,0.0004023871187446,0.078369028866291,-0.1709799915552139,0.3762393891811371,-0.0051912637427449,0.0048436736688017,0.1236344128847122,0.9923024773597716,-0.0091935600265093,-0.0182778858267499,0.3571122014538554,-0.1665050387382507,0.0304868817329406,1.1087398529052734,104,59,12998,16785
23.5,1788527293678,3.88732385635376,6.2253522872924805,-0.0066765057854354,0.00289042503573,0.4303957819938659,0.902610957622528,0.1911996619296313,0.0099407964350265,9.30853365545312e-05,-0.0153956599533557,-0.0035863285884261,0.3122844398021698,-0.0054141888394951,0.0046533485874533,0.1414108425378799,0.9899253249168396,-0.0050178969057428,0.0079000468018735,0.4218740569505326,-0.1455650925636291,0.4190916419029236,-0.8533935546875,25,84,9566,18097
23.6,1788527293778,2.901408433914185,7.352112770080566,-0.007136377505958,0.0025486701633781,0.4476918280124664,0.8941558599472046,0.169105390094805,0.0059213609766099,4.588279753241785e-06,-0.0286173596978187,0.0061910385265946,0.3883286714553833,-0.0061852391809225,0.0049473522230982,0.1557008326053619,0.987772524356842,-0.0068538518077832,0.0159245860429411,0.4605784622860332,-0.5423017740249634,0.4529958367347717,0.6910800933837891,5,131,7453,20830
23.7,1788527293878,3.1549296379089355,7.070422649383545,-0.0075233629904687,0.0026677674613893,0.4739151000976562,0.8805344104766846,0.1781749746459461,0.0025178363988312,6.813562058315217e-05,-0.0028728381730616,-0.0213249549269676,0.7196868658065796,-0.0055422848090529,0.0039796093478798,0.1998763084411621,0.9797974824905396,0.021059564207426,-0.0570295025053043,0.705629816289555,0.0299137234687805,0.2439923882484436,-0.1531229019165039,96,62,9663,18570
23.8,1788527293978,3.4084506034851074,6.985915660858154,-0.0059626861475408,0.0021429322659969,0.5067301988601685,0.8620813488960266,0.1701802628950898,-0.001518959902458,0.0001209878162173,0.0193948727101087,-0.01659881696105,0.6332260370254517,-0.0049997987225651,0.0039405925199389,0.2152193933725357,0.976544976234436,0.0004154965489444,0.0318676442695955,0.5930810791657144,0.1588772535324096,0.0749881863594055,0.2379884719848632,121,55,10107,18709
23.9,1788527294078,3.4647886753082275,6.3380279541015625,-0.0040663043037056,0.0020672534592449,0.5281949639320374,0.8491108417510986,0.1580357570448022,-0.0010310643568427,-2.0445791797359485e-05,-0.0237272791564464,0.0448853224515914,0.5297099351882935,-0.0040801707655191,0.0037269098684191,0.2503543198108673,0.9681385159492492,-0.0356689852674969,0.0514025988862106,0.4933694887027225,0.1867299079895019,0.4039888381958008,0.9301891326904296,91,129,11617,18857
24.0,1788527294178,3.802816867828369,6.309859275817871,-0.0050039626657962,0.0023884039837867,0.5515807867050171,0.8341031074523926,0.173730065202913,0.0009512823206947,3.895607524533845e-05,-0.0004845877410843,0.0037903939373791,0.4640430510044098,-0.0041049811989068,0.0040869135409593,0.2639467716217041,0.9645197987556458,0.0058528579944184,0.0640929075362838,0.4460897744734575,0.1711557507514953,-0.195363163948059,-0.2883186340332031,96,62,13213,17053
24.1,1788527294278,3.859154939651489,6.2253522872924805,-0.0050361463800072,0.002904153894633,0.5654265284538269,0.824778139591217,0.1772168189985385,0.0004535188262495,0.0001066838582726,0.0036692628636956,-0.0133902300149202,0.3745724558830261,-0.0040187928825616,0.0042653400450944,0.2868739068508148,0.957950472831726,-0.0093402849381333,-0.0036452843799115,0.3279713784336427,-0.0973140597343444,-0.1374088525772094,-0.0451993942260742,101,62,12132,17126
24.2,1788527294378,3.6619718074798575,6.197183132171631,-0.0046826265752315,0.0022889589890837,0.5786716938018799,0.8155438899993896,0.1703788857532144,0.002656716551218,0.0001084079957399,-0.0030620784964412,-0.0437579713761806,0.3165615797042846,-0.0039912406355142,0.0043097315356135,0.3023008406162262,0.9531944394111632,-0.0061793623549518,0.0370282033589688,0.3384892637329078,0.1555582880973816,0.0005051493644714,-0.3354854583740234,59,107,12439,17625
24.3,1788527294478,4.2816901206970215,6.084506988525391,-0.0068729212507605,0.0020110753830522,0.5904343724250793,0.8070538640022278,0.1789482693598909,-0.0019876170806593,-2.9465859182150983e-06,-0.0932684689760208,-0.0288959220051765,0.2925474941730499,-0.0067795207723975,0.0044591100886464,0.3143033683300018,0.9492879509925842,-0.0335062466127922,0.0447142252667056,0.2220016229164529,0.3821328282356262,-0.4555395841598511,0.056131362915039,47,80,12631,16439
24.4,1788527294578,4.619718074798584,5.633802890777588,-0.004989500157535,-0.0001872170250862,0.6014489531517029,0.7988955974578857,0.18999420456355,-0.0039967405572419,0.0004018970476803,0.0155556891113519,-0.0834113508462905,0.3133531212806701,-0.0058599673211574,-0.0010622479021549,0.3279671370983124,0.9446704387664796,-0.0384367928766856,-0.0314017766684487,0.0605070824028385,-0.2633646130561828,-0.4697437882423401,-1.1674747467041016,40,28,13119,14443
24.5,1788527294678,4.309859275817871,5.436619758605957,-0.0049496763385832,-0.0024198449682444,0.6073514223098755,0.7944141030311584,0.1665832394959778,-0.0013771195906632,-4.356333927835523e-05,0.0103282099589705,-0.0022146473638713,0.1132819131016731,-0.0051951762288808,-0.0013430826365947,0.3343179523944855,0.9424450993537904,-0.0024110980328458,-0.026260585046725,0.1714358614990337,0.2270258069038391,0.0443552136421203,0.0748310089111328,67,58,14103,15275
24.6,1788527294778,4.647887229919434,5.549295902252197,-0.0045203324407339,-0.0028951608110219,0.6138333082199097,0.7894173860549927,0.1777591235614624,0.0018078137135375,-1.172974976794798e-05,0.0007007647072896,0.000222304923227,0.1552276015281677,-0.0050201164558529,-0.0019217450171709,0.3400911390781402,0.940377116203308,-0.0035541443232712,-0.0514763844268083,0.1317188645005876,-0.1123645305633544,0.4227467775344848,1.5088996887207031,112,21,15640,13378
24.7,1788527294878,5.492957592010498,4.788732528686523,-0.0045015611685812,-0.0033741120714694,0.6168013215065002,0.78709876537323,0.1812490981455064,0.0016815131984448,-5.161277517038277e-06,-0.0070677520707249,0.0094176353886723,0.0283038131892681,-0.0056610079482197,-0.0014896402135491,0.3408834040164947,0.9400874376296996,-0.0084253818258165,0.0212126405309797,-0.0506452886511006,0.1633274555206298,0.1369453072547912,-0.4996328353881836,107,38,17126,11428
24.8,1788527294978,5.7183098793029785,4.535211086273193,-0.0049506123177707,-0.0030010675545781,0.6133257746696472,0.7898088693618774,0.167006997071137,-0.0035491181910517,4.1798164182237965e-06,0.0038420266937464,0.0080919368192553,-0.151417076587677,-0.0056587914004921,-0.0013513909652829,0.338110864162445,0.9410882592201232,0.0022246484633042,0.0064794854136356,-0.1302927011524405,0.0169769525527954,-0.2717450261116028,0.013890266418457,103,59,15994,12618
24.9,1788527295078,5.605633735656738,4.535211086273193,-0.0051760580390691,-0.0022384475450962,0.6059474945068359,0.795484721660614,0.1730576267436008,0.0021186734134671,-5.29919580499013e-05,-0.000968009873759,0.0323143079876899,-0.1874872148036956,-0.0057810870930552,-3.6699697375297546e-05,0.3253766596317291,0.9455668330192566,-0.000695226423113,0.0277751278912189,-0.2079680623377315,-0.1047403812408447,-0.1284476518630981,-0.0110712051391601,58,62,15979,12708
25.0,1788527295178,5.690140724182129,4.478873252868652,-0.0054982583969831,-0.0016400276217609,0.5973159074783325,0.801985502243042,0.1681342467240027,0.0008169063883033,3.204795515796672e-05,0.003257393836975,-0.0008291097474284,-0.1994042545557022,-0.0057964567095041,0.0008081635460257,0.313101053237915,0.9497017860412598,0.0024929087508771,0.0274709102954438,-0.2627709065857298,-0.1388985514640808,-0.1326475739479065,-0.2987279891967773,58,83,15746,13220
25.1,1788527295278,5.605633735656738,4.563380241394043,-0.0055057969875633,-0.0013936130562797,0.5886063575744629,0.8083998560905457,0.1643543902499171,-0.0038950418313913,6.73095618742621e-05,-0.0019079749472439,-0.0115166511386632,-0.1913978010416031,-0.005800106562674,0.0004359530285,0.3075822591781616,0.9515036940574646,-0.0146248675806294,0.0226763190121131,-0.1807144012363469,-0.0997980833053588,0.1640655994415283,0.0197467803955078,61,84,15893,13108
25.2,1788527295378,5.521126747131348,4.478873252868652,-0.0059497989714145,-0.0010163194965571,0.5823670625686646,0.8129035234451294,0.179380657113178,0.0017689104498794,-8.95969110056049e-05,-0.0089926281943917,0.0162911918014287,-0.1645376235246658,-0.0063590100035071,0.0011157300323247,0.2976162135601043,0.9546638131141664,-0.0171315590193285,0.030091442813927,-0.1614969218202094,0.016160249710083,0.1306378841400146,-0.3677577972412109,69,100,15941,13540
25.3,1788527295478,5.690140724182129,4.619718074798584,-0.0057758437469601,-0.0020259818993508,0.5752292275428772,0.8179693222045898,0.175131403865784,-0.001627878551854,0.0001811615324728,0.0001327556528849,-0.0683307647705078,-0.1417694985866546,-0.0064724665135145,0.0010298145934939,0.2906371355056762,0.9568109512329102,-5.1353978261906914e-05,0.0802969398731747,-0.1405182577459621,-0.1189159750938415,-0.2920233011245727,0.9037408828735352,116,107,16557,13176
25.4,1788527295578,5.6619720458984375,4.619718074798584,-0.0066159437410533,-0.0008123444858938,0.5690154433250427,0.8222998380661011,0.178574222503285,0.0018689782758873,-0.0001648787537492,0.0015434889355674,0.0235522054135799,-0.1624080538749694,-0.0063220225274562,0.0008196709677577,0.282437115907669,0.959264636039734,0.0030701814912729,-0.0226666471500549,-0.1518299970447392,-0.0878307819366455,0.2376735210418701,-0.7645587921142578,68,68,15944,12699
25.5,1788527295678,5.521126747131348,4.563380241394043,-0.0065591786988079,-0.0005806917324662,0.5633302330970764,0.8262054920196533,0.1635278798277109,-0.0072783064387932,-9.847665676257424e-05,0.0021681943908333,0.0256788209080696,-0.1472565829753875,-0.0064067309722304,0.0017072185873985,0.2741396725177765,0.961667001247406,-0.0077322851189037,0.0372534193162338,-0.1510370595562656,0.2337319254875183,-0.1892476677894592,-0.4693145751953125,68,79,16162,13198
25.6,1788527295778,5.605633735656738,4.732394218444824,-0.0079016285017132,-0.0001080723013728,0.556911826133728,0.830534040927887,0.1682719224627686,-0.0030276337674709,-0.0002186021488226,-0.0383773706853389,0.0707684010267257,-0.1746555566787719,-0.0078713195398449,0.002307528629899,0.2664134502410888,0.9638239145278932,0.0385426249577621,-0.0463199367750962,-0.116710739272235,0.0742775201797485,-0.1817562580108642,0.9992284774780272,56,71,15406,12982
25.7,1788527295878,5.267605781555176,4.929577350616455,-0.0063516912050545,-0.0004014146979898,0.5522575378417969,0.8336493372917175,0.176913087306207,-0.0076920047509491,0.0002180509802021,0.0510887280106544,-0.0451461933553218,-0.0183764901012182,-0.0062346067279577,0.0021450007334351,0.2632286846637726,0.9647109508514404,0.0013409821871106,0.0049118181748934,-0.1342942082000165,-0.0390425324440002,-0.5031801462173462,-0.6905031204223633,57,52,14862,13597
25.8,1788527295978,5.211267471313477,4.901408672332764,-0.0065173553302884,0.0002511185593903,0.5458804368972778,0.8378376960754395,0.1601429226166498,0.001746131864998,2.4680040630878982e-05,-0.0015560839092358,-0.0074813640676438,-0.0808186382055282,-0.0061252973973751,0.002058669924736,0.2589423358440399,0.9658711552619934,-0.0034993771653546,-0.0434015067276513,-0.0847015561868169,0.2170507907867431,0.0729372501373291,0.2023897171020507,59,83,14772,13984
25.9,1788527296078,5.183098793029785,4.873239517211914,-0.0060376799665391,-5.619507282972336e-05,0.5457462668418884,0.8379287719726562,0.176308972096377,-0.0051959259174897,4.469106564902528e-05,0.0120232524350285,-0.0265535376965999,-0.0084008825942873,-0.0056042652577161,0.0022953674197196,0.2581384181976318,0.9660889506340028,0.00818891985646,0.0056991718292815,-0.0239589618600905,0.2639501690864563,-0.0740025639533996,-1.6556396484375,78,89,15375,13900
26.0,1788527296178,5.211267471313477,5.070422649383545,-0.0055310297757387,0.0005928433965891,0.5438265800476074,0.839179277420044,0.1697824289159188,0.0007415744643768,0.0001516532261711,0.0181579776108264,-0.0129760829731822,-0.0584023483097553,-0.0052127484232187,0.0023999763652682,0.2545934021472931,0.967031180858612,-0.0070522620019634,0.0068660960656228,-0.121014341399204,-0.0354839563369751,-0.1204784512519836,0.0198574066162109,64,45,15151,13208
26.1,1788527296278,5.267605781555176,4.873239517211914,-0.0055179446935653,0.0009447168558835,0.5410003662109375,0.8410037159919739,0.1789996770318474,-0.0017796340409029,-1.140061366708048e-05,0.0090625965967774,0.001895994413644,-0.0415090285241603,-0.0045691421255469,0.0024645486846566,0.2516230046749115,0.967811405658722,0.0070002330664615,-0.0051985593466413,-0.0227339123334699,0.0938259959220886,-0.2070398926734924,-0.6553630828857422,84,83,15277,13538
26.2,1788527296378,5.239436626434326,4.8450703620910645,-0.0049040960147976,0.0012262320378795,0.5378828048706055,0.8430045247077942,0.1669154258797958,0.0010649721875639,-8.364364015172964e-06,-6.130296969786286e-05,0.0248038843274116,-0.0567380264401435,-0.0042873974889516,0.0027151824906468,0.2495330274105072,0.968353033065796,-0.0077930472384492,0.0443183838436756,-0.0818869381963675,0.0558810830116272,0.1520676016807556,0.2306680679321289,65,89,15079,13856
26.3,1788527296478,5.605633735656738,4.563380241394043,-0.0045341681689023,0.0011790652060881,0.5371006727218628,0.8435051441192627,0.1688424621987998,-0.0001056699848904,1.8678722089831074e-05,0.0144771682098507,-0.0117616225033998,-0.0463638231158256,-0.0030103651806712,0.0022102463990449,0.2475359737873077,0.9688714742660522,0.0529275204120967,-0.0747054524582927,-0.0404586912299526,0.163509726524353,-0.0363754034042358,-0.3124513626098633,77,43,16560,12609
26.4,1788527296578,5.211267471313477,4.901408672332764,-0.0036747506819665,0.0016287894686684,0.5346109867095947,0.8450886607170105,0.180484717221715,0.0047543382904356,-4.2239654179619614e-05,0.0070647532120347,0.0165324658155441,-0.0714946836233139,-0.003354619257152,0.0029702326282858,0.2423130422830581,0.9701878428459167,-0.0267478512036496,0.0387040446962964,-0.1118929287717156,-0.3569453954696655,0.1829385757446289,-0.134368896484375,47,64,15011,13772
26.5,1788527296678,5.295774459838867,4.985915660858154,-0.0043317158706486,0.0019163544056937,0.5301453471183777,0.8478935956954956,0.1647324387252654,0.0024380211472663,-0.0002096307109488,-0.0160417836159467,0.0407678559422493,-0.1137233227491378,-0.0035751862451434,0.0037446077913045,0.2399893552064895,0.970761775970459,0.0014039297189796,0.0110422299487312,0.0101385498577612,0.200941264629364,0.5638498067855835,0.2039594650268554,77,60,15880,14231
26.6,1788527296778,5.267605781555176,4.873239517211914,-0.0052226725965738,0.0027529397048056,0.5266821980476379,0.8500418066978455,0.1707850042240555,0.000188984464675,7.437236866263925e-05,-0.0088926944881677,0.0005416917847469,-0.0725472122430801,-0.004031122662127,0.0039963535964488,0.2370836585760116,0.9714727401733398,-0.0064680429351754,-0.0071253149010665,-0.071210737018942,-0.080335795879364,-0.0064489245414733,-0.5974340438842773,66,72,15022,13653
26.7,1788527296878,5.042253494262695,5.014084339141846,-0.0055273901671171,0.002762084826827,0.5254619121551514,0.8507946133613586,0.1731971187263497,-0.0013832732611295,1.4196917640997717e-05,-0.0126028880476951,0.0088078938424587,-0.073223665356636,-0.004483375698328,0.0045945663005113,0.2341780513525009,0.9721724987030028,0.0001691168060412,-0.031820440711953,-0.0443952375629027,-0.0925884842872619,0.2604050636291504,0.3815507888793945,56,50,14472,14173
26.8,1788527296978,5.014084339141846,5.154929637908936,-0.0057592024095356,0.0030004424042999,0.5246164798736572,0.8513139486312866,0.1787023830929013,-0.0016487665469674,-4.966855380201721e-07,0.0,0.0,0.0,-0.0048247957602143,0.0045464057475328,0.234350711107254,0.97212952375412,0.0037271587927821,0.0121683668231978,0.0458527395218806,-0.4030112624168396,0.0095075368881225,0.7425575256347656,67,70,13989,14347
26.9,1788527297078,4.873239517211914,5.408450603485107,-0.008370803669095,0.0042378325015306,0.5248169302940369,0.851163387298584,0.1554275820173245,-0.0010945165481359,-0.0001356008180802,-0.0508362799882888,0.0976904332637786,0.0127279488369822,-0.0059804460033774,0.0034123994410037,0.2348767668008804,0.972000777721405,0.0254577923188856,-0.1683511913735167,0.0175452133140053,0.3227183222770691,-0.4031996726989746,-0.8043804168701172,72,59,15315,14562
27.0,1788527297178,4.929577350616455,5.070422649383545,-0.0029517011716961,-0.0006645445246249,0.5306326150894165,0.8475966453552246,0.172121681458348,0.0036078179611225,4.305423478535513e-05,0.0020243511535227,-0.0341380350291729,0.0691063925623893,-0.0029077297076582,-3.607012331485748e-06,0.2413242012262344,0.9704402089118958,0.0063757054700161,-0.0575890751582009,0.0303809083587473,-0.2330450415611267,0.1983224749565124,0.2653045654296875,61,33,14477,13542
27.1,1788527297278,5.098591327667236,4.957746505737305,-0.0027323882095515,-0.0010293161030858,0.5307032465934753,0.8475526571273804,0.167305917296758,-0.0003783109341567,3.668929753540821e-05,-0.0003870213113259,-0.0212530549615621,0.0040922779589891,-0.0023225182667374,0.0001553203910589,0.240303173661232,0.9706951975822448,0.0151924144725304,0.0206573562492993,-0.0246697003856695,0.1319804191589355,-0.0032715797424316,1.4407577514648438,78,60,15213,13931
27.2,1788527297378,5.267605781555176,4.985915660858154,-0.0024217134341597,-0.0002967367763631,0.5290042757987976,0.8486157059669495,0.1760897673582586,0.002127791621072,-8.42277775203587e-05,0.0055619375780224,0.0160666517913341,-0.0347049981355667,-0.0020702797919511,0.0001989752054214,0.238575667142868,0.9711216688156128,0.0108175318630817,-0.01403228937341,-0.0397142047575183,0.0135048627853393,0.242026686668396,0.6340341567993164,73,52,14873,13342
27.3,1788527297478,5.126760482788086,4.901408672332764,-0.0022806040942668,-0.0005238141748122,0.5269867181777954,0.8498703241348267,0.1726962932400763,0.0007210197145077,-2.0646823389206696e-05,-0.0085311504080891,0.0039887423627078,-0.0695698037743568,-0.0026364577934145,-0.000470221042633,0.2351337373256683,0.9719592928886414,-0.0371594393592471,-0.0035925974383286,-0.0905962984258229,-0.1461809873580932,0.0844485163688659,-0.1534194946289062,74,51,15603,13497
