time_s,timestamp_ms,wheel_vels__velocity_left,wheel_vels__velocity_right,odom__orient_x,odom__orient_y,odom__orient_z,odom__orient_w,odom__lin_x,odom__lin_y,odom__lin_z,odom__ang_x,odom__ang_y,odom__ang_z,imu__orient_x,imu__orient_y,imu__orient_z,imu__orient_w,imu__angvel_x,imu__angvel_y,imu__angvel_z,imu__acc_x,imu__acc_y,imu__acc_z,wheel_status__current_ma_left,wheel_status__current_ma_right,wheel_status__pwm_left,wheel_status__pwm_right
0.0,1788513616524,0.0,0.0,-0.0025074821896851,0.0006521225441247,0.1483252048492431,0.9889352321624756,0.0,0.0,0.0,0.0,0.0,0.0,-0.0025840420275926,0.0006136838346719,0.1423100233078003,0.989818513393402,0.0008652882343663,-0.0004575474781874,-0.0011251625850881,0.0218821167945861,0.0087859034538269,0.0053358078002929,0,0,0,0
0.1,1788513616624,0.0,0.0,-0.0025074821896851,0.0006521225441247,0.1483252048492431,0.9889352321624756,0.0,0.0,0.0,0.0,0.0,0.0,-0.0025840420275926,0.0006136838346719,0.1423100233078003,0.989818513393402,0.0008652882343663,-0.0004575474781874,-0.0011251625850881,0.0218821167945861,0.0087859034538269,0.0053358078002929,0,0,0,0
0.2,1788513616724,0.0,0.0,-0.0025074821896851,0.0006521225441247,0.1483252048492431,0.9889352321624756,0.0,0.0,0.0,0.0,0.0,0.0,-0.0025840420275926,0.0006136838346719,0.1423100233078003,0.989818513393402,0.0008652882343663,-0.0004575474781874,-0.0011251625850881,0.0218821167945861,0.0087859034538269,0.0053358078002929,0,0,0,0
0.3,1788513616824,0.0,0.0,-0.0025074821896851,0.0006521225441247,0.1483252048492431,0.9889352321624756,0.0,0.0,0.0,0.0,0.0,0.0,-0.0025840420275926,0.0006136838346719,0.1423100233078003,0.989818513393402,0.0008652882343663,-0.0004575474781874,-0.0011251625850881,0.0218821167945861,0.0087859034538269,0.0053358078002929,0,0,0,0
0.4,1788513616924,0.0,0.0,-0.0025074821896851,0.0006521225441247,0.1483252048492431,0.9889352321624756,0.0,0.0,0.0,0.0,0.0,0.0,-0.0025840420275926,0.0006136838346719,0.1423100233078003,0.989818513393402,0.0008652882343663,-0.0004575474781874,-0.0011251625850881,0.0218821167945861,0.0087859034538269,0.0053358078002929,0,0,0,0
0.5,1788513617024,0.0,0.0,-0.0025074821896851,0.0006521225441247,0.1483252048492431,0.9889352321624756,0.0,0.0,0.0,0.0,0.0,0.0,-0.0025840420275926,0.0006136838346719,0.1423100233078003,0.989818513393402,0.0008652882343663,-0.0004575474781874,-0.0011251625850881,0.0218821167945861,0.0087859034538269,0.0053358078002929,0,0,0,0
0.6,1788513617124,0.0,0.0,-0.0025074821896851,0.0006521225441247,0.1483252048492431,0.9889352321624756,0.0,0.0,0.0,0.0,0.0,0.0,-0.0025840420275926,0.0006136838346719,0.1423100233078003,0.989818513393402,0.0008652882343663,-0.0004575474781874,-0.0011251625850881,0.0218821167945861,0.0087859034538269,0.0053358078002929,0,0,0,0
0.7,1788513617224,0.0,0.0,-0.0025074821896851,0.0006521225441247,0.1483252048492431,0.9889352321624756,0.0,0.0,0.0,0.0,0.0,0.0,-0.0025840420275926,0.0006136838346719,0.1423100233078003,0.989818513393402,0.0008652882343663,-0.0004575474781874,-0.0011251625850881,0.0218821167945861,0.0087859034538269,0.0053358078002929,0,0,0,0
0.8,1788513617324,0.0,0.0,-0.0025074821896851,0.0006521225441247,0.1483252048492431,0.9889352321624756,0.0,0.0,0.0,0.0,0.0,0.0,-0.0025840420275926,0.0006136838346719,0.1423100233078003,0.989818513393402,0.0008652882343663,-0.0004575474781874,-0.0011251625850881,0.0218821167945861,0.0087859034538269,0.0053358078002929,0,0,0,0
0.9,1788513617424,0.0,0.0,-0.0025074821896851,0.0006521225441247,0.1483252048492431,0.9889352321624756,0.0,0.0,0.0,0.0,0.0,0.0,-0.0025840420275926,0.0006136838346719,0.1423100233078003,0.989818513393402,0.0008652882343663,-0.0004575474781874,-0.0011251625850881,0.0218821167945861,0.0087859034538269,0.0053358078002929,0,0,0,0
1.0,1788513617524,0.0,0.0,-0.0025074821896851,0.0006521225441247,0.1483252048492431,0.9889352321624756,0.0,0.0,0.0,0.0,0.0,0.0,-0.0025840420275926,0.0006136838346719,0.1423100233078003,0.989818513393402,0.0008652882343663,-0.0004575474781874,-0.0011251625850881,0.0218821167945861,0.0087859034538269,0.0053358078002929,0,0,0,0
1.1,1788513617624,0.0,0.0,-0.0025074821896851,0.0006521225441247,0.1483252048492431,0.9889352321624756,0.0,0.0,0.0,0.0,0.0,0.0,-0.0025840420275926,0.0006136838346719,0.1423100233078003,0.989818513393402,0.0008652882343663,-0.0004575474781874,-0.0011251625850881,0.0218821167945861,0.0087859034538269,0.0053358078002929,0,0,0,0
1.2,1788513617724,0.0,0.0,-0.0025074821896851,0.0006521225441247,0.1483252048492431,0.9889352321624756,0.0,0.0,0.0,0.0,0.0,0.0,-0.0025840420275926,0.0006136838346719,0.1423100233078003,0.989818513393402,0.0008652882343663,-0.0004575474781874,-0.0011251625850881,0.0218821167945861,0.0087859034538269,0.0053358078002929,0,0,0,0
1.3,1788513617824,0.0,0.0,-0.0025074821896851,0.0006521225441247,0.1483252048492431,0.9889352321624756,0.0,0.0,0.0,0.0,0.0,0.0,-0.0025840420275926,0.0006136838346719,0.1423100233078003,0.989818513393402,0.0008652882343663,-0.0004575474781874,-0.0011251625850881,0.0218821167945861,0.0087859034538269,0.0053358078002929,0,0,0,0
1.4,1788513617924,0.0,0.0,-0.0025074821896851,0.0006521225441247,0.1483252048492431,0.9889352321624756,0.0,0.0,0.0,0.0,0.0,0.0,-0.0025840420275926,0.0006136838346719,0.1423100233078003,0.989818513393402,0.0008652882343663,-0.0004575474781874,-0.0011251625850881,0.0218821167945861,0.0087859034538269,0.0053358078002929,0,0,0,0
1.5,1788513618024,0.0,0.0,-0.0025074821896851,0.0006521225441247,0.1483252048492431,0.9889352321624756,0.0,0.0,0.0,0.0,0.0,0.0,-0.0025840420275926,0.0006136838346719,0.1423100233078003,0.989818513393402,0.0008652882343663,-0.0004575474781874,-0.0011251625850881,0.0218821167945861,0.0087859034538269,0.0053358078002929,0,0,0,0
1.6,1788513618124,0.0,0.0,-0.0025074821896851,0.0006521225441247,0.1483252048492431,0.9889352321624756,0.0,0.0,0.0,0.0,0.0,0.0,-0.0025840420275926,0.0006136838346719,0.1423100233078003,0.989818513393402,0.0008652882343663,-0.0004575474781874,-0.0011251625850881,0.0218821167945861,0.0087859034538269,0.0053358078002929,0,0,0,0
1.7,1788513618224,0.0,0.0,-0.0025074821896851,0.0006521225441247,0.1483252048492431,0.9889352321624756,0.0,0.0,0.0,0.0,0.0,0.0,-0.0025840420275926,0.0006136838346719,0.1423100233078003,0.989818513393402,0.0008652882343663,-0.0004575474781874,-0.0011251625850881,0.0218821167945861,0.0087859034538269,0.0053358078002929,0,0,0,0
1.8,1788513618324,0.0,0.0,-0.0025074821896851,0.0006521225441247,0.1483252048492431,0.9889352321624756,0.0,0.0,0.0,0.0,0.0,0.0,-0.0025840420275926,0.0006136838346719,0.1423100233078003,0.989818513393402,0.0008652882343663,-0.0004575474781874,-0.0011251625850881,0.0218821167945861,0.0087859034538269,0.0053358078002929,0,0,0,0
1.9,1788513618424,0.0,0.0,-0.0025074821896851,0.0006521225441247,0.1483252048492431,0.9889352321624756,0.0,0.0,0.0,0.0,0.0,0.0,-0.0025840420275926,0.0006136838346719,0.1423100233078003,0.989818513393402,0.0008652882343663,-0.0004575474781874,-0.0011251625850881,0.0218821167945861,0.0087859034538269,0.0053358078002929,0,0,0,0
2.0,1788513618524,0.0,0.0,-0.0025074821896851,0.0006521225441247,0.1483252048492431,0.9889352321624756,0.0,0.0,0.0,0.0,0.0,0.0,-0.0025840420275926,0.0006136838346719,0.1423100233078003,0.989818513393402,0.0008652882343663,-0.0004575474781874,-0.0011251625850881,0.0218821167945861,0.0087859034538269,0.0053358078002929,0,0,0,0
2.1,1788513618624,0.0,0.0,-0.0025074821896851,0.0006521225441247,0.1483252048492431,0.9889352321624756,0.0,0.0,0.0,0.0,0.0,0.0,-0.0025840420275926,0.0006136838346719,0.1423100233078003,0.989818513393402,0.0008652882343663,-0.0004575474781874,-0.0011251625850881,0.0218821167945861,0.0087859034538269,0.0053358078002929,0,0,0,0
2.2,1788513618724,0.0,0.0,-0.0025074821896851,0.0006521225441247,0.1483252048492431,0.9889352321624756,0.0,0.0,0.0,0.0,0.0,0.0,-0.0025840420275926,0.0006136838346719,0.1423100233078003,0.989818513393402,0.0008652882343663,-0.0004575474781874,-0.0011251625850881,0.0218821167945861,0.0087859034538269,0.0053358078002929,0,0,0,0
2.3,1788513618824,0.0,0.0,-0.0025074821896851,0.0006521225441247,0.1483252048492431,0.9889352321624756,0.0,0.0,0.0,0.0,0.0,0.0,-0.0025840420275926,0.0006136838346719,0.1423100233078003,0.989818513393402,0.0008652882343663,-0.0004575474781874,-0.0011251625850881,0.0218821167945861,0.0087859034538269,0.0053358078002929,0,0,0,0
2.4,1788513618924,0.0,0.0,-0.0025074821896851,0.0006521225441247,0.1483252048492431,0.9889352321624756,0.0,0.0,0.0,0.0,0.0,0.0,-0.0025840420275926,0.0006136838346719,0.1423100233078003,0.989818513393402,0.0008652882343663,-0.0004575474781874,-0.0011251625850881,0.0218821167945861,0.0087859034538269,0.0053358078002929,0,0,0,0
2.5,1788513619024,0.0,0.0,-0.0025074821896851,0.0006521225441247,0.1483252048492431,0.9889352321624756,0.0,0.0,0.0,0.0,0.0,0.0,-0.0025840420275926,0.0006136838346719,0.1423100233078003,0.989818513393402,0.0008652882343663,-0.0004575474781874,-0.0011251625850881,0.0218821167945861,0.0087859034538269,0.0053358078002929,0,0,0,0
2.6,1788513619124,0.0,0.0,-0.0025074821896851,0.0006521225441247,0.1483252048492431,0.9889352321624756,0.0,0.0,0.0,0.0,0.0,0.0,-0.0025840420275926,0.0006136838346719,0.1423100233078003,0.989818513393402,0.0008652882343663,-0.0004575474781874,-0.0011251625850881,0.0218821167945861,0.0087859034538269,0.0053358078002929,0,0,0,0
2.7,1788513619224,0.0,0.0,-0.0025074821896851,0.0006521225441247,0.1483252048492431,0.9889352321624756,0.0,0.0,0.0,0.0,0.0,0.0,-0.0025840420275926,0.0006136838346719,0.1423100233078003,0.989818513393402,0.0008652882343663,-0.0004575474781874,-0.0011251625850881,0.0218821167945861,0.0087859034538269,0.0053358078002929,0,0,0,0
2.8,1788513619324,0.0,0.0,-0.0025074821896851,0.0006521225441247,0.1483252048492431,0.9889352321624756,0.0,0.0,0.0,0.0,0.0,0.0,-0.0025840420275926,0.0006136838346719,0.1423100233078003,0.989818513393402,0.0008652882343663,-0.0004575474781874,-0.0011251625850881,0.0218821167945861,0.0087859034538269,0.0053358078002929,0,0,0,0
2.9,1788513619424,0.0,0.0,-0.0025074821896851,0.0006521225441247,0.1483252048492431,0.9889352321624756,0.0,0.0,0.0,0.0,0.0,0.0,-0.0025840420275926,0.0006136838346719,0.1423100233078003,0.989818513393402,0.0008652882343663,-0.0004575474781874,-0.0011251625850881,0.0218821167945861,0.0087859034538269,0.0053358078002929,0,0,0,0
3.0,1788513619524,0.0,0.0,-0.0025074821896851,0.0006521225441247,0.1483252048492431,0.9889352321624756,0.0,0.0,0.0,0.0,0.0,0.0,-0.0025840420275926,0.0006136838346719,0.1423100233078003,0.989818513393402,0.0008652882343663,-0.0004575474781874,-0.0011251625850881,0.0218821167945861,0.0087859034538269,0.0053358078002929,0,0,0,0
3.1,1788513619624,0.0,0.0,-0.0025074821896851,0.0006521225441247,0.1483252048492431,0.9889352321624756,0.0,0.0,0.0,0.0,0.0,0.0,-0.0025840420275926,0.0006136838346719,0.1423100233078003,0.989818513393402,0.0008652882343663,-0.0004575474781874,-0.0011251625850881,0.0218821167945861,0.0087859034538269,0.0053358078002929,0,0,0,0
3.2,1788513619724,0.0,0.0,-0.0025074821896851,0.0006521225441247,0.1483252048492431,0.9889352321624756,0.0,0.0,0.0,0.0,0.0,0.0,-0.0025840420275926,0.0006136838346719,0.1423100233078003,0.989818513393402,0.0008652882343663,-0.0004575474781874,-0.0011251625850881,0.0218821167945861,0.0087859034538269,0.0053358078002929,0,0,0,0
3.3,1788513619824,0.0,0.0,-0.0025074821896851,0.0006521225441247,0.1483252048492431,0.9889352321624756,0.0,0.0,0.0,0.0,0.0,0.0,-0.0025840420275926,0.0006136838346719,0.1423100233078003,0.989818513393402,0.0008652882343663,-0.0004575474781874,-0.0011251625850881,0.0218821167945861,0.0087859034538269,0.0053358078002929,0,0,0,0
3.4,1788513619924,0.0,0.0,-0.0025074821896851,0.0006521225441247,0.1483252048492431,0.9889352321624756,0.0,0.0,0.0,0.0,0.0,0.0,-0.0025840420275926,0.0006136838346719,0.1423100233078003,0.989818513393402,0.0008652882343663,-0.0004575474781874,-0.0011251625850881,0.0218821167945861,0.0087859034538269,0.0053358078002929,0,0,0,0
3.5,1788513620024,0.0,0.0,-0.0025074821896851,0.0006521225441247,0.1483252048492431,0.9889352321624756,0.0,0.0,0.0,0.0,0.0,0.0,-0.0025840420275926,0.0006136838346719,0.1423100233078003,0.989818513393402,0.0008652882343663,-0.0004575474781874,-0.0011251625850881,0.0218821167945861,0.0087859034538269,0.0053358078002929,0,0,0,0
3.6,1788513620124,0.0,0.0,-0.0025074821896851,0.0006521225441247,0.1483252048492431,0.9889352321624756,0.0,0.0,0.0,0.0,0.0,0.0,-0.0025840420275926,0.0006136838346719,0.1423100233078003,0.989818513393402,0.0008652882343663,-0.0004575474781874,-0.0011251625850881,0.0218821167945861,0.0087859034538269,0.0053358078002929,0,0,0,0
3.7,1788513620224,0.0,0.0,-0.0025074821896851,0.0006521225441247,0.1483252048492431,0.9889352321624756,0.0,0.0,0.0,0.0,0.0,0.0,-0.0025840420275926,0.0006136838346719,0.1423100233078003,0.989818513393402,0.0008652882343663,-0.0004575474781874,-0.0011251625850881,0.0218821167945861,0.0087859034538269,0.0053358078002929,0,0,0,0
3.8,1788513620324,0.0,0.0,-0.0025074821896851,0.0006521225441247,0.1483252048492431,0.9889352321624756,0.0,0.0,0.0,0.0,0.0,0.0,-0.0025840420275926,0.0006136838346719,0.1423100233078003,0.989818513393402,0.0008652882343663,-0.0004575474781874,-0.0011251625850881,0.0218821167945861,0.0087859034538269,0.0053358078002929,0,0,0,0
3.9,1788513620424,0.0,0.0,-0.0025074821896851,0.0006521225441247,0.1483252048492431,0.9889352321624756,0.0,0.0,0.0,0.0,0.0,0.0,-0.0025840420275926,0.0006136838346719,0.1423100233078003,0.989818513393402,0.0008652882343663,-0.0004575474781874,-0.0011251625850881,0.0218821167945861,0.0087859034538269,0.0053358078002929,0,0,0,0
4.0,1788513620524,0.0,0.0,-0.0025074821896851,0.0006521225441247,0.1483252048492431,0.9889352321624756,0.0,0.0,0.0,0.0,0.0,0.0,-0.0025840420275926,0.0006136838346719,0.1423100233078003,0.989818513393402,0.0008652882343663,-0.0004575474781874,-0.0011251625850881,0.0218821167945861,0.0087859034538269,0.0053358078002929,0,0,0,0
4.1,1788513620624,0.0,0.0,-0.0025074821896851,0.0006521225441247,0.1483252048492431,0.9889352321624756,0.0,0.0,0.0,0.0,0.0,0.0,-0.0025840420275926,0.0006136838346719,0.1423100233078003,0.989818513393402,0.0008652882343663,-0.0004575474781874,-0.0011251625850881,0.0218821167945861,0.0087859034538269,0.0053358078002929,0,0,0,0
4.2,1788513620724,0.0,0.0,-0.0025074821896851,0.0006521225441247,0.1483252048492431,0.9889352321624756,0.0,0.0,0.0,0.0,0.0,0.0,-0.0025995019823312,0.0006231851875782,0.1423780471086502,0.9898087382316588,0.000259373742879,0.0009922014912862,3.471811090411536e-05,0.0113911628723144,0.0037248730659484,-0.0055160522460937,0,0,0,0
4.3,1788513620824,0.0,0.0,-0.0025074821896851,0.0006521225441247,0.1483252048492431,0.9889352321624756,0.0,0.0,0.0,0.0,0.0,0.0,-0.0025939615443348,0.0006099231541156,0.1424217671155929,0.9898024797439576,-9.005592498414033e-05,-0.0015652188887937,0.000355973276993,0.0038947463035583,0.0125980377197265,0.0052604675292968,0,0,0,0
4.4,1788513620924,0.0,0.0,-0.0025074821896851,0.0006521225441247,0.1483252048492431,0.9889352321624756,0.0,0.0,0.0,0.0,0.0,0.0,-0.0025579519569873,0.0005999533459544,0.1424660384654998,0.9897961616516112,0.0016913185550739,-0.0010297467044154,0.0018459621480694,-0.0034780502319335,0.0084398388862609,-0.0163564682006835,0,0,0,0
4.5,1788513621024,0.0,0.0,-0.0025074821896851,0.0006521225441247,0.1483252048492431,0.9889352321624756,0.0,0.0,0.0,0.0,0.0,0.0,-0.0025486731901764,0.0006007794290781,0.1424355804920196,0.9898006916046144,8.634264290468604e-05,0.0002782343040946,-0.0006650164120991,-0.0034904479980468,-0.0114931464195251,-0.0146503448486328,0,0,0,0
4.6,1788513621124,0.0,0.0,-0.0025074821896851,0.0006521225441247,0.1483252048492431,0.9889352321624756,0.0,0.0,0.0,0.0,0.0,0.0,-0.002500562928617,0.0006124582141637,0.1424344331026077,0.9898008704185486,0.0004543800700218,-0.0006140226194886,-0.0003324448273564,0.0215982198715209,-0.0233703851699829,0.0213327407836914,0,0,0,0
4.7,1788513621224,0.0,0.0,-0.0025074821896851,0.0006521225441247,0.1483252048492431,0.9889352321624756,0.0,0.0,0.0,0.0,0.0,0.0,-0.0024664094671607,0.0006061000749468,0.1424570530653,0.9897977113723756,-0.0015196565336331,-8.048203664924677e-05,0.0014600985127965,-0.0089505314826965,0.0085130929946899,-0.0235710144042968,0,0,0,0
4.8,1788513621324,0.0,0.0,-0.0025074821896851,0.0006521225441247,0.1483252048492431,0.9889352321624756,0.0,0.0,0.0,0.0,0.0,0.0,-0.0025026081129908,0.0006128000095486,0.1424480527639389,0.989798903465271,-0.0006889552313731,0.0001106171296199,0.0013997291641236,0.0091766715049743,0.0199232101440429,-0.0072822570800781,0,0,0,0
4.9,1788513621424,0.0,0.0,-0.0025074821896851,0.0006521225441247,0.1483252048492431,0.9889352321624756,0.0,0.0,0.0,0.0,0.0,0.0,-0.00253127515316,0.000632488168776,0.1424122005701065,0.9898040294647216,-0.0005675652964801,0.0010963666305653,-0.0005770242116693,-0.0065402388572692,-0.0083172917366027,-0.0038766860961914,0,0,0,0
5.0,1788513621524,0.0,0.0,-0.0025074821896851,0.0006521225441247,0.1483252048492431,0.9889352321624756,0.0,0.0,0.0,0.0,0.0,0.0,-0.0024834536015987,0.0006416952237486,0.1424110978841781,0.9898043274879456,0.0011280258583327,-0.0009433006689991,-0.0001465704379,-0.0047263503074646,0.0176470279693603,0.0034236907958984,0,0,0,0
5.1,1788513621624,0.0,0.0,-0.0025074821896851,0.0006521225441247,0.1483252048492431,0.9889352321624756,0.0,0.0,0.0,0.0,0.0,0.0,-0.0025046970695257,0.0006637051701545,0.1423578113317489,0.9898119568824768,-1.2618826350574888e-05,0.0003428224057881,-0.0008510405543153,0.0137022137641906,0.0269672274589538,0.0089311599731445,0,0,0,0
5.2,1788513621724,0.0,0.0,-0.0025074821896851,0.0006521225441247,0.1483252048492431,0.9889352321624756,0.0,0.0,0.0,0.0,0.0,0.0,-0.0024972641840577,0.000716121867299,0.1424062848091125,0.9898048639297484,0.0009454589788619,0.0004626755114091,0.001825466409393,-0.0193789601325988,-0.0109992623329162,-0.0003576278686523,0,0,0,0
5.3,1788513621824,0.0,0.0,-0.0025074821896851,0.0006521225441247,0.1483252048492431,0.9889352321624756,0.0,0.0,0.0,0.0,0.0,0.0,-0.002509431913495,0.0007346542552113,0.1424584239721298,0.989797294139862,0.0002324301808311,0.0013584955054107,0.0009325419996926,0.0116664171218872,-0.0178884267807006,-0.0253973007202148,0,0,0,0
5.4,1788513621924,0.0,0.0,-0.0025074821896851,0.0006521225441247,0.1483252048492431,0.9889352321624756,0.0,0.0,0.0,0.0,0.0,0.0,-0.0025216517969965,0.0007300321012735,0.142443761229515,0.989799439907074,-0.0001052602284817,-6.231566977987742e-05,-0.0003286241941806,0.016853392124176,0.0253332257270813,0.0089321136474609,0,0,0,0
5.5,1788513622024,0.0,0.0,-0.0025074821896851,0.0006521225441247,0.1483252048492431,0.9889352321624756,0.0,0.0,0.0,0.0,0.0,0.0,-0.0025274930521845,0.0007746685296297,0.1424372047185897,0.9898003339767456,-0.0004413570678741,0.0007867687457153,-0.0001403018750438,0.0053010582923889,0.0452167391777038,-0.0215721130371093,0,0,0,0
5.6,1788513622124,0.0,0.0,-0.0025074821896851,0.0006521225441247,0.1483252048492431,0.9889352321624756,0.0,0.0,0.0,0.0,0.0,0.0,-0.0025302926078438,0.0007739523425698,0.1423971205949783,0.989806056022644,-0.0001495633069909,-1.128758452963387e-05,-0.0021424064997102,0.0051844716072082,-0.0176897048950195,0.0033092498779296,0,0,0,0
5.7,1788513622224,0.0,0.0,-0.0025074821896851,0.0006521225441247,0.1483252048492431,0.9889352321624756,0.0,0.0,0.0,0.0,0.0,0.0,-0.0025324486196041,0.0007718820124864,0.142407551407814,0.9898045659065248,7.380483575067262e-05,-0.0006002598422054,0.0002070379580789,-0.0074107646942138,0.0200942158699035,0.0016145706176757,0,0,0,0
5.8,1788513622324,0.0,0.0,-0.0025074821896851,0.0006521225441247,0.1483252048492431,0.9889352321624756,0.0,0.0,0.0,0.0,0.0,0.0,-0.00255370978266,0.0007782401517033,0.1423453241586685,0.989813506603241,-0.0018684710486749,0.0006524873069042,-0.0017495057075272,-0.0090343356132507,-0.0010682344436645,0.0051116943359375,0,0,0,0
5.9,1788513622424,0.0,0.0,-0.0025074821896851,0.0006521225441247,0.1483252048492431,0.9889352321624756,0.0,0.0,0.0,0.0,0.0,0.0,-0.0025404151529073,0.0008161626756191,0.142369195818901,0.989810049533844,0.0006652446224424,0.0001129227965901,6.897348482213095e-05,-0.0100821852684021,0.0183653235435485,-0.0037927627563476,0,0,0,0
6.0,1788513622524,0.0,0.0,-0.0025074821896851,0.0006521225441247,0.1483252048492431,0.9889352321624756,0.0,0.0,0.0,0.0,0.0,0.0,-0.002556387335062,0.0008382936939597,0.1423919796943664,0.9898066520690918,-0.0005671916106341,0.0017330497293085,0.0006668109684648,-0.01666259765625,-0.0046976804733276,-0.0057153701782226,0,0,0,0
6.1,1788513622624,0.0,0.0,-0.0025074821896851,0.0006521225441247,0.1483252048492431,0.9889352321624756,0.0,0.0,0.0,0.0,0.0,0.0,-0.0025729825720191,0.0008496297523379,0.1423683315515518,0.9898101091384888,7.12886802414475e-05,0.0001178360738167,-0.0010142186289761,-0.0040243864059448,-0.0027227401733398,0.0159053802490234,0,0,0,0
6.2,1788513622724,0.0,0.0,-0.0025074821896851,0.0006521225441247,0.1483252048492431,0.9889352321624756,0.0,0.0,0.0,0.0,0.0,0.0,-0.0025701420381665,0.0008311681449413,0.142404094338417,0.9898048639297484,0.0006057406089007,-0.002008926648752,-0.0010501432469613,0.013640820980072,-0.0134373903274536,0.0015783309936523,0,0,0,0
6.3,1788513622824,0.0,0.0,-0.0025074821896851,0.0006521225441247,0.1483252048492431,0.9889352321624756,0.0,0.0,0.0,0.0,0.0,0.0,-0.0025867195799946,0.0008225915953516,0.1423805803060531,0.9898082613945008,-0.0011730663745803,-0.0004046236151202,-0.0015859911704779,0.0117794871330261,0.017496109008789,-0.0108699798583984,0,0,0,0
6.4,1788513622924,0.0,0.0,-0.0025074821896851,0.0006521225441247,0.1483252048492431,0.9889352321624756,0.0,0.0,0.0,0.0,0.0,0.0,-0.0025596404448151,0.000853132456541,0.1423097848892212,0.9898184537887572,0.0007709733416379,0.0001245560467538,-0.0006800467971792,0.0194499492645263,0.0114701390266418,-0.003662109375,0,0,0,0
6.5,1788513623024,0.0,0.0,-0.0025074821896851,0.0006521225441247,0.1483252048492431,0.9889352321624756,0.0,0.0,0.0,0.0,0.0,0.0,-0.0025599095970392,0.0008372394368052,0.1422633230686187,0.9898252487182616,0.0004597145082963,0.0007104340709523,-0.0024574996393461,-0.0114012360572814,-0.0046513080596923,-0.0020618438720703,0,0,0,0
6.6,1788513623124,0.0,0.0,-0.0025074821896851,0.0006521225441247,0.1483252048492431,0.9889352321624756,0.0,0.0,0.0,0.0,0.0,0.0,-0.0025687115266919,0.0008862875401973,0.1422889977693557,0.9898214936256408,-0.0001199000861905,0.0011840181405221,0.0005674992215465,0.018379807472229,0.0062201023101806,-0.0162458419799804,0,0,0,0
6.7,1788513623224,0.0,0.0,-0.0025074821896851,0.0006521225441247,0.1483252048492431,0.9889352321624756,0.0,0.0,0.0,0.0,0.0,0.0,-0.0025992235168814,0.0009258454665541,0.1422739177942276,0.9898235201835632,-0.0001133224371403,0.0015250840345993,-0.0011983414940517,0.0083793997764587,0.0084279179573059,0.0016860961914062,0,0,0,0
6.8,1788513623324,0.0,0.0,-0.0025074821896851,0.0006521225441247,0.1483252048492431,0.9889352321624756,0.0,0.0,0.0,0.0,0.0,0.0,-0.0025807879865169,0.0009231911972165,0.1422670930624008,0.9898245930671692,-0.0004790061115382,-0.0011161500955451,0.0002023872673201,0.0010870099067687,0.017050564289093,0.0017013549804687,0,0,0,0
6.9,1788513623424,0.0,0.0,-0.0025074821896851,0.0006521225441247,0.1483252048492431,0.9889352321624756,0.0,0.0,0.0,0.0,0.0,0.0,-0.0025503952056169,0.0008732071146368,0.1422850936651229,0.9898220896720886,0.0005920523422058,-0.0004053809598961,-0.0006790756386792,0.012604534626007,0.0219898223876953,0.0017833709716796,0,0,0,0
7.0,1788513623524,0.0,0.0,-0.0025074821896851,0.0006521225441247,0.1483252048492431,0.9889352321624756,0.0,0.0,0.0,0.0,0.0,0.0,-0.0025598937645554,0.0008781105279922,0.1422939151525497,0.9898208379745485,-0.0009316474911993,0.0001059231217614,0.001018079009667,0.0181149244308471,-0.0029815435409545,0.0017061233520507,0,0,0,0
7.1,1788513623624,0.0,0.0,-0.0025074821896851,0.0006521225441247,0.1483252048492431,0.9889352321624756,0.0,0.0,0.0,0.0,0.0,0.0,-0.0025598937645554,0.0008781105279922,0.1422939151525497,0.9898208379745485,-0.0009316474911993,0.0001059231217614,0.001018079009667,0.0181149244308471,-0.0029815435409545,0.0017061233520507,0,0,0,0
7.2,1788513623724,0.0,0.0,-0.0025074821896851,0.0006521225441247,0.1483252048492431,0.9889352321624756,0.0,0.0,0.0,0.0,0.0,0.0,-0.0025598937645554,0.0008781105279922,0.1422939151525497,0.9898208379745485,-0.0009316474911993,0.0001059231217614,0.001018079009667,0.0181149244308471,-0.0029815435409545,0.0017061233520507,0,0,0,0
7.3,1788513623824,0.0,0.0,-0.0025074821896851,0.0006521225441247,0.1483252048492431,0.9889352321624756,0.0,0.0,0.0,0.0,0.0,0.0,-0.0025690123438835,0.0008023846894502,0.1422929614782333,0.9898208975791932,-0.0011579919527153,0.0006421796467027,-0.0006802463876536,0.0202471017837524,0.0171747803688049,4.100799560546875e-05,0,0,0,0
7.4,1788513623924,0.0,0.0,-0.0025074821896851,0.0006521225441247,0.1483252048492431,0.9889352321624756,0.0,0.0,0.0,0.0,0.0,0.0,-0.0025317566469311,0.0007948260754346,0.1423069089651107,0.9898190498352052,-0.0004711636960622,0.0008331478961762,-0.0001494965473745,0.0056430697441101,0.0021271705627441,-0.0054655075073242,0,0,0,0
7.5,1788513624024,0.0,0.0,-0.0025074821896851,0.0006521225441247,0.1483252048492431,0.9889352321624756,0.0,0.0,0.0,0.0,0.0,0.0,-0.0025638723745942,0.0007696077227592,0.142281100153923,0.9898227453231812,-0.0006378254237355,-0.0012680712507193,-0.0010291645127621,0.0248906016349792,-0.0080524086952209,0.0179309844970703,0,0,0,0
7.6,1788513624124,0.0,0.0,-0.0025074821896851,0.0006521225441247,0.1483252048492431,0.9889352321624756,0.0,0.0,0.0,0.0,0.0,0.0,-0.0025638723745942,0.0007696077227592,0.142281100153923,0.9898227453231812,-0.0006378254237355,-0.0012680712507193,-0.0010291645127621,0.0248906016349792,-0.0080524086952209,0.0179309844970703,0,0,0,0
7.7,1788513624224,0.0,0.0,-0.0025074821896851,0.0006521225441247,0.1483252048492431,0.9889352321624756,0.0,0.0,0.0,0.0,0.0,0.0,-0.0025638723745942,0.0007696077227592,0.142281100153923,0.9898227453231812,-0.0006378254237355,-0.0012680712507193,-0.0010291645127621,0.0248906016349792,-0.0080524086952209,0.0179309844970703,0,0,0,0
7.8,1788513624324,0.0,0.0,-0.0025074821896851,0.0006521225441247,0.1483252048492431,0.9889352321624756,0.0,0.0,0.0,0.0,0.0,0.0,-0.0025523351505398,0.0007605012506246,0.1423443257808685,0.9898135662078856,-0.0001580995516576,-2.311245248949145e-05,0.0002535534159225,0.0050228834152221,0.0062294006347656,-0.0090084075927734,0,0,0,0
7.9,1788513624424,0.0,0.0,-0.0025074821896851,0.0006521225441247,0.1483252048492431,0.9889352321624756,0.0,0.0,0.0,0.0,0.0,0.0,-0.0025365650653839,0.0007798932492733,0.14232037961483,0.9898170828819276,0.0002334540899779,-6.36896811441114e-05,0.0002112248252591,0.0035204887390136,0.0202006101608276,-0.0017623901367187,0,0,0,0
8.0,1788513624524,0.0,0.0,-0.0025074821896851,0.0006521225441247,0.1483252048492431,0.9889352321624756,0.0,0.0,0.0,0.0,0.0,0.0,-0.0025398526340723,0.0007658451795578,0.1422845125198364,0.989822268486023,-0.0001101077175243,-6.326179223904919e-05,-0.0008712012846778,0.0069129467010498,-0.0029818415641784,-0.0180015563964843,0,0,0,0
8.1,1788513624624,0.0,0.0,-0.0025074821896851,0.0006521225441247,0.1483252048492431,0.9889352321624756,0.0,0.0,0.0,0.0,0.0,0.0,-0.0025352835655212,0.0007322868332266,0.1423241049051284,0.9898165464401244,0.0004117832185572,-0.0009394522404054,0.0005537521529727,-0.0045225024223327,-0.0101547241210937,-0.019866943359375,0,0,0,0
8.2,1788513624724,0.0,0.0,-0.0025074821896851,0.0006521225441247,0.1483252048492431,0.9889352321624756,0.0,0.0,0.0,0.0,0.0,0.0,-0.0025286534801125,0.0007537268102169,0.1423580944538116,0.9898117780685424,0.0002396576988452,0.0005053292381799,0.0008602028080471,-0.0059677362442016,0.007572591304779,-0.0090160369873046,0,0,0,0
8.3,1788513624824,0.0,0.0,-0.0025074821896851,0.0006521225441247,0.1483252048492431,0.9889352321624756,0.0,0.0,0.0,0.0,0.0,0.0,-0.0025401432067155,0.00077008549124,0.1423309594392776,0.9898156523704528,-0.0002965571990226,0.0013892345965072,-0.0014257378126835,-0.0074267983436584,0.0095332264900207,-0.0072135925292968,0,0,0,0
8.4,1788513624924,0.0,0.0,-0.0025074821896851,0.0006521225441247,0.1483252048492431,0.9889352321624756,0.0,0.0,0.0,0.0,0.0,0.0,-0.0025401432067155,0.00077008549124,0.1423309594392776,0.9898156523704528,-0.0002965571990226,0.0013892345965072,-0.0014257378126835,-0.0074267983436584,0.0095332264900207,-0.0072135925292968,0,0,0,0
8.5,1788513625024,0.0,0.0,-0.0025074821896851,0.0006521225441247,0.1483252048492431,0.9889352321624756,0.0,0.0,0.0,0.0,0.0,0.0,-0.0025098444893956,0.0007509812712669,0.1423563957214355,0.9898120164871216,0.000933727034748,0.0002759348213601,0.0010893188100345,0.02438884973526,-0.003631591796875,0.0054473876953125,0,0,0,0
8.6,1788513625124,0.0,0.0,-0.0025074821896851,0.0006521225441247,0.1483252048492431,0.9889352321624756,0.0,0.0,0.0,0.0,0.0,0.0,-0.0025098444893956,0.0007509812712669,0.1423563957214355,0.9898120164871216,0.000933727034748,0.0002759348213601,0.0010893188100345,0.02438884973526,-0.003631591796875,0.0054473876953125,0,0,0,0
8.7,1788513625224,0.0,0.0,-0.0025074821896851,0.0006521225441247,0.1483252048492431,0.9889352321624756,0.0,0.0,0.0,0.0,0.0,0.0,-0.0025098444893956,0.0007509812712669,0.1423563957214355,0.9898120164871216,0.000933727034748,0.0002759348213601,0.0010893188100345,0.02438884973526,-0.003631591796875,0.0054473876953125,0,0,0,0
8.8,1788513625324,0.0,0.0,-0.0025074821896851,0.0006521225441247,0.1483252048492431,0.9889352321624756,0.0,0.0,0.0,0.0,0.0,0.0,-0.0025098444893956,0.0007509812712669,0.1423563957214355,0.9898120164871216,0.000933727034748,0.0002759348213601,0.0010893188100345,0.02438884973526,-0.003631591796875,0.0054473876953125,0,0,0,0
8.9,1788513625424,0.0,0.0,-0.0025074821896851,0.0006521225441247,0.1483252048492431,0.9889352321624756,0.0,0.0,0.0,0.0,0.0,0.0,-0.0024501280859112,0.0008814688771963,0.139875441789627,0.990165650844574,-0.0006947558676289,0.0034673596498976,-0.1004982632834549,0.1296315193176269,-0.1787598729133606,-0.0604753494262695,0,0,0,0
9.0,1788513625524,0.0,0.0,-0.0025074821896851,0.0006521225441247,0.1483252048492431,0.9889352321624756,0.0,0.0,0.0,0.0,0.0,0.0,-0.0024501280859112,0.0008814688771963,0.139875441789627,0.990165650844574,-0.0006947558676289,0.0034673596498976,-0.1004982632834549,0.1296315193176269,-0.1787598729133606,-0.0604753494262695,0,0,0,0
9.1,1788513625624,0.0,0.0,-0.0025074821896851,0.0006521225441247,0.1483252048492431,0.9889352321624756,0.0,0.0,0.0,0.0,0.0,0.0,-0.0024373568594455,0.0011305967345833,0.1691873371601104,0.9855802655220032,0.0039881201533773,0.0030440658767867,0.4131659183131175,0.1351406574249267,0.2912434935569763,0.0762166976928711,0,0,0,0
9.2,1788513625724,0.0,0.0,-0.0024997815489768,0.0011360116768628,0.1787417531013488,0.9838921427726746,0.0030736835759816,-0.0033796939658702,-4.59820614746077e-07,-0.0014993355143815,0.0055518373847007,0.3671587109565735,-0.0024869441986083,0.0011592479422688,0.1784820258617401,0.9839393496513368,0.0032694372283592,-0.0057525821658281,0.2979396931159883,-0.1165475249290466,-0.0544158816337585,-0.023324966430664,0,0,0,0
9.3,1788513625824,-1.211267590522766,1.3239436149597168,-0.0024771268945187,0.001157603925094,0.1858033388853073,0.9825831651687622,0.0029059619762169,-0.0044205298978146,2.168275612816009e-09,0.0006259051151573,4.3385414755903184e-05,0.3026036024093628,-0.0025444803759455,0.0013020727783441,0.195576474070549,0.9806842803955078,-0.0008711672328881,0.0051576775967881,0.3775647456714358,0.0697954893112182,-0.0944786667823791,0.1102313995361328,41,25,-3172,3033
9.4,1788513625924,-0.8732394576072693,0.7887324094772339,-0.0025303692091256,0.0012668117415159,0.2097864747047424,0.9777430891990662,0.0036422769434555,-0.0037955274306609,1.1796212670925645e-07,-5.016251452616416e-05,-0.0026164557784795,0.3208292722702026,-0.0025265803560614,0.0012973425909876,0.2061590105295181,0.9785143733024596,-0.0011274873628967,0.0005590090245515,0.2620745465098217,0.0726553201675415,-0.2237756848335266,-0.0627260208129882,57,55,-3936,3136
9.5,1788513626024,-0.8732394576072693,0.7887324094772339,-0.0024186656810343,0.0011732277926057,0.2221717089414596,0.9750038385391236,0.002557278394325,-0.0019968670236185,8.95752012800081e-09,0.0002191468665841,-0.0003562237252481,0.2046924978494644,-0.0023728515952825,0.0010635601356625,0.2226883172988891,0.9748862981796264,-0.0014585858296543,-0.007296219467389,0.2546866215225916,0.4902734756469726,0.1436455845832824,-0.0485801696777343,57,55,-3936,3136
9.6,1788513626124,2.760563373565674,4.647887229919434,-0.0024314108304679,0.0008760970667935,0.2361648082733154,0.9717096090316772,0.0219851060442027,-0.0023734618623914,3.736501765190921e-06,-0.0043470822274684,-0.0081787435337901,0.351560115814209,-0.0025622518733143,0.0009463466703891,0.235844686627388,0.9717869758605956,-0.0089876243296247,0.0007256506479676,0.4184799474920022,2.0585238933563232,-0.0778390765190124,0.1190080642700195,57,55,-3936,3136
9.7,1788513626224,4.985915660858154,5.88732385635376,-0.0024314108304679,0.0008760970667935,0.2361648082733154,0.9717096090316772,0.0219851060442027,-0.0023734618623914,3.736501765190921e-06,-0.0043470822274684,-0.0081787435337901,0.351560115814209,-0.0026868404820561,0.000816180370748,0.2535230815410614,0.9673252701759338,-0.0080361090165631,0.0139474305902255,0.1329821077705731,-0.0104910135269165,-0.0742107033729553,0.2680320739746094,88,94,13470,14909
9.8,1788513626324,4.985915660858154,5.88732385635376,-0.0028705396689474,0.0008371897856704,0.2601470351219177,0.9655644297599792,0.1833588041555569,-0.0018026248405998,-8.525563590371275e-06,-0.0124064153060317,0.0056337541900575,0.1412097066640854,-0.0032946625724434,0.0012029148638248,0.2562368214130401,0.9666076898574828,-0.0198442997589143,0.0210642066773601,0.1130928098939738,-0.2887662053108215,-0.1001940369606018,0.5900077819824219,88,94,13470,14909
9.9,1788513626424,4.732394218444824,5.549295902252197,-0.0028705396689474,0.0008371897856704,0.2601470351219177,0.9655644297599792,0.1833588041555569,-0.0018026248405998,-8.525563590371275e-06,-0.0124064153060317,0.0056337541900575,0.1412097066640854,-0.0034291418269276,3.82913276553154e-05,0.2630148530006408,0.9647857546806335,0.0157919069853855,0.0197149426118853,0.1424317339349736,-0.6110510230064392,-0.1272410750389099,1.7308645248413086,63,78,11862,14556
10.0,1788513626524,4.732394218444824,5.549295902252197,-0.0029540339019149,1.7785292584449053e-05,0.2731538414955139,0.961965799331665,0.1591526284284035,0.0005253844924017,2.5505681051652164e-05,0.010116041637957,-0.0048706219531595,0.1247785165905952,-0.0030395667999982,8.577480912208557e-06,0.265996515750885,0.9639692306518556,0.0229017524833672,-0.0089457725464254,0.1941271473173886,-0.083225131034851,-0.0766777396202087,1.6471633911132812,63,78,11862,14556
10.1,1788513626624,4.732394218444824,5.549295902252197,-0.0028300781268626,0.0006887006456963,0.2747802138328552,0.9615026712417604,0.1602941721779517,-0.0018138338966775,-9.505482682510151e-06,0.0049305842258036,0.0148675870150327,0.0328798778355121,-0.0030395667999982,8.577480912208557e-06,0.265996515750885,0.9639692306518556,0.0229017524833672,-0.0089457725464254,0.1941271473173886,-0.083225131034851,-0.0766777396202087,1.6471633911132812,63,78,11862,14556
10.2,1788513626724,0.8169013857841492,1.0985915660858154,-0.0029209710191935,0.0009515772690065,0.2750483155250549,0.9614255428314208,0.0421668653405388,-8.873322299742677e-06,-1.902643899183193e-11,0.0,0.0,0.0,-0.0029705353081226,0.0011095777153968,0.2703050673007965,0.9627695083618164,0.0006580175578055,-0.0023245797401513,0.0176955452317509,-0.0041502118110656,0.0280631780624389,-0.207489013671875,0,31,0,0
10.3,1788513626824,0.0,0.0,-0.0029763174243271,0.001085392315872,0.2754572033882141,0.9613081216812134,-0.0005912971746701,3.092202536555553e-05,1.1500514447501144e-06,-0.0005237004952505,0.0043634576722979,0.0130101712420582,-0.0029902029782533,0.0010872473940253,0.2703747451305389,0.9627498984336852,-0.0010574049946268,-7.696661710038863e-05,-0.0084825978350085,0.2370394468307495,-0.0424274206161499,0.0141935348510742,0,31,0,0
10.4,1788513626924,0.0,0.0,-0.0029785339720547,0.0010970910079777,0.2759849727153778,0.9611566662788392,0.0,0.0,0.0,0.0,0.0,0.0,-0.002982254140079,0.0010947836562991,0.270413726568222,0.9627390503883362,0.000644068253225,-0.0015711544891324,0.0015740022268982,0.0630639791488647,0.0221785902976989,-0.0186281204223632,0,31,0,0
10.5,1788513627024,0.0,0.0,-0.0030081670265644,0.0010839487658813,0.2761033475399017,0.9611226916313172,0.0004578437992517,-0.0005342293613503,1.5441178688802266e-10,-0.0013817673316225,-0.0002037534723058,0.0052575995214283,-0.0030274847522377,0.0010835379362106,0.2703683972358703,0.9627515077590942,-0.0003196201857345,0.0003274410463027,-0.0012956526082977,0.0611987113952636,-0.0129184126853942,0.0027732849121093,0,0,0,0
10.6,1788513627124,0.0,0.0,-0.0030081670265644,0.0010839487658813,0.2761033475399017,0.9611226916313172,-0.0002066406091441,-0.000215082869475,1.0301751955392495e-10,0.0,0.0,0.0,-0.0030146930366754,0.0010543186217546,0.2704479694366455,0.9627293348312378,-0.0003343754307042,-7.067335787990253e-05,0.0013494414976233,0.0263405442237854,0.0156169533729553,0.0296792984008789,0,0,0,0
10.7,1788513627224,0.0,0.0,-0.0030081670265644,0.0010839487658813,0.2761033475399017,0.9611226916313172,0.0,0.0,0.0,0.0,0.0,0.0,-0.0030185505747795,0.0010254206135869,0.2704609036445617,0.9627256989479064,-0.0005490860464055,0.0001579875898748,0.000414875239333,0.0150556564331054,-0.0074912905693054,0.0259437561035156,0,0,0,0
10.8,1788513627324,0.0,0.0,-0.0030081670265644,0.0010839487658813,0.2761033475399017,0.9611226916313172,0.0,0.0,0.0,0.0,0.0,0.0,-0.0030166013166308,0.001020573079586,0.2704633474349975,0.962725043296814,6.779368451043982e-05,-0.0003871802153601,0.0006544546735343,0.0240286588668823,-0.000227928161621,0.0044593811035156,0,0,0,0
10.9,1788513627424,0.0,0.0,-0.0030081670265644,0.0010839487658813,0.2761033475399017,0.9611226916313172,0.0,0.0,0.0,0.0,0.0,0.0,-0.0030276421457529,0.0010618176311254,0.2704761326313019,0.962721347808838,0.0002076974037698,-0.0003900939353867,-0.0001545232957151,0.0211482644081115,0.0193976759910583,0.0332670211791992,0,0,0,0
11.0,1788513627524,0.0,0.0,-0.0030081670265644,0.0010839487658813,0.2761033475399017,0.9611226916313172,0.0,0.0,0.0,0.0,0.0,0.0,-0.0030276421457529,0.0010618176311254,0.2704761326313019,0.962721347808838,0.0002076974037698,-0.0003900939353867,-0.0001545232957151,0.0211482644081115,0.0193976759910583,0.0332670211791992,0,0,0,0
11.1,1788513627624,0.0,0.0,-0.0030081670265644,0.0010839487658813,0.2761033475399017,0.9611226916313172,0.0,0.0,0.0,0.0,0.0,0.0,-0.0030276421457529,0.0010618176311254,0.2704761326313019,0.962721347808838,0.0002076974037698,-0.0003900939353867,-0.0001545232957151,0.0211482644081115,0.0193976759910583,0.0332670211791992,78,96,3466,3240
11.2,1788513627724,5.211267471313477,4.957746505737305,-0.0029343222267925,0.0006696816417388,0.2761330604553222,0.9611147046089172,0.0883231185262143,-0.0006717114650993,-1.8194994820306488e-11,-5.82239811919294e-10,-3.9592308098690416e-08,5.96213567405357e-06,-0.0029628472402691,3.163795918226242e-05,0.2686977386474609,0.9632200598716736,-0.0006110641716661,-0.0288497025224945,-0.0516083081571951,1.2636767625808716,0.0573271512985229,-1.1411523818969729,223,159,17176,15472
11.3,1788513627824,5.436619758605957,5.042253494262695,-0.0030803163535892,0.0004738743882626,0.2742228507995605,0.961661159992218,0.1598238274424943,-0.0061423521516571,5.967699125480687e-05,0.0023582705762237,-0.0012168831890448,-0.0468352474272251,-0.0030665295198559,-2.8312206268310547e-05,0.2647592425346374,0.9643096327781676,-0.0001379983082747,-0.0150402268764614,-0.0895737688141262,-0.4774210453033447,0.156440258026123,-0.6328611373901367,223,159,17176,15472
11.4,1788513627924,5.295774459838867,5.042253494262695,-0.003159238025546,0.0001459217746742,0.2720822095870971,0.9622687697410583,0.1846066887876349,-0.0036458482217143,-2.521238401369935e-05,-0.0068870307877659,-0.0121487891301512,-0.0940956696867942,-0.0028604278340935,-0.0006671752780675,0.2637702822685241,0.9645810723304749,0.0012678589871525,-0.0272220463838962,-0.0419006616598621,-0.3953061103820801,-0.2329568266868591,1.257227897644043,52,62,13348,12282
11.5,1788513628024,4.732394218444824,5.323943614959717,-0.0027821552939713,-0.0009220853098668,0.2692761719226837,0.963058590888977,0.165290775725638,-0.0054895276545312,0.0001121511801696,0.0021830794867128,-0.0278944186866283,-0.0467671230435371,-0.0027583390474319,-0.0011903513222932,0.2615505754947662,0.9651851654052734,-0.0060390788643244,-0.0075077872772987,-0.0384853265365879,0.131704568862915,0.1777337789535522,0.7278575897216797,49,116,13039,13919
11.6,1788513628124,4.732394218444824,5.323943614959717,-0.0024724404793232,-0.0008573748054914,0.2684642076492309,0.9632861018180848,0.1651703011522542,-0.0020422461029777,-1.4774112504625653e-05,0.0137197580188512,0.0095260320231318,0.0364257618784904,-0.0023848786950111,-0.0008101584389805,0.2632577121257782,0.9647223353385924,0.0101786557142154,0.0221309737249998,0.0761167068227171,-0.0333301424980163,-0.021588385105133,-0.1466541290283203,76,62,12779,14084
11.7,1788513628224,4.732394218444824,5.323943614959717,-0.0027633742429316,-0.0005162950255908,0.2715921401977539,0.9624083638191224,0.1701481163985022,-0.000979468751319,6.199203344008777e-05,0.0004673173825722,-0.0004009880649391,0.0649821758270263,-0.002975913695991,0.0002200072631239,0.2672069072723388,0.9636345505714417,-0.0050856159592178,0.0332162646014692,0.0206041044765683,-0.3533142209053039,0.1086509823799133,1.0127153396606443,76,62,12779,14084
11.8,1788513628324,4.816901206970215,5.323943614959717,-0.0028534464072436,0.0003472910029813,0.2731502950191498,0.96196711063385,0.1712911911428312,0.0009811648696886,-1.846146817245585e-05,0.0043037412688136,0.0230101849883794,0.0261797402054071,-0.0041085891425609,0.0045472662895917,0.2683511972427368,0.9633016586303712,0.002794573989882,0.1811894366810909,0.0488360062123463,-1.3848539590835571,0.0932083129882812,4.36347770690918,59,68,13154,13195
11.9,1788513628424,5.042253494262695,5.070422649383545,-0.0039067082107067,0.0033205549698323,0.2747845947742462,0.961492121219635,0.1614741984333078,0.0004298975907849,-0.00055148024129,-0.0082697803154587,0.1280683428049087,0.0696690753102302,-0.0026856884360313,0.0014628367498517,0.2718822956085205,0.9623256921768188,0.0102710024522783,0.0136440206239413,0.0384106906466295,-0.4629517793655395,-0.2793513536453247,2.3989734649658203,59,68,13154,13195
12.0,1788513628524,4.873239517211914,4.985915660858154,-0.002533484948799,0.0009374973014928,0.277155727148056,0.9608211517333984,0.1708314359490349,-0.005951974014522,-6.067620432925427e-10,0.0034543883521109,0.0008318076143041,-0.0259676277637481,-0.0026856884360313,0.0014628367498517,0.2718822956085205,0.9623256921768188,0.0102710024522783,0.0136440206239413,0.0384106906466295,-0.4629517793655395,-0.2793513536453247,2.3989734649658203,59,68,13154,13195
12.1,1788513628624,4.873239517211914,4.985915660858154,-0.002533484948799,0.0009374973014928,0.277155727148056,0.9608211517333984,0.1708314359490349,-0.005951974014522,-6.067620432925427e-10,0.0034543883521109,0.0008318076143041,-0.0259676277637481,-0.0040298830717802,0.002332710660994,0.2710520029067993,0.9625534415245056,-0.0665447740111542,0.0838969092300336,0.0355916501544708,-0.09970623254776,0.7344549298286438,-0.1204824447631836,75,176,12273,15655
12.2,1788513628724,4.563380241394043,5.85915470123291,-0.002533484948799,0.0009374973014928,0.277155727148056,0.9608211517333984,0.1708314359490349,-0.005951974014522,-6.067620432925427e-10,0.0034543883521109,0.0008318076143041,-0.0259676277637481,-0.002271412871778,0.0006400998681783,0.280813455581665,0.959759533405304,0.1046667559403644,-0.1266095065393009,0.1932849058050176,-0.2188222408294677,0.0589557290077209,0.5173444747924805,74,69,11900,13657
12.3,1788513628824,1.8591549396514893,3.323943614959717,-0.0030156665015965,0.0010750694200396,0.2902000546455383,0.956960678100586,0.1712594555645394,-0.0001727176132031,3.508648546470738e-05,-0.0014330853009596,0.0024479245766997,0.2022185027599334,-0.0039479350671172,0.0015005730092525,0.2921267747879028,0.9563703536987304,-0.0159619843369395,-0.0052916602138721,0.1985742057822903,-0.7879253029823303,-0.0698983073234558,1.5165653228759766,2,32,5685,9172
12.4,1788513628924,1.8591549396514893,3.323943614959717,-0.0041187303140759,0.0011486875591799,0.3030081391334533,0.9529783725738524,0.0805495371582274,0.0024987622849609,2.682259430990273e-05,-0.0100726699456572,-0.0122157903388142,0.2087902724742889,-0.0040567675605416,0.0010666009038686,0.2956478893756866,0.955287754535675,-0.0121073102564774,-0.0197541081646223,0.1843077187905523,1.3465582132339478,0.144976794719696,-0.7129487991333008,2,32,5685,9172
12.5,1788513629024,5.042253494262695,5.943662166595459,-0.0045862914994359,0.0016989717260003,0.311191976070404,0.9503344297409058,0.1857826199978974,0.0045225135018606,-4.242258237742113e-05,-0.0007115550688467,0.0046232952736318,0.149605318903923,-0.0042645717039704,0.0016634305939078,0.3091723024845123,0.9509949684143066,0.0137153802191512,-0.0103183229437421,0.1878758204018936,-0.4999260902404785,0.0020240545272827,0.3093576431274414,57,69,12044,14537
12.6,1788513629124,4.619718074798584,5.690140724182129,-0.0043508242815732,0.0018323198892176,0.3155368268489837,0.9489016532897948,0.1710580529059679,0.0020161237010561,4.414117959212388e-05,0.0106771644204854,0.0015276425983756,0.1944082230329513,-0.0036630732938647,0.0008722227066755,0.3187502324581146,0.9478313326835632,0.0150499384339672,-0.0230301245601521,0.1654437150598859,0.1041767001152038,-0.0420343875885009,0.6261081695556641,57,69,12044,14537
12.7,1788513629224,4.732394218444824,5.605633735656738,-0.0043508242815732,0.0018323198892176,0.3155368268489837,0.9489016532897948,0.1710580529059679,0.0020161237010561,4.414117959212388e-05,0.0106771644204854,0.0015276425983756,0.1944082230329513,-0.0035991519689559,0.0009276904165744,0.324322909116745,0.9459391236305236,0.0085239233699792,0.0031652185337906,0.1076041006286794,0.2458786964416504,-0.2430290579795837,-1.978494644165039,108,83,11787,14226
12.8,1788513629324,4.8450703620910645,5.492957592010498,-0.0036962798330932,0.0005657726433128,0.3327105939388275,0.9430216550827026,0.1705981387985485,-0.0027475575222079,5.966661680817543e-05,-0.0065447143279016,-0.011937690898776,0.1318139135837555,-0.0035991519689559,0.0009276904165744,0.324322909116745,0.9459391236305236,0.0085239233699792,0.0031652185337906,0.1076041006286794,0.2458786964416504,-0.2430290579795837,-1.978494644165039,74,88,11076,14838
12.9,1788513629424,4.563380241394043,5.690140724182129,-0.0049069779925048,0.0002632670802995,0.3382046520709991,0.941059708595276,0.1710413154593497,0.0016050010480777,3.937440979879004e-05,-0.0281966477632522,-0.0016157000791281,0.1172999516129493,-0.0054711867123842,-0.0008950950577855,0.3357106447219848,0.9419488310813904,-0.0334627491900889,-0.0816310053308372,0.128726023076667,-0.4012143611907959,-0.1207377314567565,0.4046649932861328,59,114,12001,14250
13.0,1788513629524,4.676056385040283,5.211267471313477,-0.0062117469497025,-0.0018405332230031,0.3440816104412079,0.9389173984527588,0.1709509407788488,0.000284595738893,6.689683816776049e-05,-0.0450149178504943,-0.0381743758916854,0.1318169236183166,-0.00611013174057,-0.0013294983655214,0.3436631560325622,0.9390721917152404,0.0167474235157629,-0.0097862211959601,0.1176752356051709,0.3651833534240722,0.2856820225715637,-0.1074457168579101,59,114,12001,14250
13.1,1788513629624,4.676056385040283,5.211267471313477,-0.0062117469497025,-0.0018405332230031,0.3440816104412079,0.9389173984527588,0.1709509407788488,0.000284595738893,6.689683816776049e-05,-0.0450149178504943,-0.0381743758916854,0.1318169236183166,-0.00611013174057,-0.0013294983655214,0.3436631560325622,0.9390721917152404,0.0167474235157629,-0.0097862211959601,0.1176752356051709,0.3651833534240722,0.2856820225715637,-0.1074457168579101,59,114,12001,14250
13.2,1788513629724,4.676056385040283,5.211267471313477,-0.0069349664263427,-0.0013078429037705,0.3484757840633392,0.9372912049293518,0.1768239271500349,-0.0100063908011842,2.402168190944791e-06,-0.0257865898311138,7.12932160240598e-05,-0.0874611064791679,-0.0071026822552084,-0.0013284729793667,0.3421806693077087,0.9396064281463624,-0.0311036984331268,0.0003789980560486,-0.1779067808443271,-0.1936116218566894,-0.4623948335647583,0.187077522277832,59,114,12001,14250
13.3,1788513629824,5.97183084487915,4.197183132171631,-0.0069117690436542,-0.0009336810326203,0.3415930569171905,0.9398220777511596,0.1534632351596102,-0.0130988698792651,4.233680557638317e-05,0.0066946153528988,0.0164014957845211,-0.305421769618988,-0.0065079079940915,5.388911813497543e-05,0.3216056227684021,0.946851372718811,0.0144036086113862,0.0368305967134761,-0.3158586832841819,-0.0160771012306213,-0.0322071313858032,-0.775054931640625,74,120,15667,12234
13.4,1788513629924,5.97183084487915,4.197183132171631,-0.0069117690436542,-0.0009336810326203,0.3415930569171905,0.9398220777511596,0.1534632351596102,-0.0130988698792651,4.233680557638317e-05,0.0066946153528988,0.0164014957845211,-0.305421769618988,-0.0064564002677798,0.0003126440569758,0.3163971900939941,0.9486048817634584,0.006929356341419,0.0128137811884215,-0.2676457000523896,-0.1393747925758361,0.0721095204353332,0.77667236328125,74,120,15667,12234
13.5,1788513630024,5.97183084487915,4.197183132171631,-0.0058306325227022,0.0002042750129476,0.3087430596351623,0.951127588748932,0.1526598609623972,-0.0118375690889967,3.7089967403600265e-05,0.0143337063491344,0.004318153951317,-0.2533459961414337,-0.0052563864737749,0.0008563362061977,0.2924464344978332,0.9562671184539796,0.0245636148284009,0.0293039357042113,-0.1552924431805653,-0.0172053575515747,0.2734909653663635,0.0235195159912109,74,120,15667,12234
13.6,1788513630124,6.0,4.2816901206970215,-0.0055090948008,0.0010323947062715,0.2975705862045288,0.9546833038330078,0.16305879095053,-0.0091394006841108,-6.460916749339793e-05,0.0094997398555278,0.0303224995732307,-0.1571853309869766,-0.0054334951564669,0.0008028969168663,0.2894302606582641,0.9571833610534668,-0.0089038330710339,0.0007619681916155,-0.1580188237918535,-0.0881827473640441,-0.2371751070022583,-0.6542520523071289,74,120,15667,12234
13.7,1788513630224,5.605633735656738,4.676056385040283,-0.0058045648038387,0.0020620580762624,0.2887223660945892,0.9573930501937866,0.1574023942119768,-0.0121451725137493,4.402298597592963e-06,-0.0051617007702589,0.036348532885313,-0.1884721219539642,-0.0059813698753714,0.0026920987293124,0.2820612490177154,0.9593740105628968,0.0003127513031175,0.0695719344296503,-0.1594589230893309,0.0475751757621765,-0.1424965858459472,-0.0532712936401367,68,91,13455,12881
13.8,1788513630324,5.295774459838867,4.8450703620910645,-0.0068953684531152,0.0046139694750308,0.2826909124851227,0.9591751098632812,0.1665750952961069,-0.009476718347797,-0.0002032002908871,-0.0081790350377559,0.0263250228017568,-0.1356452852487564,-0.0069351894780993,0.0052530281245708,0.2777751386165619,0.9606067538261414,-0.0036067784572625,0.0899737920527194,-0.1290064951592341,0.1672365069389343,0.1886972784996032,-1.7465085983276367,69,87,13009,13531
13.9,1788513630424,3.859154939651489,2.873239517211914,-0.0068509029224514,0.0037582674995064,0.2806363701820373,0.9597823023796082,0.1591084022344464,-0.0095047393942294,0.0002530838158607,-0.0057398951612412,-0.0254228692501783,-0.0664357542991638,-0.0072316620498895,0.0035579930990934,0.2732326984405517,0.9619141817092896,-0.025127994151208,-0.0290375986845135,-0.0699839635747471,-0.561124324798584,-0.0910640358924865,-1.196004867553711,50,102,4995,2707
14.0,1788513630524,0.98591548204422,0.0,-0.0074139684438705,0.0034755067899823,0.2756898105144501,0.9612118005752563,0.0912616182168275,-0.0067521756082917,2.4183105771338687e-05,-0.0049310480244457,-0.0017985629383474,-0.1285674571990966,-0.0072876811027526,0.0028576022014021,0.2630309164524078,0.9647557139396667,-0.0007548011485824,0.0013471758295986,-0.2202659989546784,-0.4899322986602783,-0.0715444684028625,-0.1880226135253906,50,102,4995,2707
14.1,1788513630624,0.0,-0.1690140813589096,-0.0074139684438705,0.0034755067899823,0.2756898105144501,0.9612118005752563,0.0912616182168275,-0.0067521756082917,2.4183105771338687e-05,-0.0049310480244457,-0.0017985629383474,-0.1285674571990966,-0.0072876811027526,0.0028576022014021,0.2630309164524078,0.9647557139396667,-0.0007548011485824,0.0013471758295986,-0.2202659989546784,-0.4899322986602783,-0.0715444684028625,-0.1880226135253906,50,102,4995,2707
14.2,1788513630724,0.0,-0.1690140813589096,-0.0072096833027899,0.0027101205196231,0.2658658027648926,0.9639792442321776,-0.0006341866642469,0.0003012528625496,-3.2778241694724663e-09,1.2698952112089046e-08,-7.25654425437483e-09,9.288376645599784e-07,-0.0072876811027526,0.0028576022014021,0.2630309164524078,0.9647557139396667,-0.0007548011485824,0.0013471758295986,-0.2202659989546784,-0.4899322986602783,-0.0715444684028625,-0.1880226135253906,50,102,4995,2707
14.3,1788513630824,-0.1690140813589096,0.1971831023693084,-0.0072096833027899,0.0027101205196231,0.2658658027648926,0.9639792442321776,0.0006372389654147,-0.0001985581230494,-2.264013018057873e-09,0.0,0.0,0.0,-0.0072368662804365,0.0026304684579372,0.265389621257782,0.9641104936599731,-0.0032446487024086,-0.0146936510520884,0.1954543332410634,0.2052666544914245,-0.0294257998466491,0.0468769073486328,177,96,-6288,6220
14.4,1788513630924,-0.7042253613471985,0.9577465057373048,-0.0072096833027899,0.0027101205196231,0.2658658027648926,0.9639792442321776,0.0006372389654147,-0.0001985581230494,-2.264013018057873e-09,0.0,0.0,0.0,-0.0073231989517807,0.0027140025049448,0.2756995558738708,0.961212158203125,-0.0023422670703387,-0.0028822901440577,0.2581491466209907,0.4053190946578979,-0.2905352711677551,-0.1652679443359375,88,41,-5302,3682
14.5,1788513631024,-0.7042253613471985,0.9577465057373048,-0.0073181758634746,0.0027297022752463,0.2789903879165649,0.9602621793746948,-0.0028061727328391,-9.95291794974747e-06,-3.607048600649338e-07,0.0020557430107146,-0.002047577407211,0.2184817790985107,-0.0072731953114271,0.0027228305116295,0.2866211831569671,0.958012580871582,-8.618337779450938e-05,-0.0019148585323879,0.2846284752506632,0.0109074711799621,0.1990329027175903,-0.0374279022216796,88,41,-5302,3682
14.6,1788513631124,-0.8169013857841492,0.0,-0.0073511162772774,0.0025974628515541,0.2996581792831421,0.9540147185325624,-0.0005893682909876,-0.0009067778876897,1.204518126100916e-07,-0.0035527804866433,-0.0032488079741597,0.2565150856971741,-0.0073286751285195,0.0026191547513008,0.2950749397277832,0.9554424285888672,-0.0022428587201757,-7.698412409109945e-05,0.2539844907688335,0.1859455108642578,0.0324092507362365,0.0596351623535156,52,95,-3152,5696
14.7,1788513631224,0.0,0.0,-0.0073511162772774,0.0025974628515541,0.2996581792831421,0.9540147185325624,-0.0005893682909876,-0.0009067778876897,1.204518126100916e-07,-0.0035527804866433,-0.0032488079741597,0.2565150856971741,-0.007354000583291,0.0026469156146049,0.3020264506340027,0.953267514705658,-0.0015188673356847,-0.0036403913938627,0.1444007926931037,0.1409917473793029,-0.3503333926200866,0.0147314071655273,52,95,-3152,5696
14.8,1788513631324,3.7183098793029785,4.3380279541015625,-0.0073303868994116,0.0025536576285958,0.3077352344989776,0.9514403939247132,0.01685470957051,-0.000929156341313,-1.7710519556634982e-09,0.0,0.0,0.0,-0.0071703204885125,0.0022498210892081,0.3023764789104461,0.953158974647522,0.0025681819019608,-0.0011655138640396,0.0596817071652171,1.086656928062439,0.2345282435417175,0.3373899459838867,193,141,13961,12535
14.9,1788513631424,3.7183098793029785,4.3380279541015625,-0.0067885341122746,0.0018070144578814,0.3097740411758423,0.9507842659950256,0.1267195005167281,-0.0015844930792069,2.5424628957918647e-05,0.0056031928397715,-0.0159464478492736,0.0364909656345844,-0.0061053996905684,0.0013562478125095,0.305383026599884,0.9522090554237366,0.0231996772936032,-0.038042680385706,0.0651817715173048,0.8847049474716187,-0.011717677116394,-0.1496572494506836,193,141,13961,12535
15.0,1788513631524,5.126760482788086,5.492957592010498,-0.0055068172514438,0.001039505470544,0.312259316444397,0.94998037815094,0.1910176173994222,-0.0039615734728099,8.783986493364587e-05,0.022818848490715,-0.0242690369486808,0.0588300414383411,-0.0048401849344372,0.0006668241694569,0.307517945766449,0.9515298008918762,0.0422436549611409,-0.0531416313632272,0.0880441983040709,-0.3160280585289001,0.3868379592895508,0.3639125823974609,53,34,12713,12828
15.1,1788513631624,4.929577350616455,4.929577350616455,-0.0055068172514438,0.001039505470544,0.312259316444397,0.94998037815094,0.1910176173994222,-0.0039615734728099,8.783986493364587e-05,0.022818848490715,-0.0242690369486808,0.0588300414383411,-0.0053025353699922,0.0018316442146897,0.3105727136135101,0.9505330324172974,0.0065340528439812,0.0165601980940189,0.0553621341022397,0.0915269255638122,0.0720757246017456,-0.9126291275024414,53,34,12713,12828
15.2,1788513631724,4.929577350616455,4.929577350616455,-0.0055068172514438,0.001039505470544,0.312259316444397,0.94998037815094,0.1910176173994222,-0.0039615734728099,8.783986493364587e-05,0.022818848490715,-0.0242690369486808,0.0588300414383411,-0.0053880279883742,0.0021411580964922,0.3098139762878418,0.9507794976234436,0.0024848322955666,0.0144974231015141,-0.0356528978349513,0.052137017250061,0.1102496981620788,0.0842247009277343,53,34,12713,12828
15.3,1788513631824,4.929577350616455,4.929577350616455,-0.0051810280419886,0.0018198918551206,0.3126676380634308,0.9498468041419984,0.1551355656951171,-0.0075135680987638,-6.802760129235846e-07,0.0023938110098242,-0.0111191235482692,-0.0816844031214714,-0.0052877720445394,0.0020717261359095,0.3079315423965454,0.951391577720642,-2.462100591989618e-05,-0.006701226925318,-0.0673640797892932,-0.1535449624061584,0.2850689888000488,1.0395793914794922,64,95,13096,13835
15.4,1788513631924,5.098591327667236,4.704225540161133,-0.0050863954238593,0.0021776435896754,0.3112934231758117,0.9502977728843688,0.1548041787935815,-0.0120528104340359,-2.084898815044154e-05,0.0087944259867072,0.01347466558218,-0.0614848732948303,-0.0053162248805165,0.0027050487697124,0.3025597333908081,0.9531118273735046,7.418692675528997e-05,0.0020038705834391,-0.0641573641417951,0.0099217891693115,-0.1120100617408752,-0.0300378799438476,83,103,14130,13215
15.5,1788513632024,5.098591327667236,4.704225540161133,-0.0050863954238593,0.0021776435896754,0.3112934231758117,0.9502977728843688,0.1548041787935815,-0.0120528104340359,-2.084898815044154e-05,0.0087944259867072,0.01347466558218,-0.0614848732948303,-0.0053162248805165,0.0027050487697124,0.3025597333908081,0.9531118273735046,7.418692675528997e-05,0.0020038705834391,-0.0641573641417951,0.0099217891693115,-0.1120100617408752,-0.0300378799438476,83,103,14130,13215
15.6,1788513632124,5.126760482788086,5.070422649383545,-0.0050863954238593,0.0021776435896754,0.3112934231758117,0.9502977728843688,0.1548041787935815,-0.0120528104340359,-2.084898815044154e-05,0.0087944259867072,0.01347466558218,-0.0614848732948303,-0.0053475545719265,0.0040471423417329,0.3013514578342438,0.9534895420074464,0.0015936206658857,0.0140947094128881,-0.019610136797008,-0.0617439150810241,-0.1836751103401184,0.343048095703125,65,72,12979,13403
15.7,1788513632224,5.126760482788086,5.070422649383545,-0.0053643784485757,0.0037444019690155,0.3073872327804565,0.9515620470046996,0.1635978574721424,-0.0049277247407207,7.254605647249776e-09,5.3200441385570236e-08,1.4509211609947671e-08,-2.476238705639844e-06,-0.0055352449417114,0.0027896473184227,0.3013026118278503,0.95350843667984,-0.0258856847721158,-0.0648189346476331,-0.0105622676541887,-0.0468552708625793,-0.0218907594680786,1.288651466369629,65,72,12979,13403
15.8,1788513632324,5.098591327667236,5.239436626434326,-0.0054942993447184,0.0032749590463936,0.307221382856369,0.9516165256500244,0.155091119246084,-0.0054780842438506,8.871186032154949e-05,-0.0111422296613454,-0.0169453024864196,-0.007409447338432,-0.004816573113203,0.0036417851224541,0.3029655516147613,0.9529823660850524,0.0062969392525203,-0.0028645389537192,0.0102173945186942,-0.5433847308158875,0.1209297776222229,1.682037353515625,60,74,12502,11874
15.9,1788513632424,3.9718310832977295,4.084506988525391,-0.0046403226442635,0.0036732302978634,0.3090606033802032,0.9510238766670228,0.1461162667250184,-0.0065652949006983,2.313572283615893e-05,0.0129522755742073,-0.0029160145204514,0.0346297249197959,-0.0045487405732274,0.0038655847311019,0.3042193055152893,0.9525833129882812,-0.0031249891443287,-0.0023127826943467,0.0303114432402155,-0.956786334514618,0.0914902687072753,0.307866096496582,60,74,12502,11874
16.0,1788513632524,0.0,0.7605633735656738,-0.0046403226442635,0.0036732302978634,0.3090606033802032,0.9510238766670228,0.1461162667250184,-0.0065652949006983,2.313572283615893e-05,0.0129522755742073,-0.0029160145204514,0.0346297249197959,-0.0045237047597765,0.0037046642974019,0.306344211101532,0.9519029259681702,-0.0014701173461256,-0.0067076355917606,0.0891289659567052,-0.527847945690155,0.0028144717216491,0.1045951843261718,245,30,-8068,2409
16.1,1788513632624,0.0,0.7605633735656738,-0.0045320261269807,0.0037549789994955,0.3164122402667999,0.9486035704612732,-0.0137416615712199,0.0014778300148791,9.35918518748018e-07,0.0009265004773624,-0.0003574859292712,0.167658656835556,-0.0045237047597765,0.0037046642974019,0.306344211101532,0.9519029259681702,-0.0014701173461256,-0.0067076355917606,0.0891289659567052,-0.527847945690155,0.0028144717216491,0.1045951843261718,245,30,-8068,2409
16.2,1788513632724,-0.8732394576072693,0.8450704216957092,-0.0046074306592345,0.0036201835609972,0.3295432329177856,0.944122314453125,0.0033078426743396,-0.0007975121686714,7.265811991005835e-07,-0.0056064366362988,-0.0033835140056908,0.2984483242034912,-0.0045925863087177,0.0036028092727065,0.3331837058067322,0.9428439140319824,-0.0005879319363855,-0.000479751931036,0.2464347180524822,-0.1192134618759155,0.0618733167648315,-0.0388555526733398,59,96,-4215,3749
16.3,1788513632824,1.211267590522766,2.676056385040283,-0.0045768152922391,0.0035058697685599,0.3431860208511352,0.9392498135566713,0.0021878996213589,-0.0024723065042454,1.5548934908871814e-07,-0.0004631077463272,-0.0052636791951954,0.250273197889328,-0.0045832823961973,0.0036239102482795,0.3367701172828674,0.9415687918663024,-0.0001955263744503,0.000326046326629,0.2517763827179382,0.1289538741111755,-0.0575920939445495,0.0192079544067382,273,147,11049,10222
16.4,1788513632924,1.211267590522766,2.676056385040283,-0.0046137445606291,0.003475178964436,0.3546988368034363,0.9349626898765564,0.0635378274696915,0.0040442434074766,-3.4485262318656783e-06,-0.0040034702979028,0.0047691538929939,0.2230958491563797,-0.004399387165904,0.0037911832332611,0.3514835238456726,0.936176061630249,0.0120492328135152,0.0103256239462456,0.0652389359862915,0.7986779808998108,0.2116768360137939,-0.5335254669189453,273,147,11049,10222
16.5,1788513633024,5.211267471313477,4.507042407989502,-0.0044548572041094,0.0037250039167702,0.3569052219390869,0.9341225624084472,0.105137069086342,-0.0088836439997226,-1.3605791475575428e-05,0.0096300719305872,0.007254249881953,0.1008413434028625,-0.0044774571433663,0.0038470774888992,0.3488602936267853,0.9371562004089355,0.0122289260164793,0.0059714068263193,-0.0826081319030293,0.7166170477867126,-0.7020050883293152,-0.343724250793457,186,112,16841,12735
16.6,1788513633124,5.633802890777588,4.450704097747803,-0.0043941298499703,0.0041307620704174,0.3490608334541321,0.9370806217193604,0.176000868811422,-0.0132877988143916,-0.0001055215032666,0.0059185940772295,0.0037427621427923,-0.1950249820947647,-0.004342776723206,0.0040420498698949,0.3428883254528045,0.9393575191497804,0.0067423813351243,0.0046358865159688,-0.1897703638979883,0.2256180644035339,-0.2840659022331238,0.7515239715576172,56,70,14002,11872
16.7,1788513633224,5.633802890777588,4.450704097747803,-0.004176951944828,0.0041278824210166,0.3396053612232208,0.9405496716499328,0.1502838529294233,-0.0075500810501866,-9.36552527498531e-05,-0.0035625251475721,0.0114525314420461,-0.1874726265668869,-0.0039836158975958,0.0039571048691868,0.3327406644821167,0.943001627922058,0.0120914163352115,-0.0633468415334182,-0.2070624130643784,-0.2693614363670349,-0.2495203018188476,1.6080207824707031,56,70,14002,11872
16.8,1788513633324,5.183098793029785,4.929577350616455,-0.0040782988071441,0.0038179587572813,0.3359442353248596,0.9418652653694152,0.1540264636725731,-0.0077023539486439,3.223960877748732e-05,0.0003396620741114,-0.0131432591006159,-0.1622842699289322,-0.0032313279807567,0.0038361009210348,0.3252916932106018,0.9456003904342652,0.0284025771968412,-0.0100842467880606,-0.0894118159461686,0.0093663930892944,0.1243354678153991,-0.9828338623046876,56,70,14002,11872
16.9,1788513633424,5.183098793029785,4.929577350616455,-0.0022271461784839,0.0032455720938742,0.3302052617073059,0.9439008831977844,0.1665466004100235,-0.0106595946734607,0.0001592333648185,0.02639726921916,-0.0390641391277313,-0.0254054572433233,-0.0030900677666068,0.0027029998600482,0.3214332461357116,0.9469233155250548,-0.0377129688181698,-0.1590460135619721,-0.0847915228332759,0.0584103465080261,-0.2405661344528198,4.109567642211914,56,70,14002,11872
17.0,1788513633524,5.211267471313477,5.154929637908936,-0.003110553137958,0.0043859775178134,0.3285461068153381,0.9444725513458252,0.1526573110811254,-0.0085813262956936,-0.0002083188998944,-0.0188278127461671,0.0572399944067001,-0.0733344480395317,-0.002036559395492,0.0015129474923014,0.3211809992790222,0.9470144510269164,0.0010852454944841,-0.0413309101545652,-0.0071905413998149,-0.074524700641632,-0.1319079399108886,-1.3292264938354492,65,65,13682,12067
17.1,1788513633624,5.211267471313477,5.154929637908936,-0.0023412290029227,0.0018329741433262,0.3270479440689087,0.945003092288971,0.1586337131386153,-0.0052162634905069,-5.967351161682517e-05,0.003033758373931,0.0229147281497716,0.0002174748951802,-0.0016512321308255,0.0001409212127327,0.3183870613574981,0.9479593634605408,-0.0022655975254622,-0.0265424896411018,-0.0532688273062141,-0.2105748057365417,-0.1046549081802368,1.3124122619628906,65,65,13682,12067
17.2,1788513633724,5.183098793029785,4.957746505737305,-0.0023412290029227,0.0018329741433262,0.3270479440689087,0.945003092288971,0.1586337131386153,-0.0052162634905069,-5.967351161682517e-05,0.003033758373931,0.0229147281497716,0.0002174748951802,-0.0016512321308255,0.0001409212127327,0.3183870613574981,0.9479593634605408,-0.0022655975254622,-0.0265424896411018,-0.0532688273062141,-0.2105748057365417,-0.1046549081802368,1.3124122619628906,80,101,13800,12723
17.3,1788513633824,5.183098793029785,4.957746505737305,-0.0031037698499858,0.0007510196301154,0.3186586499214172,0.9478641152381896,0.1611696846397067,0.0003266796337191,-0.0002119220481106,-0.0502297133207321,0.0579856745898723,-0.1733794510364532,-0.003999182023108,0.0018153842538595,0.3085812628269195,0.9511879086494446,-0.0167479128525627,0.0619365118341271,-0.1651500746921188,0.1301774978637695,0.4470510482788086,-0.9846324920654296,80,101,13800,12723
17.4,1788513633924,5.267605781555176,4.957746505737305,-0.0046162195503711,0.0025440980680286,0.3106351196765899,0.9505146741867064,0.1669129512899512,-0.0039433423944887,-0.0001144400200903,-0.0143966684117913,0.0453500039875507,-0.1726439893245697,-0.0050392337143421,0.0025111977010965,0.3019659221172333,0.9533021450042723,-0.0079100720937668,0.0084938901806879,-0.0416388044269483,0.2727584838867187,0.0409298539161682,0.6704092025756836,63,67,14761,12195
17.5,1788513634024,5.211267471313477,4.901408672332764,-0.0048970491625368,0.0029999087564647,0.3086013197898865,0.9511741995811462,0.1624471886366472,-0.004610417275096,-3.065542034728207e-06,-0.0049082883633673,0.0221353024244308,-0.0895404517650604,-0.0051571503281593,0.0019227070733904,0.2972463369369507,0.95478492975235,-0.0019366603037373,0.0580631657793165,-0.0327644675464232,0.3939677476882934,0.0993566513061523,-1.9780998229980469,68,82,13574,12660
17.6,1788513634124,5.211267471313477,4.901408672332764,-0.0048970491625368,0.0029999087564647,0.3086013197898865,0.9511741995811462,0.1624471886366472,-0.004610417275096,-3.065542034728207e-06,-0.0049082883633673,0.0221353024244308,-0.0895404517650604,-0.0048537161201238,0.0007888162508606,0.2945547997951507,0.9556220173835754,-0.0247208480273954,-0.0426901100665141,-0.1205234717837693,-0.1574141383171081,-0.251579225063324,1.7000408172607422,68,82,13574,12660
17.7,1788513634224,5.746479034423828,4.591549396514893,-0.0048970491625368,0.0029999087564647,0.3086013197898865,0.9511741995811462,0.1624471886366472,-0.004610417275096,-3.065542034728207e-06,-0.0049082883633673,0.0221353024244308,-0.0895404517650604,-0.0051933713257312,0.0004140334203839,0.2862807810306549,0.9581316113471984,-0.024226337200201,-0.019713968173378,-0.2066116299358615,0.1092709302902221,0.0104806423187255,1.0180330276489258,68,82,13574,12660
17.8,1788513634324,5.746479034423828,4.591549396514893,-0.0052464143373072,0.0007549742003902,0.2908487915992737,0.9567543268203736,0.1706760477354506,-0.0011518554334449,7.205043125297618e-05,-0.007914425805211,-0.0020717717707157,-0.1480839252471923,-0.0057103931903839,0.0004260949790477,0.2810432314872741,0.959678053855896,-0.0169557513138722,-0.0119770394379597,-0.1135349516057127,0.0636420845985412,0.0584306120872497,1.357560157775879,68,82,13574,12660
17.9,1788513634424,5.6619720458984375,4.732394218444824,-0.0061814747750759,3.646453842520714e-05,0.2844136655330658,0.9586816430091858,0.1601601644346342,-0.0037157112652381,6.946667740731738e-05,-0.0318453758955001,-0.0221227034926414,-0.1595421284437179,-0.0057103931903839,0.0004260949790477,0.2810432314872741,0.959678053855896,-0.0169557513138722,-0.0119770394379597,-0.1135349516057127,0.0636420845985412,0.0584306120872497,1.357560157775879,85,62,13896,11130
18.0,1788513634524,5.014084339141846,4.732394218444824,-0.006517460104078,-0.0009789152536541,0.2801205217838287,0.9599422216415404,0.1648130197785106,-0.0086930981633968,0.000116656748761,-0.025147458538413,-0.0355090536177158,-0.1868751645088195,-0.0064651761204004,0.000658905133605,0.2729473114013672,0.9620071053504944,0.0100618575328947,0.0639137079609745,0.0151752549409724,0.2093120217323303,-0.0055748224258422,1.8070545196533203,59,99,12788,13151
18.1,1788513634624,5.014084339141846,4.732394218444824,-0.006517460104078,-0.0009789152536541,0.2801205217838287,0.9599422216415404,0.1648130197785106,-0.0086930981633968,0.000116656748761,-0.025147458538413,-0.0355090536177158,-0.1868751645088195,-0.0062586236745119,7.835496217012405e-05,0.2730112373828888,0.9619905352592468,0.0026809703167201,-0.0411788250423536,0.0041750236394444,0.0744116902351379,-0.1868148446083068,1.150115966796875,59,99,12788,13151
18.2,1788513634724,5.070422649383545,4.985915660858154,-0.0059868893586099,0.0007251602364704,0.2770185172557831,0.9608455896377563,0.1629544926293858,-0.0038624557370543,-5.8728408332978044e-09,0.012212605215609,0.0119412532076239,-0.0212308149784803,-0.0058771213516592,0.0017458265647292,0.2717278301715851,0.9623546600341796,0.0063735758676613,0.0324387888400247,0.0171801421139847,0.2068563103675842,-0.0315237641334533,0.5567378997802734,64,70,13801,12616
18.3,1788513634824,5.070422649383545,4.788732528686523,-0.0058759902603924,0.0013970826985314,0.2770767211914062,0.9608287811279296,0.1587546673892179,-0.0045669484066408,4.947086100482694e-09,0.0031978718470782,0.0072230426594614,-0.0118791852146387,-0.0058440268039703,0.0015972070395946,0.2710081934928894,0.9625580310821532,-0.0002987827657945,-0.007410640415055,-0.0374466942288521,0.0825621485710144,-0.2444854974746704,-1.2911176681518557,109,94,14167,13083
18.4,1788513634924,4.11267614364624,5.97183084487915,-0.0058759902603924,0.0013970826985314,0.2770767211914062,0.9608287811279296,0.1587546673892179,-0.0045669484066408,4.947086100482694e-09,0.0031978718470782,0.0072230426594614,-0.0118791852146387,-0.0060298023745417,0.0007225582376122,0.2770876288414001,0.960825502872467,-0.008128728529516,-0.0227616472512369,0.2677381521314456,-0.2763125300407409,0.4075101613998413,0.5816411972045898,109,94,14167,13083
18.5,1788513635024,4.11267614364624,6.056337833404541,-0.0061615444719791,0.0008625322952866,0.2846477925777435,0.9586119055747986,0.1635579881316407,0.0041633123050346,8.91323993600486e-05,-0.0099311973899602,-0.0220450237393379,0.2955233454704284,-0.0058998903259634,0.0003039287403225,0.2968519628047943,0.9549052715301514,0.0069268605852238,-0.0310437209229207,0.3298498715166265,0.2032251954078674,-0.1964333653450012,-1.6855058670043943,69,56,11329,15162
18.6,1788513635124,4.309859275817871,6.11267614364624,-0.0061615444719791,0.0008625322952866,0.2846477925777435,0.9586119055747986,0.1635579881316407,0.0041633123050346,8.91323993600486e-05,-0.0099311973899602,-0.0220450237393379,0.2955233454704284,-0.0069122742861509,0.0026251375675201,0.3053427338600158,0.9522137641906738,-0.0100644954979919,0.0508969679289851,0.2432445223257187,-0.5987755656242371,0.0499525666236877,-0.2257881164550781,37,69,11996,13844
18.7,1788513635224,5.014084339141846,5.267605781555176,-0.0069781937636435,0.00233662314713,0.3142109811306,0.949324667453766,0.1716532356444348,0.0001529231991262,7.491796103312285e-05,-0.0098179783672094,-0.0127545436844229,0.2370573878288269,-0.0069705927744507,0.0025108763948082,0.3166784048080444,0.9485040903091432,3.820219720613703e-05,-0.002964559685758,0.0702937270332983,0.3466901779174804,-0.01620614528656,1.1574926376342771,141,37,13160,12784
18.8,1788513635324,5.014084339141846,5.267605781555176,-0.0069781937636435,0.00233662314713,0.3142109811306,0.949324667453766,0.1716532356444348,0.0001529231991262,7.491796103312285e-05,-0.0098179783672094,-0.0127545436844229,0.2370573878288269,-0.0069705927744507,0.0025108763948082,0.3166784048080444,0.9485040903091432,3.820219720613703e-05,-0.002964559685758,0.0702937270332983,0.3466901779174804,-0.01620614528656,1.1574926376342771,141,37,13160,12784
18.9,1788513635424,5.014084339141846,5.267605781555176,-0.006397720426321,0.0010145830456167,0.3230737149715423,0.9463516473770142,0.1606640066234087,0.0004860117101816,0.000190954042408,0.0017553586512804,-0.0424706041812896,0.0226543955504894,-0.006000860594213,-0.0005212379619479,0.3173505067825317,0.948289155960083,0.0051517133518982,-0.0469408239878024,-0.0215529493394896,0.3240473866462707,0.0757837891578674,-1.7502365112304688,141,37,13160,12784
19.0,1788513635524,5.323943614959717,4.8450703620910645,-0.0060377619229257,-0.0003790945047512,0.3230847716331482,0.9463506937026978,0.1706963068972972,-0.0056615504992104,0.0001533777708647,-0.0016716370591893,-0.0362856052815914,-0.0166776552796363,-0.0057822242379188,-0.000769006088376,0.3161383271217346,0.948695182800293,0.0054292923228454,-0.012306890424456,-0.0530953056773018,0.0637609958648681,0.0507728457450866,-1.9490609169006348,141,37,13160,12784
19.1,1788513635624,5.323943614959717,4.8450703620910645,-0.0057044159621,-0.0013967951526865,0.321081131696701,0.9470334649086,0.1631448030384602,-0.0080321347636073,0.0001146125761839,-0.0003138821921311,-0.033294528722763,-0.0667812302708625,-0.0048519698902964,-0.001618661917746,0.3197123110294342,0.9475008845329284,0.0008470131128182,0.0164656281672153,0.1337565852904897,0.0883035063743591,0.1582217812538147,-1.316279411315918,141,37,13160,12784
19.2,1788513635724,5.098591327667236,4.901408672332764,-0.0047933151945471,-0.001685173716396,0.3251000344753265,0.945665955543518,0.1679790080498611,0.0037660721691835,4.111264572497479e-05,0.0119191957637667,-0.0012580442707985,0.1278241723775863,-0.0057053472846746,-0.0010208673775196,0.320261001586914,0.9473116397857666,-0.0058276799360674,0.0135809782811392,-0.0096534604893826,0.6530922055244446,0.0110561251640319,-0.6013412475585938,141,37,13160,12784
19.3,1788513635824,5.098591327667236,4.901408672332764,-0.0057105757296085,-0.0010303955059498,0.3253660500049591,0.9455702900886536,0.1669892010700289,-0.0017227076845464,-5.11051293608605e-05,-0.0003746232832781,0.0094974786043167,-0.0152513915672898,-0.0057159075513482,-0.0005305306985974,0.3162316977977752,0.948664665222168,-0.0087720522207093,0.0313836530667411,-0.1614773517926773,-0.0528124570846557,-0.2592508792877197,-1.4785184860229492,141,37,13160,12784
19.4,1788513635924,5.211267471313477,4.816901206970215,-0.0056199640966951,-0.0008479778189212,0.3244297802448272,0.9458927512168884,0.1732373729672773,-0.0061066467258003,-6.488075436673232e-09,0.0061408369801938,0.0062576998025178,-0.0416359826922416,-0.0060541285201907,-0.0011788662523031,0.3077861368656158,0.9514356255531312,-0.0128477069061424,-0.0139603807361494,-0.1982194289112985,-0.240950345993042,0.0469453334808349,1.235987663269043,67,57,13217,12858
19.5,1788513636024,5.183098793029785,4.929577350616455,-0.005822429433465,-0.0013140295632183,0.3161795437335968,0.9486805200576782,0.1595160728459699,-0.0074804681831056,8.606014763632093e-06,-0.0123474225401878,-0.0211300309747457,-0.2006162106990814,-0.006292981095612,-0.0010322928428649,0.3042308390140533,0.9525770545005798,0.0007509130361957,0.0125682214577325,-0.0499973107131398,0.0577952861785888,0.2499482631683349,-1.3338823318481443,67,57,13217,12858
19.6,1788513636124,5.183098793029785,4.929577350616455,-0.005822429433465,-0.0013140295632183,0.3161795437335968,0.9486805200576782,0.1595160728459699,-0.0074804681831056,8.606014763632093e-06,-0.0123474225401878,-0.0211300309747457,-0.2006162106990814,-0.0068852445110678,-0.0006774282082915,0.3025183975696563,0.9531185030937196,-0.0184186059052597,0.0092311193903042,-0.0498056240916265,0.0917675495147705,0.1448920965194702,-0.2636251449584961,70,70,13417,12908
19.7,1788513636224,5.239436626434326,5.070422649383545,-0.0069974735379219,-0.0006943613989278,0.3079031407833099,0.9513916969299316,0.1634042946266901,-0.0106740027494749,-3.826537435079061e-05,-0.0117996660992503,0.009958735667169,-0.0366369932889938,-0.007115296088159,-0.0004892954602837,0.3002808690071106,0.95382422208786,0.0019198974394142,0.0092650291558117,-0.0107655489082423,-0.1053479313850402,0.1583625078201294,-0.5571737289428711,86,105,13245,12593
19.8,1788513636324,5.239436626434326,5.070422649383545,-0.006678994745016,-0.0019827280193567,0.3057212829589844,0.9520955085754396,0.1581987386059201,-0.0066797842427116,6.776227718259501e-05,0.0007851246627978,-0.0565621592104435,-0.0274457167834043,-0.0074935322627425,-0.0014533093199133,0.2973544895648956,0.9547367095947266,0.0299434423908932,0.0167557127670697,-0.092341775640839,0.1195497512817382,-0.591646671295166,-0.2574224472045898,86,105,13245,12593
19.9,1788513636424,5.549295902252197,4.507042407989502,-0.006678994745016,-0.0019827280193567,0.3057212829589844,0.9520955085754396,0.1581987386059201,-0.0066797842427116,6.776227718259501e-05,0.0007851246627978,-0.0565621592104435,-0.0274457167834043,-0.0074935322627425,-0.0014533093199133,0.2973544895648956,0.9547367095947266,0.0299434423908932,0.0167557127670697,-0.092341775640839,0.1195497512817382,-0.591646671295166,-0.2574224472045898,86,105,13245,12593
20.0,1788513636524,5.6619720458984375,4.591549396514893,-0.0068679163232445,-6.0701509937644005e-05,0.2940123081207275,0.9557769298553468,0.1565548829393577,-0.0119920378242843,-5.558240536136363e-05,0.0109510812908411,0.0143826371058821,-0.1747376471757888,-0.006808535195887,0.0005218917503952,0.2822678089141845,0.959311306476593,0.0075982138686865,-0.0014378122632107,-0.1731157632645511,-0.2192918062210083,0.1071828603744506,0.9417753219604492,90,82,14289,12465
20.1,1788513636624,5.492957592010498,4.535211086273193,-0.0068679163232445,-6.0701509937644005e-05,0.2940123081207275,0.9557769298553468,0.1565548829393577,-0.0119920378242843,-5.558240536136363e-05,0.0109510812908411,0.0143826371058821,-0.1747376471757888,-0.006808535195887,0.0005218917503952,0.2822678089141845,0.959311306476593,0.0075982138686865,-0.0014378122632107,-0.1731157632645511,-0.2192918062210083,0.1071828603744506,0.9417753219604492,90,82,14289,12465
20.2,1788513636724,5.492957592010498,4.535211086273193,-0.0068833604454994,0.0008274291176348,0.2831873893737793,0.9590395092964172,0.1581752859583489,-0.0061086009821232,2.8085658683457183e-05,-0.0005931099876761,0.0062822788022458,-0.1560689508914947,-0.0069676395505666,0.0003542508929967,0.2679692804813385,0.9634022116661072,-0.0092032459518546,-0.0267875334352198,-0.1832047330547667,-0.5645986199378967,-0.3637552857398987,2.547654151916504,90,82,14289,12465
20.3,1788513636824,5.492957592010498,4.450704097747803,-0.0069429567083716,0.0001423521898686,0.2752502560615539,0.9613475799560548,0.1643048828152304,-0.0055486381931318,5.981166416588503e-05,-0.0099200038239359,-0.0331543311476707,-0.1809950321912765,-0.0069181034341454,0.0001074662432074,0.2641131579875946,0.9644668698310852,0.0114940530973466,-0.0321597871973841,-0.1550827142579507,-0.1406174302101135,-0.420645534992218,2.1020421981811523,69,77,14405,12271
20.4,1788513636924,5.464788913726807,4.591549396514893,-0.0066869263537228,-0.0012302859686315,0.2644168138504028,0.9643845558166504,0.1585915807555713,-0.0071897345725901,-2.7056750314935654e-05,0.0014297091402113,-0.0121584506705403,-0.1482809484004974,-0.0060963574796915,-0.00111542083323,0.2526903450489044,0.9675273895263672,0.0297292437171528,0.0319384412165764,-0.126270298851729,-0.3934111595153808,0.0016742944717407,1.163312911987305,69,77,14405,12271
20.5,1788513637024,5.633802890777588,4.619718074798584,-0.0063413330353796,-0.0008074735524132,0.2579113841056824,0.966147482395172,0.1610151713655541,-0.008925519832481,-2.9563941649175397e-05,0.0165660418570041,0.0160786602646112,-0.1317528635263443,-0.0060963574796915,-0.00111542083323,0.2526903450489044,0.9675273895263672,0.0297292437171528,0.0319384412165764,-0.126270298851729,-0.3934111595153808,0.0016742944717407,1.163312911987305,69,77,14405,12271
20.6,1788513637124,5.239436626434326,4.760563373565674,-0.0072318296879529,0.0005676535656675,0.2506725490093231,0.9680446982383728,0.1705157622029064,-0.0094907724453308,4.431870886015516e-05,-0.0212344750761985,-0.0608041062951087,-0.1438183486461639,-0.0075684646144509,0.0012464113533496,0.2432749718427658,0.9699270129203796,-0.0048725811641846,0.0691771759885439,-0.0780704811061048,0.0943458676338195,0.2751027345657348,-3.068555355072021,52,140,13995,12842
20.7,1788513637224,5.267605781555176,4.788732528686523,-0.0075667733326554,0.0002002648543566,0.2478124648332595,0.968778431415558,0.1561716825704225,-0.0026590617810271,0.0001090951337701,-0.0101631339639425,-0.028123527765274,-0.0695690214633941,-0.0075684646144509,0.0012464113533496,0.2432749718427658,0.9699270129203796,-0.0048725811641846,0.0691771759885439,-0.0780704811061048,0.0943458676338195,0.2751027345657348,-3.068555355072021,45,135,12994,13313
20.8,1788513637324,5.239436626434326,4.873239517211914,-0.0075667733326554,0.0002002648543566,0.2478124648332595,0.968778431415558,0.1561716825704225,-0.0026590617810271,0.0001090951337701,-0.0101631339639425,-0.028123527765274,-0.0695690214633941,-0.0079388814046978,-0.0002423794940114,0.2385110706090927,0.971107304096222,-0.0084072636650794,-0.0288852951609886,-0.0610216492932195,0.0222415328025817,-0.4751929044723511,-0.627349853515625,78,73,13451,13112
20.9,1788513637424,5.183098793029785,4.816901206970215,-0.0082614757120609,-1.4086253941059113e-05,0.2429005056619644,0.970016062259674,0.1691786990294838,-0.0015833371593817,-4.002333280020993e-05,-0.0099673848599195,0.0095902206376194,-0.069356620311737,-0.0079655516892671,0.00037348177284,0.2351334542036056,0.9719303846359252,0.006886219552132,0.0094301870278781,-0.0442031028275465,0.0106746554374694,-0.0116395950317382,0.091165542602539,78,73,13451,13112
21.0,1788513637524,4.3380279541015625,3.88732385635376,-0.0051402081735432,-0.0022178392391651,0.2408300191164016,0.9705511331558228,0.1738529167816105,-0.006161644722851,0.000165579902564,0.0868328064680099,-0.1290121674537658,-0.0134695312008261,-0.0065973279997706,-0.000174175016582,0.2345970422029495,0.972070336341858,0.0772928876662658,-0.0545626457938901,-0.0359290484246931,-0.270922839641571,-0.1976153254508972,-0.1463613510131836,11,58,9316,6086
21.1,1788513637624,3.0985915660858154,2.1408450603485107,-0.0051402081735432,-0.0022178392391651,0.2408300191164016,0.9705511331558228,0.1738529167816105,-0.006161644722851,0.000165579902564,0.0868328064680099,-0.1290121674537658,-0.0134695312008261,-0.005625925026834,-0.0010576546192169,0.2290758788585662,0.9733917713165284,-0.0051179802296888,-0.0106842161242831,-0.1863201720691772,-1.3291853666305542,0.2483177185058593,2.7228240966796875,24,59,5073,1268
21.2,1788513637724,3.0985915660858154,2.1408450603485107,-0.0056712375953793,-0.0015368862077593,0.2255000323057174,0.9742254614830016,0.0140224633814209,0.0001542634586754,1.354068056317701e-06,-0.0016129194991663,-0.0022081832867115,-0.183879867196083,-0.005625925026834,-0.0010576546192169,0.2290758788585662,0.9733917713165284,-0.0051179802296888,-0.0106842161242831,-0.1863201720691772,-1.3291853666305542,0.2483177185058593,2.7228240966796875,24,59,5073,1268
21.3,1788513637824,0.0,-1.042253494262695,-0.0055851214565336,-0.0016772007802501,0.2208908796310424,0.9752811193466188,-0.0154458379211032,0.0020606869701313,-1.4715376572086692e-06,0.0021224555093795,-0.0053251599892973,-0.1962091028690338,-0.0054353317245841,-0.001638731919229,0.2052885591983795,0.9786850214004515,-0.0017078791656792,0.002843143539174,-0.2496685518512952,0.2284625172615051,-0.0821946859359741,0.1365032196044922,57,88,4957,-3844
21.4,1788513637924,0.0,-1.042253494262695,-0.0053730551153421,-0.0017185772303491,0.2093509137630462,0.977824330329895,-0.0073026088686132,0.0037793777591108,7.40513042163435e-08,0.0016821736935526,0.0005335618625395,-0.2535223960876465,-0.0052268579602241,-0.0016792593523859,0.1906255632638931,0.981647491455078,0.0020088431402152,-0.0003282563220091,-0.1343419620359028,-0.267787218093872,0.2603172659873962,-0.1049184799194336,0,57,0,0
21.5,1788513638024,0.0,-0.5070422291755676,-0.0052129086107015,-0.0017634904943406,0.1965727061033249,0.980473816394806,-0.006454772750289,0.0029413030920082,-2.35729882945272e-07,0.0010141666280105,-0.0017227169591933,-0.0882698744535446,-0.0052268579602241,-0.0016792593523859,0.1906255632638931,0.981647491455078,0.0020088431402152,-0.0003282563220091,-0.1343419620359028,-0.267787218093872,0.2603172659873962,-0.1049184799194336,0,57,0,0
21.6,1788513638124,-0.9014084339141846,0.0,-0.0052844686433672,-0.001821907935664,0.1993819773197174,0.979905903339386,-0.0033159016008733,0.0006163327542205,4.8599139129420214e-08,-0.0033329664729535,-0.0024627735838294,0.1199196353554725,-0.0054627871140837,-0.001592238433659,0.2037897258996963,0.9789981245994568,-0.0038331996336774,0.0031080119292016,0.2407779845453,-0.0931594967842102,-0.1341180801391601,-0.0950222015380859,2,83,-2558,3224
21.7,1788513638224,-0.9014084339141846,0.0,-0.0052844686433672,-0.001821907935664,0.1993819773197174,0.979905903339386,-0.0033159016008733,0.0006163327542205,4.8599139129420214e-08,-0.0033329664729535,-0.0024627735838294,0.1199196353554725,-0.0054703243076801,-0.0016080178320407,0.2067401856184005,0.9783793091773988,-0.0004692522260042,-0.0015516928707465,0.150954762933668,0.2585645318031311,0.0148300528526306,-0.0084409713745117,2,83,-2558,3224
21.8,1788513638324,0.7323943376541138,-0.7887324094772339,-0.0054508824832737,-0.0017032143659889,0.2110133618116378,0.9774665236473083,0.0071505247774536,-0.0004002202401637,-1.3591859950906152e-07,-0.0008056315709836,-0.0003886858467012,-0.0877412259578704,-0.0051906565204262,-0.001747983507812,0.1888987272977829,0.9819812774658204,0.0042981513965439,-0.0025860349408321,-0.2311233047868384,0.1501968502998352,-0.0299481749534606,0.044778823852539,67,101,4574,-4899
21.9,1788513638424,0.9014084339141846,-0.8169013857841492,-0.0054508824832737,-0.0017032143659889,0.2110133618116378,0.9774665236473083,0.0071505247774536,-0.0004002202401637,-1.3591859950906152e-07,-0.0008056315709836,-0.0003886858467012,-0.0877412259578704,-0.0051906565204262,-0.001747983507812,0.1888987272977829,0.9819812774658204,0.0042981513965439,-0.0025860349408321,-0.2311233047868384,0.1501968502998352,-0.0299481749534606,0.044778823852539,161,0,7934,1442
22.0,1788513638524,0.9014084339141846,-0.8169013857841492,-0.005155274644494,-0.0016405943315476,0.1773438900709152,0.984134078025818,0.0207725849625131,0.0003876666477616,-4.579008419063121e-06,-0.0037565170787274,0.0088866185396909,-0.3430335521697998,-0.0051366025581955,-0.001636141911149,0.1734918057918548,0.9848206043243408,-0.0027939227327315,0.0131999070800689,-0.3403624138463682,0.9142937660217284,-0.0006548762321472,-0.055943489074707,161,0,7934,1442
22.1,1788513638624,0.9014084339141846,-0.8169013857841492,-0.0051848995499312,-0.0016980394721031,0.1709950119256973,0.9852567911148072,0.0606120972829632,-0.0036634154623018,1.1088765328523704e-05,-0.00183384004049,-0.0006968206143938,-0.268900990486145,-0.0051366025581955,-0.001636141911149,0.1734918057918548,0.9848206043243408,-0.0027939227327315,0.0131999070800689,-0.3403624138463682,0.9142937660217284,-0.0006548762321472,-0.055943489074707,161,0,7934,1442
22.2,1788513638724,5.352112770080566,5.239436626434326,-0.0055517642758786,-0.001276226947084,0.1656099557876587,0.9861748814582824,0.1764062691567011,-0.0056237698296374,-1.4264474552463406e-08,0.0,1.8149629577024482e-09,0.0,-0.0051366025581955,-0.001636141911149,0.1734918057918548,0.9848206043243408,-0.0027939227327315,0.0131999070800689,-0.3403624138463682,0.9142937660217284,-0.0006548762321472,-0.055943489074707,161,0,7934,1442
22.3,1788513638824,5.070422649383545,5.070422649383545,-0.0055517642758786,-0.001276226947084,0.1656099557876587,0.9861748814582824,0.1764062691567011,-0.0056237698296374,-1.4264474552463406e-08,0.0,1.8149629577024482e-09,0.0,-0.0052450373768806,-0.0014363620430231,0.1592254340648651,0.9872273206710817,0.0383334893584039,-0.1143146153222638,0.0514394819571834,0.1030468344688415,0.2297618389129638,-2.4491734504699707,51,78,13066,13535
22.4,1788513638924,5.154929637908936,5.042253494262695,-0.0053975800983607,-0.0012079933658242,0.1650815308094024,0.98626446723938,0.1669981619859619,-0.0029667558171639,-6.746266647724146e-05,0.028724642470479,-0.0283916406333446,0.0198421347886323,-0.0049533117562532,0.0003401907160878,0.1611339896917343,0.9869200587272644,0.0002724207858458,-0.0488719416252234,0.0195640518740956,-0.1994771957397461,-0.1402949094772339,1.3124284744262695,56,59,13044,13287
22.5,1788513639024,4.957746505737305,5.070422649383545,-0.0047203991562128,0.0005718172178603,0.1672116965055465,0.985909640789032,0.1632382290838574,-0.0059668769120162,-2.362499478420378e-08,0.012628293596208,0.0017636779230087,0.009899977594614,-0.0044560227543115,0.0012689726427197,0.1617883890867233,0.9868146181106568,0.0043746896975977,0.0338812427541,0.0129592718366729,0.151041567325592,0.1415256261825561,0.494232177734375,95,75,13624,13170
22.6,1788513639124,5.239436626434326,4.985915660858154,-0.0045376098714768,0.0009032442467287,0.1675484031438827,0.9858530163764954,0.1681891872620958,-0.001902561933879,3.375281027936345e-09,-1.0983964848776397e-08,2.3798591541890346e-08,-1.8745967054201171e-06,-0.0050402861088514,0.0008307276293635,0.1613447517156601,0.9868849515914916,-0.0192438249262599,-0.0097203790216321,-0.0227168247480317,-0.0106492638587951,-0.0798707008361816,0.210672378540039,85,103,12432,13372
22.7,1788513639224,5.126760482788086,4.873239517211914,-0.0052086948417127,0.0002200883463956,0.1676259040832519,0.9858368635177612,0.1649974925162156,-0.0056544551400451,1.0711111794142692e-09,-0.0017211618833243,-0.0052271597087383,0.0194524638354778,-0.0050831120461225,-0.000233550556004,0.1617084890604019,0.9868255257606506,0.0039679346295611,-0.0301779227466794,-0.0074118319654025,-0.9256554245948792,-0.1437557935714721,1.8822498321533203,97,65,14071,12665
22.8,1788513639324,5.436619758605957,4.816901206970215,-0.0047847148962318,-0.0002561214496381,0.1661265194416046,0.9860928654670716,0.1565748877188988,-0.008778015677697,-9.816114850809253e-05,0.0110872136428952,0.0577927567064762,-0.0586346611380577,-0.0049881050363183,-0.001129507087171,0.1587088257074356,0.9873122572898864,-0.0279527729681755,-0.0968768195882034,-0.1099059411216532,-0.0165851712226867,-0.0761882662773132,1.4231910705566406,79,65,13215,12820
22.9,1788513639424,5.098591327667236,4.760563373565674,-0.0049388078041374,-0.0012639453634619,0.1626188606023788,0.9866757988929749,0.1610971089652973,-0.0057587991679593,3.043446926943329e-05,-0.0012884633615612,-0.006216219626367,-0.0556634292006492,-0.0049475943669676,-0.0008707251399755,0.1561458706855774,0.9877212047576904,0.0048092132507217,0.0425640406978356,-0.0417832857664535,0.1939435005187988,0.0263010263442993,0.0628213882446289,103,90,14113,13300
23.0,1788513639524,5.239436626434326,4.788732528686523,-0.005117823369801,-0.0010348607320338,0.16014264523983,0.9870801568031312,0.165900101120381,-0.0056020606905058,-1.9535431578195373e-05,-0.0090240957215428,-0.0033431386109441,-0.0797892734408378,-0.0052455784752964,-0.0011879932135343,0.1534366011619568,0.9881438612937928,-0.0135989658094654,-0.0266667536887898,-0.0751966631636024,0.2058738470077514,0.0141674876213073,-1.346787452697754,60,72,13181,12524
23.1,1788513639624,5.267605781555176,4.704225540161133,-0.0057863015681505,0.0005058674141764,0.1565262824296951,0.9876566529273988,0.1557241043312489,-0.0061822216586063,-6.940582440653915e-05,-0.0060134916566312,0.059633869677782,-0.0585193186998367,-0.0058395434170961,0.00030227471143,0.1502891033887863,0.9886248111724854,-0.0104321505631455,0.0075258351333907,-0.0216702978150191,-3.084380865097046,-0.3696702718734741,6.831060409545898,65,104,13199,13546
23.2,1788513639724,4.957746505737305,4.647887229919434,-0.005055068526417,-0.0042452486231923,0.1559560596942901,0.9877419471740724,0.1588013006541026,-0.0086479537265831,0.0005052169407201,-0.0008616970153525,-0.2001080513000488,-0.0251468904316425,-0.0048754317685961,-0.0051434729248285,0.1490770578384399,0.9888001680374146,0.0045420062844484,-0.1961660107141715,-0.0298925608436115,0.2885332107543945,0.2581743597984314,-1.431072235107422,112,162,14696,13889
23.3,1788513639824,5.183098793029785,4.788732528686523,-0.0052627567201852,-0.0018822536803781,0.1527912467718124,0.9882426857948304,0.1665326410353648,-0.0064250887095431,-6.0028867250978695e-05,0.0004658044490497,0.016062568873167,-0.0579188540577888,-0.0052365036681294,-0.0012151161208748,0.1461875885725021,0.9892423152923584,0.0177259302951478,0.048105278922818,-0.0615878366496623,-0.0131824612617492,-0.1532416939735412,1.032939910888672,67,45,13204,12363
23.4,1788513639924,4.704225540161133,5.098591327667236,-0.0057225069031119,-0.0016061866190284,0.1506068408489227,0.9885758757591248,0.1694588321780036,-0.0069181454962477,-0.0001064373863708,-0.0008959457627497,0.0219868905842304,-0.0407545268535614,-0.0056831976398825,-0.001867339015007,0.1438714414834976,0.989578366279602,-0.0028171124954016,-0.049149342437446,-0.035239573419681,-0.0664724707603454,0.3934897780418396,1.0407562255859375,76,128,13264,14646
23.5,1788513640024,4.11267614364624,6.0,-0.0058786575682461,-0.0016129432478919,0.1514236032962799,0.9884501695632936,0.1749945022939779,0.002319066051158,-1.5048082557228078e-05,-0.0072676567360758,0.0040784501470625,0.0534991845488548,-0.0056417388841509,-0.0022130105644464,0.1483561992645263,0.9889153838157654,0.0113000219551601,-0.0447790127742933,0.1798929716948235,-0.3508905172348022,0.6829873323440552,-0.2524356842041015,32,137,10616,16075
23.6,1788513640124,4.507042407989502,5.549295902252197,-0.0051226476207375,-0.0017750523984432,0.1642571538686752,0.9864025712013244,0.171999530895138,0.0078972678835371,1.4758903191869815e-05,0.0184144526720047,-0.0028503271751105,0.333566278219223,-0.0046675279736518,-0.0028710253536701,0.1629359424114227,0.9866214394569396,0.0201603639178025,-0.0850777892370671,0.3528691341798783,0.0721096992492675,0.0366227626800537,-1.6399030685424805,38,56,12037,14110
23.7,1788513640224,4.732394218444824,5.436619758605957,-0.0052978843450546,-0.0015412947395816,0.1744285374879837,0.984654426574707,0.1638614677687312,0.001093421195616,-0.000232457947274,-0.0349005013704299,0.0663774386048317,0.1329793632030487,-0.0056957183405756,-0.0011684065684676,0.1693375706672668,0.985541045665741,-0.0205104444535688,0.0124629894415014,0.0566825108381925,-0.1776123642921447,-0.5386846661567688,0.6590719223022461,70,119,11748,14575
23.8,1788513640324,4.591549396514893,5.633802890777588,-0.0055558569729328,-0.0013738430570811,0.1814416497945785,0.9833850860595704,0.1678746156334313,0.0042227914067087,3.1469992266899296e-05,-0.0005617644055746,-0.0051655559800565,0.1775673180818557,-0.0056452760472893,-0.0012470399960875,0.176967054605484,0.9841997623443604,-0.0094397254304496,0.0120588783081129,0.1702091047284488,0.0394001603126525,0.046255886554718,-1.5036487579345703,61,58,12062,14140
23.9,1788513640424,5.239436626434326,4.873239517211914,-0.0057323011569678,-0.0019432539120316,0.1871456503868103,0.9823135137557985,0.1755919928949782,-0.0038587551078788,8.917578802004528e-05,-0.006135806441307,-0.0194267034530639,0.0428548827767372,-0.0058396933600306,-0.0019141808152198,0.1814175993204116,0.9833869338035583,-0.0085614174095576,-0.0005780079980768,0.0128713673408069,-0.109914481639862,-0.4028934836387634,-0.0099058151245117,91,43,14397,12111
24.0,1788513640524,5.014084339141846,4.985915660858154,-0.0045116310939192,-0.0008604105678386,0.1860611885786056,0.9825274348258972,0.1505161741027168,-0.0003352414821507,-0.0001568452419835,0.0699886679649353,0.0576713420450687,-0.0041075316257774,-0.0041393926367163,-0.0002803280949592,0.179766908288002,0.9837005734443665,0.0302704475372729,0.0176248264530057,-0.029086121473584,0.2986512780189514,-0.0419237613677978,0.6558113098144531,153,60,13897,13037
24.1,1788513640624,5.183098793029785,5.126760482788086,-0.0041291704401373,-0.0002012707409448,0.1846779733896255,0.9827903509140016,0.1605141918713444,-0.0061964973472584,4.232608693888219e-05,0.0036050742492079,-0.0234084036201238,-0.020054830238223,-0.0040750382468104,-0.0002443278208374,0.1786144375801086,0.9839107394218444,0.0014131446501012,-0.0260599795537238,-0.0014579226116296,0.533635139465332,-0.1552885174751281,0.8108253479003906,94,68,13027,12924
24.2,1788513640724,5.070422649383545,4.985915660858154,-0.0043025575578212,0.0003468771465122,0.1841042935848236,0.982897162437439,0.1679895271487798,-0.0051600802923108,0.0001107869299657,0.0028080991469323,-0.0208639074116945,-0.0102336751297116,-0.0043195271864533,0.0006839940324425,0.1776047050952911,0.9840922951698304,-0.0004139736310144,0.0030781921637291,-0.0172943273725383,-0.0294570922851562,0.0024018287658691,-0.4590816497802734,64,75,12984,13397
24.3,1788513640824,5.239436626434326,4.873239517211914,-0.004558140411973,0.0009372647618874,0.1826623231172561,0.9831646680831908,0.1672847430237183,-0.0057226586771298,-8.785993703129395e-05,-0.0058773141354322,0.0264291279017925,-0.0610853433609008,-0.0045093270018696,0.000219183973968,0.1752997636795044,0.984504759311676,-0.0022279442762125,-0.0531985812765304,-0.081058692799462,0.1738978028297424,-0.4001327157020569,-0.8531885147094727,70,66,13648,12866
24.4,1788513640924,5.126760482788086,4.901408672332764,-0.0044581033289432,0.000694501621183,0.1802059710025787,0.9836185574531556,0.1608466913293045,-0.004337424885093,-1.8232873397924355e-05,0.0047217532992362,0.0060634375549852,-0.0524894297122955,-0.0046416772529482,0.0008373744785785,0.1733798533678054,0.9848437905311584,-0.0143311226537668,0.0213297395377627,-0.0507652007653468,0.0427073240280151,0.1272572875022888,1.136735916137695,79,85,13947,12768
24.5,1788513641024,5.211267471313477,4.8450703620910645,-0.0047188266180455,0.0012686614645645,0.17742620408535,0.9841220378875732,0.1654405299051448,-0.0052623095484757,-3.424295233568781e-05,-0.0023870847653597,0.0193597190082073,-0.0562625154852867,-0.0044808275997638,0.000293344259262,0.1702489852905273,0.985390841960907,0.0053707309438136,-0.0772624776323036,-0.0436883857819022,0.5605491995811462,-0.1070400476455688,-2.811638832092285,60,93,13686,13136
24.6,1788513641124,5.211267471313477,5.014084339141846,-0.0047838212922215,0.0020006103441119,0.175145223736763,0.9845289587974548,0.1727685201301204,-0.0019278317719426,-0.0003085507823689,0.00284592108801,0.0675704628229141,-0.0442889705300331,-0.0048574237152934,0.0015251860022544,0.1676420122385025,0.985834777355194,-0.0136866709932074,-0.0321768116317533,-0.0901517415321307,-0.5408135652542114,0.184988796710968,0.4560985565185547,45,39,13717,12455
24.7,1788513641224,5.239436626434326,4.901408672332764,-0.0048254122957587,0.0012210845015943,0.171858325600624,0.9851090908050536,0.1585222566846472,-0.0091826903643772,-8.593756955748249e-06,0.0003686111886054,0.0066991657949984,-0.0331557914614677,-0.0049382578581571,0.0014042211696505,0.1655372232198715,0.986190140247345,-0.00873916523129,0.0056225634943938,-0.0131391653494883,0.1490954160690307,-0.1908416152000427,1.9383611679077148,80,94,13463,12933
24.8,1788513641324,5.042253494262695,4.704225540161133,-0.0049144970253109,0.0013014724245294,0.1698050498962402,0.9854645133018494,0.161863833333964,-0.0065875624501912,1.098449536611299e-05,0.0033062440343201,0.0042506004683673,-0.0413406230509281,-0.0049170525744557,0.0018774857744574,0.1633095890283584,0.986560881137848,0.0088683260822782,0.055076372484352,-0.0333752220368939,0.4283152818679809,0.1737234592437744,-2.0084962844848637,83,112,14333,13635
24.9,1788513641424,5.352112770080566,4.901408672332764,-0.005336164496839,0.0018863088916987,0.1669703871011734,0.9859457015991212,0.1721710277278521,-0.004665933549619,0.0001342094061506,-0.0106371343135833,-0.0744391828775405,-0.0717487707734108,-0.0052911946550011,0.001225390471518,0.1604633629322052,0.987026870250702,-0.0228326724076807,-0.1447533117512781,-0.0871295230945976,0.301920473575592,-0.0358914136886596,-3.746724605560303,68,74,13056,12729
25.0,1788513641524,5.211267471313477,4.901408672332764,-0.0053426544182002,0.0017828532727435,0.1649799048900604,0.986280918121338,0.1615815971794432,-0.005049085006138,0.0001424264142101,0.0072376397438347,-0.0157798118889331,-0.0399098508059978,-0.005098920315504,0.0010829223319888,0.1581585705280304,0.9873999953269958,0.0072079142392079,-0.0582793740270768,-0.0419952164775171,0.3618890643119812,0.2617141008377075,0.013005256652832,62,114,13526,12874
25.1,1788513641624,5.323943614959717,4.788732528686523,-0.005353586282581,0.0016878052847459,0.162042811512947,0.9867677688598632,0.1680607247568744,-0.0011531654145587,3.5995717168376826e-05,-0.0040392940863966,-0.0030559389851987,-0.0804920941591262,-0.0053736791014671,0.0017331335693597,0.1558146178722381,0.9877702593803406,-0.0036500102857623,-0.0231772677419411,-0.0718728570879047,-0.1368634700775146,-0.0702900886535644,-0.1225814819335937,70,97,12991,13102
25.2,1788513641724,5.183098793029785,4.816901206970215,-0.0053841639310121,0.0020633032545447,0.1600801795721054,0.9870872497558594,0.1660333852112734,-0.0043153162515296,4.361065727122712e-10,0.0036450950428843,-0.0076061817817389,-0.0203276984393596,-0.0051051164045929,0.0015913527458906,0.1531842499971389,0.9881832003593444,0.0068712456925709,-0.0209326491231896,-0.0402522914516341,-0.1441248059272766,-0.5168303847312927,1.2336158752441406,83,63,13450,12963
25.3,1788513641824,5.239436626434326,4.929577350616455,-0.0051565775647759,0.0016130253206938,0.1582806408405304,0.9873793721199036,0.1596647386347185,-0.0041373798727854,-1.138291299224808e-05,0.0003197606420144,-0.0002738621260505,-0.044458270072937,-0.0051082260906696,0.0016349107027053,0.1520382910966873,0.9883600473403932,-0.0066986297432255,-0.0061132089919025,-0.0446477964915325,-0.0245407819747924,-0.2437317371368408,0.0091018676757812,77,78,13426,12502
25.4,1788513641924,5.239436626434326,4.619718074798584,-0.0054353429004549,0.0018090590601786,0.1559302508831024,0.9877514839172364,0.1708231811204746,-0.0045555790952382,-3.9028719542830734e-05,0.0123952273279428,0.0091889193281531,-0.0291851814836263,-0.0043791001662611,0.0011864779517054,0.1500543057918548,0.9886673092842102,0.0480192438250145,-0.0602150624323325,0.0214631174513592,-0.1959405541419983,0.4153991341590881,1.1071290969848633,87,76,13248,12627
25.5,1788513642024,6.056337833404541,4.02816915512085,-0.0053511229343712,0.0024602664634585,0.149672046303749,0.9887181520462036,0.1660338392312439,-0.0115308013044486,-5.5700799078610205e-05,-0.0013637706870213,0.0129240378737449,-0.2087820768356323,-0.0053219711408019,0.0024413811042904,0.1429564952850341,0.9897117018699646,0.0078173306083713,0.009692920471453,-0.2497110796071533,0.0218045115470886,-0.0388252139091491,-1.9317665100097656,86,60,15239,11042
25.6,1788513642124,5.943662166595459,3.91549301147461,-0.0055615659803152,0.0014946900773793,0.1342331767082214,0.9909330010414124,0.156092930790121,-0.0079348478606574,0.0002017212188334,-0.0026236053090542,-0.0361029207706451,-0.319493293762207,-0.0051028989255428,0.0019319150596857,0.1236697733402252,0.9923084378242492,0.0443782523902332,0.0556410375629981,-0.3568783765182118,0.098577082157135,0.1489753127098083,-2.1803297996521,114,116,14733,12711
25.7,1788513642224,5.521126747131348,4.535211086273193,-0.004601621069014,0.0023852651938796,0.122915968298912,0.9924035668373108,0.1640055493352132,-0.0087979938895037,3.2511156842792735e-05,0.009729066863656,-0.0024771892931312,-0.1961750984191894,-0.0045894049108028,0.0031197862699627,0.1151711195707321,0.9933302402496338,0.0075143061843227,0.1008314958590093,-0.1365542758735891,-0.1069986224174499,-0.0502503514289855,-0.8529567718505859,47,90,14356,12566
25.8,1788513642324,5.492957592010498,4.507042407989502,-0.0048918137326836,0.0024382860865443,0.1162911430001258,0.9932001233100892,0.1628913370229077,-0.0102755278717709,-8.168183267671671e-05,-0.0155668947845697,0.0102208415046334,-0.1503203511238098,-0.0049326010048389,0.0022622775286436,0.1087724715471267,0.9940518736839294,-0.0135946064329852,-0.0481600661239842,-0.1658326170774418,-0.3313184380531311,-0.2057791948318481,0.2554235458374023,73,101,14384,12363
25.9,1788513642424,5.633802890777588,4.507042407989502,-0.0052172010764479,0.0028749266639351,0.1079510524868965,0.9941384196281432,0.1612751119924572,-0.0110936985041946,-1.3065985085865924e-05,-0.0071480222977697,-0.0032964095007628,-0.1469711810350418,-0.0049963360652327,0.0033901259303092,0.0994766801595687,0.995021641254425,0.0188435546031018,0.0344780233812983,-0.133357798963453,0.0458433032035827,-0.4071325659751892,0.1934108734130859,44,88,13885,12287
26.0,1788513642524,5.492957592010498,4.760563373565674,-0.0050056632608175,0.0024923754390329,0.1014072597026825,0.9948292970657348,0.1547589988829262,-0.0037468735092149,0.0001175196564472,0.0007502860389649,0.0068158796057105,-0.142570823431015,-0.005080584436655,0.0029010754078626,0.0946495682001113,0.995493471622467,-0.0066064868618183,0.0915691027780681,-0.1527172232848955,-0.0171101689338684,-0.2990158796310425,1.6628046035766602,78,70,14829,11656
26.1,1788513642624,5.6619720458984375,4.422535419464111,-0.0054040146060287,0.0022231573238968,0.0932305082678794,0.9956273436546326,0.1616471508870305,-0.0085952038350724,-2.606757973903536e-05,-0.0070736184716224,-0.0004516792832873,-0.1737194061279297,-0.0053249206393957,0.0023034969344735,0.0852812901139259,0.996340036392212,0.0037377428551329,-0.0122835599984794,-0.1677354804115025,-0.3636714220046997,0.127327561378479,1.7421207427978516,88,95,13790,12530
26.2,1788513642724,5.6619720458984375,4.507042407989502,-0.005214171949774,0.002322839340195,0.0897689834237098,0.9959462881088256,0.1594456895141951,-0.0057462480208726,-1.9546618082434125e-07,0.0086393309757113,0.004140053410083,-0.144532561302185,-0.005161746405065,0.0024661505594849,0.0772791430354118,0.9969930648803712,-0.0006977715415394,0.0068162465946145,-0.1640969369173441,0.0399897694587707,0.0152714848518371,-0.9507818222045898,66,106,13954,12220
26.3,1788513642824,5.492957592010498,4.591549396514893,-0.0051354384049773,0.0025441381148993,0.0772177353501319,0.9969978332519532,0.1593272958629852,-0.0081749154620645,-1.4147068392633094e-06,0.0052380338311195,0.0050717308185994,-0.1583224982023239,-0.0049975216388702,0.0025846101343631,0.0700807198882103,0.9975255131721495,0.0173632879763578,0.0110149487947007,-0.1332419692633784,-0.1402747631072998,0.0897473096847534,1.568685531616211,58,75,14245,11783
26.4,1788513642924,5.464788913726807,4.591549396514893,-0.0049605062231421,0.0024778412189334,0.0708563476800918,0.9974711537361144,0.1598158129907245,-0.0050902616259395,-1.9726659018185e-05,0.0019319212296977,0.0031263453420251,-0.1372646987438202,-0.0049437014386057,0.0024607647210359,0.064127579331398,0.9979264140129088,0.0016580516803412,-0.0021112300825673,-0.1360883301005143,-0.0749683380126953,0.0656436681747436,-0.0979375839233398,111,75,13777,12595
26.5,1788513643024,5.126760482788086,5.295774459838867,-0.0052572065033018,0.0045420699752867,0.0652480497956276,0.997844934463501,0.1616774755918608,-0.0058631472973872,-3.1310743771524604e-05,-0.0002282328932778,0.0831646844744682,-0.0858017057180404,-0.0052345236763358,0.0042816651985049,0.05889692902565,0.9982412457466124,0.004304746837612,0.1147468068247586,-0.0529878851577475,0.4182516932487488,0.0150085091590881,-2.091358184814453,65,78,12486,13756
26.6,1788513643124,4.901408672332764,5.070422649383545,-0.0049499780870974,0.0028503276407718,0.0663350149989128,0.9977810978889464,0.1572944835866837,-0.0027258433193644,0.0001921869394633,0.0106853283941745,-0.0840801075100898,0.0325000621378421,-0.0045730378478765,0.0051807863637804,0.061712060123682,0.9980700612068176,0.0297686426825626,0.1544460643341555,0.0880224110305052,0.1660288572311401,0.0042932629585266,-2.9420461654663086,65,122,13374,13328
26.7,1788513643224,5.126760482788086,4.957746505737305,-0.0047888359986245,0.0045275976881384,0.068394161760807,0.997636616230011,0.1665133697928185,-0.0036661537445339,-6.193238692208659e-05,-0.0038586854934692,0.0231890231370925,-0.0038395619485527,-0.0051067462190985,0.004470975138247,0.0618206933140754,0.9980642199516296,-0.013105547818771,-0.0230037903636538,-0.0445863739790858,-0.0336060523986816,0.0797969102859497,2.305644989013672,60,78,12881,13384
26.8,1788513643324,5.014084339141846,5.014084339141846,-0.0048504467122256,0.00471463939175,0.0680109858512878,0.9976616501808168,0.1680627771095471,0.0001768961701461,2.092306121418441e-09,4.3626002366181644e-08,0.0,-9.306880883741542e-07,-0.0050915908068418,0.004896524362266,0.0618010684847831,0.9980635643005372,-0.003292960186701,0.0186380749970254,-0.0067846846478302,0.0417128205299377,0.4150112867355346,0.126927375793457,70,83,13339,13189
26.9,1788513643424,5.211267471313477,4.8450703620910645,-0.005318297073245,0.0045227403752505,0.067060999572277,0.99772447347641,0.1507285037742654,-0.0090277323274573,3.2829336877186635e-05,-0.0105466172099113,0.0255739130079746,-0.0244762171059846,-0.0051855454221367,0.0037086205556988,0.0605571940541267,0.9981443285942078,0.0078833860759311,-0.0766407647166182,-0.0296247316659162,-0.320820152759552,-0.1058230400085449,0.4948635101318359,94,75,13877,12910
27.0,1788513643524,5.267605781555176,4.8450703620910645,-0.0052474751137197,0.0043795653618872,0.0663409009575843,0.9977735877037048,0.1679266315989661,-0.0066342798451039,4.829174488421018e-05,0.0026819275226444,-0.0059799919836223,-0.0299932602792978,-0.0055004488676786,0.0046422677114605,0.0578775815665721,0.9982977509498596,0.0071689259994945,0.0306973989771311,-0.041907274343385,0.1436967253684997,0.1910663247108459,-0.0782995223999023,48,70,13409,12875
27.1,1788513643624,5.239436626434326,4.929577350616455,-0.0058437148109078,0.0037417055573314,0.0613152720034122,0.9980943202972412,0.1661406397078834,-0.0050860114073633,3.597149356791269e-05,-0.0121764093637466,-0.0217387061566114,-0.0701943263411521,-0.0054807774722576,0.0039813397452235,0.0571752898395061,0.9983412623405457,-0.0009759784388145,-0.0437865856883229,-0.0471078336812125,0.022933006286621,0.0387771129608154,-0.4962291717529297,65,86,13412,12720
27.2,1788513643724,5.098591327667236,4.985915660858154,-0.0058605503290891,0.0024783923290669,0.0590793266892433,0.9982330203056335,0.1654358683646719,-0.0052517352050237,5.6940324480545074e-05,-0.0008208259823732,-0.0566274411976337,-0.0625075995922088,-0.0053073847666382,0.0026440573856234,0.0527302809059619,0.9985911846160888,0.0650971544817876,0.0030556567865562,-0.0189391512470892,-0.322064995765686,0.3441539406776428,0.3889455795288086,65,62,13388,12614
27.3,1788513643824,4.957746505737305,4.816901206970215,-0.0056068832054734,0.0025903107598423,0.058640394359827,0.9982600808143616,0.1628419061507134,8.767930269913526e-05,-4.4929040505012793e-08,-0.0019967339467257,-0.0210470352321863,-0.0107895424589514,-0.0056102378293871,0.0021805157884955,0.0523584373295307,0.9986101984977722,0.0036687976408888,-0.0708236374434835,-0.0208113215435629,0.4842457175254822,-0.4474400877952575,-1.2936248779296875,103,104,14375,13190
27.4,1788513643924,5.098591327667236,5.098591327667236,-0.0054317666217684,0.0034050405956804,0.0569882653653621,0.9983543157577516,0.160925097287677,-0.0017414076523221,-5.979900188706536e-06,0.0041892337612807,0.0097079705446958,-0.0566428080201149,-0.0054122954607009,0.0035387780517339,0.0507232882082462,0.9986917972564696,-0.0011789746606759,0.0204380562990323,-0.048598140055005,-0.1165875196456909,0.0151897072792053,1.4214601516723633,67,113,12819,13337
27.5,1788513644024,5.239436626434326,4.929577350616455,-0.005400423426181,0.0028476880397647,0.0563926696777343,0.9983898997306824,0.1613307505874057,-0.0029930739760168,2.280469267367991e-08,-0.00085799198132,-0.0073652449063956,-0.0126975057646632,-0.0053710239008069,0.0027685482054948,0.0500380359590053,0.9987289905548096,0.0002704611994138,-0.0046218987738725,-0.0163341389593646,0.1715612411499023,0.2172905802726745,-0.4006233215332031,83,92,13550,12583
27.6,1788513644124,5.690140724182129,4.535211086273193,-0.0052223508246243,0.0031143764499574,0.0523495003581047,0.9986103177070618,0.1659262211549692,-0.0098259504828799,2.2495480137318397e-05,0.0072691533714532,0.0083024417981505,-0.1165807843208313,-0.0052422164008021,0.0031263390555977,0.0463595800101757,0.9989061951637268,0.0100034385239514,0.0339234070922704,-0.1200222904479008,0.0746663212776184,0.032040536403656,-0.0309123992919921,63,32,14280,11621
27.7,1788513644224,5.746479034423828,4.422535419464111,-0.0052964268252253,0.0034731589257717,0.0445828512310981,0.9989856481552124,0.1593071751488178,-0.005128598780204,-4.405404607743284e-06,-0.0017278970917686,0.0025132591836154,-0.1650978326797485,-0.005313211120665,0.0033874399960041,0.0381266139447689,0.9992530941963196,-0.0038612011640878,-0.0073747877139082,-0.1719525568017736,0.1051786541938781,-0.2329325675964355,-0.6766757965087891,103,81,13563,12241
27.8,1788513644324,5.154929637908936,5.098591327667236,-0.0051234290003776,0.0039283535443246,0.0393436029553413,0.9992048144340516,0.1590354794874301,-0.0060435200201841,-1.3544548135404371e-05,0.0079173268750309,0.0415360294282436,-0.0774037912487983,-0.0051361573860049,0.0031782481819391,0.0325975008308887,0.9994503259658812,-0.006409093677047,-0.0685232424943517,-0.0346552917678116,-0.1131418943405151,0.191993772983551,0.5131549835205078,86,90,13705,12566
27.9,1788513644424,5.239436626434326,4.873239517211914,-0.0051749926060438,0.0037283154670149,0.0379664562642574,0.9992586374282836,0.1665893755654665,-0.0079083021031048,-4.985758602640942e-05,0.0003830890636891,0.0011601789155974,-0.0188431367278099,-0.005048306658864,0.0038865320384502,0.0313235260546207,0.9994890093803406,0.0114032031109534,0.0175766607411218,-0.0264350341195899,0.1837064027786255,-0.0050368309020996,-1.3956222534179688,90,74,13414,12679
28.0,1788513644524,5.098591327667236,4.929577350616455,-0.005218971055001,0.003741554217413,0.0351808033883571,0.9993603229522704,0.1597265951394036,-0.0029767443859222,2.3800910323389263e-05,-0.0061744502745568,0.0020342315547168,-0.0775244086980819,-0.0052413279190659,0.0035448595881462,0.0291322339326143,0.9995555877685548,-0.0171306069458846,-0.0104291540218941,-0.0666860449171992,0.164091408252716,0.2755473852157593,-0.9275388717651368,82,101,13582,12862
28.1,1788513644624,5.267605781555176,4.929577350616455,-0.0052609108388423,0.0039812340401113,0.0335446298122406,0.9994154572486876,0.1574335032908724,-0.0119089664912211,-5.457149882839369e-05,-0.001125615555793,0.0103673692792654,-0.0680238604545593,-0.0052847946062684,0.0043984046205878,0.0256477035582065,0.9996473789215088,0.0054111309918501,0.0001285831209035,-0.0432986115739395,-0.4113326668739319,0.1104227900505065,0.919325828552246,66,103,13331,12609
28.2,1788513644724,4.816901206970215,4.478873252868652,-0.0057659372687339,0.0027128986548632,0.0293584391474723,0.999548614025116,0.1609506588154838,-0.0041935215911958,4.978320499680416e-05,-0.0218847636133432,-0.0931278020143508,-0.0703855380415916,-0.0057951109483838,0.0008820444345474,0.0227452162653207,0.9997242093086244,-0.0178108325999073,-0.2717996989125094,-0.0638247444521652,0.7112579345703125,-0.1148023009300232,-2.9455580711364746,128,149,15082,14310
28.3,1788513644824,5.380281925201416,4.816901206970215,-0.0057413852773606,0.0015250901924446,0.0248754266649484,0.9996728897094728,0.1781182485889794,-0.0056699640590121,4.7745449876986674e-05,-0.0016244202852249,-0.0009846489410847,-0.096938356757164,-0.0055043650791049,0.0012701200321316,0.0177797954529523,0.999825954437256,0.0149988360845784,0.0098738500031654,-0.0797466341131653,-0.0907019972801208,0.1516889929771423,-3.616159439086914,63,85,13068,13073
28.4,1788513644924,5.239436626434326,4.873239517211914,-0.0055247242562472,0.0010562631068751,0.0224931761622428,0.999731183052063,0.1621548151073147,-0.0045988826351051,-8.14531072718275e-05,-0.0013232295168563,0.0186451002955436,-0.0272799599915742,-0.005692864768207,0.0007810946553945,0.0158278252929449,0.9998582005500792,-0.0104562118600593,-0.0236950063455136,-0.0324488956503591,-0.0105115175247192,-0.1039760708808898,0.4603662490844726,64,54,13248,12899
28.5,1788513645024,5.211267471313477,4.8450703620910645,-0.0059057972393929,0.0007327977800741,0.0213082022964954,0.9997552037239076,0.164524574121805,-0.0050600009308997,2.1918044404044154e-06,-0.0055988114327192,-0.0006157322204671,-0.0195891764014959,-0.0058508710935711,0.0007493672892451,0.0146354837343096,0.9998754858970642,0.004255480945531,0.005501145282251,-0.0260305458951737,0.1127817630767822,0.2761675715446472,-0.7857818603515625,72,84,13354,13132
28.6,1788513645124,5.295774459838867,4.816901206970215,-0.0055636474862694,0.0006829519988968,0.0201390925794839,0.9997815489768982,0.1673602576276899,-0.0068641076495092,5.3014517698871874e-05,0.0100162923336029,-0.0101903351023793,-0.0216868184506893,-0.0055249100551009,0.0008654315024614,0.0133568551391363,0.99989515542984,-0.0019913968446924,0.0179890138164928,-0.0429592084021484,-0.0683658719062805,-0.1581835746765136,0.4597530364990234,77,89,13536,13002
28.7,1788513645224,5.211267471313477,4.873239517211914,-0.0056480895727872,-0.0001553012261865,0.0170591510832309,0.9998384714126588,0.1616172038888712,-0.0062586336880346,-4.01901691742197e-05,-0.0036421767435967,9.364895231556147e-05,-0.0465978868305683,-0.0056529026478528,-0.0001940466463565,0.0107377022504806,0.9999263286590576,0.0014378429768675,-0.0225456330559432,-0.041872112846394,-0.2219862937927246,0.0517790913581848,0.3205280303955078,74,79,13485,12876
