time_s,timestamp_ms,wheel_vels__velocity_left,wheel_vels__velocity_right,odom__orient_x,odom__orient_y,odom__orient_z,odom__orient_w,odom__lin_x,odom__lin_y,odom__lin_z,odom__ang_x,odom__ang_y,odom__ang_z,imu__orient_x,imu__orient_y,imu__orient_z,imu__orient_w,imu__angvel_x,imu__angvel_y,imu__angvel_z,imu__acc_x,imu__acc_y,imu__acc_z,wheel_status__current_ma_left,wheel_status__current_ma_right,wheel_status__pwm_left,wheel_status__pwm_right
0.0,1788516430579,0.0,0.0,-0.0014089142205193,0.0036506785545498,-0.590164065361023,0.807273805141449,7.787707459560027e-06,-7.580256755220986e-06,-1.4054167188408657e-08,-0.0030255464371293,-0.0046505439095199,4.981729944120161e-05,0.0014025345444679,0.0036068856716156,-0.9812198877334596,0.1928535997867584,0.0005783075027014,-0.0026082107409514,-0.001322739343918,0.010790467262268,0.0016255378723144,-0.0105276107788085,0,0,0,0
0.1,1788516430679,0.0,0.0,-0.0014089142205193,0.0036506785545498,-0.590164065361023,0.807273805141449,7.787707459560027e-06,-7.580256755220986e-06,-1.4054167188408657e-08,-0.0030255464371293,-0.0046505439095199,4.981729944120161e-05,0.0014025345444679,0.0036068856716156,-0.9812198877334596,0.1928535997867584,0.0005783075027014,-0.0026082107409514,-0.001322739343918,0.010790467262268,0.0016255378723144,-0.0105276107788085,0,0,0,0
0.2,1788516430779,0.0,0.0,-0.0014089142205193,0.0036506785545498,-0.590164065361023,0.807273805141449,7.787707459560027e-06,-7.580256755220986e-06,-1.4054167188408657e-08,-0.0030255464371293,-0.0046505439095199,4.981729944120161e-05,0.0014025345444679,0.0036068856716156,-0.9812198877334596,0.1928535997867584,0.0005783075027014,-0.0026082107409514,-0.001322739343918,0.010790467262268,0.0016255378723144,-0.0105276107788085,0,0,0,0
0.3,1788516430879,0.0,0.0,-0.0014089142205193,0.0036506785545498,-0.590164065361023,0.807273805141449,7.787707459560027e-06,-7.580256755220986e-06,-1.4054167188408657e-08,-0.0030255464371293,-0.0046505439095199,4.981729944120161e-05,0.0014025345444679,0.0036068856716156,-0.9812198877334596,0.1928535997867584,0.0005783075027014,-0.0026082107409514,-0.001322739343918,0.010790467262268,0.0016255378723144,-0.0105276107788085,0,0,0,0
0.4,1788516430979,0.0,0.0,-0.0014089142205193,0.0036506785545498,-0.590164065361023,0.807273805141449,7.787707459560027e-06,-7.580256755220986e-06,-1.4054167188408657e-08,-0.0030255464371293,-0.0046505439095199,4.981729944120161e-05,0.0014025345444679,0.0036068856716156,-0.9812198877334596,0.1928535997867584,0.0005783075027014,-0.0026082107409514,-0.001322739343918,0.010790467262268,0.0016255378723144,-0.0105276107788085,0,0,0,0
0.5,1788516431079,0.0,0.0,-0.0014089142205193,0.0036506785545498,-0.590164065361023,0.807273805141449,7.787707459560027e-06,-7.580256755220986e-06,-1.4054167188408657e-08,-0.0030255464371293,-0.0046505439095199,4.981729944120161e-05,0.0014025345444679,0.0036068856716156,-0.9812198877334596,0.1928535997867584,0.0005783075027014,-0.0026082107409514,-0.001322739343918,0.010790467262268,0.0016255378723144,-0.0105276107788085,0,0,0,0
0.6,1788516431179,0.0,0.0,-0.0014089142205193,0.0036506785545498,-0.590164065361023,0.807273805141449,7.787707459560027e-06,-7.580256755220986e-06,-1.4054167188408657e-08,-0.0030255464371293,-0.0046505439095199,4.981729944120161e-05,0.0014025345444679,0.0036068856716156,-0.9812198877334596,0.1928535997867584,0.0005783075027014,-0.0026082107409514,-0.001322739343918,0.010790467262268,0.0016255378723144,-0.0105276107788085,0,0,0,0
0.7,1788516431279,0.0,0.0,-0.0014089142205193,0.0036506785545498,-0.590164065361023,0.807273805141449,7.787707459560027e-06,-7.580256755220986e-06,-1.4054167188408657e-08,-0.0030255464371293,-0.0046505439095199,4.981729944120161e-05,0.0014025345444679,0.0036068856716156,-0.9812198877334596,0.1928535997867584,0.0005783075027014,-0.0026082107409514,-0.001322739343918,0.010790467262268,0.0016255378723144,-0.0105276107788085,0,0,0,0
0.8,1788516431379,0.0,0.0,-0.0014089142205193,0.0036506785545498,-0.590164065361023,0.807273805141449,7.787707459560027e-06,-7.580256755220986e-06,-1.4054167188408657e-08,-0.0030255464371293,-0.0046505439095199,4.981729944120161e-05,0.0014025345444679,0.0036068856716156,-0.9812198877334596,0.1928535997867584,0.0005783075027014,-0.0026082107409514,-0.001322739343918,0.010790467262268,0.0016255378723144,-0.0105276107788085,0,0,0,0
0.9,1788516431479,0.0,0.0,-0.0014089142205193,0.0036506785545498,-0.590164065361023,0.807273805141449,7.787707459560027e-06,-7.580256755220986e-06,-1.4054167188408657e-08,-0.0030255464371293,-0.0046505439095199,4.981729944120161e-05,0.0014025345444679,0.0036068856716156,-0.9812198877334596,0.1928535997867584,0.0005783075027014,-0.0026082107409514,-0.001322739343918,0.010790467262268,0.0016255378723144,-0.0105276107788085,0,0,0,0
1.0,1788516431579,0.0,0.0,-0.0014089142205193,0.0036506785545498,-0.590164065361023,0.807273805141449,7.787707459560027e-06,-7.580256755220986e-06,-1.4054167188408657e-08,-0.0030255464371293,-0.0046505439095199,4.981729944120161e-05,0.0014025345444679,0.0036068856716156,-0.9812198877334596,0.1928535997867584,0.0005783075027014,-0.0026082107409514,-0.001322739343918,0.010790467262268,0.0016255378723144,-0.0105276107788085,0,0,0,0
1.1,1788516431679,0.0,0.0,-0.0014089142205193,0.0036506785545498,-0.590164065361023,0.807273805141449,7.787707459560027e-06,-7.580256755220986e-06,-1.4054167188408657e-08,-0.0030255464371293,-0.0046505439095199,4.981729944120161e-05,0.0014025345444679,0.0036068856716156,-0.9812198877334596,0.1928535997867584,0.0005783075027014,-0.0026082107409514,-0.001322739343918,0.010790467262268,0.0016255378723144,-0.0105276107788085,0,0,0,0
1.2,1788516431779,0.0,0.0,-0.0014089142205193,0.0036506785545498,-0.590164065361023,0.807273805141449,7.787707459560027e-06,-7.580256755220986e-06,-1.4054167188408657e-08,-0.0030255464371293,-0.0046505439095199,4.981729944120161e-05,0.0014025345444679,0.0036068856716156,-0.9812198877334596,0.1928535997867584,0.0005783075027014,-0.0026082107409514,-0.001322739343918,0.010790467262268,0.0016255378723144,-0.0105276107788085,0,0,0,0
1.3,1788516431879,0.0,0.0,-0.0014089142205193,0.0036506785545498,-0.590164065361023,0.807273805141449,7.787707459560027e-06,-7.580256755220986e-06,-1.4054167188408657e-08,-0.0030255464371293,-0.0046505439095199,4.981729944120161e-05,0.0014025345444679,0.0036068856716156,-0.9812198877334596,0.1928535997867584,0.0005783075027014,-0.0026082107409514,-0.001322739343918,0.010790467262268,0.0016255378723144,-0.0105276107788085,0,0,0,0
1.4,1788516431979,0.0,0.0,-0.0014089142205193,0.0036506785545498,-0.590164065361023,0.807273805141449,7.787707459560027e-06,-7.580256755220986e-06,-1.4054167188408657e-08,-0.0030255464371293,-0.0046505439095199,4.981729944120161e-05,0.0014025345444679,0.0036068856716156,-0.9812198877334596,0.1928535997867584,0.0005783075027014,-0.0026082107409514,-0.001322739343918,0.010790467262268,0.0016255378723144,-0.0105276107788085,0,0,0,0
1.5,1788516432079,0.0,0.0,-0.0014089142205193,0.0036506785545498,-0.590164065361023,0.807273805141449,7.787707459560027e-06,-7.580256755220986e-06,-1.4054167188408657e-08,-0.0030255464371293,-0.0046505439095199,4.981729944120161e-05,0.0014025345444679,0.0036068856716156,-0.9812198877334596,0.1928535997867584,0.0005783075027014,-0.0026082107409514,-0.001322739343918,0.010790467262268,0.0016255378723144,-0.0105276107788085,0,0,0,0
1.6,1788516432179,0.0,0.0,-0.0014089142205193,0.0036506785545498,-0.590164065361023,0.807273805141449,7.787707459560027e-06,-7.580256755220986e-06,-1.4054167188408657e-08,-0.0030255464371293,-0.0046505439095199,4.981729944120161e-05,0.0014025345444679,0.0036068856716156,-0.9812198877334596,0.1928535997867584,0.0005783075027014,-0.0026082107409514,-0.001322739343918,0.010790467262268,0.0016255378723144,-0.0105276107788085,0,0,0,0
1.7,1788516432279,0.0,0.0,-0.0014089142205193,0.0036506785545498,-0.590164065361023,0.807273805141449,7.787707459560027e-06,-7.580256755220986e-06,-1.4054167188408657e-08,-0.0030255464371293,-0.0046505439095199,4.981729944120161e-05,0.0014025345444679,0.0036068856716156,-0.9812198877334596,0.1928535997867584,0.0005783075027014,-0.0026082107409514,-0.001322739343918,0.010790467262268,0.0016255378723144,-0.0105276107788085,0,0,0,0
1.8,1788516432379,0.0,0.0,-0.0014089142205193,0.0036506785545498,-0.590164065361023,0.807273805141449,7.787707459560027e-06,-7.580256755220986e-06,-1.4054167188408657e-08,-0.0030255464371293,-0.0046505439095199,4.981729944120161e-05,0.0014025345444679,0.0036068856716156,-0.9812198877334596,0.1928535997867584,0.0005783075027014,-0.0026082107409514,-0.001322739343918,0.010790467262268,0.0016255378723144,-0.0105276107788085,0,0,0,0
1.9,1788516432479,0.0,0.0,-0.0014089142205193,0.0036506785545498,-0.590164065361023,0.807273805141449,7.787707459560027e-06,-7.580256755220986e-06,-1.4054167188408657e-08,-0.0030255464371293,-0.0046505439095199,4.981729944120161e-05,0.0014025345444679,0.0036068856716156,-0.9812198877334596,0.1928535997867584,0.0005783075027014,-0.0026082107409514,-0.001322739343918,0.010790467262268,0.0016255378723144,-0.0105276107788085,0,0,0,0
2.0,1788516432579,0.0,0.0,-0.0014089142205193,0.0036506785545498,-0.590164065361023,0.807273805141449,7.787707459560027e-06,-7.580256755220986e-06,-1.4054167188408657e-08,-0.0030255464371293,-0.0046505439095199,4.981729944120161e-05,0.0014025345444679,0.0036068856716156,-0.9812198877334596,0.1928535997867584,0.0005783075027014,-0.0026082107409514,-0.001322739343918,0.010790467262268,0.0016255378723144,-0.0105276107788085,0,0,0,0
2.1,1788516432679,0.0,0.0,-0.0014089142205193,0.0036506785545498,-0.590164065361023,0.807273805141449,7.787707459560027e-06,-7.580256755220986e-06,-1.4054167188408657e-08,-0.0030255464371293,-0.0046505439095199,4.981729944120161e-05,0.0014025345444679,0.0036068856716156,-0.9812198877334596,0.1928535997867584,0.0005783075027014,-0.0026082107409514,-0.001322739343918,0.010790467262268,0.0016255378723144,-0.0105276107788085,0,0,0,0
2.2,1788516432779,0.0,0.0,-0.0014089142205193,0.0036506785545498,-0.590164065361023,0.807273805141449,7.787707459560027e-06,-7.580256755220986e-06,-1.4054167188408657e-08,-0.0030255464371293,-0.0046505439095199,4.981729944120161e-05,0.0014025345444679,0.0036068856716156,-0.9812198877334596,0.1928535997867584,0.0005783075027014,-0.0026082107409514,-0.001322739343918,0.010790467262268,0.0016255378723144,-0.0105276107788085,0,0,0,0
2.3,1788516432879,0.0,0.0,-0.0014089142205193,0.0036506785545498,-0.590164065361023,0.807273805141449,7.787707459560027e-06,-7.580256755220986e-06,-1.4054167188408657e-08,-0.0030255464371293,-0.0046505439095199,4.981729944120161e-05,0.0014025345444679,0.0036068856716156,-0.9812198877334596,0.1928535997867584,0.0005783075027014,-0.0026082107409514,-0.001322739343918,0.010790467262268,0.0016255378723144,-0.0105276107788085,0,0,0,0
2.4,1788516432979,0.0,0.0,-0.0014089142205193,0.0036506785545498,-0.590164065361023,0.807273805141449,7.787707459560027e-06,-7.580256755220986e-06,-1.4054167188408657e-08,-0.0030255464371293,-0.0046505439095199,4.981729944120161e-05,0.0014025345444679,0.0036068856716156,-0.9812198877334596,0.1928535997867584,0.0005783075027014,-0.0026082107409514,-0.001322739343918,0.010790467262268,0.0016255378723144,-0.0105276107788085,0,0,0,0
2.5,1788516433079,0.0,0.0,-0.0014089142205193,0.0036506785545498,-0.590164065361023,0.807273805141449,7.787707459560027e-06,-7.580256755220986e-06,-1.4054167188408657e-08,-0.0030255464371293,-0.0046505439095199,4.981729944120161e-05,0.0014025345444679,0.0036068856716156,-0.9812198877334596,0.1928535997867584,0.0005783075027014,-0.0026082107409514,-0.001322739343918,0.010790467262268,0.0016255378723144,-0.0105276107788085,0,0,0,0
2.6,1788516433179,0.0,0.0,-0.0014089142205193,0.0036506785545498,-0.590164065361023,0.807273805141449,7.787707459560027e-06,-7.580256755220986e-06,-1.4054167188408657e-08,-0.0030255464371293,-0.0046505439095199,4.981729944120161e-05,0.0014025345444679,0.0036068856716156,-0.9812198877334596,0.1928535997867584,0.0005783075027014,-0.0026082107409514,-0.001322739343918,0.010790467262268,0.0016255378723144,-0.0105276107788085,0,0,0,0
2.7,1788516433279,0.0,0.0,-0.0014089142205193,0.0036506785545498,-0.590164065361023,0.807273805141449,7.787707459560027e-06,-7.580256755220986e-06,-1.4054167188408657e-08,-0.0030255464371293,-0.0046505439095199,4.981729944120161e-05,0.0014025345444679,0.0036068856716156,-0.9812198877334596,0.1928535997867584,0.0005783075027014,-0.0026082107409514,-0.001322739343918,0.010790467262268,0.0016255378723144,-0.0105276107788085,0,0,0,0
2.8,1788516433379,0.0,0.0,-0.0014089142205193,0.0036506785545498,-0.590164065361023,0.807273805141449,7.787707459560027e-06,-7.580256755220986e-06,-1.4054167188408657e-08,-0.0030255464371293,-0.0046505439095199,4.981729944120161e-05,0.0014025345444679,0.0036068856716156,-0.9812198877334596,0.1928535997867584,0.0005783075027014,-0.0026082107409514,-0.001322739343918,0.010790467262268,0.0016255378723144,-0.0105276107788085,0,0,0,0
2.9,1788516433479,0.0,0.0,-0.0014089142205193,0.0036506785545498,-0.590164065361023,0.807273805141449,7.787707459560027e-06,-7.580256755220986e-06,-1.4054167188408657e-08,-0.0030255464371293,-0.0046505439095199,4.981729944120161e-05,0.0014025345444679,0.0036068856716156,-0.9812198877334596,0.1928535997867584,0.0005783075027014,-0.0026082107409514,-0.001322739343918,0.010790467262268,0.0016255378723144,-0.0105276107788085,0,0,0,0
3.0,1788516433579,0.0,0.0,-0.0014089142205193,0.0036506785545498,-0.590164065361023,0.807273805141449,7.787707459560027e-06,-7.580256755220986e-06,-1.4054167188408657e-08,-0.0030255464371293,-0.0046505439095199,4.981729944120161e-05,0.0014025345444679,0.0036068856716156,-0.9812198877334596,0.1928535997867584,0.0005783075027014,-0.0026082107409514,-0.001322739343918,0.010790467262268,0.0016255378723144,-0.0105276107788085,0,0,0,0
3.1,1788516433679,0.0,0.0,-0.0014089142205193,0.0036506785545498,-0.590164065361023,0.807273805141449,7.787707459560027e-06,-7.580256755220986e-06,-1.4054167188408657e-08,-0.0030255464371293,-0.0046505439095199,4.981729944120161e-05,0.0014025345444679,0.0036068856716156,-0.9812198877334596,0.1928535997867584,0.0005783075027014,-0.0026082107409514,-0.001322739343918,0.010790467262268,0.0016255378723144,-0.0105276107788085,0,0,0,0
3.2,1788516433779,0.0,0.0,-0.0014089142205193,0.0036506785545498,-0.590164065361023,0.807273805141449,0.0,0.0,0.0,0.0,2.326391079776613e-09,0.0,0.0014025345444679,0.0036068856716156,-0.9812198877334596,0.1928535997867584,0.0005783075027014,-0.0026082107409514,-0.001322739343918,0.010790467262268,0.0016255378723144,-0.0105276107788085,0,0,0,0
3.3,1788516433879,0.0,0.0,-0.0014032470062375,0.0036046467721462,-0.5902178287506104,0.8072347640991211,-3.78578654045472e-05,4.191544474686112e-05,1.1764601181129139e-07,4.33003697253298e-05,0.0008296967716887,-0.0003963972849305,0.0014142207801342,0.003604176454246,-0.9812244772911072,0.1928301751613617,-4.171999765572159e-06,0.0006880538558571,0.0020309928423347,-0.0052488446235656,-0.0021532177925109,0.0109539031982421,0,0,0,0
3.4,1788516433979,0.0,0.0,-0.0014032470062375,0.0036046467721462,-0.5902178287506104,0.8072347640991211,0.0,0.0,0.0,0.0,2.9244684451867893e-09,0.0,0.0013910187408328,0.0035837776958942,-0.98123699426651,0.1927671134471893,0.0007208333238474,3.081889811471266e-05,-0.000157067947094,0.0159629583358764,-0.0076704621315002,-0.0302801132202148,0,0,0,0
3.5,1788516434079,0.0,0.0,-0.0014140313724055,0.0035693873651325,-0.5902659296989441,0.8071997165679932,-0.0002081836738989,0.0002451427940162,-4.85775858039532e-07,0.0004996145726181,-0.0014149175258353,-0.0024350562598556,0.0013847686350345,0.003595694899559,-0.9812420010566713,0.1927415430545807,-0.0011329359435057,0.0009910211889282,-0.000561657360761,0.0120327472686767,0.0084941387176513,0.0308456420898437,0,0,0,0
3.6,1788516434179,0.0,0.0,-0.0014140313724055,0.0035693873651325,-0.5902659296989441,0.8071997165679932,0.0,0.0,0.0,0.0,0.0,0.0,0.0013720244169235,0.0036270348355174,-0.9812451004981996,0.1927251070737838,-0.0007077490156833,0.0004885252325349,-0.0009849880777074,0.0264379382133483,-0.003277838230133,-0.0050477981567382,0,0,0,0
3.7,1788516434279,0.0,0.0,-0.0014140313724055,0.0035693873651325,-0.5902659296989441,0.8071997165679932,0.0,0.0,0.0,0.0,0.0,0.0,0.0013398760929703,0.0036277715116739,-0.981241762638092,0.1927424371242523,-0.0011037273076175,7.463550473167542e-05,0.0010381021057885,0.0096303820610046,0.0147846937179565,0.0021476745605468,0,0,0,0
3.8,1788516434379,0.0,0.0,-0.0014140313724055,0.0035693873651325,-0.5902659296989441,0.8071997165679932,0.0,0.0,0.0,0.0,0.0,0.0,0.0012898556888103,0.003659158013761,-0.981252670288086,0.192686840891838,-0.0016445232531418,-0.0009566746596938,-0.0021711769922849,-0.00737065076828,-0.0113543272018432,0.0001764297485351,0,0,0,0
3.9,1788516434479,0.0,0.0,-0.0014140313724055,0.0035693873651325,-0.5902659296989441,0.8071997165679932,0.0,0.0,0.0,0.0,0.0,0.0,0.0012455061078071,0.0036201709881424,-0.981252670288086,0.1926879435777664,-0.0004480615032615,-0.0006046539704699,-0.0015757281652744,0.0005702376365661,-0.0065951347351074,0.0110177993774414,0,0,0,0
4.0,1788516434579,0.0,0.0,-0.0014140313724055,0.0035693873651325,-0.5902659296989441,0.8071997165679932,0.0,0.0,0.0,0.0,0.0,0.0,0.0012180879712104,0.0036335652694106,-0.9812421202659608,0.1927415281534195,0.0008128473411004,-0.0006156109183801,0.0006706706551608,0.0378481745719909,-0.0062193870544433,0.0058012008666992,0,0,0,0
4.1,1788516434679,0.0,0.0,-0.0015353674534708,0.0035035293549299,-0.5902420282363892,0.8072172403335571,7.715963852856406e-05,-9.321147274633612e-05,-2.8974231506367695e-07,-0.0018031216459348,-0.003808076493442,0.0008869951125234,0.0012432020157575,0.0036111650988459,-0.981230616569519,0.1928002089262008,0.0005311202371473,-0.000494076684905,0.0010851804202952,0.0113195776939392,-0.0067514777183532,0.0056848526000976,0,0,0,0
4.2,1788516434779,0.0,0.0,-0.0015340816462412,0.0035166991874575,-0.5902601480484009,0.8072039484977722,-7.7947435295871e-05,8.727059666051342e-05,2.776593814969381e-07,-0.0002570629876572,0.0004403622588142,-0.0008620102307759,0.0012608794495463,0.003616627305746,-0.9812397360801696,0.1927539259195327,1.1545584160965352e-05,0.0002186544084321,-0.0001579208632484,-0.0151633024215698,0.0005525350570678,-0.0141544342041015,0,0,0,0
4.3,1788516434879,0.0,0.0,-0.001540852128528,0.0034962217323482,-0.5902695059776306,0.8071971535682678,0.0,0.0,0.0,0.0,-2.6994324997531294e-08,2.7642188342724694e-06,0.0012322273105382,0.0036014318466186,-0.9812549352645874,0.1926765590906143,0.0022588554029127,-0.0003036078606272,-0.0031214885644143,0.0110931992530822,-0.0104842782020568,0.0038795471191406,0,0,0,0
4.4,1788516434979,0.0,0.0,-0.0015442528529092,0.0034799701534211,-0.5903376340866089,0.8071474432945251,0.0,0.0,0.0,0.0,-4.237719952726593e-09,0.0,0.0011597238481044,0.003631105646491,-0.98124760389328,0.1927134543657302,-0.0007002305322398,-0.0015452198001781,-0.0010612715907645,0.0063344240188598,-0.0005688667297363,-0.0194377899169921,0,0,0,0
4.5,1788516435079,0.0,0.0,-0.0015442528529092,0.0034799701534211,-0.5903376340866089,0.8071474432945251,0.0,0.0,0.0,0.0,-3.361229516940511e-09,0.0,0.0011961944401264,0.0036216853186488,-0.9812423586845398,0.1927406191825866,0.000569741216762,-0.0007019715667531,1.8995081347832e-05,0.0052089095115661,-0.0062904953956604,-0.0176610946655273,0,0,0,0
4.6,1788516435179,0.0,0.0,-0.0015442528529092,0.0034799701534211,-0.5903376340866089,0.8071474432945251,0.0,0.0,0.0,0.0,-5.667062819014745e-09,0.0,0.0012101810425519,0.0036402437835931,-0.9812442660331726,0.1927305310964584,-0.0006927257072876,0.000579022056503,-0.0005214555867269,-0.0196590423583984,0.0119060277938842,-0.0015211105346679,0,0,0,0
4.7,1788516435279,0.0,0.0,-0.0015442528529092,0.0034799701534211,-0.5903376340866089,0.8071474432945251,0.0,0.0,0.0,0.0,-4.6559196498208175e-09,0.0,0.0012595457956194,0.0036522056907415,-0.9812299609184264,0.1928025335073471,0.0007174465757759,0.0014688958242879,2.782115086064e-05,0.0225908756256103,-0.0043012499809265,0.016571044921875,0,0,0,0
4.8,1788516435379,0.0,0.0,-0.0015442528529092,0.0034799701534211,-0.5903376340866089,0.8071474432945251,0.0,0.0,0.0,0.0,-4.651685703294106e-09,0.0,0.0012395242229104,0.0036447644233703,-0.981220006942749,0.1928535103797912,-0.0001597799966178,-0.0008348207349133,-0.0003440773132895,0.0043583512306213,0.013705551624298,-0.0103673934936523,0,0,0,0
4.9,1788516435479,0.0,0.0,-0.0015442528529092,0.0034799701534211,-0.5903376340866089,0.8071474432945251,0.0,0.0,0.0,0.0,-3.363575640236149e-09,0.0,0.0012617716565728,0.0036403220146894,-0.981225609779358,0.1928253471851349,-0.0001568569744323,-0.0001277334738942,-0.0001625563710593,0.0118959546089172,-0.0188592672348022,0.0056962966918945,0,0,0,0
5.0,1788516435579,0.0,0.0,-0.0015442528529092,0.0034799701534211,-0.5903376340866089,0.8071474432945251,0.0,0.0,0.0,0.0,-4.666015573917548e-09,0.0,0.0012554237619042,0.003643968142569,-0.9812269806861876,0.1928181946277618,-0.0007460942325424,0.0002514329249356,-0.0007569681864235,-0.0043479800224304,-0.0061765909194946,0.0020952224731445,0,0,0,0
5.1,1788516435679,0.0,0.0,-0.0015442528529092,0.0034799701534211,-0.5903376340866089,0.8071474432945251,0.0,0.0,0.0,0.0,-4.6661288166660605e-09,0.0,0.0013063475489616,0.003650520928204,-0.9812240600585938,0.1928323805332183,-0.0001555853800139,0.0004154283485976,-0.0014100823667104,-0.006843090057373,-0.013361632823944,-0.014108657836914,0,0,0,0
5.2,1788516435779,0.0,0.0,-0.0015442528529092,0.0034799701534211,-0.5903376340866089,0.8071474432945251,0.0,0.0,0.0,0.0,-4.658530894374735e-09,0.0,0.0013414295390248,0.0036922460421919,-0.9812108874320984,0.1928987801074981,-0.0001611783106503,0.0002215334669654,0.0005169825566596,-0.0096713900566101,0.0141593217849731,0.0057601928710937,0,0,0,0
5.3,1788516435879,0.0,0.0,-0.0015442528529092,0.0034799701534211,-0.5903376340866089,0.8071474432945251,0.0,0.0,0.0,0.0,-5.6621365374098795e-09,0.0,0.0013343775644898,0.0036948276683688,-0.9812178015708924,0.1928635388612747,9.387665737127884e-05,0.0016409163597042,-0.000136034487659,0.0172294378280639,-0.0234138965606689,-0.012237548828125,0,0,0,0
5.4,1788516435979,0.0,0.0,-0.0015442528529092,0.0034799701534211,-0.5903376340866089,0.8071474432945251,0.0,0.0,0.0,0.0,-5.679700709748658e-09,0.0,0.0013555139303207,0.0037183668464422,-0.9812109470367432,0.192897617816925,-0.0012360251168686,0.0011303045633327,0.0001949434858659,0.0267333984375,-0.0158518552780151,-0.0157499313354492,0,0,0,0
5.5,1788516436079,0.0,0.0,-0.0015180939808487,0.0036062709987163,-0.5901855230331421,0.8072581887245178,0.0006639880209285,-0.0007797800781999,-1.871972962225529e-07,-0.0022035855799913,0.0047821979969739,0.0077188811264932,0.0013384399935603,0.0036818161606788,-0.9812103509902954,0.1929011195898056,0.0009541636508987,-0.0016209128002958,-0.0005514523447028,0.0244473814964294,0.0032287836074829,-0.0084924697875976,0,0,0,0
5.6,1788516436179,0.0,0.0,-0.001518094795756,0.0036062707658857,-0.590185284614563,0.8072583675384521,0.0,0.0,0.0,-3.7220061699372315e-08,-6.048259848512316e-08,1.191041974379914e-05,0.0013384399935603,0.0036818161606788,-0.9812103509902954,0.1929011195898056,0.0009541636508987,-0.0016209128002958,-0.0005514523447028,0.0244473814964294,0.0032287836074829,-0.0084924697875976,0,0,0,0
5.7,1788516436279,0.0,0.0,-0.001518094795756,0.0036062707658857,-0.590185284614563,0.8072583675384521,0.0,0.0,0.0,-3.7220061699372315e-08,-6.048259848512316e-08,1.191041974379914e-05,0.0013384399935603,0.0036818161606788,-0.9812103509902954,0.1929011195898056,0.0009541636508987,-0.0016209128002958,-0.0005514523447028,0.0244473814964294,0.0032287836074829,-0.0084924697875976,0,0,0,0
5.8,1788516436379,0.0,0.0,-0.0015180973568931,0.0036062696017324,-0.5901846885681152,0.8072587847709656,0.0,0.0,0.0,0.0,5.824516868813134e-09,0.0,0.0013139452785253,0.0036554494872689,-0.9812079071998596,0.1929144859313964,-0.0008646559205835,0.0009671469928628,-0.0013101055446561,-0.0102908611297607,-0.0296010971069335,0.0056037902832031,0,0,0,0
5.9,1788516436479,0.0,0.0,-0.0015074549010023,0.0035901623778045,-0.5901327133178711,0.8072968125343323,0.0002142245291714,-0.0002478694511418,3.2709858268219e-07,0.0006790376501157,-0.0002621888706926,0.0024350676685571,0.001327995210886,0.0036630788818001,-0.9812051653862,0.19292813539505,-0.0001611993237079,6.262724010447258e-05,0.0007287325138159,0.0168907642364501,0.0189233422279357,0.020298957824707,0,0,0,0
6.0,1788516436579,0.0,0.0,-0.0015106215141713,0.0035648895427584,-0.590120792388916,0.807305634021759,5.163491752981112e-05,-6.241854223733982e-05,-2.089763356463488e-07,0.000503365707118,-0.000911365263164,0.0006023276946507,0.0013273917138576,0.0036464100703597,-0.9812139868736268,0.1928834766149521,-0.0003055255312088,0.0012880096069209,-0.0025029897557286,-0.008288025856018,-0.0208693146705627,0.0110416412353515,0,0,0,0
6.1,1788516436679,0.0,0.0,-0.0015106215141713,0.0035648895427584,-0.590120792388916,0.807305634021759,5.163491752981112e-05,-6.241854223733982e-05,-2.089763356463488e-07,0.000503365707118,-0.000911365263164,0.0006023276946507,0.0013316301628947,0.0036940285935997,-0.9812098741531372,0.1929035931825637,-0.0008977908127608,-0.0002872751524937,-0.0005942520006482,0.0170851945877075,-0.0217989683151245,0.0201272964477539,0,0,0,0
6.2,1788516436779,0.0,0.0,-0.0015271424781531,0.003617585171014,-0.5901442170143127,0.8072882890701294,0.0,0.0,0.0,0.0,2.8470386048695673e-09,0.0,0.0013273311778903,0.0036864504218101,-0.9811998605728148,0.192954808473587,0.0003724049224454,0.0011428186264132,0.0007457959960849,0.0064150094985961,0.0159896612167358,-0.0282649993896484,0,0,0,0
6.3,1788516436879,0.0,0.0,-0.0015271424781531,0.003617585171014,-0.5901442170143127,0.8072882890701294,0.0,0.0,0.0,0.0,2.329844317472407e-09,0.0,0.0013038292527198,0.0036921510472893,-0.9811940789222716,0.1929841786623001,1.4782188561412271e-05,-0.0004688695939965,0.0009086894103063,-0.0138323307037353,0.0161268711090087,-0.013986587524414,0,0,0,0
6.4,1788516436979,0.0,0.0,-0.0015271424781531,0.003617585171014,-0.5901442170143127,0.8072882890701294,0.0,0.0,0.0,0.0,2.3293578177430163e-09,0.0,0.0013439804315567,0.0036879852414131,-0.9811948537826538,0.192980021238327,0.0005164667380944,0.0020843456185246,0.0012185766607108,-0.0113086104393005,0.001494288444519,-0.0068569183349609,0,0,0,0
6.5,1788516437079,0.0,0.0,-0.0015271424781531,0.003617585171014,-0.5901442170143127,0.8072882890701294,0.0,0.0,0.0,0.0,2.826628264784858e-09,0.0,0.0013510072603821,0.0037237238138914,-0.9812039136886596,0.1929333657026291,-0.0015782160925892,0.0011420471611693,-0.0012389906249099,-0.0056349635124206,-0.0050152540206909,-0.0104541778564453,0,0,0,0
6.6,1788516437179,0.0,0.0,-0.0015271424781531,0.003617585171014,-0.5901442170143127,0.8072882890701294,0.0,0.0,0.0,0.0,2.850758962225086e-09,0.0,0.0013321982696652,0.0037182988598942,-0.9812005758285522,0.1929507106542587,-0.0004201799464076,-2.6220784443309375e-05,0.0006368023780788,0.0208824872970581,-0.0050951242446899,0.0004329681396484,0,0,0,0
6.7,1788516437279,0.0,0.0,-0.0015271424781531,0.003617585171014,-0.5901442170143127,0.8072882890701294,0.0,0.0,0.0,0.0,2.330413639839435e-09,0.0,0.0013120910152792,0.0037434007972478,-0.9812024235725404,0.1929405331611633,-0.0008560864106199,-0.0020576314799153,-0.0010696068263617,0.0061407685279846,0.0187267065048217,0.0202312469482421,0,0,0,0
6.8,1788516437379,0.0,0.0,-0.0015271424781531,0.003617585171014,-0.5901442170143127,0.8072882890701294,0.0,0.0,0.0,0.0,2.586164393747481e-09,0.0,0.001292853616178,0.0037334766238927,-0.9811930060386658,0.1929886788129806,0.0003668980725301,-0.0011974638658667,0.0027293310328143,-0.0085899829864501,-0.0083004236221313,0.0110692977905273,0,0,0,0
6.9,1788516437479,0.0,0.0,-0.0015271424781531,0.003617585171014,-0.5901442170143127,0.8072882890701294,0.0,0.0,0.0,0.0,2.586164393747481e-09,0.0,0.001292853616178,0.0037334766238927,-0.9811930060386658,0.1929886788129806,0.0003668980725301,-0.0011974638658667,0.0027293310328143,-0.0085899829864501,-0.0083004236221313,0.0110692977905273,0,0,0,0
7.0,1788516437579,0.0,0.0,-0.0015271424781531,0.003617585171014,-0.5901442170143127,0.8072882890701294,0.0,0.0,0.0,0.0,2.586164393747481e-09,0.0,0.001292853616178,0.0037334766238927,-0.9811930060386658,0.1929886788129806,0.0003668980725301,-0.0011974638658667,0.0027293310328143,-0.0085899829864501,-0.0083004236221313,0.0110692977905273,0,0,0,0
7.1,1788516437679,0.0,0.0,-0.0015954700065776,0.0036696114111691,-0.5900393128395081,0.8073645830154419,0.0,0.0,0.0,0.0,-5.216806098218285e-09,0.0,0.0012904508039355,0.003801479935646,-0.9811863303184508,0.1930215209722519,-0.0006898380148157,0.0001106954837784,0.0006428356494643,0.0312743186950683,-0.0231258273124694,0.000396728515625,0,0,0,0
7.2,1788516437779,0.0,0.0,-0.0015954700065776,0.0036696114111691,-0.5900393128395081,0.8073645830154419,0.0,0.0,0.0,0.0,-4.669006514745888e-09,0.0,0.0012927120551466,0.0038147149607539,-0.9811903834342957,0.1930009722709655,-0.0006806805120446,0.0009528290642485,-0.000159383240935,0.0097745060920715,0.0112999081611633,-0.0085353851318359,0,0,0,0
7.3,1788516437879,0.0,0.0,-0.0015954700065776,0.0036696114111691,-0.5900393128395081,0.8073645830154419,0.0,0.0,0.0,0.0,-4.669006514745888e-09,0.0,0.0012927120551466,0.0038147149607539,-0.9811903834342957,0.1930009722709655,-0.0006806805120446,0.0009528290642485,-0.000159383240935,0.0097745060920715,0.0112999081611633,-0.0085353851318359,0,0,0,0
7.4,1788516437979,0.0,0.0,-0.0015954700065776,0.0036696114111691,-0.5900393128395081,0.8073645830154419,0.0,0.0,0.0,0.0,-4.669006514745888e-09,0.0,0.0013351514935493,0.0038108276203274,-0.9812003374099731,0.1929493844509124,0.0010752193583734,0.0006068575594143,-0.0005063560757021,0.0033203959465026,0.010986328125,0.0076093673706054,0,0,0,0
7.5,1788516438079,1.6619718074798584,1.8028168678283687,-0.0015954700065776,0.0036696114111691,-0.5900393128395081,0.8073645830154419,0.0,0.0,0.0,0.0,-4.648381679572822e-09,0.0,0.0009288405999541,0.0037269033491611,-0.9815675616264344,0.1910766810178756,-0.0001239063983343,-0.0216199061398626,-0.1006398346409216,1.6517081260681152,-0.2922156453132629,-0.0506744384765625,268,69,12225,4661
7.6,1788516438179,4.676056385040283,2.760563373565674,-0.0014048358425498,0.0037038223817944,-0.5986890196800232,0.8009717464447021,0.0991840140453547,-0.0082447218513614,-4.478107805692174e-05,-0.0012864728923887,0.0148489475250244,-0.2176897525787353,0.0015761582180857,0.0037115728482604,-0.983657956123352,0.1800021082162857,-0.0040581179772436,0.0027129185221765,-0.2838984351329379,0.9426623582839966,-0.1836020350456237,-0.3550834655761719,195,163,17467,11524
7.7,1788516438279,6.647887229919434,4.084506988525391,-0.0005565357860177,0.0047996444627642,-0.6131219863891602,0.7899734377861023,0.161016977794297,-0.0092756701741638,-1.926603569202792e-05,-0.0031535543967038,0.0295626819133758,-0.3395268619060516,0.0023490888997912,0.0037036491557955,-0.9870715141296388,0.160220667719841,-0.0085042699107015,-0.0342073404651462,-0.411226677705851,-0.1188669800758361,-0.1199521422386169,-0.5246992111206055,92,60,18020,11690
7.8,1788516438379,6.253520965576172,3.91549301147461,-0.0004337874706834,0.0049990275874733,-0.6262708902359009,0.7795893549919128,0.146355271888517,-0.0075126816276242,-3.460199497307395e-05,-0.0054349824786186,0.0255602821707725,-0.3617237508296966,0.0027331849560141,0.0039047375321388,-0.9895319938659668,0.1442350298166275,-0.0048833447863399,-0.0201596336446834,-0.3500149092836292,0.2898426055908203,-0.2029992938041687,-0.3903226852416992,99,68,17829,11338
7.9,1788516438479,6.422535419464111,3.859154939651489,-0.0004220437258481,0.0048115337267518,-0.632821798324585,0.7742825150489807,0.1626360284933271,-0.0094124120936167,6.27464405789622e-05,0.0064705447293818,-0.0045098671689629,-0.3474025726318359,0.0031038075685501,0.004031958989799,-0.9912565350532532,0.131850928068161,-0.0075281886279623,0.0058388324872308,-0.3688015778585464,0.0074947476387023,-0.1106660366058349,-0.0139627456665039,63,88,17229,11364
8.0,1788516438579,5.915493011474609,3.91549301147461,-0.0004220437258481,0.0048115337267518,-0.632821798324585,0.7742825150489807,0.1626360284933271,-0.0094124120936167,6.27464405789622e-05,0.0064705447293818,-0.0045098671689629,-0.3474025726318359,0.0047555053606629,0.0025741904973983,-0.992661952972412,0.1208019778132438,0.094965826093555,0.1432234093033294,-0.2730301365340047,-0.4340143799781799,0.1346009969711303,-1.2810373306274414,63,88,17229,11364
8.1,1788516438679,5.77464771270752,4.169013977050781,0.0012800004333257,0.0073709157295525,-0.6585646867752075,0.7524869441986084,0.1710460889851627,0.0048756004689163,-0.0001602093692724,-0.0490566529333591,0.0630727335810661,-0.3503726124763489,0.0047555053606629,0.0025741904973983,-0.992661952972412,0.1208019778132438,0.094965826093555,0.1432234093033294,-0.2730301365340047,-0.4340143799781799,0.1346009969711303,-1.2810373306274414,127,95,17097,12586
8.2,1788516438779,5.830986022949219,4.084506988525391,0.0011157062835991,0.0074638458900153,-0.6693162322044373,0.742939293384552,0.1758688917180435,-2.6782025548197013e-05,-0.0001516009500108,0.0055308043956756,0.0173151195049285,-0.246678352355957,0.0057078814134001,0.0050258180126547,-0.9963365793228148,0.0851795598864555,-0.0028331361781327,-0.0287165458381886,-0.2730963538551823,0.3504090309143066,0.1510787606239318,-0.2445259094238281,96,104,16993,12652
8.3,1788516438879,6.084506988525391,4.084506988525391,0.0007607429288327,0.007709770463407,-0.6779398322105408,0.7350764870643616,0.1783077101628587,0.0048931901568303,-3.352619407438074e-07,-0.0047946432605385,-0.0015515498816967,-0.2634356319904327,0.0060885930433869,0.0052640996873378,-0.9973598718643188,0.0721701085567474,0.0003431501722417,0.0248287161598363,-0.2718490720463868,0.0120567679405212,-0.1793693304061889,-1.0411949157714844,90,111,16258,12677
8.4,1788516438979,5.521126747131348,4.676056385040283,0.0007255850359797,0.0078140646219253,-0.6918240189552307,0.7220234870910645,0.174284699629479,0.0039030192811812,-0.000158181489347,-0.0017809255514293,0.0047427858226001,-0.2570417821407318,0.0053380038589239,0.0051482776179909,-0.9982144236564636,0.0592715218663215,0.0123542651353669,-0.0579890499738028,-0.1763416939346887,0.324226438999176,-0.0824468731880188,-0.1127471923828125,107,103,15696,13191
8.5,1788516439079,5.577464580535889,4.450704097747803,0.0004006763920187,0.0076584368944168,-0.6970592737197876,0.7169725298881531,0.1767814052188095,-0.0006722228295071,0.0001702482314413,0.0033792101312428,-0.0130066443234682,-0.1192849278450012,0.0056146904826164,0.0053524458780884,-0.9985678791999816,0.0529342703521251,-0.0145890025324679,0.0540545287362,-0.1471749756721739,-0.0688169002532959,0.0770627856254577,-0.2646093368530273,98,81,16011,13449
8.6,1788516439179,5.521126747131348,4.704225540161133,0.0003420666325837,0.0078075034543871,-0.7025347352027893,0.7116064429283142,0.1729835736559844,0.0020713299161504,-9.038834158439312e-05,-0.0077508375979959,0.0154964877292513,-0.1791606247425079,0.0056156190112233,0.0054562138393521,-0.9990283250808716,0.0433716587722301,0.0002558308282511,0.0152563655541017,-0.1411727928039157,-0.2763292789459228,0.0998421907424926,-0.2384681701660156,103,83,16186,12573
8.7,1788516439279,5.492957592010498,4.647887229919434,0.0004098063800483,0.0072680013254284,-0.7074994444847107,0.7066764235496521,0.1758219782225643,-0.0002550467279901,8.214926330520625e-05,0.0174460839480161,-0.0160050969570875,-0.1376173943281173,0.005055384710431,0.0053376900032162,-0.9992659687995912,0.0375956557691097,-0.0300963778035986,-0.0158444176250988,-0.1561379044780701,0.201263427734375,0.0276512503623962,0.8319263458251953,108,80,16291,12685
8.8,1788516439379,5.295774459838867,4.901408672332764,-5.660718306899071e-05,0.0071650147438049,-0.7132786512374878,0.700843870639801,0.1746000820904616,-0.0019063968061671,-5.4581077153215584e-05,-0.004392918664962,-0.0057687438093125,-0.1609825789928436,0.0049960184842348,0.0051425341516733,-0.9995173215866088,0.0302280783653259,0.0151398907941387,0.010828000390234,-0.0906188461997889,-0.1849657893180847,-0.0080060958862304,-1.668349266052246,60,120,14474,14211
8.9,1788516439479,5.239436626434326,4.901408672332764,-0.0001524097751826,0.0071326452307403,-0.7139354944229126,0.7001751661300659,0.1750758070658987,-0.0019525315611809,-2.633162620197948e-06,-0.0013152475003153,-0.0028782605659216,-0.0313232317566871,0.004579790867865,0.005369259044528,-0.9995450377464294,0.029324997216463,-0.0156486460142171,-0.0397211311946264,-0.0089072037334096,-0.097713828086853,-0.1065651178359985,1.9867115020751955,83,81,15039,13920
9.0,1788516439579,5.239436626434326,4.985915660858154,0.0004574316553771,0.0075495243072509,-0.7156020998954773,0.6984671354293823,0.1771010740155179,-0.0033793677893426,5.446763598718553e-05,0.0002452676708344,0.0135641684755682,-0.0482716374099254,0.004579790867865,0.005369259044528,-0.9995450377464294,0.029324997216463,-0.0156486460142171,-0.0397211311946264,-0.0089072037334096,-0.097713828086853,-0.1065651178359985,1.9867115020751955,111,83,15106,13650
9.1,1788516439679,5.239436626434326,5.098591327667236,0.0004574316553771,0.0075495243072509,-0.7156020998954773,0.6984671354293823,0.1771010740155179,-0.0033793677893426,5.446763598718553e-05,0.0002452676708344,0.0135641684755682,-0.0482716374099254,0.0010289615020155,0.0048606339842081,-0.999690592288971,0.0243736132979393,0.0031606710995224,-0.1129899075049344,-0.025264071647417,0.6437786221504211,0.1526917815208435,-0.8811092376708984,94,103,14854,13490
9.2,1788516439779,5.267605781555176,4.816901206970215,-0.0021461183205246,0.0045908116735517,-0.7186321020126343,0.6953719854354858,0.1774092406803658,0.0001330093594479,0.0001431145358168,0.0029927941504865,-0.01325264852494,-0.0429794043302536,0.0011229114606976,0.0049411449581384,-0.999751627445221,0.0217020828276872,-0.0071808319031836,0.0255163442822289,-0.0568070181100918,0.1900146603584289,0.0525529980659484,-1.8911328315734863,95,107,15005,14243
9.3,1788516439879,5.267605781555176,4.8450703620910645,-0.0026427514385432,0.0043128626421093,-0.7202783226966858,0.6936666965484619,0.1740876496491913,-0.0041379201857501,2.1619521444490096e-05,-0.0043256250210106,-0.0128126507624983,-0.0467149876058101,0.0013345414772629,0.0048270393162965,-0.9997933506965636,0.0197015386074781,0.0003192651453788,0.0043314373220685,-0.034629081088345,0.1370685696601867,0.1211493015289306,-0.8008489608764648,84,87,14983,14356
9.4,1788516439979,5.323943614959717,5.014084339141846,-0.0022528539411723,0.0047683818265795,-0.7231720685958862,0.6906477808952332,0.1753286579309867,0.0012784252960105,4.078578368040311e-05,-0.0119324829429388,-0.0035914671607315,-0.0923907533288002,0.0016950452700257,0.0050472924485802,-0.9998437166213988,0.0168632585555315,-0.0142340064761484,0.0197357723892279,-0.0728343935769132,-0.3761389851570129,-0.1214471459388732,0.2484302520751953,77,93,14680,13758
9.5,1788516440079,4.985915660858154,4.816901206970215,-0.0032973021734505,0.0048825722187757,-0.7248525619506836,0.6888788938522339,0.1773506753553211,-0.0045446981498546,3.860912409682175e-05,-0.0248164385557174,-0.0237386375665664,-0.0501770712435245,0.0013718977570533,0.0052336296066641,-0.9998815655708312,0.0144099099561572,0.0389592050145747,0.0292558663492393,-0.0169113950854975,0.0403271317481994,-0.3090843558311462,-0.7796812057495117,92,127,14939,14630
9.6,1788516440179,5.352112770080566,4.901408672332764,-0.0010896342573687,0.0047957911156117,-0.7257048487663269,0.6879885792732239,0.1784563283625667,-0.0008395768602745,-1.0631578173941468e-05,0.0307426657527685,0.0252724289894104,-0.0493363253772258,0.0023920871317386,0.0041937232017517,-0.9999038577079772,0.0130004407837986,0.0219544458632793,0.0280143086133852,-0.0420665433537842,-0.2017599940299987,0.1272498965263366,0.480712890625,99,107,14884,14015
9.7,1788516440279,5.211267471313477,4.901408672332764,-0.0001070126891136,0.0048058191314339,-0.7274036407470703,0.6861929893493652,0.1776200937767829,-0.0017438035781933,-0.0001139568386564,0.0141101451590657,0.0231748204678297,-0.0357213728129863,0.0032828766852617,0.0032968912273645,-0.9999338388442992,0.0105194225907325,0.0284343575719354,0.0307029637245285,-0.0286444249001792,-0.19008868932724,-0.2725064158439636,0.3386335372924804,72,111,15198,14002
9.8,1788516440379,5.633802890777588,4.535211086273193,-0.0001428882824257,0.0033140215091407,-0.7286922335624695,0.684833288192749,0.1744696408067095,-0.0004534196680054,1.0293867099539808e-05,0.0310777239501476,-0.0213126186281442,-0.056147713214159,0.0015224087983369,0.0022131977602839,-0.9999646544456482,0.0079688262194395,0.0278982561470359,-0.0613936639334299,-0.0809281923055281,0.1476678848266601,0.1003708839416503,0.1455192565917968,101,53,16280,12582
9.9,1788516440479,5.605633735656738,4.760563373565674,-0.0006569600664079,0.004456540569663,-0.7353720664978027,0.677648663520813,0.1711068817174488,0.0024487574211563,-8.344977415606771e-05,-0.0362991616129875,0.0109832817688584,-0.2421849071979522,-0.0028101177886128,-0.0038491981104016,0.9999870657920836,0.001824646256864,-0.0122068356448113,0.0186534847738596,-0.1609209448208822,-0.1835998892784118,0.0855486989021301,-0.5851593017578125,112,82,15882,12848
10.0,1788516440579,5.042253494262695,4.901408672332764,-0.0012789727188646,0.0044497642666101,-0.7376806139945984,0.6751339435577393,0.1784691652544647,-0.0021264207747345,-4.2564677466636125e-06,-0.0163128823041915,-0.0179683081805706,-0.1366338431835174,-0.0019881669431924,-0.0041246451437473,0.9999824166297911,0.0037785377353429,-0.0169046623487087,-0.0516519775286428,-0.124000032590693,0.0593152046203613,-0.0448267459869384,0.1086750030517578,77,140,14994,14765
10.1,1788516440679,5.098591327667236,5.098591327667236,-0.0010798863368108,0.0047602704726159,-0.7402743101119995,0.6722872257232666,0.1818269289025329,-0.002105630298761,-2.5391854356342905e-07,-3.378717394753039e-08,-5.912755796089186e-08,7.784565241308883e-06,-0.0023191962391138,-0.0040928004309535,0.99995356798172,0.0084111457690596,-0.0101543736305186,0.012238965947552,-0.0303524245193539,0.0089092850685119,0.0221486687660217,-0.1085977554321289,92,87,14465,14502
10.2,1788516440779,4.873239517211914,5.295774459838867,-0.0005149457138031,0.0047727706842124,-0.7393803596496582,0.6732708215713501,0.1727582193749887,-0.0006488841097494,-3.9481716370592e-05,0.0179794989526271,0.0206034686416387,0.0651738196611404,-0.0028349114581942,-0.0040269047021865,0.9999709129333496,0.0058214776217937,-0.0179861448894467,-0.0073340877723003,0.0562746359169435,-0.282293438911438,0.0536404848098754,1.483424186706543,83,86,14307,14964
10.3,1788516440879,4.901408672332764,5.239436626434326,0.0001188572496175,0.0059711392968893,-0.7377204895019531,0.6750797629356384,0.1746805217161279,-0.002521332901881,-0.0001006703806992,-0.0090142227709293,0.0483837537467479,0.048776276409626,-0.0039467522874474,-0.004305001348257,0.999972641468048,0.0045350492000579,-0.0116165703610009,0.0712680598741621,0.0431960583995671,0.0069403648376464,0.099807858467102,-0.5105352401733398,86,88,14015,15004
10.4,1788516440979,4.929577350616455,5.154929637908936,-0.0006590434350073,0.0056658554822206,-0.7352390289306641,0.6777840256690979,0.1766988565039729,0.0022719605945529,6.454686210042259e-05,-0.0067789983004331,-0.0231750048696994,0.0772986859083175,0.0027927858754992,0.0047085061669349,-0.9999850392341614,7.439218461513519e-05,-0.0080666436272708,-0.0463252273082645,0.0545054708483955,0.2130346894264221,-0.1007753610610961,-0.5607805252075195,102,94,14353,15246
10.5,1788516441079,5.154929637908936,5.042253494262695,-0.0013598605291917,0.0050911684520542,-0.7338034510612488,0.6793413758277893,0.1756086615918691,0.0004493451183182,2.047113935911568e-05,0.002514962805435,-0.0019286373862996,0.0303111765533685,0.0023116562515497,0.0045159887522459,-0.9999849200248718,0.0021144682541489,0.006116804865205,-0.0052784325875094,0.0205522245112226,0.3689756393432617,-0.1425574421882629,-1.370351791381836,134,71,15844,13377
10.6,1788516441179,5.295774459838867,4.873239517211914,-0.0016820470336824,0.0047492138110101,-0.7346794009208679,0.6783958077430725,0.1738614421161756,-0.0039993037510809,2.9020966914662984e-05,0.0017151623032987,-0.0225295908749103,-0.0628598481416702,-0.0018423674628138,-0.0046670120209455,0.9999873638153076,0.0003074053674936,-0.0031399422720089,-0.0211429466669973,-0.0856850705495794,0.1184695959091186,-0.1145166754722595,-0.0439777374267578,80,105,14982,14170
10.7,1788516441279,5.295774459838867,4.8450703620910645,-0.0008759771008044,0.0054501667618751,-0.7366356253623962,0.6762672662734985,0.1783247464687973,0.0003162503926175,-4.741428470599822e-05,0.0031717352103441,0.0382319688796997,-0.0616899840533733,-0.0019875094294548,-0.00451535359025,0.9999821186065674,0.003404026851058,0.0053218349786891,-0.0773283669021011,-0.0404967470108287,0.4551581144332886,0.1675695180892944,-3.746740341186523,94,88,14858,14371
10.8,1788516441379,5.211267471313477,4.8450703620910645,-0.0028649671003222,0.0035783681087195,-0.737360954284668,0.6754833459854126,0.1766343930883869,-0.0047679233515417,0.0001125712474578,0.0014799686614423,-0.1090081930160522,-0.0432053059339523,-0.0005922075361013,-0.0047036381438374,0.999977707862854,0.004698246717453,-0.0028254704905077,0.0447593649081978,-0.0375682041726236,-1.3363910913467407,0.0427876114845275,2.317715644836426,95,86,14984,14309
10.9,1788516441479,5.154929637908936,4.873239517211914,-0.004222999792546,0.0026119295507669,-0.7390850782394409,0.6735937595367432,0.176370067039231,-0.0026552118605732,0.0001020134424437,0.0035782088525593,-0.0313794612884521,-0.0374067574739456,0.0006407536566257,-0.0046897660940885,0.9999660849571228,0.006750744767487,0.0065167714783781,0.0465449255858857,-0.029940564534824,-0.2277030348777771,0.3078150153160095,0.3725252151489258,135,88,15106,14049
11.0,1788516441579,5.154929637908936,4.929577350616455,-0.0026748436503112,0.0031019495800137,-0.7410195469856262,0.6714709401130676,0.1731901624810069,-0.0026548428712913,-6.470575755172594e-06,0.0053048557601869,0.0128462733700871,-0.0572172105312347,0.0007979422807693,-0.0042745023965835,0.9999610185623168,0.0076951216906309,0.0221944043791166,-0.0079827787949775,-0.0504627684793544,0.3464739322662353,-0.3488485813140869,-0.925241470336914,104,105,15233,13885
11.1,1788516441679,5.211267471313477,4.816901206970215,-0.0017744980286806,0.0035363868810236,-0.7419777512550354,0.6704128384590149,0.1763961664529662,-0.0040504917103763,-0.0001417905752215,0.0103168059140443,0.0257879868149757,-0.0261394251137971,-0.0016325367614626,-0.0035322504118084,0.9999223351478576,0.0118438843637704,0.0108040606097885,0.0317302376554286,-0.0561179010541201,-0.0768801569938659,-0.1690003871917724,0.2925062179565429,133,89,15210,14181
11.2,1788516441779,5.126760482788086,5.154929637908936,-0.0008104600710794,0.0045610577799379,-0.7443256974220276,0.6678007245063782,0.1768584401686157,-0.0018367651079391,-0.0001039889863881,-0.0040571014396846,0.0220534019172191,-0.0525329522788524,-0.0028352495282888,-0.0035702716559171,0.9998817443847656,0.0146931754425168,0.0426142963281621,0.0607511529249658,0.0188847600616123,-0.0058035850524902,-0.2268481254577636,0.5003175735473633,74,86,14943,13545
11.3,1788516441879,5.154929637908936,4.816901206970215,-0.0004656491801142,0.0045367064885795,-0.7445923089981079,0.6675039529800415,0.1715040147890097,-2.004282331290593e-05,0.0001093944395891,0.0125130899250507,0.0121414558961987,-0.0199406184256076,-0.0026471531018614,-0.0029541319236159,0.9998767971992492,0.0151854967698454,-0.015399639315875,-0.0374173885757391,-0.0665304728383634,0.2811003923416137,0.1666126847267151,-0.0149288177490234,91,130,15643,14128
11.4,1788516441979,5.211267471313477,4.704225540161133,-0.0002075422089546,0.0039307186380028,-0.7469801902770996,0.66483473777771,0.1700010598016029,-0.0025897401342936,-4.200701473963446e-06,0.0037674426566809,-0.0009315628558397,-0.0586989820003509,-0.0023660790175199,-0.0030232528224587,0.9998269081115724,0.0182078089565038,0.0004929540259166,-0.0264193073721123,-0.0584944855309347,0.225749135017395,0.1614705920219421,-0.0616273880004882,122,107,15251,14571
11.5,1788516442079,5.267605781555176,4.957746505737305,-0.0007223990978673,0.0037123523652553,-0.7484237551689148,0.6632099747657776,0.1765500250057195,-0.0049363754626842,0.0001517490436934,-0.0020008203573524,-0.0279961824417114,-0.0299502667039632,-0.0019762488082051,-0.003180737607181,0.9997604489326476,0.0215665884315967,0.0008161259834988,-0.0062562608879943,-0.0394382582565093,-0.1936271786689758,0.1114940047264099,0.1786842346191406,99,91,14834,13755
11.6,1788516442179,5.633802890777588,4.478873252868652,-0.0002798396162688,0.0040625152178108,-0.7502537965774536,0.6611374616622925,0.1764629930298153,-0.0016842066659173,6.770929845223707e-05,0.0012372917262837,0.0089451493695378,-0.0468816757202148,-0.0023293979465961,-0.0029973043128848,0.9996992945671082,0.0242277476936578,0.0135367252963685,0.0044331549240453,-0.0799980042332947,0.0635443925857544,-0.1372992396354675,0.4117860794067383,106,58,16079,13044
11.7,1788516442279,5.549295902252197,4.619718074798584,0.0006813441868871,0.0059247007593512,-0.7561620473861694,0.6543571949005127,0.1740082909010205,0.0001357275516521,-0.0002659007701875,-0.0181573797017335,0.0554070919752121,-0.1766634881496429,-0.0046224724501371,-0.0038978494703769,0.9994603991508484,0.0322875045239925,-0.0044597964207316,0.0567002837614381,-0.139901801231808,-0.1131296157836914,-0.2054951786994934,0.3246736526489258,95,74,16036,13333
11.8,1788516442379,5.577464580535889,4.732394218444824,0.000941296108067,0.0066087767481803,-0.7608224153518677,0.6489256620407104,0.1754089474315806,-0.0002981916249508,-5.69446321539263e-05,-0.0141937201842665,0.0126615418121218,-0.1671300530433654,-0.0050952089950442,-0.0042033847421407,0.9992017149925232,0.0393992438912391,-0.0119969211987581,-0.0100456536770793,-0.1704292719219699,0.147016167640686,-0.0132255554199218,0.6823244094848633,53,135,14370,14254
11.9,1788516442479,5.183098793029785,5.070422649383545,0.0011864711996167,0.0070848381146788,-0.7638527154922485,0.6453505754470825,0.1780714128948689,-0.0026012976512229,-0.0001191881423905,0.0036664064973592,0.0217850115150213,-0.0326399430632591,-0.005783537402749,-0.004198944196105,0.9989939332008362,0.0442739240825176,0.0104767126312803,0.0014166348842503,-0.0079029226114964,-0.0306277871131896,-0.0774325728416442,-0.4771375656127929,93,95,14945,13693
12.0,1788516442579,5.267605781555176,4.788732528686523,0.0015522013418376,0.006564593873918,-0.7646668553352356,0.6443904638290405,0.1757606188496104,-0.0060044568929878,-1.353301649062948e-05,0.0098690697923302,0.0032614762894809,-0.0275366231799125,-0.0054084016010165,-0.003691610880196,0.9989283084869384,0.0458204224705696,0.0050891940484656,-0.0190828970643189,-0.0535433733387078,0.0823901295661926,0.043220579624176,-0.8192844390869141,86,110,14391,13989
12.1,1788516442679,5.098591327667236,4.873239517211914,0.0010393029078841,0.0053944769315421,-0.7663828134536743,0.6423606276512146,0.1763948433224992,-0.0041215338251751,5.966788869909748e-05,0.0125100379809737,-0.01998489536345,-0.0325383879244327,-0.0046090511605143,-0.0032407818362116,0.9988424181938172,0.0477725639939308,0.0121688595389422,0.001996844215095,-0.0132876042127402,-0.4653583765029907,0.1716772317886352,0.5779247283935547,105,67,14885,13484
12.2,1788516442779,4.8450703620910645,4.422535419464111,0.0006968339439481,0.004946116823703,-0.7676641345024109,0.6408330202102661,0.1670542838915164,0.0015036676574648,9.5338341340828e-05,0.0027094411198049,-0.0210833102464675,-0.0704204887151718,-0.0035516675561666,-0.0032304665073752,0.9986996054649352,0.0507549941539764,-0.0045482840091282,-0.0260555357005947,-0.0581817004969671,-0.1471606492996215,0.1162901520729065,-0.1573991775512695,80,78,13345,12617
12.3,1788516442879,4.563380241394043,4.197183132171631,-1.529906876385212e-05,0.0046786442399024,-0.769468367099762,0.6386678814888,0.154862352464666,-0.0026433076830509,2.3007578515842543e-05,-0.006725575774908,-0.0110823325812816,-0.0686120092868805,-0.0033942973241209,-0.003403197042644,0.9985809326171876,0.0530373528599739,0.0001799032713462,0.0142845070343321,-0.0407104284575259,-0.2258973121643066,-0.3291016817092895,0.6360740661621094,98,101,13827,12726
12.4,1788516442979,4.14084529876709,4.02816915512085,-1.529906876385212e-05,0.0046786442399024,-0.769468367099762,0.6386678814888,0.154862352464666,-0.0026433076830509,2.3007578515842543e-05,-0.006725575774908,-0.0110823325812816,-0.0686120092868805,-0.0034132916480302,-0.0036615133285522,0.9985387325286864,0.0538095720112323,-0.0240759449041572,-0.0088650856933025,-0.0490701660121291,-0.8225605487823486,0.1265283226966858,1.1400995254516602,59,29,12217,11225
12.5,1788516443079,4.11267614364624,3.746478796005249,-5.894969217479229e-05,0.0049197506159543,-0.7703315615653992,0.6376245617866516,0.1470594363472443,-0.0028539948747634,2.3686644021013937e-05,-0.0073648528195917,-0.0077343196608126,-0.0314485058188438,-0.0034132916480302,-0.0036615133285522,0.9985387325286864,0.0538095720112323,-0.0240759449041572,-0.0088650856933025,-0.0490701660121291,-0.8225605487823486,0.1265283226966858,1.1400995254516602,40,29,11268,10352
12.6,1788516443179,4.11267614364624,3.746478796005249,-5.894969217479229e-05,0.0049197506159543,-0.7703315615653992,0.6376245617866516,0.1470594363472443,-0.0028539948747634,2.3686644021013937e-05,-0.0073648528195917,-0.0077343196608126,-0.0314485058188438,-0.0060374485328793,-0.0040026362985372,0.9982053637504578,0.0594445317983627,0.0047294141263326,0.0364523527843121,-0.003622684196121,0.6462777256965637,0.0870893001556396,-1.184732437133789,40,29,11268,10352
12.7,1788516443279,4.11267614364624,3.746478796005249,-0.0001127081923186,0.0056308005005121,-0.7740440964698792,0.6331066489219666,0.1200427572185374,0.0008060780397819,0.0001482063653054,0.0035662441514432,-0.1244994178414344,0.0073015294037759,-0.0035801092162728,-0.0042149424552917,0.9981998801231384,0.0597200393676757,0.007429899341657,-0.173675013389521,0.0650320741045075,0.2890011072158813,0.1206544041633606,-1.5958929061889648,40,29,11268,10352
12.8,1788516443379,3.4647886753082275,3.9718310832977295,0.0001225541345775,0.0062652635388076,-0.7708181142807007,0.637024462223053,0.0894466828641825,0.0027862908754353,-5.870513699417286e-05,-0.0143184885382652,0.0223348718136549,0.2019722610712051,-0.0025604097172617,-0.0049305465072393,0.9989869594573976,0.0446570739150047,-0.0196272970345021,-0.0003378379167865,-0.0725446272695228,-0.6241368055343628,-0.0746718049049377,-0.0955171585083007,40,29,11268,10352
12.9,1788516443479,4.507042407989502,4.197183132171631,-0.001113751088269,0.0051009999588131,-0.7634669542312622,0.6458256840705872,0.149821006524419,-0.0080228258232419,0.0001595131428625,-0.0009059854783117,-0.0366401076316833,0.0955657362937927,-0.0025604097172617,-0.0049305465072393,0.9989869594573976,0.0446570739150047,-0.0196272970345021,-0.0003378379167865,-0.0725446272695228,-0.6241368055343628,-0.0746718049049377,-0.0955171585083007,190,113,16731,12422
13.0,1788516443579,4.507042407989502,4.197183132171631,-0.0027270207647234,0.0047576446086168,-0.7622438073158264,0.6472668051719666,0.1260469837799155,0.0010854942988958,-3.838316720755508e-05,-0.0076494798995554,-0.0261823385953903,0.1028253585100174,-0.0025604097172617,-0.0049305465072393,0.9989869594573976,0.0446570739150047,-0.0196272970345021,-0.0003378379167865,-0.0725446272695228,-0.6241368055343628,-0.0746718049049377,-0.0955171585083007,137,76,17469,11825
13.1,1788516443679,4.507042407989502,4.197183132171631,-0.0019044280052185,0.0050713689997792,-0.7717903852462769,0.6358540058135986,0.1790767250397288,0.0026123661101864,-0.0001228539907752,0.0065050334669649,0.0235210843384265,-0.2904601991176605,-0.0017100814729928,-0.0051706237718462,0.9977207183837892,0.0672587901353836,0.002877001638972,-0.0573961201849506,-0.2563086176671249,-0.2190968990325927,-0.6764459013938904,1.874119758605957,137,76,17469,11825
13.2,1788516443779,6.02816915512085,4.2816901206970215,-0.0019044280052185,0.0050713689997792,-0.7717903852462769,0.6358540058135986,0.1790767250397288,0.0026123661101864,-0.0001228539907752,0.0065050334669649,0.0235210843384265,-0.2904601991176605,-0.0032624267041683,-0.0039267055690288,0.997355043888092,0.0725042968988418,0.0453340345792449,0.0665493544975341,-0.2095348185853507,-0.2802860140800476,0.1500922441482544,2.552541732788086,116,78,16729,11909
13.3,1788516443879,5.098591327667236,3.3521127700805664,-0.0003116715233772,0.0050264494493603,-0.7834554314613342,0.6214275360107422,0.181119681780791,0.0008063575173023,-1.9677743444729076e-05,0.0200346354395151,-0.0033798937220126,-0.2383337914943695,-0.0047169718891382,-0.0030712224543094,0.9959708452224731,0.0895012319087982,0.0033931909586598,0.012308433396033,-0.2242166831316548,-1.2664843797683716,-0.170556902885437,0.0646820068359375,9,23,11183,6616
13.4,1788516443979,5.098591327667236,3.3521127700805664,0.0014683443587273,0.0054860403761267,-0.7955334782600403,0.605883002281189,0.0816903834573876,0.00199414579834,-5.778716710438243e-06,0.0027277620974928,0.0054488345049321,-0.2574105262756347,-0.0047169718891382,-0.0030712224543094,0.9959708452224731,0.0895012319087982,0.0033931909586598,0.012308433396033,-0.2242166831316548,-1.2664843797683716,-0.170556902885437,0.0646820068359375,9,23,11183,6616
13.5,1788516444079,5.098591327667236,3.3521127700805664,0.0014503689017146,0.0054116430692374,-0.8024901747703552,0.596639096736908,-6.452593868371391e-05,0.002112349860771,7.366629656403107e-07,0.0016919415211305,-0.0029166520107537,-0.224819615483284,-0.0047752065584063,-0.0029989993199706,0.9946318864822388,0.1033230498433113,0.0018790399241286,-0.0026445363661596,-0.2681908214264325,-0.6861453056335449,0.1058220863342285,0.0953235626220703,9,23,11183,6616
13.6,1788516444179,0.8732394576072693,-0.8732394576072693,0.0014158601406961,0.0053497501648962,-0.8085946440696716,0.5883401036262512,-0.0035294090302766,0.0014928375404633,-4.5148368177757966e-07,0.0002919486141763,0.0109704164788126,-0.2237077057361602,-0.0047670016065239,-0.0029147565364837,0.9927972555160522,0.1196762025356292,0.0025175186830471,0.0124363987616825,-0.2246160652595876,0.127402126789093,0.0670365691184997,-0.1347818374633789,9,23,11183,6616
13.7,1788516444279,0.8732394576072693,-0.8732394576072693,0.0014158601406961,0.0053497501648962,-0.8085946440696716,0.5883401036262512,-0.0035294090302766,0.0014928375404633,-4.5148368177757966e-07,0.0002919486141763,0.0109704164788126,-0.2237077057361602,-0.0047816326841712,-0.0028878403827548,0.991069197654724,0.1332316249608993,0.0024204206780065,0.0037765670346699,-0.2655809705135363,0.1872270703315735,-0.0891722440719604,0.0156993865966796,9,23,11183,6616
13.8,1788516444379,0.8450704216957092,-0.8169013857841492,0.0016398865263909,0.005401549860835,-0.819812536239624,0.5726041793823242,0.0015815911059967,0.002193209804703,1.1371294322795924e-06,0.0025828871876001,0.001995907863602,-0.2501105070114136,-0.0046894028782844,-0.0029235566034913,0.9893308877944946,0.1455816328525543,1.9939372202556085e-05,-0.0018608781651802,-0.2677579704843794,-0.0057910084724426,0.0489342212677001,-0.0115165710449218,108,117,4653,-4655
13.9,1788516444479,0.8450704216957092,-0.8169013857841492,0.0015212623402476,0.0053727002814412,-0.8296419382095337,0.5582679510116577,0.0027327000790572,0.0009891756831895,-3.746923789970029e-07,0.0010223031276836,0.0039307777769863,-0.2464997172355651,-0.0047787837684154,-0.0029845628887414,0.9865665435791016,0.163262590765953,-0.0007294649832693,-0.0017936040422893,-0.2681939877856343,0.1182309985160827,-0.0506775379180908,0.0281352996826171,108,117,4653,-4655
14.0,1788516444579,0.8450704216957092,-0.8169013857841492,0.0015212623402476,0.0053727002814412,-0.8296419382095337,0.5582679510116577,0.0027327000790572,0.0009891756831895,-3.746923789970029e-07,0.0010223031276836,0.0039307777769863,-0.2464997172355651,-0.0048832101747393,-0.0029658637940883,0.9846494793891908,0.1744502633810043,0.0014686845878968,0.0018156341651165,-0.2412564497448792,-0.0171745419502258,0.068654716014862,0.0621757507324218,108,117,4653,-4655
14.1,1788516444679,0.4507042169570923,0.0,0.0015212623402476,0.0053727002814412,-0.8296419382095337,0.5582679510116577,0.0027327000790572,0.0009891756831895,-3.746923789970029e-07,0.0010223031276836,0.0039307777769863,-0.2464997172355651,-0.0048964386805891,-0.0029699960723519,0.9837191104888916,0.1796215772628784,0.0006597014080743,0.0013348938252911,-0.2173530548857898,-0.2233376502990722,0.2367724776268005,-0.060154914855957,0,35,0,2659
14.2,1788516444779,-0.5070422291755676,0.9295774698257446,0.0015697453636676,0.0055017033591866,-0.8447566628456116,0.5351200103759766,-0.002101088272068,0.0028529781955626,1.3382794365677397e-07,-1.58082020789152e-05,0.0006427468033507,-0.093434490263462,-0.0048964386805891,-0.0029699960723519,0.9837191104888916,0.1796215772628784,0.0006597014080743,0.0013348938252911,-0.2173530548857898,-0.2233376502990722,0.2367724776268005,-0.060154914855957,257,44,-5709,3959
14.3,1788516444879,-0.5070422291755676,0.9295774698257446,0.0015697453636676,0.0055017033591866,-0.8447566628456116,0.5351200103759766,-0.002101088272068,0.0028529781955626,1.3382794365677397e-07,-1.58082020789152e-05,0.0006427468033507,-0.093434490263462,-0.0037081222981214,-0.0031359931454062,0.9873984456062316,0.1581797748804092,-0.000180891177794,-0.012451309012723,0.21626663088966,0.861027181148529,-0.4228006601333618,1.1972379684448242,257,44,-5709,3959
14.4,1788516444979,-0.6760563254356384,1.3521126508712769,0.0015697453636676,0.0055017033591866,-0.8447566628456116,0.5351200103759766,-0.002101088272068,0.0028529781955626,1.3382794365677397e-07,-1.58082020789152e-05,0.0006427468033507,-0.093434490263462,-0.0037081222981214,-0.0031359931454062,0.9873984456062316,0.1581797748804092,-0.000180891177794,-0.012451309012723,0.21626663088966,0.861027181148529,-0.4228006601333618,1.1972379684448242,142,20,-6019,3081
14.5,1788516445079,-0.6760563254356384,1.3521126508712769,0.0015697453636676,0.0055017033591866,-0.8447566628456116,0.5351200103759766,-0.002101088272068,0.0028529781955626,1.3382794365677397e-07,-1.58082020789152e-05,0.0006427468033507,-0.093434490263462,-0.0037729116156697,-0.0031200908124446,0.9905691146850586,0.1369265019893646,-0.001126014695253,-0.0045722994109156,0.256564994536599,-0.0963672995567321,0.6027466654777527,-4.291600704193115,102,148,-6026,4227
14.6,1788516445179,-0.6760563254356384,1.3521126508712769,0.0007091318257153,0.0048866136930882,-0.8202778697013855,0.5719438791275024,-0.0018118383330115,-0.0002471779721494,1.7029861809161077e-07,0.0001454408484278,0.0083228470757603,0.2457308024168014,-0.0039591863751411,-0.0031281886622309,0.9924799799919128,0.1223030686378479,-0.0021980290734368,0.0026065167911795,0.2569691315160532,0.1615698933601379,-0.4772247076034546,4.3138275146484375,102,148,-6026,4227
14.7,1788516445279,-0.6760563254356384,1.3521126508712769,0.0007601843681186,0.0049672480672597,-0.8084449768066406,0.5885502099990845,-0.0017770875242083,0.0008683661203053,9.080089767289357e-08,-0.0020149273332208,0.0018376803491264,0.275027722120285,-0.0037719486281275,-0.0031816363334655,0.9929882287979126,0.1181104108691215,-0.002958717606165,-0.0133245329383385,0.2714065912677275,0.3788517117500305,-0.3931846022605896,1.4790449142456057,102,148,-6026,4227
14.8,1788516445379,0.5352112650871277,-0.0845070406794548,0.0009070131927728,0.0051593016833066,-0.8022264242172241,0.5969968438148499,0.0075048161514106,-0.0013394920776971,-7.528326015252779e-07,-0.0034966054372489,0.00692730396986,0.1615918725728988,-0.0044535705819725,-0.0031340681016445,0.994153082370758,0.1078422889113426,0.0006099558248607,0.0089602503110361,-0.0913778440637881,-0.3018340468406677,-0.1095170378684997,0.1804990768432617,117,151,5287,-6938
14.9,1788516445479,0.7605633735656738,-0.7042253613471985,0.0010329189244657,0.0052471347153186,-0.8027682900428772,0.5962671041488647,0.0039559482192868,-0.0027716437999125,8.011003795267291e-07,0.0003212030278518,0.006167868617922,-0.0357501208782196,-0.0045079383999109,-0.0030789216980338,0.9930271506309508,0.117759920656681,0.0032179691476296,0.0058046415160243,-0.2656186667592126,0.4729397892951965,0.1024348735809326,0.1416702270507812,117,151,5287,-6938
15.0,1788516445579,0.7605633735656738,-0.7042253613471985,0.0012493715621531,0.005340336356312,-0.8127637505531311,0.582567572593689,-0.0014543004020598,0.0012684538972048,-5.036612144608896e-07,0.0010794401168823,0.0015366825973615,-0.2366330772638321,-0.0047281775623559,-0.0030754888430237,0.99258691072464,0.1214062720537185,-0.0005480740808371,0.0153433070013798,-0.2425496601700928,-0.3725135922431946,0.0565581321716308,0.1252250671386718,117,151,5287,-6938
15.1,1788516445679,0.9014084339141846,-0.7605633735656738,0.0013748784549534,0.0054341359063982,-0.8193762302398682,0.5732287764549255,0.0009840126702628,0.0016101397859343,5.435204127408611e-07,0.0009150026016868,0.0022808795329183,-0.2547232806682586,-0.0045332424342632,-0.0030533950775861,0.989485204219818,0.1445310711860656,0.0004995738339716,0.0001804879882338,-0.2519838391132377,0.1546282768249511,-0.0242298245429992,-0.0793800354003906,117,151,5287,-6938
15.2,1788516445779,0.7605633735656738,-0.8169013857841492,0.0013748784549534,0.0054341359063982,-0.8193762302398682,0.5732287764549255,0.0009840126702628,0.0016101397859343,5.435204127408611e-07,0.0009150026016868,0.0022808795329183,-0.2547232806682586,-0.0046331016346812,-0.0030741998925805,0.9879733920097352,0.1545244753360748,-0.0005903363528795,0.0021286653626398,-0.1793677450486134,-0.2968830466270447,0.2700036764144897,-0.0711326599121093,117,151,5287,-6938
15.3,1788516445879,0.7605633735656738,-0.8169013857841492,0.0013276729732751,0.005404838360846,-0.8309223651885986,0.5563604831695557,-0.0017523827430786,0.0013405321700884,3.71524267091054e-07,-0.0002310203853994,0.0060177245177328,-0.1168797090649604,-0.004498322494328,-0.00311129540205,0.987918496131897,0.1548783332109451,-0.000788820969468,0.0001109028288726,-0.0060784147957857,0.0321308970451355,-0.0983489751815795,0.0455007553100585,117,151,5287,-6938
15.4,1788516445979,0.0,0.0,0.0013276729732751,0.005404838360846,-0.8309223651885986,0.5563604831695557,0.0001910186905192,0.0002002534441404,-4.390904386395972e-07,0.0,0.0,0.0,-0.004498322494328,-0.00311129540205,0.987918496131897,0.1548783332109451,-0.000788820969468,0.0001109028288726,-0.0060784147957857,0.0321308970451355,-0.0983489751815795,0.0455007553100585,0,0,0,0
15.5,1788516446079,0.0,0.0,0.0013276729732751,0.005404838360846,-0.8309223651885986,0.5563604831695557,0.0,0.0,0.0,0.0,0.0,0.0,-0.0037693316116929,-0.0031034369021654,0.9888089895248412,0.1491070538759231,0.0064083181748711,-0.0342993461912025,0.2394158028765922,0.4343039393424988,0.2662956118583679,0.2409286499023437,0,0,0,0
15.6,1788516446179,-1.042253494262695,0.5352112650871277,0.0013276729732751,0.005404838360846,-0.8309223651885986,0.5563604831695557,0.0,0.0,0.0,0.0,0.0,0.0,-0.0037024039775133,-0.0031876442953944,0.9894670844078064,0.1446760147809982,-0.00442419889868,-0.0047346824363766,0.2242426269866,0.4701569080352783,0.0671666860580444,-1.2541236877441406,0,0,0,0
15.7,1788516446279,-1.042253494262695,0.5352112650871277,0.0005711722187697,0.0047829435206949,-0.8205440640449524,0.5715630054473877,-0.0028630398796767,-0.0009448597355211,-7.704808660487737e-07,0.0021724654361605,-0.0096276132389903,0.2603117525577545,-0.0037024039775133,-0.0031876442953944,0.9894670844078064,0.1446760147809982,-0.00442419889868,-0.0047346824363766,0.2242426269866,0.4701569080352783,0.0671666860580444,-1.2541236877441406,0,0,0,0
15.8,1788516446379,-0.8169013857841492,0.9295774698257446,0.0005711722187697,0.0047829435206949,-0.8205440640449524,0.5715630054473877,-0.0028630398796767,-0.0009448597355211,-7.704808660487737e-07,0.0021724654361605,-0.0096276132389903,0.2603117525577545,-0.0039280010387301,-0.0031664175912737,0.9927323460578918,0.1202374547719955,-0.0042790558493751,0.0033310004343637,0.185145787539971,0.3027849793434143,-0.0469675064086914,-2.223433494567871,0,0,0,0
15.9,1788516446479,0.0,0.0,0.0008124476298689,0.0050183879211544,-0.81082683801651,0.5852641463279724,0.0111039256192674,-0.0046703990825396,4.670024867837628e-07,-1.884137290630861e-08,-1.4131029679731457e-08,2.4116957320075016e-06,-0.0041944412514567,-0.0031430022791028,0.9928392767906188,0.1193430125713348,-0.0008757763950568,0.0197205705324649,0.0673388358916997,0.1761077642440796,-0.2953228950500488,-0.7952995300292969,0,0,0,0
16.0,1788516446579,0.0,0.0,0.0012155575677752,0.0053435727022588,-0.8111671805381775,0.5847886800765991,0.0010086233877603,-0.0005791843974631,5.560374393718691e-07,0.0,4.60819338243823e-09,0.0,-0.0044350968673825,-0.0030733253806829,0.9927168488502502,0.1203499808907508,0.0023321934756362,0.000804175492896,0.0072592991990509,-0.1406294107437133,0.1728816628456115,0.0297117233276367,16,22,1532,-1532
16.1,1788516446679,0.0,0.0,0.0012155575677752,0.0053435727022588,-0.8111671805381775,0.5847886800765991,0.0010086233877603,-0.0005791843974631,5.560374393718691e-07,0.0,4.60819338243823e-09,0.0,-0.0046396357938647,-0.0030306708067655,0.9909831285476683,0.1338722258806228,0.0023562969018681,-0.0041880495121982,-0.2578359770298533,-0.3622704744338989,0.2470631003379821,0.0865440368652343,16,22,1532,-1532
16.2,1788516446779,0.0,0.0,0.0012039202265441,0.0053059007041156,-0.823926568031311,0.5666705369949341,0.0016221424391911,0.0037728430729878,-3.7598809076154575e-08,-2.7721374863176607e-05,-0.0057119103148579,-0.2180090844631195,-0.0044671883806586,-0.0030812844634056,0.9903813004493712,0.1382587254047393,-0.0003942659594368,-0.0081400042760997,-0.2230322633589415,0.3018957376480102,-0.1599452495574951,0.1272459030151367,16,22,1532,-1532
16.3,1788516446879,0.8450704216957092,-0.8450704216957092,0.0013172980397939,0.0053781233727931,-0.8299108147621155,0.5578685998916626,-0.0003778605803571,0.0015979093380205,1.920126461960075e-07,0.0001834080321714,0.0034508991520851,-0.2485562860965728,-0.0046530151739716,-0.0030494770035147,0.98795884847641,0.1546172350645065,0.0013113732567596,0.0165596413671882,-0.2411480105506437,-0.4168213009834289,0.1096917390823364,-0.0597562789916992,77,91,4731,-4539
16.4,1788516446979,0.0,0.0,0.0012685374822467,0.0053378231823444,-0.83479905128479,0.5505275130271912,-0.003893505216443,0.0033003863972233,3.973622661827628e-07,0.0002035877696471,-5.442089241114445e-05,-0.1031250059604644,-0.0045280754566192,-0.0030724164098501,0.9869028329849244,0.1612232327461242,-0.0014795398423407,0.0004003408277665,0.0016761034608314,0.0504785776138305,-0.1522339582443237,0.0076379776000976,59,68,-3276,3276
16.5,1788516447079,-0.0563380271196365,0.0845070406794548,0.0012685374822467,0.0053378231823444,-0.83479905128479,0.5505275130271912,-0.003893505216443,0.0033003863972233,3.973622661827628e-07,0.0002035877696471,-5.442089241114445e-05,-0.1031250059604644,-0.0045280754566192,-0.0030724164098501,0.9869028329849244,0.1612232327461242,-0.0014795398423407,0.0004003408277665,0.0016761034608314,0.0504785776138305,-0.1522339582443237,0.0076379776000976,121,199,-6799,6790
16.6,1788516447179,-0.6197183132171631,0.8450704216957092,0.0009505040943622,0.0050824386999011,-0.8325708508491516,0.5538945198059082,-0.0008236235061832,-0.0015871568799615,-4.6410672977522105e-07,0.0006328255403786,-0.0121480515226721,0.1163972467184066,-0.0045280754566192,-0.0030724164098501,0.9869028329849244,0.1612232327461242,-0.0014795398423407,0.0004003408277665,0.0016761034608314,0.0504785776138305,-0.1522339582443237,0.0076379776000976,82,170,-3663,5761
16.7,1788516447279,2.0281689167022705,2.901408433914185,0.0006914262194186,0.004978310316801,-0.8266712427139282,0.5626628994941711,0.0017497932916229,-0.0051836657662391,-6.795383553644264e-07,0.0029406414832919,-0.004765307996422,0.2239542305469513,-0.0044619450345635,-0.0032663466408848,0.990860641002655,0.1347760111093521,-0.0025212684599295,0.0182169045754301,0.3149143411679759,1.291917085647583,0.194419264793396,0.7886590957641602,49,157,7336,11271
16.8,1788516447379,5.323943614959717,5.267605781555176,0.0009028909262269,0.0057370490394532,-0.8168869614601135,0.5767686367034912,0.1154819777473445,-0.0034976776705853,4.674889100793317e-05,-0.0120387114584445,-0.0045025767758488,0.1488037705421447,-0.0044703334569931,-0.003925965167582,0.9916206002235411,0.1290467381477356,-0.0126416335669209,-0.0004683055774586,0.0080913978264573,0.3873603940010071,-0.2119438052177429,-0.4347257614135742,126,104,15900,15457
16.9,1788516447479,5.295774459838867,5.183098793029785,0.0009028909262269,0.0057370490394532,-0.8168869614601135,0.5767686367034912,0.1154819777473445,-0.0034976776705853,4.674889100793317e-05,-0.0120387114584445,-0.0045025767758488,0.1488037705421447,-0.0047449357807636,-0.0038443366065621,0.9915584325790404,0.129516527056694,0.0016032532832435,0.0096739526265105,-0.0160365654408249,-0.1535432934761047,0.1300306916236877,0.4767875671386719,126,104,15900,15457
17.0,1788516447579,5.295774459838867,5.183098793029785,0.0007718903943896,0.0058495025150477,-0.8162384629249573,0.5776850581169128,0.1764872102107283,-0.0034705523286798,2.0367292748894138e-07,0.0,-1.6758893162105435e-09,0.0,-0.0047449357807636,-0.0038443366065621,0.9915584325790404,0.129516527056694,0.0016032532832435,0.0096739526265105,-0.0160365654408249,-0.1535432934761047,0.1300306916236877,0.4767875671386719,116,76,14076,14642
17.1,1788516447679,5.295774459838867,5.183098793029785,0.0018703041132539,0.0049992203712463,-0.8159118294715881,0.5781517624855042,0.1656578417608286,-0.0027849216774523,3.854165162099242e-07,0.0199592765420675,8.721232006791979e-05,0.0095756482332944,-0.0047449357807636,-0.0038443366065621,0.9915584325790404,0.129516527056694,0.0016032532832435,0.0096739526265105,-0.0160365654408249,-0.1535432934761047,0.1300306916236877,0.4767875671386719,116,76,14076,14642
17.2,1788516447779,5.154929637908936,5.211267471313477,0.0018483642488718,0.0027233713772147,-0.8154522180557251,0.5788151025772095,0.1690918683053462,-0.0032027153474277,5.3727238341031424e-06,0.0652916207909584,-0.0462834201753139,0.0261343363672494,-0.0044832192361354,-0.0017707580700516,0.9916533827781676,0.1288428604602813,-0.0196511814622581,-0.0507456102457175,-0.0099068210964853,0.6194584965705872,-0.2360073328018188,-1.6840028762817385,64,114,13816,13912
17.3,1788516447879,5.154929637908936,5.211267471313477,0.0024967407807707,0.0045329881832003,-0.8159852623939514,0.5780494809150696,0.172095094023759,0.005740219422285,5.9266099457856696e-05,-0.006285164039582,-0.0182936172932386,0.0042459429241716,-0.0048470050096511,-0.0019909981638193,0.9914699792861938,0.1302300691604614,-0.0245413462476165,0.0097951070574265,-0.0789143536058298,-0.7780925631523132,-0.0317491292953491,2.704087257385254,64,114,13816,13912
17.4,1788516447979,4.422535419464111,4.394366264343262,0.0024967407807707,0.0045329881832003,-0.8159852623939514,0.5780494809150696,0.172095094023759,0.005740219422285,5.9266099457856696e-05,-0.006285164039582,-0.0182936172932386,0.0042459429241716,-0.0048470050096511,-0.0019909981638193,0.9914699792861938,0.1302300691604614,-0.0245413462476165,0.0097951070574265,-0.0789143536058298,-0.7780925631523132,-0.0317491292953491,2.704087257385254,64,114,13816,13912
17.5,1788516448079,2.7887322902679443,2.08450698852539,0.0019254517974331,0.0037347003817558,-0.8170715570449829,0.5765209794044495,0.1530924291772258,-0.0019560038547974,8.830658461846137e-05,0.0279887691140174,-0.0211892593652009,0.0153075428679585,-0.0039518708363175,-0.0018226448446512,0.9910908341407776,0.1331163793802261,-0.0087239580502163,0.0001991035540138,-0.0852613096952062,-0.6918462514877319,-0.5378016829490662,-0.3924446105957031,94,57,13750,12482
17.6,1788516448179,2.7887322902679443,2.08450698852539,0.0016078706830739,0.0039726933464407,-0.8177933692932129,0.5754959583282471,0.1292073958035422,-0.0028301618839941,8.567744222978966e-07,-0.014912243001163,-0.0047926660627126,-0.0502033941447734,-0.0038051838055253,-0.0020518712699413,0.9907042384147644,0.1359649151563644,-0.0077169424779246,-0.0066620485909835,-0.1128695902418722,-1.0233501195907593,0.2198165655136108,0.1984024047851562,94,57,13750,12482
17.7,1788516448279,2.7887322902679443,2.08450698852539,0.0013225966831669,0.0041894009336829,-0.820968747138977,0.5709564089775085,0.0396368229475871,0.0010344121014433,6.121650899420919e-06,-0.0126271490007638,-0.009948831051588,-0.1409991979598999,-0.0036234175786376,-0.0023384569212794,0.9908669590950012,0.1347741782665252,-0.0045720530293692,0.0018863000134243,0.1287905641564373,-0.9427741169929504,0.2558193802833557,0.1665706634521484,94,57,13750,12482
17.8,1788516448379,2.7887322902679443,2.08450698852539,0.0012007127515971,0.0044537223875522,-0.8146933913230896,0.5798736810684204,-0.0011977981481451,-0.0003705482199342,1.82477307880994e-06,-0.0053738136775791,0.0069643980823457,0.2404847145080566,-0.0039209723472595,-0.0024572443217039,0.991974413394928,0.1263545602560043,0.0005915873494858,0.0070315309426586,0.2945662865671717,-0.1322059631347656,0.0157318711280822,-0.2349987030029297,94,57,13750,12482
17.9,1788516448479,2.7887322902679443,2.08450698852539,0.0012425157474353,0.0044677583500742,-0.8116323351860046,0.5841500759124756,0.0017417359724509,-0.0024165380705506,-1.7674331072705272e-06,-0.0002967320906464,0.0013350395020097,0.2617367804050445,-0.0039774347096681,-0.0022981679067015,0.9937933087348938,0.1111471951007843,0.0034991022820059,-0.0032102628706648,0.2622603367675974,-0.1828536987304687,-0.0340688824653625,-0.0342617034912109,116,112,-4715,4435
18.0,1788516448579,2.7887322902679443,2.08450698852539,0.0013240869157016,0.0043659913353621,-0.8043717741966248,0.5941088795661926,-0.0005451583744518,-0.0033118540692771,-1.140737350537452e-06,0.0023774481378495,-3.962460323236883e-05,0.2595038712024688,-0.0038652345538139,-0.0022771600633859,0.9949375987052916,0.1003943681716919,-0.0030666456523944,-0.0131136410399923,0.2453470640042594,0.2790542244911194,0.3309948444366455,-0.0522699356079101,116,112,-4715,4435
18.1,1788516448679,2.7887322902679443,2.08450698852539,0.0012255082838237,0.0044942088425159,-0.7931703925132751,0.6089819073677063,0.0163967392124973,-0.0001789985828806,6.134702373574176e-06,-0.0096032163128256,-0.0072526279836893,0.3000011444091797,-0.0039785001426935,-0.0030622072517871,0.9971768856048584,0.0749199762940406,-0.0186692431875081,-0.0020548865295071,0.2695460116383738,0.9718209505081176,0.3471357822418213,-0.210789680480957,116,112,-4715,4435
18.2,1788516448779,2.7887322902679443,2.08450698852539,0.0006722586695104,0.0050042392686009,-0.7823414206504822,0.6228293776512146,0.1361327055764338,0.0011368879851444,1.4696809913861908e-05,-0.0179535374045372,-0.011082649230957,0.2255833446979522,-0.0038106571882963,-0.0033623604103922,0.9974190592765808,0.0716197788715362,-0.0197580183843729,-0.0131773230348443,0.2179828499306484,0.6247947216033936,0.0899097323417663,0.3092889785766601,116,112,-4715,4435
18.3,1788516448879,4.647887229919434,5.6619720458984375,0.000421536155045,0.0056777233257889,-0.7765320539474487,0.6300520896911621,0.1805033734487404,-0.0027783714299294,-5.776200287499837e-05,-0.0101742604747414,0.0090778339654207,0.1773608475923538,-0.0039291083812713,-0.004089230671525,0.9980871081352234,0.0615630745887756,-0.0115427554996908,-0.0175660889724865,0.1369563868652863,0.2385549545288086,-0.0011731386184692,-0.4129714965820312,116,112,-4715,4435
18.4,1788516448979,4.507042407989502,5.549295902252197,0.0001127757132053,0.0062103532254695,-0.7719249725341797,0.6356833577156067,0.1708469435886857,0.0015606212448387,-9.629060527509388e-05,-0.0100974356755614,0.0013695306843146,0.1488182991743087,-0.0057944068685173,-0.0048680268228054,0.9986663460731506,0.0510723814368248,-0.0060515463262805,0.0376192936515176,0.146734149404971,0.3316053748130798,0.2118217945098877,0.2369918823242187,95,117,13294,16081
18.5,1788516449079,4.563380241394043,5.605633735656738,0.0014382479712367,0.0079730600118637,-0.7674906253814697,0.6410089135169983,0.1695530112193455,0.0018926347664123,-0.0001345596070183,-0.0057318760082125,0.0732033625245094,0.1600851863622665,-0.0069265756756067,-0.0047921119257807,0.99886292219162,0.0469259172677993,-1.8718781516360032e-05,0.0462600615808712,0.1727416371523508,0.5417721271514893,0.035447359085083,-0.7487258911132812,95,117,13294,16081
18.6,1788516449179,4.591549396514893,5.577464580535889,0.0015298470389097,0.0078252628445625,-0.7612821459770203,0.648371696472168,0.16413743611773,-0.0003333226665202,0.000292780192331,0.0029056754428893,-0.1084964275360107,0.1526162177324295,-0.007025389932096,-0.0047392603009939,0.9993529319763184,0.0349574163556098,-0.0001347976091506,-0.0175448102763981,0.145905486448356,0.1978968381881714,0.3380866646766662,0.572998046875,116,100,13501,16210
18.7,1788516449279,4.591549396514893,5.577464580535889,0.0022627669386565,0.0085143884643912,-0.7570548057556152,0.6532920598983765,0.1744678475713225,-0.0022130246830929,7.235543175214111e-05,0.0029728296212852,-0.0067178183235228,0.1525732427835464,-0.0078963814303278,-0.0046720774844288,0.9997064471244812,0.0224244482815265,-0.003460563401614,0.0130634206740613,0.2832177424343578,0.2014818787574768,0.0384668111801147,-0.9888982772827148,49,139,11756,17609
18.8,1788516449379,3.183098554611206,4.985915660858154,0.0022627669386565,0.0085143884643912,-0.7570548057556152,0.6532920598983765,0.1744678475713225,-0.0022130246830929,7.235543175214111e-05,0.0029728296212852,-0.0067178183235228,0.1525732427835464,-0.0083261178806424,-0.0049511985853314,0.9998413920402528,0.0149450609460473,-0.0112868389146131,0.0127863638988433,0.2452803416321309,0.0175975561141967,0.3134847283363342,-0.4064750671386719,8,18,6309,10747
18.9,1788516449479,1.6619718074798584,3.0422534942626958,0.0022627669386565,0.0085143884643912,-0.7570548057556152,0.6532920598983765,0.1744678475713225,-0.0022130246830929,7.235543175214111e-05,0.0029728296212852,-0.0067178183235228,0.1525732427835464,-0.008223601616919,-0.0053449058905243,0.9999402761459352,0.0048268027603626,-0.0109423513093831,0.0041948322809071,0.2177676185441032,-1.5240408182144165,0.1350038647651672,-0.5145263671875,50,14,415,6682
19.0,1788516449579,-0.6197183132171631,0.0,0.0019251937046647,0.008795409463346,-0.7308360934257507,0.6824936270713806,0.0421266781162753,-0.0029781895495958,2.19875382686932e-05,0.0025841740425676,-0.0208701454102993,0.2704432010650635,0.0071090478450059,0.0051965918391942,-0.999916136264801,0.0094988876953721,-0.000830494978851,-0.0224964245023557,0.1067669306050066,0.1908231377601623,0.1572001576423645,-0.1497573852539062,64,196,-5217,5630
19.1,1788516449679,-0.98591548204422,0.4225352108478546,0.0018334130290895,0.0086790081113576,-0.7227047681808472,0.6910999417304993,-0.0009292459944669,-0.0039300449149331,2.03723564844703e-06,-0.0008619562722742,0.0082580083981156,0.2256139069795608,0.0072978409007191,0.0051344074308872,-0.99973064661026,0.0214237179607152,-0.0018014015505171,0.0045654093665037,0.2414262795956379,-0.204001784324646,-0.2094962000846862,0.0661373138427734,75,216,-2913,7437
19.2,1788516449779,1.436619758605957,3.183098554611206,0.0013092602603137,0.0081431530416011,-0.7126621603965759,0.7014589309692383,0.0289601994440604,-0.0025302109284498,2.49874185186651e-05,-0.0009623655350878,-0.0238661170005798,0.3325587809085846,0.0062140775844454,0.0051347343251109,-0.9993259310722352,0.035815380513668,-0.0058960215854463,-0.0247243365076824,0.3479304924707297,0.9408144354820251,0.0144994258880615,0.299997329711914,269,197,7916,12100
19.3,1788516449879,4.056337833404541,5.408450603485107,0.0008822216186672,0.0084261912852525,-0.7046603560447693,0.7094942331314087,0.1164785636484238,0.0026413435315972,-1.322883428785025e-05,-0.0147032793611288,-0.0008115466334857,0.1981392055749893,0.0062413569539785,0.0057296957820653,-0.998843789100647,0.047322854399681,-0.0129876316204259,0.0060264842465603,0.2055246512783734,1.0432454347610474,0.2595599889755249,-0.0325250625610351,186,195,15106,17070
19.4,1788516449979,5.126760482788086,5.295774459838867,0.0002583917230367,0.0089747756719589,-0.6998651027679443,0.7142186164855957,0.1806302746680879,-0.0053490131369862,-1.1984280181954644e-05,-0.0273270662873983,0.007753939833492,0.041529219597578,0.0058114817366003,0.0069861616939306,-0.9987139105796814,0.0498787090182304,-0.0353959567235041,-0.0301569210663132,-0.0197219100211317,-0.8877912163734436,-0.5149481296539307,2.9500551223754883,51,68,14003,15157
19.5,1788516450079,5.154929637908936,5.014084339141846,0.0008809394203126,0.0093901250511407,-0.6991574168205261,0.7149054408073425,0.1710055333212747,-0.0028923955907026,-7.52042325890087e-05,0.0077130920253694,0.014850958250463,0.0297563802450895,0.0073402980342507,0.0068197874352335,-0.9986379146575928,0.0512057505548,-0.0200407850366867,0.0295413404328593,-0.0028234243520183,-0.0677251815795898,-0.3283171057701111,0.5227127075195312,91,90,14483,14795
19.6,1788516450179,5.154929637908936,5.042253494262695,0.0016157841309905,0.0103135015815496,-0.6988566517829895,0.7151855826377869,0.164346236209168,-0.0053589811154807,-0.0002193353545996,-0.0049265152774751,0.0468045882880687,0.0166583713144063,0.0070787975564599,0.0064062224701046,-0.9986241459846495,0.0515635833144187,0.0012331950494013,-0.0788792487457071,0.0038257660220318,0.5066549181938171,0.090703010559082,-1.055525779724121,73,99,14255,14596
19.7,1788516450279,5.070422649383545,5.042253494262695,0.0010919878259301,0.0108592379838228,-0.6989887952804565,0.7150493860244751,0.1581430696782733,-0.0066283711577381,-0.0001052673696345,-0.0310642886906862,0.0300962496548891,-0.0186119955033063,0.0085898051038384,0.007586590014398,-0.998627245426178,0.0511100962758064,-0.0168937027080137,0.0021028442150125,0.0102700106117442,0.0618655085563659,-0.0575872659683227,0.0668439865112304,86,122,14499,14911
19.8,1788516450379,5.154929637908936,5.183098793029785,0.00143070705235,0.0113046988844871,-0.6991792917251587,0.7148555517196655,0.1663613100524725,-2.855026553940755e-05,-0.0001318082311123,-0.0019281294662505,0.0160609576851129,-0.0077401152811944,0.0089493757113814,0.0075165666639804,-0.9985908269882202,0.0517674498260021,-0.0016814493425939,0.0138416543425342,0.0245260766310545,0.0790836215019226,-0.090487539768219,0.6182689666748047,100,111,14313,14227
19.9,1788516450479,4.957746505737305,5.042253494262695,0.0019956557080149,0.0118583086878061,-0.6981000900268555,0.7158992290496826,0.1596470078159104,0.0009799273823516,-5.954943631192698e-08,0.0,4.57111104523733e-09,0.0,0.0098703643307089,0.0077143721282482,-0.9985312819480896,0.052711047232151,-0.0039463411985086,0.0486135503747443,0.0111891659369625,0.0398048162460327,0.1184262037277221,-0.5751419067382812,131,99,15267,14669
20.0,1788516450579,5.042253494262695,4.929577350616455,0.0016585108824074,0.0121568962931633,-0.6974599957466125,0.7165187001228333,0.1666047689657426,-0.0015548474895022,-8.917898924592516e-05,-0.0179645456373691,-0.0010838534217327,0.0347088426351547,0.0095984479412436,0.0078102871775627,-0.9984923005104064,0.0534800887107849,0.0031212110743999,-0.0263804428368711,0.0191605842800917,0.2580078840255737,-0.0422102212905883,0.5189180374145508,135,110,15122,14408
20.1,1788516450679,5.126760482788086,4.985915660858154,0.0007724668830633,0.0117865595966577,-0.6974838972091675,0.7165031433105469,0.1653212783020265,-0.0079851917385107,5.68523736175122e-07,-0.0109856445342302,-0.0257865730673074,-0.0011137865949422,0.0087725380435585,0.0081553170457482,-0.9985021352767944,0.05338691547513,-0.0056325171271907,-0.0206507426480905,-0.0041111009135769,-0.2101108431816101,-0.0630097389221191,0.4465808868408203,83,95,14494,14651
20.2,1788516450779,4.647887229919434,5.464788913726807,0.0003254041075706,0.0112236533313989,-0.6972132921218872,0.7167758345603943,0.1617065123674078,-0.0054737326433066,-5.336038331392167e-07,0.0047129457816481,-0.0062484014779329,0.0157225485891103,0.0076563162729144,0.0078937541693449,-0.9983975291252136,0.0555102117359638,0.0035135713014417,-0.0153858063969006,0.1131634392011219,-0.0255936980247497,0.0885175466537475,-0.7323551177978516,48,118,12626,16607
20.3,1788516450879,4.422535419464111,5.549295902252197,0.0005065845325589,0.0111676650121808,-0.6914005875587463,0.722385048866272,0.1637436907528964,0.0045878658371713,9.881643360319316e-06,0.0001757518039084,0.0044572483748197,0.1896658390760421,0.0080942679196596,0.007912035100162,-0.9979069232940674,0.0636681988835334,-0.0065621677121698,0.0221369918969978,0.1706352848105972,-0.0363869667053222,0.1544247269630432,-0.956538200378418,91,110,13667,15975
20.4,1788516450979,4.422535419464111,5.549295902252197,0.00068329134956,0.010934648104012,-0.685348391532898,0.7281329035758972,0.1641012492476453,0.0016174364605067,-7.297981992515573e-05,0.006969807203859,0.0047543561086058,0.1595965176820755,0.0086225187405943,0.0074447086080908,-0.9972137212753296,0.0737232267856597,0.0045720565727113,0.0350730297090815,0.1606834765500952,-0.2472057938575744,0.1313192844390869,0.5027217864990234,46,28,11287,12454
20.5,1788516451079,2.281690120697021,3.0422534942626958,0.0018141097389161,0.0123159373179078,-0.680279552936554,0.7328470349311829,0.1473771419650155,0.0017929901841411,-5.0357673449160207e-05,-0.0116407889872789,0.0456812605261802,0.1403501480817794,0.0095964260399341,0.0077157095074653,-0.9968881011009216,0.0778627842664718,0.00159528272216,0.0341336897593021,0.1265997161565182,-0.4920346736907959,-0.1771748065948486,0.2725782394409179,8,35,5167,4872
20.6,1788516451179,1.0140844583511353,1.2957746982574463,0.0023096371442079,0.0128900595009326,-0.6759844422340393,0.7367995381355286,0.0331293823879282,0.0009427381150886,3.78395741673076e-06,-0.0069344816729426,0.0013321985024958,0.0782412439584732,0.0105450460687279,0.0079484591260552,-0.9964703917503356,0.0829008370637893,-0.0030739943505409,0.0198680364891046,0.080492529515012,-1.4661498069763184,-0.2205959558486938,-0.0332632064819335,10,30,1131,189
20.7,1788516451279,0.0,0.0,0.0020020972006022,0.0125527810305356,-0.6760968565940857,0.736703097820282,-0.0007477437414522,0.0029563472137171,1.7073238768158752e-06,-0.0019247925374656,0.0020451212767511,-0.0328286103904247,0.0099844001233577,0.0078932819887995,-0.996507167816162,0.0825313925743103,-0.0024062538180908,0.0020684617291309,-0.0304493906581501,-0.069291353225708,-0.1741781830787658,0.0123662948608398,0,0,0,0
20.8,1788516451379,0.0,0.0,0.0020020972006022,0.0125527810305356,-0.6760968565940857,0.736703097820282,-0.0001868956144392,-0.0006118493600744,-6.060135362922713e-07,0.0,1.3989090774657598e-08,0.0,0.0099306190386414,0.0078656375408172,-0.996484637260437,0.0828127786517143,0.0016827491088468,0.0016293005805788,-0.0049752526687856,0.044813334941864,0.1811344027519226,-0.0341644287109375,0,0,0,0
20.9,1788516451479,0.0,0.0,0.0020020972006022,0.0125527810305356,-0.6760968565940857,0.736703097820282,-0.0003380858463692,-0.0003443238789558,1.3066493056169306e-07,0.0,2.3686858696692074e-08,0.0,0.0099064745008945,0.0078860176727175,-0.9964765906333924,0.0829106941819191,-0.0016987116707989,-0.0006170774108355,-0.0086003130022895,0.0477840900421142,-0.0162050127983093,0.0099210739135742,0,0,0,0
21.0,1788516451579,0.0,0.0,0.0020020972006022,0.0125527810305356,-0.6760968565940857,0.736703097820282,0.0001406526252288,0.0001432478112415,-5.4360055903595795e-08,0.0,9.854357330141283e-09,0.0,0.0098989820107817,0.0079017262905836,-0.9964704513549804,0.0829828679561615,-0.0015790259420276,-0.000221361225517,-0.0030257515555986,-0.0242403745651245,-0.0177634954452514,0.0257673263549804,0,0,0,0
21.1,1788516451679,0.0,0.0,0.0020020972006022,0.0125527810305356,-0.6760968565940857,0.736703097820282,0.0,0.0,0.0,0.0,1.3978112889390104e-08,0.0,0.0099151609465479,0.0079113952815532,-0.9964653253555298,0.0830418393015861,-0.0005423916573857,0.0017042468444843,0.0030575887615373,-0.0112494230270385,0.005810797214508,0.0079679489135742,0,0,0,0
21.2,1788516451779,0.0,0.0,0.0020020972006022,0.0125527810305356,-0.6760968565940857,0.736703097820282,0.0,0.0,0.0,0.0,1.3957835776068352e-08,0.0,0.0099231917411088,0.0079120453447103,-0.9964666962623596,0.0830238834023475,0.0006615795289095,-5.839597951656044e-05,0.0013578523574267,0.0391488671302795,0.0237287282943725,0.0190439224243164,0,0,0,0
21.3,1788516451879,0.0,0.0,0.0020020972006022,0.0125527810305356,-0.6760968565940857,0.736703097820282,0.0,0.0,0.0,0.0,1.4431469352871318e-08,0.0,0.0099305426701903,0.0079420674592256,-0.996469497680664,0.0829876586794853,0.0001727155566018,0.000459338410347,0.0005387992234253,-0.0181695818901062,-0.0026595592498779,0.0258741378784179,0,0,0,0
21.4,1788516451979,0.0,0.0,0.0020020972006022,0.0125527810305356,-0.6760968565940857,0.736703097820282,0.0,0.0,0.0,0.0,1.7606724966867663e-08,0.0,0.0099210171028971,0.0079409992322325,-0.9964670538902284,0.0830175802111625,0.000886637084913,-0.0004128961177012,0.0005553934159017,-0.0093020796775817,0.0027847290039062,0.0097684860229492,0,0,0,0
21.5,1788516452079,0.0,0.0,0.0020020972006022,0.0125527810305356,-0.6760968565940857,0.736703097820282,0.0,0.0,0.0,0.0,1.3666673126522257e-08,0.0,0.0099079888314008,0.0078990254551172,-0.996470868587494,0.0829767882823944,0.0008658549324104,0.0004654684722877,-0.0013592671460206,-0.0041902065277099,0.0241422653198242,-0.0102691650390625,0,0,0,0
21.6,1788516452179,0.0,0.0,0.0020020972006022,0.0125527810305356,-0.6760968565940857,0.736703097820282,0.0,0.0,0.0,0.0,1.4064141851122258e-08,0.0,0.0098966993391513,0.0078848591074347,-0.996474027633667,0.0829425752162933,0.0005376770918666,-0.0005863669790002,-0.0005187941346493,-0.0082629919052124,8.618831634521484e-05,0.0060157775878906,0,0,0,0
21.7,1788516452279,0.0,0.0,0.0020020972006022,0.0125527810305356,-0.6760968565940857,0.736703097820282,0.0,0.0,0.0,0.0,1.0056491639431895e-08,0.0,0.0098973698914051,0.0079006487503647,-0.996472418308258,0.0829596742987632,-0.0005287234270461,0.0004767246963592,-0.0001615215667926,-0.0010746121406555,-0.0125371813774108,-0.0086231231689453,0,0,0,0
21.8,1788516452379,0.0,0.0,0.0020020972006022,0.0125527810305356,-0.6760968565940857,0.736703097820282,0.0,0.0,0.0,0.0,1.7574404154174772e-08,0.0,0.0099328598007559,0.0079121030867099,-0.996468722820282,0.0829996094107627,9.498044819255478e-05,-0.0002620978520648,0.0012930860991952,0.0301966071128845,-0.0160610079765319,-0.0088796615600585,0,0,0,0
21.9,1788516452479,0.0,0.0,0.0020020972006022,0.0125527810305356,-0.6760968565940857,0.736703097820282,0.0,0.0,0.0,0.0,1.3941301446607213e-08,0.0,0.0099667115136981,0.0078909425064921,-0.9964709281921388,0.0829707831144332,0.0011904322543949,-0.0002253316569736,0.0003629893866682,-0.01775324344635,0.0319187641143798,-0.0233268737792968,0,0,0,0
22.0,1788516452579,0.0,0.0,0.0020020972006022,0.0125527810305356,-0.6760968565940857,0.736703097820282,0.0,0.0,0.0,0.0,1.3944193355541756e-08,0.0,0.0098777972161769,0.007791924290359,-0.9964672327041626,0.0830352008342742,0.0018655096374114,-5.464624253065677e-05,0.001455317446399,0.0044891834259033,0.0103795528411865,0.0253267288208007,0,0,0,0
22.1,1788516452679,0.0,0.0,0.0020020972006022,0.0125527810305356,-0.6760968565940857,0.736703097820282,0.0,0.0,0.0,0.0,1.0166345987272509e-08,0.0,0.0097833890467882,0.0076729310676455,-0.9964674115180968,0.0830545797944068,0.0029031564388045,-0.0027817127622869,-0.0005795251192898,0.004410445690155,0.0043772459030151,-0.0071191787719726,0,0,0,0
22.2,1788516452779,0.0,0.0,0.0020020972006022,0.0125527810305356,-0.6760968565940857,0.736703097820282,0.0,0.0,0.0,0.0,1.7464319768123463e-08,0.0,0.0097114779055118,0.0075900191441178,-0.9964646697044371,0.0831034481525421,0.0025679177936283,-0.003006446592099,0.0006973996846172,-0.0011666417121887,-0.0049702525138854,0.0161247253417968,0,0,0,0
22.3,1788516452879,0.0,0.0,0.0019803359173238,0.0121498825028538,-0.6758474707603455,0.7369386553764343,0.0,0.0,0.0,0.0,0.0,0.0,0.0096729546785354,0.0075489729642868,-0.9964643716812134,0.0831149443984031,0.000633521851723,0.0003430589523961,0.0007005035821024,0.0082929134368896,0.018795907497406,0.005375862121582,0,0,0,0
22.4,1788516452979,0.0,0.0,0.0019803359173238,0.0121498825028538,-0.6758474707603455,0.7369386553764343,0.0,0.0,0.0,0.0,0.0,0.0,0.0096158562228083,0.0075116269290447,-0.9964671730995178,0.0830928981304168,0.0001717210114814,0.0002026068720927,-0.0011786976864206,-0.0219218730926513,-0.0041218400001525,0.0086946487426757,0,0,0,0
22.5,1788516453079,0.0,0.0,0.0019803359173238,0.0121498825028538,-0.6758474707603455,0.7369386553764343,0.0,0.0,0.0,0.0,0.0,0.0,0.0096070989966392,0.00746351480484,-0.9964679479599,0.0830882042646408,0.0009578137929528,-0.000525183751293,-0.0006924888563555,0.00599867105484,-0.0041664838790893,-0.0091838836669921,0,0,0,0
22.6,1788516453179,0.0,0.0,0.0019803359173238,0.0121498825028538,-0.6758474707603455,0.7369386553764343,0.0,0.0,0.0,0.0,0.0,0.0,0.0095520541071891,0.0074372217059135,-0.9964662194252014,0.0831185132265091,0.00120320787653,-0.0014710419593672,0.0019812450869628,-0.010323166847229,0.0158805251121521,-0.002023696899414,0,0,0,0
22.7,1788516453279,0.0,0.0,0.0019803359173238,0.0121498825028538,-0.6758474707603455,0.7369386553764343,0.0,0.0,0.0,0.0,0.0,0.0,0.0095215374603867,0.0074009168893098,-0.9964669942855836,0.0831153318285942,0.0011537701072616,0.00073927467285,0.001036050305023,-0.0166423916816711,-0.0213059186935424,-0.0238504409790039,0,0,0,0
22.8,1788516453379,0.0,0.0,0.0019803359173238,0.0121498825028538,-0.6758474707603455,0.7369386553764343,0.0,0.0,0.0,0.0,0.0,0.0,0.0094508435577154,0.007365783676505,-0.9964703917503356,0.0830860882997512,-0.0002642397355612,-0.0015550033635844,-0.0007236718612755,0.0169398784637451,0.0183048844337463,-0.0199975967407226,0,0,0,0
22.9,1788516453479,0.0,0.0,0.0019803359173238,0.0121498825028538,-0.6758474707603455,0.7369386553764343,0.0,0.0,0.0,0.0,0.0,0.0,0.0094290515407919,0.0073219500482082,-0.9964683651924132,0.0831158831715583,0.0015631675832016,-0.0008809017616664,0.000871806811471,0.0132445096969604,-0.0163648128509521,-0.0004253387451171,0,0,0,0
23.0,1788516453579,0.0,0.0,0.0019803359173238,0.0121498825028538,-0.6758474707603455,0.7369386553764343,0.0,0.0,0.0,0.0,0.0,0.0,0.0094166491180658,0.0072889318689703,-0.9964722394943236,0.0830738618969917,0.0010489514875623,-0.0013694380908391,-0.0005187370945919,0.0154507160186767,0.0141413211822509,-0.0200624465942382,0,0,0,0
23.1,1788516453679,0.0,0.0,0.0019803359173238,0.0121498825028538,-0.6758474707603455,0.7369386553764343,0.0,0.0,0.0,0.0,0.0,0.0,0.0093714166432619,0.0072363875806331,-0.9964778423309326,0.0830160826444625,-9.05026895266131e-05,-0.0012145183385795,-0.0015288213082165,0.007888913154602,0.0173077583312988,0.0068140029907226,0,0,0,0
23.2,1788516453779,0.0,0.0,0.0019631292670965,0.0116519164294004,-0.6758776903152466,0.7369190454483032,-0.0001043677636788,0.0001189481560135,-5.42201181031452e-07,0.012949482537806,-0.015111781656742,-0.0013876769226044,0.0093274330720305,0.0072185322642326,-0.9964789152145386,0.0830099433660507,-0.0005039150365565,-0.0003028524704154,-0.0008542121654437,0.0238335728645324,-0.0272537469863891,-0.014937400817871,0,0,0,0
23.3,1788516453879,0.0,0.0,0.0019631292670965,0.0116519164294004,-0.6758776903152466,0.7369190454483032,0.0,0.0,0.0,0.0,0.0,0.0,0.0092859119176864,0.0071689281612634,-0.9964767694473268,0.0830455720424652,-0.0002369551866528,-0.0014862836364992,-0.0001692599761429,0.0090382695198059,0.0046480298042297,-0.0059633255004882,0,0,0,0
23.4,1788516453979,0.0,0.0,0.0019631292670965,0.0116519164294004,-0.6758776903152466,0.7369190454483032,0.0,0.0,0.0,0.0,0.0,0.0,0.0092971846461296,0.0071688191965222,-0.996480107307434,0.0830035433173179,0.0002350961603668,-0.0003663506935348,0.0001852410829843,-0.0065149068832397,-0.0200617909431457,-0.0259056091308593,0,0,0,0
23.5,1788516454079,0.0,0.0,0.0019631292670965,0.0116519164294004,-0.6758776903152466,0.7369190454483032,0.0,0.0,0.0,0.0,0.0,0.0,0.0092794466763734,0.0071546677500009,-0.9964796900749208,0.0830122828483581,-0.0004992720185565,0.0001842998316447,-0.0003415867200272,0.0219683647155761,-0.0201614499092102,0.0119333267211914,0,0,0,0
23.6,1788516454179,0.0,0.0,0.0019823610782623,0.0115587674081325,-0.6758412718772888,0.7369539141654968,0.000182782403967,-0.0002069422832702,-2.268909719319354e-07,0.0030603830236941,-0.0022354428656399,0.0020291230175644,0.0093040149658918,0.0071321418508887,-0.9964760541915894,0.0830555036664009,0.0008921529554399,0.0005774021605286,-0.0017663691553453,0.0064898133277893,-0.0060373544692993,0.0155210494995117,0,0,0,0
23.7,1788516454279,0.0,0.0,0.0019823610782623,0.0115587674081325,-0.6758412718772888,0.7369539141654968,0.0,0.0,0.0,0.0,-3.364112988180068e-09,0.0,0.0093019045889377,0.0071390075609087,-0.9964765906333924,0.0830484852194786,-0.0004297854117805,-0.0002973681942113,1.3417893059662382e-05,0.0031800866127014,-0.0091854333877563,0.0118789672851562,0,0,0,0
23.8,1788516454379,0.0,0.0,0.0019715121015906,0.0115354061126708,-0.6759039759635925,0.736896812915802,-0.0003641754573015,0.000426815980767,-2.894500174817683e-07,0.0004255346429999,-0.0011838977225124,-0.0041846800595521,0.0092538446187973,0.0071246949955821,-0.9964832067489624,0.0829744935035705,0.0006460230712064,-0.0006496845797011,-0.0004633155296303,-0.0190926790237426,-0.0073363184928894,-0.000833511352539,0,0,0,0
23.9,1788516454479,0.0,0.0,0.0019715121015906,0.0115354061126708,-0.6759039759635925,0.736896812915802,0.0,0.0,0.0,0.0,-9.258709354753591e-09,0.0,0.009251688607037,0.0071176579222083,-0.9964876770973206,0.0829217359423637,-0.0004119507039555,0.0006310202959857,-0.0011735153532529,-0.0244234204292297,-0.003793179988861,0.0152616500854492,0,0,0,0
24.0,1788516454579,0.0,0.0,0.0019715121015906,0.0115354061126708,-0.6759039759635925,0.736896812915802,0.0,0.0,0.0,0.0,-9.363723130206836e-09,0.0,0.0091821877285838,0.0070981653407216,-0.996489405632019,0.0829110145568847,-0.0002290570676385,-0.0021425946734629,-0.0015095213030688,0.0066530704498291,-0.0129300951957702,0.0242338180541992,0,0,0,0
24.1,1788516454679,0.0,0.0,0.0019715121015906,0.0115354061126708,-0.6759039759635925,0.736896812915802,0.0,0.0,0.0,0.0,-6.642708161308519e-09,0.0,0.009167805314064,0.0071359248831868,-0.9964887499809264,0.0829174816608429,-0.0013106945053991,-0.0007846698252966,0.0005993265343001,-0.0005150437355041,0.0149293541908264,0.0206508636474609,0,0,0,0
24.2,1788516454779,0.0,0.0,0.0019715121015906,0.0115354061126708,-0.6759039759635925,0.736896812915802,0.0,0.0,0.0,0.0,-1.1718795711601617e-08,0.0,0.0091939568519592,0.0071535846218466,-0.9964911341667176,0.0828844830393791,-0.0003243459350986,0.0010836934494226,0.0019844699812262,-0.0159567594528198,-0.0205709934234619,0.0203628540039062,0,0,0,0
24.3,1788516454879,0.0,0.0,0.0019033052958548,0.0114926118403673,-0.675986111164093,0.7368223071098328,0.0,0.0,0.0,0.0,-9.072282480815376e-09,0.0,0.0091701718047261,0.0071692466735839,-0.99649840593338,0.0827972069382667,3.635796061313604e-05,5.033893553949744e-05,-0.0012462324424192,0.0016954541206359,-0.0003859996795654,0.0222530364990234,0,0,0,0
24.4,1788516454979,0.0,0.0,0.0019033052958548,0.0114926118403673,-0.675986111164093,0.7368223071098328,0.0,0.0,0.0,0.0,-9.29636279067836e-09,0.0,0.0091753359884023,0.007139035500586,-0.996496081352234,0.0828271135687828,-0.0003279522048587,-0.0018352850349642,0.0012190033581578,0.0001609325408935,0.02787846326828,0.0061368942260742,0,0,0,0
24.5,1788516455079,0.0,0.0,0.0019033052958548,0.0114926118403673,-0.675986111164093,0.7368223071098328,0.0,0.0,0.0,0.0,-9.210785911761832e-09,0.0,0.0091406283900141,0.0071139968931674,-0.9964969754219056,0.0828224718570709,0.0010469839685243,-0.0009666371974187,0.0012348544783687,-0.0021498203277587,-0.004748523235321,-0.0156202316284179,0,0,0,0
24.6,1788516455179,0.0,0.0,0.0019033052958548,0.0114926118403673,-0.675986111164093,0.7368223071098328,0.0,0.0,0.0,0.0,-1.1632338647871164e-08,0.0,0.0091427136212587,0.0071350364014506,-0.9964983463287354,0.0828045681118965,-0.0007003692348619,-0.0006211825896849,0.0003685775838044,0.0123558640480041,0.0100354552268981,-0.0083303451538085,0,0,0,0
24.7,1788516455279,0.0,0.0,0.0019033052958548,0.0114926118403673,-0.675986111164093,0.7368223071098328,0.0,0.0,0.0,0.0,-9.378078758004449e-09,0.0,0.0091346902772784,0.0071284947916865,-0.9965006113052368,0.0827789902687072,-0.0010545658018728,-0.0002460137912448,-0.0008866655903691,0.0032914280891418,-0.0116379261016845,0.0022687911987304,0,0,0,0
24.8,1788516455379,0.0,0.0,0.0019033052958548,0.0114926118403673,-0.675986111164093,0.7368223071098328,0.0,0.0,0.0,0.0,-9.315795246322978e-09,0.0,0.0091309426352381,0.0071385204792022,-0.9964993596076964,0.082793116569519,-0.0001741562614863,-0.0020159727953513,0.0005414564556253,0.0302839279174804,0.008371889591217,-0.0065269470214843,0,0,0,0
24.9,1788516455479,0.0,0.0,0.0019033052958548,0.0114926118403673,-0.675986111164093,0.7368223071098328,0.0,0.0,0.0,0.0,-6.697081111894931e-09,0.0,0.0091290725395083,0.0071599362418055,-0.9965057969093324,0.0827138051390647,9.603801964267976e-06,-0.0002462405440135,-0.0011433946177698,0.0069608092308044,-0.0019766688346862,-0.0030841827392578,0,0,0,0
25.0,1788516455579,0.0,0.0,0.0019033052958548,0.0114926118403673,-0.675986111164093,0.7368223071098328,0.0,0.0,0.0,0.0,-9.234375042410647e-09,0.0,0.0090877441689372,0.0071715330705046,-0.9965068697929382,0.0827048271894455,-0.0004377045701937,-0.0009343578563242,-0.0004372390216855,0.013518214225769,0.000247836112976,-0.0317945480346679,0,0,0,0
25.1,1788516455679,0.0,0.0,0.0018185032531619,0.0114079434424638,-0.6761037707328796,0.7367158532142639,0.0001049613369711,-0.0001246958366025,4.3190560821256986e-07,0.0006737862131558,-0.0006228616111911,0.001234158524312,0.0090697221457958,0.0071467347443103,-0.9965051412582396,0.082728661596775,0.0011454307983229,-0.0010236110182121,1.5566597795256242e-05,0.002176821231842,0.0337327718734741,0.0167741775512695,0,0,0,0
25.2,1788516455779,0.0,0.0,0.0018473654054105,0.0114052593708038,-0.6760880947113037,0.73673015832901,8.81076744852489e-05,-0.0001046847099115,3.66336334383538e-07,-7.863007340347394e-05,0.0012158040190115,0.0010352487443014,0.0091095557436347,0.0071208188310265,-0.9965051412582396,0.082726702094078,0.000531387987721,0.0010251805252052,-0.0013950652315966,-0.0041813850402832,-0.004513680934906,0.0093898773193359,0,0,0,0
25.3,1788516455879,0.0,0.0,0.0018173456192016,0.0114198569208383,-0.6760813593864441,0.7367361187934875,3.500264071084936e-05,-3.637841393723061e-05,2.1407753224636685e-07,-0.0013479529879987,-0.000515878025908,0.0003751806507352,0.0090794563293457,0.0071448888629674,-0.996501624584198,0.0827703550457954,0.0008569969753248,-0.0002070915160466,0.0008877931135795,-0.0028831958770751,0.0157594680786132,0.0094671249389648,0,0,0,0
25.4,1788516455979,0.0,0.0,0.0018173456192016,0.0114198569208383,-0.6760813593864441,0.7367361187934875,0.0,0.0,0.0,0.0,5.8193387886262834e-09,0.0,0.0090480642393231,0.0071211894974112,-0.996504545211792,0.0827416852116584,0.0008132544962597,-0.0010319103877141,-0.0018167400454407,0.0144782066345214,-0.0008033514022827,0.0076522827148437,0,0,0,0
25.5,1788516456079,0.0,0.0,0.0018173456192016,0.0114198569208383,-0.6760813593864441,0.7367361187934875,0.0,0.0,0.0,0.0,4.656163454797024e-09,0.0,0.0090341372415423,0.0071098776534199,-0.996511936187744,0.0826545357704162,9.401493821369162e-06,-0.0017837454054478,-0.002135850932156,-0.0054577589035034,-0.0332679748535156,-0.0087442398071289,0,0,0,0
25.6,1788516456179,0.0,0.0,0.0018173456192016,0.0114198569208383,-0.6760813593864441,0.7367361187934875,0.0,0.0,0.0,0.0,4.651706575486969e-09,0.0,0.0090497061610221,0.0071085831150412,-0.996513843536377,0.082630917429924,0.0001680214755185,0.0003171888721866,-0.0001503836938112,-0.005156934261322,-0.0064077377319335,-0.0032310485839843,0,0,0,0
25.7,1788516456279,0.0,0.0,0.0018173456192016,0.0114198569208383,-0.6760813593864441,0.7367361187934875,0.0,0.0,0.0,0.0,4.6673584996881345e-09,0.0,0.0090050380676984,0.0071348920464515,-0.9965130686759948,0.0826420336961746,3.583121070334802e-06,-0.0005348001025252,-0.0001635278213186,0.0030150413513183,-0.0004907846450805,0.005812644958496,0,0,0,0
25.8,1788516456379,0.0,0.0,0.0018173456192016,0.0114198569208383,-0.6760813593864441,0.7367361187934875,0.0,0.0,0.0,0.0,5.8126219393273004e-09,0.0,0.008999666199088,0.0071456795558333,-0.9965108633041382,0.0826687440276146,-0.0003280039193298,0.0001884516223478,0.00025691726439,0.0084004402160644,0.0176983475685119,-0.0012769699096679,0,0,0,0
25.9,1788516456479,0.0,0.0,0.0017807879485189,0.0113618522882461,-0.6761521100997925,0.7366722226142883,-0.0003303954766365,0.0003873349295007,-2.356464525303269e-07,0.0005282235215418,-0.0026737486477941,-0.0038251273799687,0.0090154996141791,0.0071493489667773,-0.9965108036994934,0.0826667621731758,-0.0004906289861403,0.0003365492272602,1.5324066140974897e-05,0.0087564587593078,-0.0020326375961303,0.000432014465332,0,0,0,0
26.0,1788516456579,0.0,0.0,0.0017807879485189,0.0113618522882461,-0.6761521100997925,0.7366722226142883,0.0,0.0,0.0,0.0,-4.628539773676721e-09,0.0,0.0090290773659944,0.0071640601381659,-0.9965071082115172,0.0827094390988349,8.603217941628942e-05,0.0003134591602483,0.0023862156968197,-0.0160529017448425,-0.0053866505622863,0.0038881301879882,0,0,0,0
26.1,1788516456679,0.0,0.0,0.0017807879485189,0.0113618522882461,-0.6761521100997925,0.7366722226142883,0.0,0.0,0.0,0.0,-4.631045769087905e-09,0.0,0.0090198740363121,0.0071599772199988,-0.9965043663978576,0.0827425196766853,9.542091536894014e-06,0.0005820194162634,-0.0003544369255675,-0.0161905884742736,-0.0054749250411987,0.0092535018920898,0,0,0,0
26.2,1788516456779,0.0,0.0,0.0017807879485189,0.0113618522882461,-0.6761521100997925,0.7366722226142883,0.0,0.0,0.0,0.0,-5.836542804615874e-09,0.0,0.0090433433651924,0.0071482779458165,-0.9965046644210817,0.0827378034591674,0.0001071875470128,0.0005073281065167,-0.0010310854923957,0.0237821340560913,-0.0039693117141723,0.0166225433349609,0,0,0,0
26.3,1788516456879,0.0,0.0,0.0017807879485189,0.0113618522882461,-0.6761521100997925,0.7366722226142883,0.0,0.0,0.0,0.0,-4.653951446442761e-09,0.0,0.0090546142309904,0.0071273790672421,-0.9965011477470398,0.082781121134758,-0.0003361362887312,0.0001893934653554,0.0020281651921647,0.0042763948440551,0.0010045170783996,0.0129575729370117,0,0,0,0
26.4,1788516456979,0.0,0.0,0.0017807879485189,0.0113618522882461,-0.6761521100997925,0.7366722226142883,0.0,0.0,0.0,0.0,-4.657935814833536e-09,0.0,0.0090439990162849,0.0071208011358976,-0.9965020418167114,0.0827714577317237,0.0001810178997608,0.0005670485877362,0.0009148407641342,-0.0066547989845275,0.0134797096252441,0.0093488693237304,0,0,0,0
26.5,1788516457079,0.0,0.0,0.0017916844226419,0.011370725929737,-0.6760562062263489,0.736760139465332,0.0004468811906699,-0.0005204059604592,-4.2809995771710633e-07,3.084675336140208e-05,0.0005165175534784,0.0051432591862976,0.0090447375550866,0.007139335386455,-0.9965034127235411,0.0827536061406135,1.5729682129816656e-05,0.0011458981652102,-0.0023056051034027,-0.013319969177246,0.0048299431800842,-0.0050315856933593,30,47,1943,2377
26.6,1788516457179,1.408450722694397,1.2394366264343262,0.0015645273961126,0.0110628046095371,-0.6761372089385986,0.7366910576820374,0.0101342955553417,-0.0007815786305772,-4.694201144836393e-08,0.0020891136955469,-0.0189558696001768,-0.0054113776423037,0.0082401391118764,0.0069881742820143,-0.9965267777442932,0.0825694426894187,0.0026765956680376,-0.0592098342447677,-0.0032817919783882,2.706918478012085,-0.3283402919769287,-0.1779689788818359,233,299,9036,10667
26.7,1788516457279,4.2253522872924805,5.211267471313477,0.0011173854582011,0.0102197304368019,-0.6758118271827698,0.737002432346344,0.0862815085686857,-0.0026038560790732,9.904748325555466e-05,0.0094629433006048,-0.0370590239763259,0.0178659353405237,0.0063283303752541,0.0066495155915617,-0.9961560368537904,0.0871142745018005,0.0160931484685526,-0.0386461444167034,0.1508739292890658,0.8269185423851013,-0.2048844695091247,-0.6225900650024414,181,181,15460,17816
26.8,1788516457379,4.647887229919434,5.943662166595459,-0.0001930491998791,0.0088704172521829,-0.6691097021102905,0.743110716342926,0.1734859155400303,0.0089302282381629,0.0001188789731978,0.0023519406095147,-0.019478878006339,0.1513595432043075,0.0056409062817692,0.0070049725472927,-0.9955423474311828,0.0938855931162834,-0.0292236332501689,0.0006963505239245,0.1702788191530117,-0.1877493858337402,0.0893767476081848,-0.0995769500732421,86,68,13625,15110
26.9,1788516457479,4.619718074798584,5.464788913726807,-0.0013978253118693,0.0077999215573072,-0.6640704274177551,0.7476279735565186,0.166544357711739,0.0016818962540925,5.947976847652221e-06,0.0015434252563863,-0.0229274984449148,0.14688341319561,0.0046999687328934,0.0068025896325707,-0.9947052001953124,0.1024364456534385,0.0039784500381562,0.0537357741217315,0.1507537705168876,-0.0324116945266723,0.0398927330970764,-1.464313507080078,93,124,13222,16246
27.0,1788516457579,4.647887229919434,5.521126747131348,-0.0017702125478535,0.0076966620981693,-0.6602148413658142,0.7510353326797485,0.1592352919989442,0.0027382689324945,-2.869031202752415e-05,-0.0065555167384445,-0.0099374810233712,0.143356904387474,0.0047312695533037,0.0066176261752843,-0.9942014217376708,0.1072259917855262,0.0168632733698792,0.0532029461914539,0.1609162410053367,-0.0738938450813293,0.0456222891807556,-0.8286724090576172,72,124,13196,16079
27.1,1788516457679,4.704225540161133,5.436619758605957,-0.001594022847712,0.0077011175453662,-0.654716968536377,0.7558332681655884,0.1672386002018459,0.0018406463648936,0.0001108890626993,-0.0048206043429672,-0.0208446905016899,0.1652823239564895,0.0037718610838055,0.0063011944293975,-0.9932134747505188,0.1160739064216613,0.0034918022236659,-0.0060947133308503,0.0897944174365313,-0.0825103521347045,-0.294231116771698,0.2312335968017578,124,66,15299,13826
27.2,1788516457779,4.760563373565674,5.464788913726807,-0.0018208108376711,0.0065250042825937,-0.6501778960227966,0.7597517967224121,0.1667468275936239,-0.0026149941691447,0.0001105826092149,0.0075027961283922,-0.0287753641605377,0.0483959838747978,0.0029504531994462,0.0060424115508794,-0.9930365085601808,0.1176150664687156,0.0134027562468,0.0071109452488633,0.0626380656820022,-0.1889922618865966,0.2876760959625244,-0.1153249740600586,39,200,12490,16413
27.3,1788516457879,4.450704097747803,5.6619720458984375,-0.002932259812951,0.0056070061400532,-0.6468349695205688,0.7626038193702698,0.1673553744469624,-0.0004149481311052,-3.902434668513769e-07,-0.0122525552287697,-0.0325483083724975,0.127957135438919,0.0010460950434207,0.0058004558086395,-0.992144763469696,0.1249564290046691,0.0383729769111595,-0.0229636512631007,0.1824668822952879,-0.3122228384017944,-0.3471108078956604,-0.0700721740722656,65,87,13288,15642
27.4,1788516457979,4.647887229919434,5.492957592010498,-0.0030660708434879,0.0047953473404049,-0.6397539377212524,0.7685586810112,0.1630723799041474,0.0062191843770501,-7.841216682573771e-05,-0.0179953202605247,0.0369910486042499,0.132097989320755,0.0009938078001141,0.0055300369858741,-0.9912835359573364,0.1316265165805816,0.0041995975057417,0.0150486368873857,0.1544754246126179,-0.2398117780685424,-0.4083132743835449,0.3987398147583008,131,85,14513,14814
27.5,1788516458079,4.985915660858154,5.154929637908936,-0.0027194207068532,0.0048319026827812,-0.6356978416442871,0.7719180583953857,0.1662977484096079,-0.0075551045427998,2.525100750892883e-05,0.0008462688419967,-0.0053960396908223,0.0409476682543754,0.001365004107356,0.0058089001104235,-0.9906609058380128,0.1362180113792419,-0.0075693670879403,-0.0128905910668386,0.0011673608970512,0.095663845539093,-0.2333544492721557,-0.0444717407226562,86,142,14115,15031
27.6,1788516458179,5.154929637908936,5.154929637908936,-0.0029173898510634,0.0051612448878586,-0.6355425715446472,0.7720430493354797,0.1639867689184057,-0.003150083805668,-1.6802028912446977e-05,-0.0144314980134367,0.0050687217153608,0.0079307463020086,0.0011339839547872,0.0061573227867484,-0.9905507564544678,0.1370035707950592,-0.0051534197897694,-0.0167097590179289,0.032540028206668,-0.0521695017814636,-0.2411753535270691,-0.7096614837646484,97,80,14368,14113
27.7,1788516458279,5.154929637908936,4.929577350616455,-0.0029089897871017,0.0050357254222035,-0.6341188549995422,0.773213803768158,0.1631403042158137,-0.0034841676824112,-6.985815894373292e-06,0.0097573334351181,0.0014596030814573,0.0156528670340776,0.0012398734688758,0.0056062713265419,-0.9903900027275084,0.1381838768720626,-0.001056119396777,-0.0094253890479119,0.0039808549259791,0.2000304460525512,-0.2969145774841308,0.1011791229248046,130,101,14428,14808
27.8,1788516458379,5.126760482788086,5.014084339141846,-0.0026372037827968,0.0053673712536692,-0.6342097520828247,0.7731378674507141,0.1611836503275403,-0.003099116704193,6.940925808200661e-07,0.0,0.0,0.0,0.001788318157196,0.0059482408687472,-0.9903886914253236,0.1381726115942001,-0.015729008982906,-0.0026619485992104,0.0129656647421026,0.4618834853172302,0.1128014922142028,-0.8604364395141602,84,87,14532,14740
27.9,1788516458479,5.014084339141846,5.098591327667236,-0.0023930198512971,0.0059922905638813,-0.63350510597229,0.7737115025520325,0.1704416959999492,-0.0029508069620534,-3.487522554896812e-05,-0.0008138909470289,0.0103984344750642,0.0049176351167261,0.0023665567860007,0.0062157642096281,-0.9902573227882384,0.1390904188156128,-0.0092610314513642,-0.0075302408409589,0.0072691163586985,0.2314256429672241,0.2475221157073974,-0.4405431747436523,113,81,14367,14373
28.0,1788516458579,5.070422649383545,4.957746505737305,-0.0023930198512971,0.0059922905638813,-0.63350510597229,0.7737115025520325,0.1686103619287814,-0.0035035446272428,-7.772397444070839e-07,0.0,-4.646413920283976e-09,0.0,0.0020399270579218,0.0064987409859895,-0.9903144240379332,0.1386754959821701,-0.0125724560990751,-0.0022382466694069,-0.0090743533355629,0.2087149620056152,0.0141627788543701,-0.2296390533447265,92,95,14732,14797
28.1,1788516458679,5.295774459838867,4.985915660858154,-0.0023930198512971,0.0059922905638813,-0.63350510597229,0.7737115025520325,0.1675780007116011,-0.0007452310483815,6.753443501457763e-07,0.0,-4.697919830931596e-09,0.0,0.0019834227859973,0.0064478321000933,-0.9903685450553894,0.1382919549942016,-0.0299338499852744,-0.0427938259786388,-0.0611768823458614,0.4209110736846924,-0.0712384581565857,0.2397108078002929,130,95,15345,13532
28.2,1788516458779,4.8450703620910645,5.098591327667236,-0.0024229397531598,0.0067098760046064,-0.6342416405677795,0.7731019854545593,0.1678356234214029,-0.0019079152636626,3.96015437804402e-07,-0.0081987427547574,-0.0006855335086584,0.0240566432476043,0.0025171022862195,0.0066371392458677,-0.990394413471222,0.1380889117717743,-0.0133724017516506,-0.0150101452650315,0.0368398645303314,0.1505059003829956,0.3663582801818847,0.0733604431152343,103,123,14314,15722
28.3,1788516458879,4.985915660858154,5.126760482788086,-0.0014080959372222,0.0080604264512658,-0.631151020526886,0.7756168842315674,0.1644264532310748,-0.0087075220563618,-0.0001163170461047,0.0069200852885842,0.0436424501240253,0.0869151428341865,0.0067094713449478,0.0075515443459153,-0.9897795915603638,0.1422479897737503,-0.0231833964696327,0.1554192840569264,0.0286233570351236,-2.574427604675293,0.0961522459983825,4.637443542480469,96,150,14107,15447
