time_s,timestamp_ms,wheel_vels__velocity_left,wheel_vels__velocity_right,odom__orient_x,odom__orient_y,odom__orient_z,odom__orient_w,odom__lin_x,odom__lin_y,odom__lin_z,odom__ang_x,odom__ang_y,odom__ang_z,imu__orient_x,imu__orient_y,imu__orient_z,imu__orient_w,imu__angvel_x,imu__angvel_y,imu__angvel_z,imu__acc_x,imu__acc_y,imu__acc_z,wheel_status__current_ma_left,wheel_status__current_ma_right,wheel_status__pwm_left,wheel_status__pwm_right
0.0,1788183263151,0.0,0.0,-0.0016834314446896,0.0049789315089583,-0.8832281231880188,0.4689139723777771,0.0,0.0,0.0,0.0,4.652500606994181e-09,0.0,-0.0037989690899848,0.0036165108904242,-0.5618278384208679,0.8272375464439392,0.0002481346133058,-2.696336973748581e-05,-1.0006342787430303e-10,-0.005505084991455,-0.0024582147598266,0.0086116790771484,0,0,0,0
0.1,1788183263251,0.0,0.0,-0.0016834314446896,0.0049789315089583,-0.8832281231880188,0.4689139723777771,0.0,0.0,0.0,0.0,4.652500606994181e-09,0.0,-0.0037989690899848,0.0036165108904242,-0.5618278384208679,0.8272375464439392,0.0002481346133058,-2.696336973748581e-05,-1.0006342787430303e-10,-0.005505084991455,-0.0024582147598266,0.0086116790771484,0,0,0,0
0.2,1788183263351,0.0,0.0,-0.0016834314446896,0.0049789315089583,-0.8832281231880188,0.4689139723777771,0.0,0.0,0.0,0.0,4.652500606994181e-09,0.0,-0.0037989690899848,0.0036165108904242,-0.5618278384208679,0.8272375464439392,0.0002481346133058,-2.696336973748581e-05,-1.0006342787430303e-10,-0.005505084991455,-0.0024582147598266,0.0086116790771484,0,0,0,0
0.3,1788183263451,0.0,0.0,-0.0016834314446896,0.0049789315089583,-0.8832281231880188,0.4689139723777771,0.0,0.0,0.0,0.0,4.652500606994181e-09,0.0,-0.0037989690899848,0.0036165108904242,-0.5618278384208679,0.8272375464439392,0.0002481346133058,-2.696336973748581e-05,-1.0006342787430303e-10,-0.005505084991455,-0.0024582147598266,0.0086116790771484,0,0,0,0
0.4,1788183263551,0.0,0.0,-0.0016834314446896,0.0049789315089583,-0.8832281231880188,0.4689139723777771,0.0,0.0,0.0,0.0,4.652500606994181e-09,0.0,-0.0037989690899848,0.0036165108904242,-0.5618278384208679,0.8272375464439392,0.0002481346133058,-2.696336973748581e-05,-1.0006342787430303e-10,-0.005505084991455,-0.0024582147598266,0.0086116790771484,0,0,0,0
0.5,1788183263651,0.0,0.0,-0.0016834314446896,0.0049789315089583,-0.8832281231880188,0.4689139723777771,0.0,0.0,0.0,0.0,4.652500606994181e-09,0.0,-0.0037989690899848,0.0036165108904242,-0.5618278384208679,0.8272375464439392,0.0002481346133058,-2.696336973748581e-05,-1.0006342787430303e-10,-0.005505084991455,-0.0024582147598266,0.0086116790771484,0,0,0,0
0.6,1788183263751,0.0,0.0,-0.0016834314446896,0.0049789315089583,-0.8832281231880188,0.4689139723777771,0.0,0.0,0.0,0.0,4.652500606994181e-09,0.0,-0.0037989690899848,0.0036165108904242,-0.5618278384208679,0.8272375464439392,0.0002481346133058,-2.696336973748581e-05,-1.0006342787430303e-10,-0.005505084991455,-0.0024582147598266,0.0086116790771484,0,0,0,0
0.7,1788183263851,0.0,0.0,-0.0016834314446896,0.0049789315089583,-0.8832281231880188,0.4689139723777771,0.0,0.0,0.0,0.0,4.652500606994181e-09,0.0,-0.0037989690899848,0.0036165108904242,-0.5618278384208679,0.8272375464439392,0.0002481346133058,-2.696336973748581e-05,-1.0006342787430303e-10,-0.005505084991455,-0.0024582147598266,0.0086116790771484,0,0,0,0
0.8,1788183263951,0.0,0.0,-0.0016834314446896,0.0049789315089583,-0.8832281231880188,0.4689139723777771,0.0,0.0,0.0,0.0,4.652500606994181e-09,0.0,-0.0037989690899848,0.0036165108904242,-0.5618278384208679,0.8272375464439392,0.0002481346133058,-2.696336973748581e-05,-1.0006342787430303e-10,-0.005505084991455,-0.0024582147598266,0.0086116790771484,0,0,0,0
0.9,1788183264051,0.0,0.0,-0.0016834314446896,0.0049789315089583,-0.8832281231880188,0.4689139723777771,0.0,0.0,0.0,0.0,5.839078998093328e-09,0.0,-0.0037940153852105,0.0036112954840064,-0.5618278384208679,0.8272375464439392,0.0002284715822295,-5.668376720254579e-05,-1.9448161435090366e-10,0.0158965587615966,-0.0237966775894165,-0.0073766708374023,0,0,0,0
1.0,1788183264151,0.0,0.0,-0.0016834314446896,0.0049789315089583,-0.8832281231880188,0.4689139723777771,0.0,0.0,0.0,0.0,4.755137616996308e-09,0.0,-0.0037910882383584,0.00360375829041,-0.5618278980255127,0.8272376656532288,3.463276922865184e-05,-8.999588626463283e-05,-1.972897028766078e-06,0.0048159956932067,-0.0116188526153564,-0.0138540267944335,0,0,0,0
1.1,1788183264251,0.0,0.0,-0.0016834314446896,0.0049789315089583,-0.8832281231880188,0.4689139723777771,0.0,0.0,0.0,0.0,4.529503883077268e-09,0.0,-0.0037949727848172,0.0036022029817104,-0.5618278980255127,0.8272376656532288,-8.280502428930627e-05,-6.716791764024224e-05,8.297914966837879e-11,-0.023893654346466,-0.037741482257843,0.0114727020263671,0,0,0,0
1.2,1788183264351,0.0,0.0,-0.0016834314446896,0.0049789315089583,-0.8832281231880188,0.4689139723777771,0.0,0.0,0.0,0.0,4.662170205449456e-09,0.0,-0.0038039274513721,0.0036062020808458,-0.5618278384208679,0.8272375464439392,-0.0002048325261368,-1.234156842822916e-05,3.7628427779228636e-11,-0.0109075307846069,-0.0240324735641479,0.001596450805664,0,0,0,0
1.3,1788183264451,0.0,0.0,-0.0016834314446896,0.0049789315089583,-0.8832281231880188,0.4689139723777771,0.0,0.0,0.0,0.0,5.822778259556571e-09,0.0,-0.0038123950362205,0.0036121299490332,-0.5618278384208679,0.8272375464439392,-0.0002739702588603,1.2755072087858578e-05,-5.2434288147657885e-11,-0.0124418139457702,0.0197656750679016,-0.0053596496582031,0,0,0,0
1.4,1788183264551,0.0,0.0,-0.0016834314446896,0.0049789315089583,-0.8832281231880188,0.4689139723777771,0.0,0.0,0.0,0.0,4.541446774197766e-09,0.0,-0.0038191424682736,0.0036194659769535,-0.5618278384208679,0.8272375464439392,-0.0002164932594233,7.692195589152704e-05,-1.6598780676932708e-10,0.0059258341789245,-0.0183159112930297,0.0176420211791992,0,0,0,0
1.5,1788183264651,0.0,0.0,-0.0016834314446896,0.0049789315089583,-0.8832281231880188,0.4689139723777771,0.0,0.0,0.0,0.0,4.5838497442218795e-09,0.0,-0.0038237897679209,0.0036308728158473,-0.5618277788162231,0.8272374272346497,-0.0001041971831146,0.0001331315264618,-1.9255397896770834e-10,0.0226895809173584,0.0204954743385314,-0.0105447769165039,0,0,0,0
1.6,1788183264751,0.0,0.0,-0.0016834314446896,0.0049789315089583,-0.8832281231880188,0.4689139723777771,0.0,0.0,0.0,0.0,4.754663329720188e-09,0.0,-0.0038211485370993,0.0036356709897518,-0.5618277788162231,0.8272374272346497,2.318012913859219e-05,0.0001305968475668,4.561042211722643e-11,-0.0040867328643798,0.0087385773658752,0.0042142868041992,0,0,0,0
1.7,1788183264851,0.0,0.0,-0.0016834314446896,0.0049789315089583,-0.8832281231880188,0.4689139723777771,0.0,0.0,0.0,0.0,5.8194071783645995e-09,0.0,-0.0038150250911712,0.0036395331844687,-0.5618277788162231,0.8272374272346497,6.641112643949438e-05,0.0001411597119266,1.4372436223591883e-10,-0.0108981728553771,0.0176331400871276,-0.0370264053344726,0,0,0,0
1.8,1788183264951,0.0,0.0,-0.0016834314446896,0.0049789315089583,-0.8832281231880188,0.4689139723777771,0.0,0.0,0.0,0.0,4.532235031717846e-09,0.0,-0.0038082869723439,0.0036447467282414,-0.5618277788162231,0.8272374272346497,4.673803472762748e-05,0.0001942878122859,1.9810862254353795e-06,-0.0194487571716308,-0.0183247327804565,-0.0031890869140625,0,0,0,0
1.9,1788183265051,0.0,0.0,-0.0016834314446896,0.0049789315089583,-0.8832281231880188,0.4689139723777771,0.0,0.0,0.0,0.0,3.887704824734328e-09,0.0,-0.003804980777204,0.0036490447819232,-0.5618277788162231,0.8272374272346497,2.285360352887301e-06,0.0002337107440877,7.61810321646917e-12,0.0113613009452819,0.0160625576972961,-0.0011930465698242,0,0,0,0
2.0,1788183265151,0.0,0.0,-0.0016834314446896,0.0049789315089583,-0.8832281231880188,0.4689139723777771,0.0,0.0,0.0,0.0,3.887704824734328e-09,0.0,-0.0037967776879668,0.0036615720018744,-0.5618277788162231,0.8272374272346497,-1.277606237565372e-05,0.0001729870259411,1.1979938905446124e-06,-0.0030794739723205,-0.0069775581359863,-0.0214185714721679,0,0,0,0
2.1,1788183265251,0.0,0.0,-0.0016834314446896,0.0049789315089583,-0.8832281231880188,0.4689139723777771,0.0,0.0,0.0,0.0,4.653382124075733e-09,0.0,-0.0037934854626655,0.0036663152277469,-0.5618277788162231,0.8272374272346497,1.2464992765707012e-05,3.3274896654674467e-05,8.297482113623143e-12,-0.0168430805206298,0.0087737441062927,0.0202159881591796,0,0,0,0
2.2,1788183265351,0.0,0.0,-0.0016834314446896,0.0049789315089583,-0.8832281231880188,0.4689139723777771,0.0,0.0,0.0,0.0,5.827120563850485e-09,0.0,-0.0037964340299367,0.0036654686555266,-0.5618277788162231,0.8272374272346497,-7.959874358927602e-05,-8.798971365816487e-05,1.0591624761296259e-10,-0.0105107426643371,0.0043508410453796,-0.0051136016845703,0,0,0,0
2.3,1788183265451,0.0,0.0,-0.0016410551033914,0.0050139962695539,-0.883228063583374,0.4689139127731323,0.0,0.0,0.0,0.0,0.0,0.0,-0.0038067270070314,0.0036645755171775,-0.5618277788162231,0.8272374272346497,-0.0001974671948758,-0.0001601803038555,4.412356138759393e-10,-0.0057259798049926,-0.0127544999122619,0.0052690505981445,0,0,0,0
2.4,1788183265551,0.0,0.0,-0.0016410551033914,0.0050139962695539,-0.883228063583374,0.4689139127731323,0.0,0.0,0.0,0.0,0.0,0.0,-0.0038171606138348,0.0036642150953412,-0.5618277788162231,0.8272374272346497,-0.0002157628080016,-0.0001546884058927,8.306050068103502e-10,0.0102789402008056,-0.0088743567466735,0.0085573196411132,0,0,0,0
2.5,1788183265651,0.0,0.0,-0.0016410551033914,0.0050139962695539,-0.883228063583374,0.4689139127731323,0.0,0.0,0.0,0.0,0.0,0.0,-0.0038171606138348,0.0036642150953412,-0.5618277788162231,0.8272374272346497,-0.0002157628080016,-0.0001546884058927,8.306050068103502e-10,0.0102789402008056,-0.0088743567466735,0.0085573196411132,0,0,0,0
2.6,1788183265751,0.0,0.0,-0.0016410551033914,0.0050139962695539,-0.883228063583374,0.4689139127731323,0.0,0.0,0.0,0.0,0.0,0.0,-0.0038171606138348,0.0036642150953412,-0.5618277788162231,0.8272374272346497,-0.0002157628080016,-0.0001546884058927,8.306050068103502e-10,0.0102789402008056,-0.0088743567466735,0.0085573196411132,0,0,0,0
2.7,1788183265851,0.0,0.0,-0.0016410551033914,0.0050139962695539,-0.883228063583374,0.4689139127731323,0.0,0.0,0.0,0.0,0.0,0.0,-0.0038171606138348,0.0036642150953412,-0.5618277788162231,0.8272374272346497,-0.0002157628080016,-0.0001546884058927,8.306050068103502e-10,0.0102789402008056,-0.0088743567466735,0.0085573196411132,0,0,0,0
2.8,1788183265951,0.0,0.0,-0.0016777007840573,0.0050355233252048,-0.8832280039787292,0.4689138531684875,0.0,0.0,0.0,-0.0007990610320121,-0.0003476943820714,-4.764402547152713e-06,-0.00383538659662,0.0036690924316644,-0.5618277192115784,0.8272373080253601,-8.992999619891944e-07,9.458156773871536e-05,-1.2772458223914914e-12,-0.0093345046043396,0.0240283012390136,-0.0165014266967773,0,0,0,0
2.9,1788183266051,0.0,0.0,-0.0016777007840573,0.0050355233252048,-0.8832280039787292,0.4689138531684875,0.0,0.0,0.0,0.0,-4.756406823958059e-09,0.0,-0.0038294158875942,0.0036726631224155,-0.5618277192115784,0.8272373080253601,8.64732351282666e-05,0.0001389794496083,2.4013363208605047e-10,0.0269748568534851,-0.0287861824035644,-0.0055665969848632,0,0,0,0
3.0,1788183266151,0.0,0.0,-0.0016777007840573,0.0050355233252048,-0.8832280039787292,0.4689138531684875,0.0,0.0,0.0,0.0,-3.3188873871381475e-09,0.0,-0.0038231257349252,0.003675976768136,-0.5618277192115784,0.8272373080253601,1.8733030859640965e-05,7.362586546022734e-05,1.90004366493966e-06,0.0086860656738281,0.0022948384284973,-0.0106458663940429,0,0,0,0
3.1,1788183266251,0.0,0.0,-0.0016777007840573,0.0050355233252048,-0.8832280039787292,0.4689138531684875,0.0,0.0,0.0,0.0,-7.685214242769689e-09,0.0,-0.0038223238661885,0.0036791739985346,-0.5618277192115784,0.8272373080253601,-4.8762645332926127e-05,7.974340146865265e-05,-8.059804782372106e-11,-0.0180619955062866,-0.0132257342338562,-0.0068902969360351,0,0,0,0
3.2,1788183266351,0.0,0.0,-0.0016615695785731,0.0050370758399367,-0.8832280039787292,0.4689138531684875,0.0,0.0,0.0,0.0,0.0,0.0,-0.0038223238661885,0.0036791739985346,-0.5618277192115784,0.8272373080253601,-4.8762645332926127e-05,7.974340146865265e-05,-8.059804782372106e-11,-0.0180619955062866,-0.0132257342338562,-0.0068902969360351,0,0,0,0
3.3,1788183266451,0.0,0.0,-0.0016580906230956,0.0050461208447813,-0.8832279443740845,0.4689138531684875,0.0,0.0,0.0,0.0,0.0,0.0,-0.0038256691768765,0.0036955988034605,-0.5618276596069336,0.8272371888160706,-0.0001500053070193,0.0001296487815849,-1.1990279165256463e-06,0.0003097653388977,0.0037267804145812,-0.0049066543579101,0,0,0,0
3.4,1788183266551,0.0,0.0,-0.0016580906230956,0.0050461208447813,-0.8832279443740845,0.4689138531684875,0.0,0.0,0.0,0.0,0.0,0.0,-0.0038283942267298,0.0037026116624474,-0.5618276596069336,0.8272371888160706,-0.0001371778736965,8.953827438780886e-05,2.1484796715949885e-06,0.0055228471755981,0.0127094984054565,-0.0193614959716796,0,0,0,0
3.5,1788183266651,0.0,0.0,-0.0016580906230956,0.0050461208447813,-0.8832279443740845,0.4689138531684875,0.0,0.0,0.0,0.0,0.0,0.0,-0.0038289707154035,0.003705252893269,-0.5618276596069336,0.8272371888160706,-1.668399434812181e-05,2.742022031836333e-05,-6.339577673034461e-12,0.0049216151237487,-0.0151435732841491,0.0163421630859375,0,0,0,0
3.6,1788183266751,0.0,0.0,-0.0016580906230956,0.0050461208447813,-0.8832279443740845,0.4689138531684875,0.0,0.0,0.0,0.0,0.0,0.0,-0.0038289707154035,0.003705252893269,-0.5618276596069336,0.8272371888160706,-1.668399434812181e-05,2.742022031836333e-05,-6.339577673034461e-12,0.0049216151237487,-0.0151435732841491,0.0163421630859375,0,0,0,0
3.7,1788183266851,0.0,0.0,-0.0016580906230956,0.0050461208447813,-0.8832279443740845,0.4689138531684875,0.0,0.0,0.0,0.0,0.0,0.0,-0.0038254205137491,0.0037032850086688,-0.5618276596069336,0.8272371888160706,0.0001284714106405,2.888669216753854e-05,1.983691579864305e-06,-0.0092684030532836,-0.0055776834487915,-0.0012702941894531,0,0,0,0
3.8,1788183266951,0.0,0.0,-0.0016501249046996,0.0050590182654559,-0.8832278847694397,0.4689137637615204,0.0,0.0,0.0,0.0,-4.702783051868664e-09,0.0,-0.0038166865706443,0.0036990353837609,-0.5618276596069336,0.8272371888160706,0.0001711540234281,8.66421157373021e-06,1.6856508308576798e-11,0.0211008191108703,0.0027588009834289,0.0008821487426757,0,0,0,0
3.9,1788183267051,0.0,0.0,-0.0016501249046996,0.0050590182654559,-0.8832278847694397,0.4689137637615204,0.0,0.0,0.0,0.0,-4.693657462695455e-09,0.0,-0.0038144383579492,0.003697158768773,-0.5618276596069336,0.8272371888160706,0.0002136195456424,-2.1196407199146667e-05,-6.177358405052913e-11,0.0064436197280883,-0.0080547928810119,0.0060529708862304,0,0,0,0
4.0,1788183267151,0.0,0.0,-0.0016446720110252,0.0050472188740968,-0.8832280039787292,0.4689138233661651,0.0,0.0,0.0,0.0,0.0,0.0,-0.0038103377446532,0.0036799106746912,-0.5618277192115784,0.8272373080253601,0.0001008369473961,-0.000201077392573,-1.958010608859077e-06,-0.0113368034362792,-0.0021499991416931,0.0041532516479492,0,0,0,0
4.1,1788183267251,0.0,0.0,-0.0016446720110252,0.0050472188740968,-0.8832280039787292,0.4689138233661651,0.0,0.0,0.0,0.0,0.0,0.0,-0.0038133999332785,0.0036704326048493,-0.5618277192115784,0.8272373080253601,3.8598176723496086e-05,-0.0002130133541667,-1.9914835672018087e-06,0.0099918842315673,-0.0286387801170349,0.0023603439331054,0,0,0,0
4.2,1788183267351,0.0,0.0,-0.0016595162451267,0.0050252960063517,-0.8832280039787292,0.4689138531684875,0.0,0.0,0.0,0.0,4.7317194606932844e-09,0.0,-0.0038183946162462,0.0036639086902141,-0.5618277192115784,0.8272373080253601,-3.150823715007459e-05,-0.0002024487026944,-3.0141784115350568e-06,0.0117270946502685,0.0310475230216979,0.004399299621582,0,0,0,0
4.3,1788183267451,0.0,0.0,-0.0016670550685375,0.0050222710706293,-0.8832280039787292,0.4689138829708099,0.0,0.0,0.0,0.0,4.605116288303179e-09,0.0,-0.0038262968882918,0.0036553423851728,-0.5618277192115784,0.8272373080253601,-5.7120286121559234e-05,-0.0001526914551131,1.2051873673535179e-10,0.0120590925216674,0.0169907808303833,-0.0062074661254882,0,0,0,0
4.4,1788183267551,0.0,0.0,-0.0016670550685375,0.0050222710706293,-0.8832280039787292,0.4689138829708099,0.0,0.0,0.0,0.0,4.644503448503201e-09,0.0,-0.0038313688710331,0.0036521898582577,-0.5618277192115784,0.8272373080253601,-6.389852389935569e-05,-0.0001579568923853,-2.1505337138995378e-06,-0.0044079422950744,-0.0116735696792602,0.0098438262939453,0,0,0,0
4.5,1788183267651,0.0,0.0,-0.0016670550685375,0.0050222710706293,-0.8832280039787292,0.4689138829708099,0.0,0.0,0.0,0.0,4.662164876378938e-09,0.0,-0.0038351360708475,0.0036497507244348,-0.5618277192115784,0.8272373080253601,-5.573122319594755e-05,-0.0001509293898224,-2.611986556701502e-06,-0.0100474953651428,-0.0062839984893798,0.0095758438110351,0,0,0,0
4.6,1788183267751,0.0,0.0,-0.0016670550685375,0.0050222710706293,-0.8832280039787292,0.4689138829708099,0.0,0.0,0.0,0.0,4.503364348096284e-09,0.0,-0.003849683329463,0.0036393413320183,-0.5618277192115784,0.8272373080253601,-9.152255147499665e-05,-0.000224579433539,3.254988532684092e-10,0.0033762454986572,0.0137502551078796,0.0356702804565429,0,0,0,0
4.7,1788183267851,0.0,0.0,-0.0016670550685375,0.0050222710706293,-0.8832280039787292,0.4689138829708099,0.0,0.0,0.0,0.0,3.898219524955948e-09,0.0,-0.0038597323000431,0.0036309212446212,-0.5618277192115784,0.8272373080253601,-6.630529922341117e-05,-0.0002429646839038,-1.980868633062588e-06,0.0069609880447387,0.0282203555107116,-0.0162734985351562,0,0,0,0
4.8,1788183267951,0.0,0.0,-0.0016670550685375,0.0050222710706293,-0.8832280039787292,0.4689138829708099,0.0,0.0,0.0,0.0,4.740821957227581e-09,0.0,-0.0038672843948006,0.0036257160827517,-0.5618277192115784,0.8272373080253601,-8.72631130186399e-05,-0.0001771880112336,-2.226603146347573e-06,-0.0088420510292053,-0.016606867313385,0.0199499130249023,0,0,0,0
4.9,1788183268051,0.0,0.0,-0.0016670550685375,0.0050222710706293,-0.8832280039787292,0.4689138829708099,0.0,0.0,0.0,0.0,4.686904198081265e-09,0.0,-0.0038746874779462,0.0036257756873965,-0.5618277192115784,0.8272373080253601,-9.38077073056827e-05,-2.5273107087779714e-05,3.5841586433191385e-11,0.0136876702308654,-0.0163819789886474,-0.0013208389282226,0,0,0,0
5.0,1788183268151,0.0,0.0,-0.0016670550685375,0.0050222710706293,-0.8832280039787292,0.4689138829708099,0.0,0.0,0.0,0.0,4.561602207076021e-09,0.0,-0.0038791038095951,0.0036280481144785,-0.5618277192115784,0.8272373080253601,-0.0001127680122098,-7.749531325243634e-06,1.3994365822598054e-11,0.002971589565277,-0.0035582780838012,0.0076198577880859,0,0,0,0
5.1,1788183268251,0.0,0.0,-0.0016670550685375,0.0050222710706293,-0.8832280039787292,0.4689138829708099,0.0,0.0,0.0,0.0,3.891847732973019e-09,0.0,-0.0038867834955453,0.0036324840039014,-0.5618276596069336,0.8272371888160706,-0.0002183908753169,-7.871638192462345e-06,-2.1855929104269302e-06,-0.0041298270225524,-0.004517376422882,-0.0062074661254882,0,0,0,0
5.2,1788183268351,0.0,0.0,-0.0017383887898176,0.0050258007831871,-0.8832278847694397,0.4689137637615204,0.0,0.0,0.0,-0.0014312015846371,-0.0024010962806642,-1.5163504940574056e-05,-0.0038958992809057,0.0036396495997905,-0.5618276596069336,0.8272371888160706,-0.0002182660398064,1.8544261573567985e-05,-1.1622310076379131e-10,0.0015063881874084,-0.006091833114624,-0.0091743469238281,0,0,0,0
5.3,1788183268451,0.0,0.0,-0.0017450001323595,0.0050408211536705,-0.8832278251647949,0.468913733959198,0.0,0.0,0.0,-0.0003111891855951,3.5053286410402507e-05,4.673771400121041e-06,-0.0038991523906588,0.0036427611485123,-0.5618276596069336,0.8272371888160706,-0.0001674262517388,2.972751445336863e-05,-4.9896907249307236e-11,-0.0037347674369812,-0.0151450037956237,-0.0286674499511718,0,0,0,0
5.4,1788183268551,0.0,0.0,-0.0017450001323595,0.0050408211536705,-0.8832278251647949,0.468913733959198,0.0,0.0,0.0,-0.0003111891855951,3.5053286410402507e-05,4.673771400121041e-06,-0.0039021195843815,0.003645122051239,-0.5618276596069336,0.8272371888160706,-0.0001261701445062,9.541041412039578e-06,-3.6074063975869724e-11,-0.0040959119796752,0.0094311237335205,-0.0046806335449218,0,0,0,0
5.5,1788183268651,0.0,0.0,-0.0017450001323595,0.0050408211536705,-0.8832278251647949,0.468913733959198,0.0,0.0,0.0,0.0,0.0,0.0,-0.0039046676829457,0.003645934164524,-0.5618276000022888,0.827237069606781,2.094811520928052e-06,-1.3406793733939537e-05,-4.5261930008913224e-13,-0.0257635712623596,-0.0056961774826049,0.0070571899414062,0,0,0,0
5.6,1788183268751,0.0,0.0,-0.0017489392776042,0.0050477967597544,-0.8832278251647949,0.4689136445522308,0.0,0.0,0.0,0.0,0.0,0.0,-0.0039009544998407,0.0036451136693358,-0.5618276000022888,0.827237069606781,0.0001066441755663,4.163876023383414e-05,6.676796944598759e-11,0.0015246868133544,0.0022857785224914,0.0202703475952148,0,0,0,0
5.7,1788183268851,0.0,0.0,-0.0017489392776042,0.0050477967597544,-0.8832278251647949,0.4689136445522308,0.0,0.0,0.0,0.0,0.0,0.0,-0.0038954382762312,0.0036421893164515,-0.5618276000022888,0.827237069606781,0.0001661573918248,1.2386237577934876e-05,1.1867577155270523e-06,0.0138773322105407,-0.0109261870384216,0.0205678939819335,0,0,0,0
5.8,1788183268951,0.0,0.0,-0.0017489392776042,0.0050477967597544,-0.8832278251647949,0.4689136445522308,0.0,0.0,0.0,0.0,0.0,0.0,-0.0038954382762312,0.0036421893164515,-0.5618276000022888,0.827237069606781,0.0001661573918248,1.2386237577934876e-05,1.1867577155270523e-06,0.0138773322105407,-0.0109261870384216,0.0205678939819335,0,0,0,0
5.9,1788183269051,0.0,0.0,-0.0017489392776042,0.0050477967597544,-0.8832278251647949,0.4689136445522308,0.0,0.0,0.0,0.0,0.0,0.0,-0.0038954382762312,0.0036421893164515,-0.5618276000022888,0.827237069606781,0.0001661573918248,1.2386237577934876e-05,1.1867577155270523e-06,0.0138773322105407,-0.0109261870384216,0.0205678939819335,0,0,0,0
6.0,1788183269151,0.0,0.0,-0.0017438698559999,0.0050424369983375,-0.8832278847694397,0.4689136743545532,0.0,0.0,0.0,0.0,4.6345847160012e-09,0.0,-0.0038889935240149,0.0036262571811676,-0.5618276596069336,0.8272371888160706,-6.48715729532077e-05,-2.4150456610491568e-05,2.9211310225423346e-11,-0.0240247845649719,0.0089028477668762,-0.0118331909179687,0,0,0,0
6.1,1788183269251,0.0,0.0,-0.0017450391314923,0.0050254124216735,-0.8832278847694397,0.468913733959198,0.0,0.0,0.0,0.0,-5.803842295648565e-09,0.0,-0.0038923779502511,0.0036303931847214,-0.5618276596069336,0.8272371888160706,-0.0001354894369835,6.072980059952093e-05,-1.254903643516775e-10,-0.0217170119285583,0.0003491640090942,0.0224008560180664,0,0,0,0
6.2,1788183269351,0.0,0.0,-0.0017449513543397,0.0050318129360675,-0.8832279443740845,0.4689136743545532,0.0,0.0,0.0,-0.000225301933824,0.000123630015878,-2.393050181126455e-06,-0.0038961265236139,0.0036405157297849,-0.5618276596069336,0.8272371888160706,-0.0001538723204476,0.0001035183664765,-2.388531765973542e-10,0.01100355386734,0.0060290694236755,0.0156822204589843,0,0,0,0
6.3,1788183269451,0.0,0.0,-0.0017449513543397,0.0050318129360675,-0.8832279443740845,0.4689136743545532,0.0,0.0,0.0,0.0,0.0,0.0,-0.0039001079276204,0.0036483826115727,-0.5618276000022888,0.827237069606781,-0.000184710155913,8.915007523519928e-05,-1.9868783802764943e-06,-0.0015177130699157,-0.0059791207313537,-0.0057096481323242,0,0,0,0
6.4,1788183269551,0.0,0.0,-0.0017449513543397,0.0050318129360675,-0.8832279443740845,0.4689136743545532,0.0,0.0,0.0,0.0,0.0,0.0,-0.0039035072550177,0.0036532310768961,-0.5618276000022888,0.827237069606781,-0.0001619733875133,5.664808765398262e-05,-1.479456232988077e-10,2.5331974029541016e-05,0.0082930922508239,0.0052909851074218,0,0,0,0
6.5,1788183269651,0.0,0.0,-0.0017449513543397,0.0050318129360675,-0.8832279443740845,0.4689136743545532,0.0,0.0,0.0,0.0,0.0,0.0,-0.0039108479395508,0.0036595948040485,-0.5618276000022888,0.827237069606781,-0.0001023069290094,-4.097887214828135e-06,6.264708584036492e-12,-0.009473443031311,0.0078591704368591,0.0238761901855468,0,0,0,0
6.6,1788183269751,0.0,0.0,-0.0017449513543397,0.0050318129360675,-0.8832279443740845,0.4689136743545532,0.0,0.0,0.0,0.0,0.0,0.0,-0.0039147390052676,0.0036614565178751,-0.5618276000022888,0.827237069606781,-8.931676274331821e-05,-1.3643598128014445e-05,1.9485549575861262e-11,0.0031793117523193,0.011662483215332,-0.0124387741088867,0,0,0,0
6.7,1788183269851,0.0,0.0,-0.0017449513543397,0.0050318129360675,-0.8832279443740845,0.4689136743545532,0.0,0.0,0.0,0.0,0.0,0.0,-0.0039171027019619,0.0036621829494833,-0.5618276000022888,0.827237069606781,-2.195839053671874e-06,-2.4828547464355425e-05,7.341672781515304e-13,-0.009655475616455,-0.0108351111412048,0.0232772827148437,0,0,0,0
6.8,1788183269951,0.0,0.0,-0.0017449513543397,0.0050318129360675,-0.8832279443740845,0.4689136743545532,0.0,0.0,0.0,0.0,0.0,0.0,-0.003916036337614,0.0036599123850464,-0.5618276000022888,0.827237069606781,8.754305656807554e-05,-4.0786547501999153e-05,-4.9713418034882036e-11,-0.0024904012680053,0.0083685517311096,-0.004042625427246,0,0,0,0
6.9,1788183270051,0.0,0.0,-0.0017449513543397,0.0050318129360675,-0.8832279443740845,0.4689136743545532,0.0,0.0,0.0,0.0,0.0,0.0,-0.0039090178906917,0.0036523798480629,-0.5618276000022888,0.827237069606781,0.0002248947757423,-2.7470892741142312e-05,-9.341450435750716e-11,-0.0025385618209838,0.0140766501426696,0.0168418884277343,0,0,0,0
7.0,1788183270151,0.0,0.0,-0.0017487299628555,0.0050531136803328,-0.8832278251647949,0.4689136445522308,0.0,0.0,0.0,0.0,0.0,0.0,-0.0038984473794698,0.003644042648375,-0.5618276000022888,0.827237069606781,0.0002883715940357,-1.6488482927407633e-05,-7.82201471552201e-11,-0.0095675587654113,-0.0189974904060363,-0.0022048950195312,0,0,0,0
7.1,1788183270251,0.0,0.0,-0.0017381138168275,0.0050296923145651,-0.8832279443740845,0.4689136743545532,0.0,0.0,0.0,0.0005203887703828,-3.228845525882207e-05,-1.1666683121802637e-06,-0.0038866437971591,0.0036349482834339,-0.5618276596069336,0.8272371888160706,0.0003481001834976,-2.5138856193088025e-05,1.9836985861612542e-06,-0.0079067945480346,-0.0051744580268859,0.0078096389770507,0,0,0,0
7.2,1788183270351,0.0,0.0,-0.0017310194671154,0.0050162179395556,-0.8832279443740845,0.4689137935638428,0.0,0.0,0.0,0.0006104779313318,-2.11887231671426e-06,5.973913175694179e-06,-0.0038672536611557,0.0036220392212271,-0.5618277192115784,0.8272373080253601,0.0003994909003402,1.2858137513661178e-05,3.918756648187531e-06,0.0104084610939025,0.0173389911651611,-0.0070953369140625,0,0,0,0
7.3,1788183270451,0.0,0.0,-0.0017310194671154,0.0050162179395556,-0.8832279443740845,0.4689137935638428,0.0,0.0,0.0,0.0,0.0,0.0,-0.0038538556545972,0.0036125155165791,-0.5618277192115784,0.8272373080253601,0.0003394205767664,-1.3122286334420373e-05,-6.662019826148069e-11,0.0083267092704772,0.006646454334259,0.0088405609130859,0,0,0,0
7.4,1788183270551,0.0,0.0,-0.0017173751257359,0.0049898666329681,-0.8832280039787292,0.4689139723777771,0.0,0.0,0.0,0.0006765334983356,-1.0494256457604934e-05,0.0,-0.0038456907495856,0.0036064619198441,-0.5618277788162231,0.8272374272346497,0.0003321622204497,-1.3318776761653949e-05,-6.635561239576692e-11,-0.0167567133903503,-0.0221249461174011,-0.0001811981201171,0,0,0,0
7.5,1788183270651,0.0,0.0,-0.0017117669340223,0.0049789561890065,-0.883228063583374,0.4689139723777771,0.0,0.0,0.0,0.0004068788257427,-5.402242095442489e-06,-9.885446843327372e-07,-0.0038309022784233,0.0035993121564388,-0.5618278384208679,0.8272375464439392,0.0001561429453284,6.292096528375787e-05,1.978989194288375e-06,0.0019131898880004,0.0006113052368164,-0.0216932296752929,0,0,0,0
7.6,1788183270751,0.0,0.0,-0.0017017301870509,0.0049704285338521,-0.8832281231880188,0.4689140021800995,0.0,0.0,0.0,0.0004889975534752,0.0001944138784892,1.1907256975973723e-06,-0.0038257632404565,0.0035999501124024,-0.5618278384208679,0.8272375464439392,7.247781989720913e-05,9.767265319166997e-05,9.655907877065023e-11,0.0111434459686279,0.0082892775535583,-0.01251220703125,0,0,0,0
7.7,1788183270851,0.0,0.0,-0.0016976266633719,0.0049695456400513,-0.8832281231880188,0.4689140319824219,0.0,0.0,0.0,0.0,0.0,0.0,-0.0038199741393327,0.0036001298576593,-0.5618278384208679,0.8272375464439392,9.513733073560016e-05,2.919887352859243e-05,4.159936381537865e-11,-0.0108565688133239,0.0240469574928283,-0.0067625045776367,0,0,0,0
7.8,1788183270951,0.0,0.0,-0.0016976266633719,0.0049695456400513,-0.8832281231880188,0.4689140319824219,0.0,0.0,0.0,0.0,0.0,0.0,-0.0038142846897244,0.0035968674346804,-0.5618278384208679,0.8272375464439392,0.0001626548173277,-6.556556408487667e-06,-1.6170929809195923e-11,-0.0039439797401428,-0.0088662505149841,-0.0066852569580078,0,0,0,0
7.9,1788183271051,0.0,0.0,-0.0016976266633719,0.0049695456400513,-0.8832281231880188,0.4689140319824219,0.0,0.0,0.0,0.0,0.0,0.0,-0.0038102883845567,0.0035938499495387,-0.5618278384208679,0.8272375464439392,8.315298737359556e-05,5.389545007987158e-06,6.776198146500109e-12,0.0015586018562316,0.0041959881782531,-0.0007600784301757,0,0,0,0
8.0,1788183271151,0.0,0.0,-0.001687808195129,0.0049551790580153,-0.8832282423973083,0.4689140915870666,0.0,0.0,0.0,0.0006920079467818,7.744049071334302e-05,1.1925388889721944e-06,-0.0038059055805206,0.0035918597131967,-0.5618278384208679,0.8272375464439392,8.082834488200828e-05,9.186761190198612e-06,1.1385688246945407e-11,0.0033648014068603,0.0059174299240112,-0.0051689147949218,0,0,0,0
8.1,1788183271251,0.0,0.0,-0.0016855607973411,0.0049520120956003,-0.8832281827926636,0.4689141809940338,0.0,0.0,0.0,2.300215965078678e-05,3.268292402935913e-06,6.051955551811261e-06,-0.0038023488596081,0.0035901637747883,-0.5618278384208679,0.8272375464439392,8.010012087870331e-05,1.718676791927289e-05,2.0384194046554758e-11,-0.0055021047592163,-0.0102335810661315,-0.0030317306518554,0,0,0,0
8.2,1788183271351,0.0,0.0,-0.0016838226001709,0.0049501722678542,-0.8832282423973083,0.4689140915870666,0.0,0.0,0.0,9.641627548262476e-05,2.659679921634961e-05,-4.709514541900717e-06,-0.0038002012297511,0.0035899514332413,-0.5618278980255127,0.8272376656532288,3.270546960945585e-05,1.698438550533973e-05,8.292555903246955e-12,-0.0001333951950073,0.0134158134460449,-0.01019287109375,0,0,0,0
8.3,1788183271451,0.0,0.0,-0.0016838226001709,0.0049501722678542,-0.8832282423973083,0.4689140915870666,0.0,0.0,0.0,0.0,0.0,0.0,-0.0038018785417079,0.0035873390734195,-0.5618278980255127,0.8272376656532288,-2.488474579574596e-06,-9.42313975412338e-05,3.1374138426958666e-12,0.0097211599349975,-0.0295698046684265,0.002150535583496,0,0,0,0
8.4,1788183271551,0.0,0.0,-0.0016838226001709,0.0049501722678542,-0.8832282423973083,0.4689140915870666,0.0,0.0,0.0,0.0,0.0,0.0,-0.0038028610870242,0.003584960475564,-0.5618278980255127,0.8272376656532288,2.306635959548748e-05,-9.282804308397016e-05,-2.7697169922962173e-06,0.0186355113983154,0.0008161664009094,-0.0064735412597656,0,0,0,0
8.5,1788183271651,0.0,0.0,-0.0016877832822501,0.0049460493028163,-0.8832282423973083,0.4689141809940338,0.0,0.0,0.0,0.0,-5.818893367148803e-09,0.0,-0.003805985674262,0.003580997698009,-0.5618278980255127,0.8272376656532288,-2.4983736745464005e-05,-6.55091444996661e-05,2.4739613844654156e-11,-0.0099143385887146,-0.020233154296875,-0.0088224411010742,0,0,0,0
8.6,1788183271751,0.0,0.0,-0.0016877832822501,0.0049460493028163,-0.8832282423973083,0.4689141809940338,0.0,0.0,0.0,0.0,-4.566654610016485e-09,0.0,-0.0038117878139019,0.0035799359902739,-0.5618278980255127,0.8272376656532288,-0.0001073228400796,-8.51881965192514e-05,1.3723432906493028e-10,-0.0102167129516601,-0.0051430463790893,-0.0020751953125,0,0,0,0
8.7,1788183271851,0.0,0.0,-0.0017032318282872,0.0049507459625601,-0.8832281827926636,0.4689142107963562,0.0,0.0,0.0,-0.0004476452595554,-0.0004496168112382,-1.1710319540725322e-06,-0.0038198800757527,0.0035818237811326,-0.5618278384208679,0.8272375464439392,-0.0001926238969732,-4.8574999321689024e-05,-1.986312911905912e-06,0.0152231454849243,0.0010550022125244,-0.0053939819335937,0,0,0,0
8.8,1788183271951,0.0,0.0,-0.0017090949695557,0.0049582426436245,-0.8832281827926636,0.4689140617847442,0.0,0.0,0.0,-0.0003741813125088,-6.638445483986288e-05,-7.140013167372672e-06,-0.0038334280252456,0.0035892194136977,-0.5618278384208679,0.8272375464439392,-0.0002874093676005,2.479145524249707e-06,-1.0639915580045164e-11,0.0137419700622558,0.0360704064369201,0.002084732055664,0,0,0,0
8.9,1788183272051,0.0,0.0,-0.0017090949695557,0.0049582426436245,-0.8832281827926636,0.4689140617847442,0.0,0.0,0.0,0.0,5.810116388005326e-09,0.0,-0.0038439081981778,0.0035959938541054,-0.5618278384208679,0.8272375464439392,-0.000271016311284,-1.724059329580673e-05,-1.9826737031512336e-06,-0.0044773817062377,-0.010563313961029,0.0162734985351562,0,0,0,0
9.0,1788183272151,0.0,0.0,-0.0017199921421706,0.0049775270745158,-0.883228063583374,0.4689140319824219,0.0,0.0,0.0,0.0,4.727652047620268e-09,0.0,-0.003854664042592,0.0036012195050716,-0.5618277788162231,0.8272374272346497,-0.0002479754137746,-5.1199345504699777e-05,-1.8631792042860508e-06,-0.0101904273033142,0.0129417181015014,0.0127325057983398,0,0,0,0
9.1,1788183272251,0.0,0.0,-0.0017264878842979,0.0049858880229294,-0.883228063583374,0.4689139425754547,0.0,0.0,0.0,-0.0003510475507937,-6.112380651757121e-05,-3.008979092555819e-06,-0.0038675209507346,0.00360519438982,-0.5618277788162231,0.8272374272346497,-0.000249639081099,-8.956001054957642e-05,-1.9843725014303267e-06,-0.0086074471473693,0.011431336402893,-0.0132598876953125,0,0,0,0
9.2,1788183272351,0.0,0.0,-0.001742243533954,0.0049995649605989,-0.8832279443740845,0.4689139723777771,0.0,0.0,0.0,-0.000361487705959,-0.0001748980866977,-1.1914926290046424e-06,-0.0038749845698475,0.0036051897332072,-0.5618225932121277,0.8272407650947571,3.965332350981692e-05,-6.658667729459007e-05,0.0004509786492517,-0.0134440660476684,-0.0067304968833923,0.0152673721313476,102,115,-4353,4396
9.3,1788183272451,-3.4084506034851074,3.577464818954468,-0.0018661512294784,0.0050137536600232,-0.8761504888534546,0.482008159160614,-0.000915237700526,0.0051924996304513,1.6814648673925289e-06,0.0004433259309735,-0.0082007441669702,0.6367110013961792,-0.003951190970838,0.0038506723940372,-0.5418784022331238,0.8404388427734375,-0.0125933656677378,0.0151254482929825,0.8502357291619427,-0.4205525517463684,0.142508327960968,-0.0559301376342773,388,198,-16094,12580
9.4,1788183272551,-3.746478796005249,3.6619718074798575,-0.0015752072213217,0.0053764577023684,-0.8637271523475647,0.5039286613464355,0.0029829873348849,8.222949525010373e-05,-2.8740629022850296e-07,-0.0077708764001727,0.011588335968554,0.9842572212219238,-0.0039108041673898,0.004027715884149,-0.528247058391571,0.8490720987319946,-0.00525719297922,0.0056462930151733,1.0736264292332556,-0.2018696665763855,0.1109347939491272,0.3831453323364258,176,52,-13878,10313
9.5,1788183272651,-3.2676055431365967,3.380281686782837,-0.0006981471087783,0.0055160764604806,-0.8173943161964417,0.5760517716407776,0.0009045270684923,-0.0131197480844334,5.517826099181484e-07,-0.0011937419185414,-0.0087411226704716,1.0489997863769531,-0.0032523162662982,0.0045225052163004,-0.4489615857601166,0.8935337066650391,-0.0087818072131753,-0.0104441694578004,1.1396330601002218,0.1431865096092224,-0.1224316954612732,-0.3258657455444336,185,47,-13056,9151
9.6,1788183272751,-3.0985915660858154,3.3521127700805664,-0.0004777938593178,0.0059561859816312,-0.788975715637207,0.6143953800201416,0.0035609626661539,-0.0074374857371669,1.604016258285876e-06,-0.0132173700258135,-0.010215220041573,0.9542912244796752,-0.0033180443570017,0.0050192670896649,-0.4014307856559753,0.9158695936203004,-0.0127205160900668,-0.0057081716893541,0.9532504247844396,-0.1952958106994629,-0.326467216014862,0.0508136749267578,338,61,-14441,9601
9.7,1788183272851,-3.2957746982574463,3.239436626434326,-0.0009005134925246,0.0059220916591584,-0.7616358399391174,0.6479775905609131,0.0068721811117735,-0.0083581563510733,2.801005436347736e-06,-0.0118847051635384,-0.0081227449700236,0.9671812057495116,-0.0036062821745872,0.0048576528206467,-0.3659699559211731,0.9306069612503052,-0.0157517461068331,-0.012197893169249,1.0103807675855176,0.0216968655586242,0.3117954134941101,-0.1574964523315429,307,70,-15201,9987
9.8,1788183272951,-3.239436626434326,3.239436626434326,-0.0008201899472624,0.0061592971906065,-0.7280933856964111,0.6854497790336609,0.0044125745691614,-0.0089882804075866,-1.2128064421177375e-06,-0.0035154004581272,-0.0094960741698741,1.0194721221923828,-0.0036073019728064,0.0050570871680974,-0.3230032324790954,0.946377456188202,-0.0085467119602235,-0.0193929412667084,1.0292855613767906,-0.0676525831222534,0.4532956480979919,0.3887367248535156,261,65,-14593,9829
9.9,1788183273051,-3.014084577560425,3.2676055431365967,-0.0011569485068321,0.0061938446015119,-0.6901214718818665,0.7236661314964294,0.0064945781972121,-0.0084805792635822,-1.7802295442632546e-06,-0.0027324419934302,0.003619021968916,0.9621232151985168,-0.003965999931097,0.0049231611192226,-0.2673759162425995,0.9635716080665588,-0.0107172745477898,-0.0101386677899133,1.0873259427308788,-0.1191992759704589,-0.0487153530120849,-0.6876611709594727,374,92,-16344,9876
10.0,1788183273151,-3.014084577560425,3.380281686782837,-0.001033587148413,0.0063556553795933,-0.6533632874488831,0.757017195224762,0.0062584736254234,-0.00558676406348,3.2425611240272705e-07,-0.0042054252699017,0.0010024924995377,0.9832756519317628,-0.0038832891732454,0.0051364107057452,-0.2239788174629211,0.974572777748108,-0.0067911509434779,0.0086826895644321,0.9943948121197904,0.1998512744903564,0.1139695048332214,0.2591838836669922,379,56,-16861,9538
10.1,1788183273251,-2.929577350616455,3.323943614959717,-0.000802066642791,0.0065551456063985,-0.6202596426010132,0.7843687534332275,0.011448708351797,-0.0061596246689872,1.559256523351563e-07,-0.0039076847024261,0.0026839557103812,0.9624724984169006,-0.0037589939311146,0.0054244957864284,-0.1818691194057464,0.9833005666732788,-0.003238850425783,0.0054650978499102,0.945638723529742,0.209501564502716,0.5234329104423523,-0.0515642166137695,541,67,-19267,9711
10.2,1788183273351,-3.070422649383545,3.183098554611206,-0.0009296990465372,0.0065724239684641,-0.6008127927780151,0.7993621826171875,0.0044753846484062,-0.0022242721381278,4.094687547397705e-06,-0.0089965146034955,-0.0071364366449415,0.976170301437378,-0.0038242591544985,0.0053925737738609,-0.1283014565706253,0.9917132258415222,-0.0119743879367722,-0.0052924053932445,0.8304883267870876,-0.2318793535232544,0.0993369817733764,0.3578357696533203,549,73,-19913,9983
10.3,1788183273451,-3.0985915660858154,3.183098554611206,-0.000914885662496,0.0065070302225649,-0.5609716176986694,0.8278089165687561,0.0044037888532086,-0.0026319991624309,2.513897507623488e-06,-0.0074915462173521,-0.0077233463525772,0.983337700366974,-0.0038400180637836,0.0053262133151292,-0.0808620452880859,0.9967036843299866,-0.0120743739248094,-0.0038038122185446,0.9201306982690468,-0.4964178204536438,0.2227269411087036,0.2853460311889648,660,92,-21600,10281
10.4,1788183273551,-3.6056337356567374,3.183098554611206,-0.0008545625023543,0.006428194232285,-0.5165459513664246,0.8562349081039429,0.0042601418939347,-0.002754816555036,6.379218248908559e-08,-0.0015213784063234,-0.0067772408947348,0.9712877869606018,-0.003814865835011,0.0053275432437658,-0.0308476779609918,0.9995025992393494,-0.010854820626676,2.506638564540363e-05,1.086983993119799,-0.2668793797492981,0.1948392391204834,0.4838094711303711,556,71,-21119,9889
10.5,1788183273651,-3.2676055431365967,3.2957746982574463,-0.0010741793084889,0.0063486248254776,-0.4539909958839416,0.890982985496521,0.0057252668427566,-0.0057496861357829,4.0459217439701697e-08,-0.0063609224744141,-0.0096723400056362,0.990488052368164,-0.0039007496088743,0.0051230788230896,0.0148588763549923,0.9998689293861388,-0.0124095506998279,0.0008888055707432,0.9648467136600636,-0.109784185886383,0.0026805400848388,-0.2383651733398437,479,78,-20063,9719
10.6,1788183273751,-3.7183098793029785,3.4647886753082275,-0.0012250561267137,0.005852548405528,-0.4077806770801544,0.9130603075027466,-0.0022438237142567,-0.0044885739145507,-7.368536465694248e-07,-0.0004024171212222,-0.0127671975642442,1.052530288696289,-0.0038650715723633,0.0046169385313987,0.0766505822539329,0.997039794921875,-0.0084308517041319,-0.0064113749611467,1.0907954874653083,0.1568971276283264,-0.7336711883544922,-0.053537368774414,407,41,-16920,9052
10.7,1788183273851,-3.7183098793029785,3.2957746982574463,-0.0010463655926287,0.0059238602407276,-0.3783447742462158,0.9256452918052672,-0.0020426102596675,-0.0051547493666666,1.605577310568842e-06,-0.0007582622929476,0.0009407072211615,1.0653846263885498,-0.0038281138986349,0.0049295416101813,0.1253671795129776,0.9920908212661744,-0.0147212771123053,-0.0002079487089842,1.0606542077216483,0.2748864889144897,-0.751487672328949,0.1301450729370117,161,33,-13212,9469
10.8,1788183273951,-3.183098554611206,2.9577465057373047,-0.0013485214440152,0.0057083657011389,-0.3033023774623871,0.9528763890266418,-0.0009054245128684,-0.0010506362720503,-1.0285829783050918e-06,-0.0166381746530532,-0.010187242180109,1.0284745693206787,-0.0038392348214983,0.0045082597061991,0.1720693111419677,0.9850670695304872,-0.0233274810639985,-0.0106493036248653,1.1628427911912576,0.2584148049354553,-0.703211784362793,0.2272272109985351,105,20,-10384,8234
10.9,1788183274051,-2.676056385040283,2.760563373565674,-0.0015624302905052,0.0054174195975065,-0.2648030519485473,0.9642860293388368,-0.0039419936532777,0.0028648946236012,-2.19952364090779e-07,-0.0084077538922429,-0.0004831183759961,0.8220186233520508,-0.0037916144356131,0.0039431983605027,0.2239306420087814,0.9745897650718688,0.0044765056277377,-0.0177419706468576,0.7993136034521401,0.5556460022926331,-0.5832359790802002,-0.1643705368041992,57,15,-8217,5838
11.0,1788183274151,0.0,0.0,-0.0013596661156043,0.0053430465050041,-0.2468865364789962,0.9690287113189696,0.0119312368517168,-0.0127610444657711,-1.7444865545221254e-07,0.0049435244873166,-0.002823261776939,0.7296643853187561,-0.0037743095308542,0.0039749983698129,0.2447698712348938,0.969565749168396,-0.005274175800769,-0.0106335376390038,0.2397716095211193,-0.0587208867073059,-0.603571355342865,0.2423782348632812,64,18,-1828,23
11.1,1788183274251,0.0,0.0,-0.0014517673989757,0.0053775515407323,-0.2364429235458374,0.9716294407844543,-0.0053096075218956,-0.0001490306464198,1.012465605627899e-06,-0.0018173467833548,0.0024889237247407,-0.0554390512406826,-0.0037672528997063,0.0040551973506808,0.2446897476911544,0.969585657119751,0.0031442933729568,-0.0046747435836238,-0.0292488879270731,0.2635818719863891,0.251911997795105,-0.0076675415039062,0,0,0,0
11.2,1788183274351,0.0,0.0,-0.0014543746365234,0.0053883986547589,-0.23679780960083,0.9715428352355956,-0.0001450191114843,-0.0002282774151078,-2.481575069545075e-07,-0.0006009912467561,0.0007736394763924,-0.0017306102672591,-0.0038209548220038,0.0040844688192009,0.2445461452007293,0.9696215391159058,-0.0014431157897294,0.0007772427122373,-0.0016478885558053,0.0324901342391967,-0.128152847290039,0.0364332199096679,0,0,0,0
11.3,1788183274451,0.0,0.0,-0.0014455682830885,0.0053858612664043,-0.2367717772722244,0.9715492725372314,0.0002890847551434,9.559099533875673e-05,-1.8127956610318344e-07,0.0003556515148375,-1.7827071133069694e-05,0.0010586562566459,-0.0038427244871854,0.0041228076443076,0.244518831372261,0.9696282148361206,-0.001966598004814,0.0023577289120984,-0.0005612055925729,-0.0152117013931274,-0.0686864852905273,0.0454587936401367,0,0,0,0
11.4,1788183274551,0.0,0.0,-0.0014655324630439,0.0054241684265434,-0.2368188500404358,0.9715375900268556,-0.0001636593513375,0.0001943904516383,6.049440630693072e-07,-0.0011023932602256,0.0012739043449983,-0.0018964309711009,-0.003831647336483,0.0041100289672613,0.2445183843374252,0.9696283340454102,0.0005257754103838,-0.0010419767176017,-3.1888180889221215e-05,0.0241866707801818,0.0462854504585266,0.004800796508789,0,0,0,0
11.5,1788183274651,0.0,0.0,-0.0014628091594204,0.0054431855678558,-0.2368061542510986,0.9715405702590942,3.6394048635673774e-05,-4.4486739210507686e-05,1.1735004150189821e-07,-6.364469300024211e-05,0.0006319304811768,0.0004331786185503,-0.0038465624675154,0.0041648633778095,0.2445801794528961,0.9696124792099,0.0004844417883387,0.0012530976069025,0.0015390519751953,0.0001664757728576,-0.0488840341567993,0.002507209777832,0,0,0,0
11.6,1788183274751,0.0,0.0,-0.0014661935856565,0.0054449634626507,-0.2367310523986816,0.9715588688850404,2.819921650607911e-05,-3.370572872547768e-05,9.822838797728493e-08,-0.000593447999563,-0.0009725061827339,0.0003235364274587,-0.0038724970072507,0.0041575720533728,0.2446064800024032,0.9696057438850404,-0.0016221111780719,0.0023690543462432,-0.0003862208508283,0.0144751071929931,-0.0304435491561889,0.0134258270263671,0,0,0,0
11.7,1788183274851,0.0,0.0,-0.0014964083675295,0.0054638250730931,-0.2367339581251144,0.9715580344200134,-0.000210666223673,-0.000193576050527,4.368185825366604e-07,-0.0013498584739863,0.0004464661469683,-0.000125544014736,-0.0038768695667386,0.0041112434118986,0.2446187287569046,0.9696028828620912,-0.0005933981296873,-0.0004397787809025,0.0002151063251413,-0.007866621017456,-0.0115828514099121,-0.0160789489746093,0,0,0,0
11.8,1788183274951,0.0,0.0,-0.0015161313349381,0.0054581835865974,-0.236710786819458,0.9715636372566224,5.8170517346910686e-05,-6.166040885433952e-05,2.3488011914665865e-07,-0.0007893122965469,0.0006080811144784,0.0006328507442958,-0.0038786977529525,0.0041683372110128,0.2446070164442062,0.9696056246757508,0.0004736365265362,0.0016915366763471,-0.0014995263856987,0.0109859108924865,0.0083053112030029,0.0073270797729492,0,0,0,0
11.9,1788183275051,0.0,0.0,-0.0014826027909293,0.0055026244372129,-0.2367422133684158,0.9715558290481568,-3.5733155925010084e-05,4.337592799794696e-05,-1.1829929828361325e-07,-0.0001230394263984,0.0004878540348727,-0.0004214595537632,-0.0039131036028265,0.0042055388912558,0.2446410804986953,0.9695966839790344,-3.7618181448360255e-05,0.0014636932793579,0.0030140007491788,-0.0068928003311157,0.0016841292381286,0.0125112533569335,0,0,0,0
12.0,1788183275151,0.0,0.0,-0.0014754977310076,0.005560343619436,-0.2367588281631469,0.971551477909088,-0.0001611570678105,0.00018701901025,-5.838776284189228e-07,0.0008747105603106,0.0010170090245082,-0.0018412475474178,-0.0039064045995473,0.004216338507831,0.2445743978023529,0.9696134924888612,-0.0008749791139049,-0.0001101825690335,-0.0014156597900926,-0.0017226338386535,0.0027170777320861,-0.0078125,0,0,0,0
12.1,1788183275251,0.0,0.0,-0.0014815152389928,0.0055532497353851,-0.236763909459114,0.971550226211548,0.0,0.0,0.0,0.0,5.948768944108451e-08,0.0,-0.0039189998060464,0.0041746851056814,0.2445600628852844,0.969617247581482,-0.001265400303359,-0.0006527745515044,0.0004945958536405,-0.0046289563179016,0.0027189850807189,-0.0295848846435546,0,0,0,0
12.2,1788183275351,0.0,0.0,-0.0015308767324313,0.0055384435690939,-0.236769437789917,0.9715489149093628,-1.849129532729124e-05,2.532317702852109e-05,-4.7072519594280456e-08,-0.0017767383251339,-0.0010421592742204,-0.0002389906003372,-0.0039742588996887,0.0042044855654239,0.24461330473423,0.969603419303894,-0.0006850818776722,0.0007070781668938,0.0009653702105506,0.0028378367424011,-0.0100845694541931,-0.002695083618164,0,0,0,0
12.3,1788183275451,0.0,0.0,-0.0015554594574496,0.0055704214610159,-0.2367179989814758,0.9715612530708312,0.0001507467764291,-0.0001788192344196,5.121432672476072e-07,-0.001055690809153,0.0008353600278496,0.0017570592463016,-0.0040053986012935,0.0042068874463438,0.2446240037679672,0.9696006774902344,-2.622901609441883e-05,0.0007659718016911,0.0003301119767125,-0.0192590951919555,0.0036358833312988,-0.013650894165039,0,0,0,0
12.4,1788183275551,0.0,0.0,-0.0015719423536211,0.0055877706035971,-0.2367126792669296,0.9715623259544371,0.0,0.0,0.0,0.0,7.13334245006081e-08,-2.961301106552128e-06,-0.0040475400164723,0.0041478732600808,0.2446094751358032,0.9696043133735656,-0.0041576934666877,-0.0027617359737255,-0.000660852283552,0.0047598481178283,0.0072059631347656,0.0221509933471679,0,0,0,0
12.5,1788183275651,0.0,0.0,-0.0016984163084998,0.0054542338475584,-0.2367668002843856,0.9715496897697448,-9.52500450680838e-05,0.0001079447063554,-3.038593100417253e-07,0.0003075462591368,-0.0018696059705689,-0.0010802024044096,-0.0040526380762457,0.004023372195661,0.2445701658725738,0.969614803791046,-4.854618175905199e-07,-0.001650796815585,-0.0014998370270535,0.0037899613380432,0.006753921508789,0.0036888122558593,0,0,0,0
12.6,1788183275751,0.0,0.0,-0.0017531756311655,0.0054285204969346,-0.236778125166893,0.97154700756073,-4.111595553236625e-05,4.83349094061318e-05,-1.1833957796535085e-07,-0.0018774829804897,-0.0015126940561458,-0.0004780089657288,-0.0041165696457028,0.0039112558588385,0.2445647120475769,0.9696164131164552,-0.0012222489089984,-0.0015740020330761,-2.0687270449900614e-05,-0.003405213356018,-0.0003396272659301,0.0125541687011718,0,0,0,0
12.7,1788183275851,0.0,0.0,-0.0018803048878908,0.0053278189152479,-0.2367789894342422,0.9715471267700196,-1.1008538941170023e-06,2.124326640609329e-06,2.5016955549159116e-09,-0.0011550112394616,-0.0014787093969061,-1.9140992662869397e-05,-0.0041552735492587,0.0038238167762756,0.2445641756057739,0.9696166515350342,-0.0010857117500564,-0.0013949576113923,-2.017163646846642e-05,0.007608950138092,-0.0075385570526123,-0.0122194290161132,0,0,0,0
12.8,1788183275951,0.0,0.0,-0.0019215599168092,0.005295202601701,-0.2367793619632721,0.9715471267700196,-1.094173326123194e-06,2.111430546570557e-06,2.6886293301263595e-09,-0.0012909508077427,-0.0016540036303922,-2.556457911850885e-05,-0.0041864570230245,0.0037540970370173,0.2445637583732605,0.969616949558258,-0.0011366381055098,-0.0014242651251562,-1.9988578563381105e-05,0.0185003876686096,-0.0038970708847045,-0.0061206817626953,0,0,0,0
12.9,1788183276051,0.0,0.0,-0.0019834665581583,0.0052467584609985,-0.2367799133062362,0.9715471267700196,0.0,0.0,0.0,0.0,-1.4908013712400248e-09,0.0,-0.0042228111997246,0.0036735571920871,0.244563341140747,0.9696171283721924,-0.0008798242091246,-0.0010779137316698,-1.28996586729988e-05,0.0114380717277526,0.0302957892417907,-0.0076169967651367,0,0,0,0
13.0,1788183276151,0.0,0.0,-0.0020279644522815,0.005212727934122,-0.2367803156375885,0.9715470671653748,0.0,0.0,0.0,2.8722020317673014e-08,4.308303047650952e-08,-4.289154730940936e-06,-0.0042460979893803,0.0036201179027557,0.2445631027221679,0.9696173071861268,-0.0006991259818591,-0.0009292806719564,-1.0986330351562608e-05,0.0090296864509582,0.0065361857414245,0.0370397567749023,0,0,0,0
13.1,1788183276251,0.0,0.0,-0.0021041841246187,0.005149130243808,-0.236780896782875,0.9715471267700196,-4.4938650890112644e-07,8.671712784685807e-07,1.5278507455815938e-09,-0.0009195677703246,-0.0012845052406191,-1.7580545318196528e-05,-0.0042661139741539,0.0035695089027285,0.2445628643035888,0.9696174263954164,-0.000672473704657,-0.0009702582765116,-1.2893689163269392e-05,-0.0164842009544372,-0.0184283256530761,-0.0083141326904296,0,0,0,0
13.2,1788183276351,0.0,0.0,-0.0021389489993453,0.0051196813583374,-0.2367812842130661,0.9715471267700196,-5.487256659960659e-07,1.058861450625534e-06,1.968022182892257e-09,-0.0010724908206611,-0.001474282471463,-2.4448270778520964e-05,-0.0042917458340525,0.0035069715231657,0.244562566280365,0.9696176648139954,-0.0006372279606419,-0.0008407725975112,-9.545791718743409e-06,-0.0060063600540161,0.0020574331283569,-0.0133638381958007,0,0,0,0
13.3,1788183276451,0.0,0.0,-0.0021845824085175,0.0050834394060075,-0.2367815971374511,0.9715470671653748,-6.873687667294702e-07,1.3263913992901689e-06,2.703714998981346e-09,-0.000479530863231,-0.0005839769146405,-1.344528209301643e-05,-0.0043130489066243,0.0034609949216246,0.2445624023675918,0.9696177840232848,-0.0006141279317709,-0.0007041263468395,-7.70820019266893e-06,-0.0019741654396057,0.0275685191154479,-0.0017366409301757,0,0,0,0
13.4,1788183276551,0.0,0.0,-0.0022039110772311,0.0050699091516435,-0.2367817312479019,0.9715470671653748,-5.417535974671061e-07,1.0454016835314452e-06,2.163569844812396e-09,-0.0006153139402158,-0.000700170174241,-1.0596966603770852e-05,-0.0043253013864159,0.0034375730901956,0.2445623129606247,0.9696177840232848,-0.0005586388108306,-0.0006221142662488,-7.763604121996193e-06,0.0143687725067138,-0.0139548182487487,0.0074014663696289,0,0,0,0
13.5,1788183276651,0.0,0.0,-0.0022316356189548,0.0050511285662651,-0.236781820654869,0.9715471267700196,-5.433316998791263e-07,1.048445586150888e-06,2.221785740074989e-09,-0.0008910536998882,-0.0009830923518165,-1.003739089355804e-05,-0.0043468717485666,0.0033945711329579,0.2445621490478515,0.9696179032325744,-0.0004094146782581,-0.000526057942321,-6.983131128017427e-06,-0.0142379403114318,-0.0235988497734069,0.0038833618164062,0,0,0,0
13.6,1788183276751,0.0,0.0,-0.0022622405085712,0.005028111860156,-0.2367819100618362,0.9715471863746644,0.0,0.0,0.0,-0.0002381026133662,-0.0003137317544315,-1.2173323966635508e-06,-0.0043565826490521,0.0033693639561533,0.2445620447397232,0.969618022441864,-0.0003442360258198,-0.000512489024101,-6.528707020372009e-06,0.0181479454040527,0.0065854787826538,-0.0191154479980468,0,0,0,0
13.7,1788183276851,0.0,0.0,-0.0022935674060136,0.0049981181509792,-0.2367821335792541,0.9715471267700196,0.0,0.0,0.0,-0.0001846894010668,-0.0003091333783231,-5.212678843236063e-06,-0.0043650958687067,0.0033410135656595,0.2445618957281112,0.9696181416511536,-0.0002412768309266,-0.0003859825566381,-5.961520792587145e-06,-0.0158766508102417,0.0045186281204223,0.0163640975952148,0,0,0,0
13.8,1788183276951,0.0,0.0,-0.0023016815539449,0.0049905381165444,-0.2367821633815765,0.9715471863746644,0.0,0.0,0.0,-0.0002395369374426,-0.0003653308085631,-2.9314039693417726e-06,-0.0043717781081795,0.0033250041306018,0.2445618659257888,0.9696181416511536,-0.0002079618587777,-0.0002482714546728,-1.8650559842178303e-06,-0.025958776473999,-0.0169995427131652,0.0206270217895507,0,0,0,0
13.9,1788183277051,0.0,0.0,-0.0023246807977557,0.0049778260290622,-0.2367821335792541,0.9715472459793092,0.0,0.0,0.0,-0.0003294208145234,-0.0002015978679992,4.781360871675133e-07,-0.0043848482891917,0.0033126100897789,0.2445618659257888,0.9696181416511536,-0.000295094062331,-9.723231896024874e-05,-1.023923022223848e-06,-0.0049886107444763,0.0001807212829589,-0.0141096115112304,0,0,0,0
14.0,1788183277151,0.0,0.0,-0.0023429719731211,0.0049781235866248,-0.236782044172287,0.9715471863746644,0.0,0.0,0.0,-0.0005316484021022,-0.0001030391649692,0.0,-0.0043990658596158,0.0033060703426599,0.2445618510246276,0.9696181416511536,-0.0003509701326083,-4.8516010795942246e-05,-2.8805371760330613e-06,0.000550091266632,-0.0277889966964721,0.0053281784057617,0,0,0,0
14.1,1788183277251,0.0,0.0,-0.0023581874556839,0.0049792490899562,-0.2367821037769317,0.9715471267700196,0.0,0.0,0.0,-0.0002817489730659,-5.596371920546517e-05,-7.453676857949176e-07,-0.0044146627187728,0.0032989410683512,0.2445617616176605,0.969618022441864,-0.0003687928828105,-8.05853183546523e-05,-2.9839073198534678e-06,0.0020522475242614,0.037194550037384,-0.0049419403076171,0,0,0,0
14.2,1788183277351,0.0,0.0,-0.0023671251256018,0.0049791596829891,-0.2367820739746093,0.9715471267700196,0.0,0.0,0.0,-0.0003468887880444,-8.822801464702934e-05,-5.967337415313523e-07,-0.0044267019256949,0.0032903924584388,0.2445617616176605,0.969618022441864,-0.0001931916013855,-0.0001047767499358,-1.2925586523592185e-06,0.0034229755401611,0.0201696753501892,-0.0086555480957031,0,0,0,0
14.3,1788183277451,0.0,0.0,-0.0023807371035218,0.0049757026135921,-0.236782044172287,0.9715471267700196,0.0,0.0,0.0,-0.0001569635642226,-0.0001073863604688,-9.893798278426402e-07,-0.0044310884550213,0.0032837130129337,0.2445617616176605,0.969618022441864,-8.043183188610796e-05,-0.0001226799718129,-1.307057942073972e-06,0.0211488008499145,0.0282096862792968,0.0023908615112304,0,0,0,0
14.4,1788183277551,0.0,0.0,-0.0023852032609283,0.0049678077921271,-0.2367820888757705,0.9715471863746644,0.0,0.0,0.0,2.76820219369256e-06,-0.0002068469912046,-1.7716494085107115e-06,-0.0044282125309109,0.0032750368118286,0.2445617616176605,0.969618022441864,5.949364722473337e-05,-0.0002103275976366,-1.8921064655747758e-10,0.0005025267601013,-0.0215256214141845,0.0168333053588867,0,0,0,0
14.5,1788183277651,0.0,0.0,-0.0023826537653803,0.0049506928771734,-0.2367820292711258,0.9715472459793092,0.0,0.0,0.0,0.0001073194507625,-0.0001976092316908,7.444661491717852e-07,-0.0044185305014252,0.0032628895714879,0.2445617914199829,0.9696181416511536,0.0001477590421547,-0.0002497747425769,-3.896980818669767e-10,0.0053945183753967,0.0100651383399963,-0.0042047500610351,0,0,0,0
14.6,1788183277751,0.0,0.0,-0.0023800258059054,0.0049435123801231,-0.236782044172287,0.971547305583954,0.0,0.0,0.0,0.0,4.7755390752968205e-09,0.0,-0.0044035632163286,0.0032515525817871,0.2445618212223053,0.9696182608604432,0.0002084681138146,-0.0002448881972972,-7.694933689147003e-10,-0.0128089785575866,-0.004970908164978,0.00537109375,0,0,0,0
14.7,1788183277851,0.0,0.0,-0.0023722341284155,0.0049278689548373,-0.236782044172287,0.9715473651885986,4.463542511495426e-07,-8.613067526360874e-07,-2.215258166508824e-09,0.0003669843135867,-0.000434676912846,4.850480195273121e-07,-0.0043931175023317,0.0032427851110696,0.2445618212223053,0.9696182608604432,0.0001539587779963,-0.0002373397983174,-5.478752304284348e-10,-0.0146470069885253,-0.0153844356536865,-0.0054826736450195,0,0,0,0
14.8,1788183277951,0.0,0.0,-0.0023674797266721,0.0049084504134953,-0.2367821335792541,0.9715474247932434,0.0,0.0,0.0,6.529072561534122e-05,-0.0001950180449057,-2.3831789803807624e-06,-0.0043864594772458,0.0032336981967091,0.2445618510246276,0.9696183800697328,6.846607825502603e-05,-0.0002054513612003,-8.005593317452593e-07,-0.0037055015563964,-0.0058647394180297,0.0105810165405273,0,0,0,0
14.9,1788183278051,0.0,0.0,-0.0023674983531236,0.0049028410576283,-0.2367822080850601,0.971547544002533,0.0,0.0,0.0,8.955098564911168e-06,-8.611276280134916e-05,-1.4905755278959989e-06,-0.0043837167322635,0.0032282453030347,0.2445618510246276,0.9696183800697328,7.1132783989573615e-06,-0.0001050878250042,-1.1530390138216203e-11,-0.0049281120300292,-0.0071535110473632,-0.011143684387207,0,0,0,0
15.0,1788183278151,0.0,0.0,-0.0023680734448134,0.0049010757356882,-0.2367821782827377,0.9715474843978882,0.0,0.0,0.0,-5.64365063837613e-06,-7.399556488962844e-05,5.955377559985209e-07,-0.0043837679550051,0.0032274387776851,0.2445618510246276,0.9696183800697328,4.392483632026389e-06,3.962707757540689e-05,2.032114569708552e-12,-0.0003327131271362,-0.0216851234436035,0.017648696899414,0,0,0,0
15.1,1788183278251,0.0,0.0,-0.0023676264099776,0.0049029504880309,-0.2367821037769317,0.9715474843978882,0.0,0.0,0.0,3.282356146883103e-06,5.456720828078687e-05,2.5128085781034315e-06,-0.004384646192193,0.0032318141311407,0.2445618510246276,0.9696183800697328,3.908772524890686e-06,0.0001156283378802,9.917266025551436e-07,-0.0031439065933227,-2.7418136596679688e-05,-0.0057144165039062,0,0,0,0
15.2,1788183278351,0.0,0.0,-0.0023651071824133,0.004913667216897,-0.2367821484804153,0.9715474247932434,0.0,0.0,0.0,-1.7970156477531418e-05,0.0001677929540164,1.1936585906369146e-06,-0.0043876534327864,0.0032408367842435,0.2445618510246276,0.9696183800697328,-4.640492961628634e-05,0.0001637025897273,-1.1318243386126059e-10,0.0186960697174072,0.0200526714324951,0.0252790451049804,0,0,0,0
15.3,1788183278451,0.0,0.0,-0.0023662066087126,0.0049197538755834,-0.2367821186780929,0.9715474247932434,0.0,0.0,0.0,-5.784137101727538e-05,9.630254498915748e-05,7.437162707901734e-07,-0.0043925317004323,0.0032454691827297,0.2445618510246276,0.9696183800697328,-0.0001041869886183,0.0001071156526235,-1.6813163581172463e-10,0.031151533126831,-0.0043230056762695,-0.0234622955322265,0,0,0,0
15.4,1788183278551,0.0,0.0,-0.0023684073239564,0.0049227667041122,-0.2367821037769317,0.9715473651885986,0.0,0.0,0.0,-0.0001132385295932,9.55542564042844e-05,0.0,-0.0043989904224872,0.0032454933971166,0.2445618212223053,0.9696182608604432,-0.0001352445835992,-4.203306414925111e-06,9.226299901505294e-12,-0.0057044029235839,-0.0165750980377197,4.76837158203125e-05,0,0,0,0
15.5,1788183278651,0.0,0.0,-0.0023808870464563,0.0049250838346779,-0.2367820292711258,0.9715473651885986,0.0,0.0,0.0,-0.0001748329668771,-3.616306639742106e-05,-1.1969416391366394e-06,-0.0044068396091461,0.0032417895272374,0.2445618212223053,0.9696182608604432,-0.0001687283235125,-3.425116247562416e-05,-9.938260606271538e-07,0.0084068775177001,0.0069500207901,0.0131816864013671,0,0,0,0
15.6,1788183278751,0.0,0.0,-0.0023893332108855,0.0049245138652622,-0.2367820143699646,0.9715473651885986,0.0,0.0,0.0,-0.0001401460322085,-4.793000698555261e-05,-5.953171466899221e-07,-0.0044145919382572,0.0032368954271078,0.2445618212223053,0.9696182608604432,-0.0001463519117241,-4.516976862116382e-05,9.922701095712386e-11,0.0028367638587951,0.0159432291984558,0.016275405883789,0,0,0,0
15.7,1788183278851,0.0,0.0,-0.0023929579183459,0.0049240794032812,-0.2367820143699646,0.9715473651885986,0.0,0.0,0.0,-0.0001366843498544,-5.118798071634956e-05,-5.957773510090192e-07,-0.0044192746281623,0.0032331626862287,0.2445618212223053,0.9696182608604432,-0.0001101503789561,-5.034293781430009e-05,8.324816307197891e-11,0.0065302848815917,0.0212554335594177,-0.0075769424438476,0,0,0,0
15.8,1788183278951,0.0,0.0,-0.002397735370323,0.0049231527373194,-0.2367819845676422,0.9715474247932434,0.0,0.0,0.0,-0.0001029144550557,-4.5470642362488434e-05,0.0,-0.0044218208640813,0.003231986425817,0.2445618212223053,0.9696182608604432,-2.5738807292702597e-05,1.0938069899710915e-05,-4.437655862478137e-12,-0.0002605319023132,0.0079498887062072,0.0042695999145507,0,0,0,0
15.9,1788183279051,0.0,0.0,-0.0023994096554815,0.0049237571656703,-0.236781969666481,0.9715473651885986,0.0,0.0,0.0,2.414273239992326e-06,1.5310965864046011e-06,0.0,-0.004421804100275,0.0032322714105248,0.2445618212223053,0.9696182608604432,4.300821916803596e-06,-5.176484757522166e-06,-3.3445528713343694e-13,0.008556842803955,-0.0065155625343322,0.0091819763183593,0,0,0,0
16.0,1788183279151,0.0,0.0,-0.0023998115211725,0.004922482650727,-0.2367819547653198,0.9715473651885986,0.0,0.0,0.0,-4.911406904284377e-06,-4.492224252317101e-05,5.848000910191331e-07,-0.0044216550886631,0.0032306648790836,0.2445618212223053,0.9696182608604432,-1.3992072524431257e-05,-3.2195884368156004e-05,6.686600124555443e-12,-0.020207405090332,0.0207086205482482,-0.0289411544799804,0,0,0,0
16.1,1788183279251,0.0,0.0,-0.0023999940603971,0.0049219694919884,-0.2367819547653198,0.9715473651885986,0.0,0.0,0.0,-2.2308370262180688e-06,-2.172732638427988e-05,0.0,-0.0044200979173183,0.0032312339171767,0.2445618212223053,0.9696182608604432,6.498482247689021e-05,2.1378371253017777e-05,9.93281007442698e-07,0.0016916394233703,-0.0015984177589416,-0.0233173370361328,0,0,0,0
16.2,1788183279351,0.0,0.0,-0.0023944810964167,0.0049231764860451,-0.236781969666481,0.9715473651885986,0.0,0.0,0.0,0.0001088002973119,7.10419044480659e-05,0.0,-0.0044166939333081,0.003234595991671,0.2445618212223053,0.9696182608604432,0.0001047184876372,6.391224134266128e-05,9.214696882548504e-07,0.023571491241455,0.0176033973693847,-0.0046157836914062,0,0,0,0
16.3,1788183279451,0.0,0.0,-0.0023857960477471,0.0049251862801611,-0.2367820143699646,0.9715473651885986,0.0,0.0,0.0,0.0001474385499022,7.641020783921704e-05,9.904812259264872e-07,-0.0044104726985096,0.0032399389892816,0.2445619106292724,0.9696182608604432,0.000184358631687,9.68428391603462e-05,3.94204119723295e-06,0.011439025402069,0.036745011806488,-0.0328712463378906,0,0,0,0
16.4,1788183279551,0.0,0.0,-0.0023821166250854,0.0049259634688496,-0.2367820143699646,0.971547305583954,0.0,0.0,0.0,0.0001387947122566,6.658810161752626e-05,6.099818961047276e-07,-0.0044008735567331,0.0032474370673298,0.2445620447397232,0.9696182608604432,0.0002585411655407,0.0001123763196726,4.940395252428837e-06,-0.0083196759223937,-0.0269675850868225,0.0160999298095703,0,0,0,0
16.5,1788183279651,0.0,0.0,-0.002362817293033,0.0049319081008434,-0.2367818653583526,0.9715474247932434,0.0,0.0,0.0,0.0001142036489909,0.0001179536266135,1.4941551853553392e-06,-0.0043928828090429,0.0032575922086834,0.2445621788501739,0.9696182608604432,0.0001302631280834,0.0001601647032897,1.4398982595154783e-06,0.0084465146064758,-0.0081797242164611,0.0060682296752929,0,0,0,0
16.6,1788183279751,0.0,0.0,-0.0023592447396367,0.0049352580681443,-0.2367819100618362,0.9715474247932434,0.0,0.0,0.0,0.0001063346935552,0.0001628323661861,-5.91647051351174e-07,-0.0043905479833483,0.0032674567773938,0.2445621490478515,0.9696181416511536,5.4308446177681785e-05,0.0001434529893065,1.2921865796689667e-06,-0.0255211591720581,0.001225471496582,0.0053997039794921,0,0,0,0
16.7,1788183279851,0.0,0.0,-0.0023536756634712,0.0049437321722507,-0.2367819547653198,0.9715473651885986,0.0,0.0,0.0,4.362107574706897e-05,0.0001876818132586,1.8092991922458168e-06,-0.0043922420591115,0.0032763872295618,0.2445621490478515,0.9696181416511536,-2.440254367440833e-05,0.0002180539624919,-7.916256717941403e-11,-0.0106201767921447,-0.0088393092155456,0.0092906951904296,0,0,0,0
16.8,1788183279951,0.0,0.0,-0.0023525927681475,0.0049558216705918,-0.236781895160675,0.9715473651885986,0.0,0.0,0.0,-5.322927245288156e-05,0.000225999057875,1.9979024727945216e-06,-0.0043986095115542,0.0032882075756788,0.2445621192455291,0.969618022441864,-6.364182601504935e-05,0.0001905726280021,-1.260473383118898e-10,0.005579650402069,0.0093942880630493,0.016860008239746,0,0,0,0
16.9,1788183280051,0.0,0.0,-0.0023532579652965,0.0049658836796879,-0.2367818057537078,0.9715472459793092,0.0,0.0,0.0,0.0,1.1621504647507665e-08,0.0,-0.0044032204896211,0.0032947706058621,0.2445621192455291,0.969618022441864,-4.604259781698884e-05,0.0001290258785876,-8.821593619769473e-11,0.0196567773818969,0.0004175305366516,-0.0135583877563476,0,0,0,0
17.0,1788183280151,0.0,0.0,-0.0023538840468972,0.0049713840708136,-0.2367817908525467,0.9715472459793092,0.0,0.0,0.0,-7.493986777262762e-05,0.000203756178962,1.1687952792271972e-06,-0.0044062491506338,0.0032993517816066,0.2445621192455291,0.969618022441864,-3.8719476017760026e-05,0.0001224513525644,-7.516773798273525e-11,0.0054409503936767,0.0093522667884826,0.0094070434570312,0,0,0,0
17.1,1788183280251,0.0,0.0,-0.0023542162962257,0.0049786027520895,-0.2367817461490631,0.9715471863746644,0.0,0.0,0.0,-3.2903353712754324e-05,0.0001394299906678,1.18721050057502e-06,-0.0044092582538723,0.0033059082925319,0.2445621192455291,0.969618022441864,-3.1421779565663334e-05,0.0001765689439362,9.88362646917391e-07,0.0006299018859863,-0.0121429562568664,-0.0160551071166992,0,0,0,0
17.2,1788183280351,0.0,0.0,-0.0023530842736363,0.0049948780797421,-0.2367817461490631,0.9715471267700196,0.0,0.0,0.0,-4.553417238639668e-05,0.000229923374718,1.1914092965525924e-06,-0.0044146524742245,0.0033178487792611,0.2445620894432068,0.9696179032325744,-5.537402385089312e-05,0.0002248298410797,9.696213412086092e-07,0.0155566334724426,0.0023967027664184,0.0052223205566406,0,0,0,0
17.3,1788183280451,0.0,0.0,-0.0023534968495368,0.0050007896497845,-0.2367817312479019,0.9715471267700196,0.0,0.0,0.0,-7.223883585538715e-05,0.0002264602662762,1.1954969068028731e-06,-0.0044186692684888,0.0033238399773836,0.2445620894432068,0.9696179032325744,-9.956080830446029e-05,0.0002528518814003,-3.374082318948729e-10,0.0120795369148254,-0.0080774426460266,0.0087566375732421,0,0,0,0
17.4,1788183280551,0.0,0.0,-0.0023555774241685,0.0050098588690161,-0.2367817759513855,0.9715470671653748,0.0,0.0,0.0,-0.0001104597322409,0.0001970617158804,-1.1726183402060997e-06,-0.0044289287179708,0.0033325338736176,0.2445620596408844,0.9696177840232848,-0.0001599559937448,0.0001514017036338,-3.6237108320919087e-10,0.0079627633094787,0.0176437497138977,0.0337562561035156,0,0,0,0
17.5,1788183280651,0.0,0.0,-0.0023621823638677,0.0050190221518278,-0.2367817014455795,0.9715470671653748,0.0001647085005842,0.0001708829043783,-3.4813297786568586e-07,-0.0001332550746155,8.148159395204857e-05,4.930807335767895e-07,-0.0044371504336595,0.0033334456384181,0.2445620596408844,0.9696177840232848,-0.000177541759563,1.1674615744008483e-05,-9.340025406270262e-07,0.0070468783378601,0.0110341310501098,-0.0161867141723632,0,0,0,0
17.6,1788183280751,0.0,0.0,-0.0023770234547555,0.005017468240112,-0.2367818057537078,0.9715469479560852,0.0,0.0,0.0,-0.0001603049895493,-0.0001278586714761,-1.7848851712187752e-06,-0.0044464208185672,0.0033247554674744,0.2445620596408844,0.9696177840232848,-0.000152405759537,-0.0001338733069771,-9.628014188235697e-07,-0.0085188746452331,-0.0088112950325012,0.0022926330566406,0,0,0,0
17.7,1788183280851,0.0,0.0,-0.0023843445815145,0.0050143199041485,-0.2367818355560302,0.9715469479560852,0.0,0.0,0.0,-0.0001214944277307,-7.639364775968716e-05,-7.435470479322248e-07,-0.0044521307572722,0.0033181197941303,0.2445620596408844,0.9696177840232848,-0.0001587379754844,-9.696469212834612e-05,-9.94358475775209e-07,0.0168135166168212,-0.0015538334846496,0.0098199844360351,0,0,0,0
17.8,1788183280951,0.0,0.0,-0.0023886489216238,0.0050129974260926,-0.2367818355560302,0.97154700756073,0.0,0.0,0.0,-0.0001546715502627,-9.211173164658248e-05,-5.957857069915917e-07,-0.0044595245271921,0.0033126017078757,0.2445620596408844,0.9696177840232848,-0.0001735015857838,-4.549335722905912e-05,-9.243286638823722e-07,-0.0170546770095825,0.0167229771614074,0.0263252258300781,0,0,0,0
17.9,1788183281051,0.0,0.0,-0.0024021735880523,0.0050136018544435,-0.2367818504571914,0.9715469479560852,0.0,0.0,0.0,-0.0001522801612736,4.247716333338758e-06,-1.8003565855906345e-06,-0.0044669611379504,0.0033103516325354,0.244562029838562,0.9696176648139954,-0.0001458414832985,1.3587574628188056e-05,-2.9745772857397174e-11,0.0213183164596557,-0.0083889961242675,-0.0260429382324218,0,0,0,0
18.0,1788183281151,0.0,0.0,-0.0024094025138765,0.005015873350203,-0.236781969666481,0.9715468883514404,0.0,0.0,0.0,-0.0001336272543994,8.166653060470708e-06,-2.37980998463172e-06,-0.0044750738888978,0.0033089779317378,0.244562029838562,0.9696176648139954,-0.0001342082719081,1.928974132728562e-05,-9.94836172977122e-07,0.0087023973464965,0.005954086780548,0.0013628005981445,0,0,0,0
18.1,1788183281251,0.0,0.0,-0.0024139038287103,0.0050183152779936,-0.2367819100618362,0.9715468287467957,0.0,0.0,0.0,-8.680332393851131e-05,3.316405127407052e-05,-7.434974236275593e-07,-0.0044803572818636,0.0033093793317675,0.244562029838562,0.9696176648139954,-9.472852274879522e-05,3.992459409651451e-05,-5.6605957049986044e-11,-0.0252105593681335,0.0219179391860961,-0.0021610260009765,0,0,0,0
18.2,1788183281351,0.0,0.0,-0.0024158498272299,0.005019842647016,-0.2367819100618362,0.9715468287467957,0.0,0.0,0.0,-8.978098048828542e-05,4.079962309333496e-05,-5.940228220424615e-07,-0.0044836811721324,0.0033102808520197,0.244562029838562,0.9696176648139954,-4.3799383820164574e-05,3.51735922391404e-05,-2.5147867656381275e-11,-0.0162041783332824,-0.0053977966308593,-0.0009403228759765,0,0,0,0
18.3,1788183281451,0.0,0.0,-0.0024174249265342,0.0050227092579007,-0.2367818504571914,0.9715468287467957,0.0,0.0,0.0,-8.540474482288118e-06,5.457852603285573e-05,6.026354526511568e-07,-0.0044829891994595,0.0033141337335109,0.244562029838562,0.9696176648139954,6.314082988356446e-05,9.184486060854988e-05,8.443587211276804e-11,-0.0191749334335327,-0.0006513595581054,-0.0383272171020507,0,0,0,0
18.4,1788183281551,0.0,0.0,-0.0024132188409566,0.00502669531852,-0.2367818653583526,0.9715468287467957,0.0,0.0,0.0,7.170300523284823e-05,0.0001167969821835,5.952386459284753e-07,-0.0044819852337241,0.0033174660056829,0.244562029838562,0.9696176648139954,5.790308117232794e-05,9.7004441827736e-05,9.376131001651138e-07,-0.0228439569473266,-0.0170643329620361,0.0175199508666992,0,0,0,0
18.5,1788183281651,0.0,0.0,-0.0024073573295027,0.0050324294716119,-0.2367818802595138,0.9715468287467957,0.0,0.0,0.0,4.913213342661038e-05,8.642928878543898e-05,0.0,-0.0044794287532567,0.0033252891153097,0.244562029838562,0.9696176648139954,6.695793242641604e-05,0.0001084511079811,9.633192278331538e-07,0.0331324338912963,0.0098556876182556,-0.0162239074707031,0,0,0,0
18.6,1788183281751,0.0,0.0,-0.0024049235507845,0.0050344341434538,-0.2367818653583526,0.9715468287467957,0.0,0.0,0.0,7.426013326039538e-05,9.91515044006519e-05,1.171035705738177e-06,-0.0044772233814001,0.0033305417746305,0.2445620000362396,0.9696175456047058,6.062073785777141e-05,8.029090086596682e-05,1.000582398695897e-06,0.0096499919891357,-0.0026378035545349,-0.0182113647460937,0,0,0,0
18.7,1788183281851,0.0,0.0,-0.0023993225768208,0.0050400048494338,-0.2367818504571914,0.9715468287467957,0.0,0.0,0.0,4.467529652174562e-05,9.031605441123249e-05,0.0,-0.004476155154407,0.0033345548436045,0.2445620000362396,0.9696175456047058,4.32216889648692e-05,8.463861633451516e-05,9.429424652131144e-07,-0.0153170228004455,0.0063177943229675,-0.0182409286499023,0,0,0,0
18.8,1788183281951,0.0,0.0,-0.0023969756439328,0.0050436137244105,-0.2367818653583526,0.9715468287467957,0.0,0.0,0.0,5.740495544159785e-05,0.0001635520893614,6.000191206112504e-07,-0.0044750105589628,0.0033450163900852,0.2445620000362396,0.9696175456047058,7.174181845089686e-05,0.0001700237014555,9.647336761716337e-07,0.0282627940177917,-0.015795350074768,0.0450878143310546,0,0,0,0
18.9,1788183282051,0.0,0.0,-0.0023898463696241,0.0050526978448033,-0.2367818057537078,0.9715467691421508,0.0,0.0,0.0,6.098275844124146e-05,0.0001126439383369,1.4886608141750912e-06,-0.0044727865606546,0.003353102132678,0.2445620000362396,0.9696175456047058,9.296698247815777e-05,0.0001371629889242,1.0020649493716646e-06,0.0319302082061767,-0.0068341493606567,-0.0038747787475585,0,0,0,0
19.0,1788183282151,0.0,0.0,-0.0023868053685873,0.0050552431493997,-0.236781820654869,0.9715467691421508,0.0,0.0,0.0,9.413633233634756e-05,0.000127791397972,5.96448387568671e-07,-0.0044698985293507,0.0033580064773559,0.2445620000362396,0.9696175456047058,7.463419913203343e-05,6.993832937569536e-05,8.268906997221964e-11,-0.0080114603042602,-0.0086023211479187,0.0047416687011718,0,0,0,0
19.1,1788183282251,0.0,0.0,-0.0023815501481294,0.0050582392141222,-0.2367818802595138,0.9715467691421508,0.0,0.0,0.0,6.948304508114234e-05,6.432318332372233e-05,0.0,-0.0044676922261714,0.0033615585416555,0.2445620000362396,0.9696175456047058,6.391490956424006e-05,6.663064245497033e-05,6.380378747927775e-11,-0.0150395631790161,0.0023545622825622,-0.0186576843261718,0,0,0,0
19.2,1788183282351,0.0,0.0,-0.0023873392492532,0.0050674094818532,-0.236787274479866,0.9715453386306764,-1.7369298228955758e-05,2.3170559913133422e-05,1.1361306040464651e-08,-0.0004238624242134,0.0001789784437278,-0.0002243466151412,-0.0044832052662968,0.0033658370375633,0.2445503771305084,0.969620406627655,-0.0009848429570895,0.000417054379664,-0.0007725567391473,-0.0012315511703491,-0.0240094661712646,0.0115566253662109,95,112,-4364,4396
19.3,1788183282451,-3.126760482788086,3.633802890777588,-0.0024099526926875,0.0049459016881883,-0.2219310849905014,0.9750468134880066,-0.0058981435509269,0.0061797118474913,-4.104298053841147e-07,0.0010953298769891,-0.0113788330927491,0.6535712480545044,-0.0043381545692682,0.0033674919977784,0.2678949534893036,0.9634324908256532,0.006157636025823,0.0046094905158894,0.846753082971327,0.2478735446929931,-0.2367944717407226,0.3458261489868164,276,184,-14169,12333
19.4,1788183282551,-3.2676055431365967,3.380281686782837,-0.0015977263683453,0.0052925068885087,-0.1979361325502395,0.9801993370056152,0.0122657853915843,-0.0074138336370344,-7.659473028139452e-06,0.0242469422519207,0.0173217859119176,0.977584183216095,-0.00191798992455,0.006055905483663,0.3202306926250458,0.9473183155059814,0.0577461421102081,0.0299385624825943,0.97189836559493,-0.2187140583992004,-0.1202996969223022,-0.0649309158325195,376,60,-15128,9676
19.5,1788183282651,-3.7183098793029785,3.380281686782837,0.0017664763145148,0.0065770512446761,-0.144018292427063,0.989551603794098,0.0078567199572251,-0.0046832567891546,-4.231773592986018e-06,0.0382668189704418,0.0189907122403383,1.0027284622192385,-0.0016365926712751,0.006217916496098,0.3551109731197357,0.934801995754242,-0.0297856223725353,-0.0235575701353236,1.0801713993274362,-0.5413130521774292,-0.1420998573303222,-0.034041404724121,137,42,-12456,9166
19.6,1788183282751,-3.183098554611206,3.2676055431365967,-0.0021095739211887,0.0043220715597271,-0.088490679860115,0.9960653781890868,-0.0103327963767746,-0.0074856361837138,3.214477366883109e-06,-0.1248506978154182,-0.0824267193675041,1.142833948135376,-0.0039635319262743,0.0027350764721632,0.4132368564605713,0.910610854625702,0.0085657761955313,0.0071275226450847,0.8550972112934409,-0.4086382389068603,0.244310200214386,0.9574012756347656,243,56,-13032,9536
19.7,1788183282851,-3.436619758605957,3.323943614959717,-0.0022580889053642,0.004198501817882,-0.0214191544800996,0.9997592568397522,0.0046507757273931,-0.0042543324605899,5.03054866110706e-07,-0.0005224483320489,-0.0105243381112813,0.9904965758323668,-0.0038032159209251,0.0026581585407257,0.4572502970695495,0.8893259763717651,0.0116892697774121,-0.0104960809305317,1.0214912171882653,-0.2937339544296264,0.281581163406372,0.0330514907836914,213,48,-12900,9686
19.8,1788183282951,-3.3521127700805664,3.1549296379089355,-0.0022830793168395,0.0038656345568597,0.0042927302420139,0.9999806880950928,0.0011789974455659,-0.0052202164860872,-4.090724681304413e-07,-0.0050160395912826,-0.015704384073615,1.0291635990142822,-0.0035340199247002,0.0019837925210595,0.4973096251487732,0.8675637245178223,0.013350565227183,-0.0044206869568681,0.9278435572088962,0.2116848826408386,-0.0269734263420104,-0.4653921127319336,156,83,-12381,10106
19.9,1788183283051,-3.014084577560425,3.323943614959717,-0.0025603070389479,0.0029724689666181,0.0586488842964172,0.9982709288597108,0.0049707035180646,-0.0030810641335321,-1.7550980312765714e-07,-0.0138966897502541,-0.0135020809248089,0.967287540435791,-0.0034421067684888,0.0011706426739692,0.5388261675834656,0.842409074306488,0.0056183680542355,-0.0227933692115349,0.9775225326129574,0.3801646828651428,-0.2104616165161132,-0.3684549331665039,264,67,-14347,9582
20.0,1788183283151,-3.3521127700805664,3.4084506034851074,-0.0027417761739343,0.0017906873254105,0.1310174465179443,0.991374671459198,0.0035679019870404,-0.0049432377738653,2.01311833761453e-06,0.0054641840979456,-0.0226449407637119,1.0057984590530396,-0.0032723192125558,0.0002872822806239,0.5872802138328552,0.8093769550323486,0.0016428083186343,-0.0052135961880863,1.0228078346286036,-0.1795374155044555,0.274876594543457,0.0963201522827148,259,50,-14095,9530
20.1,1788183283251,-3.1549296379089355,3.2676055431365967,-0.0030529263895004,0.0007915064343251,0.1758636236190796,0.9844094514846802,0.0054334204947272,-0.0041920986222742,2.5798093889047384e-06,-0.0112800626084208,-0.0215027574449777,1.0005911588668823,-0.0029578804969787,-0.0008568903431296,0.6230829358100891,0.7821496725082397,-0.0014760384406387,-0.0210863992730473,0.98275627778319,-0.0439982414245605,0.1045684218406677,0.0243816375732421,243,68,-14352,9678
20.2,1788183283351,-3.2957746982574463,3.239436626434326,-0.0031343577429652,0.000628437846899,0.1996092349290847,0.9798703789711,0.0027505604181208,-0.0060387954949696,-1.345470243216741e-07,-0.0056232400238513,-0.0085488548502326,0.9606988430023192,-0.0028821788728237,-0.0010599708184599,0.6570919156074524,0.7538042068481445,0.0054363215883942,-0.0100407711577121,0.9845190367979676,0.1241107583045959,-0.0827501416206359,0.2506475448608398,303,68,-14401,9881
20.3,1788183283451,-3.0422534942626958,3.211267709732056,-0.0031253066845238,0.0002172235981561,0.2479805648326873,0.9687600135803224,0.0023286368739294,-0.0061712519925585,3.52174060838906e-07,-0.0055763022974133,-0.0090474355965852,0.9929879903793336,-0.0025418940931558,-0.0016533713787794,0.6934089064598083,0.7205379009246826,0.0049994207871404,-0.0129147967500008,0.9953844655488228,0.2446745038032531,0.2764500975608825,-0.0921440124511718,370,84,-16108,10111
20.4,1788183283551,-3.183098554611206,3.2676055431365967,-0.003225473454222,-0.0003304835991002,0.299158900976181,0.9541977643966676,0.0042942387648945,0.0033653815082849,6.130102688156528e-07,-0.0092649077996611,-0.0024003139697015,0.9487815499305724,-0.0020082164555788,-0.0023428099229931,0.7276378273963928,0.6859546303749084,0.0055385480300491,-0.044139717599812,1.0775332015227408,0.230933666229248,0.3971844315528869,-0.9843120574951172,403,68,-17185,9854
20.5,1788183283651,-3.014084577560425,3.3521127700805664,-0.0029838732443749,-0.0014917447697371,0.3639128506183624,0.9314269423484802,0.0056445222319623,-0.0102420767825227,7.847686485849136e-07,-0.0005232780822552,-0.0023928338196128,1.000331997871399,-0.0019552474841475,-0.0026926593855023,0.7569714784622192,0.6534395217895508,0.0017819340354445,0.0009383662863782,0.978872407628322,0.2486189007759094,-0.1470849514007568,0.1199178695678711,492,80,-19197,9706
20.6,1788183283751,-3.2957746982574463,3.2957746982574463,-0.0026824865490198,-0.0019304344896227,0.4079571962356567,0.9129950404167176,0.0052986599219257,-0.0087116021881368,2.6638694740941287e-06,0.0043170228600502,-0.0242101326584815,0.9708564877510072,-0.0014698291197419,-0.0029600532725453,0.7872467637062073,0.6166293025016785,0.0067288201739045,-0.0294165661893929,0.997669636742653,0.0377216935157775,0.0342559218406677,0.1934337615966797,647,54,-20487,9856
20.7,1788183283851,-3.4084506034851074,3.380281686782837,-0.0026363662909716,-0.0021066474728286,0.4301143288612366,0.902768075466156,0.0050153138507684,-9.273238587284817e-05,-6.702302788076187e-08,-0.0005842955433763,-0.0104745114222168,0.9873016476631165,-0.001050878316164,-0.0031160926446318,0.8234121203422546,0.5674343705177307,0.0132553631486408,-0.0073968611996722,1.1627841576392175,-0.040593147277832,0.1511907577514648,-0.1997461318969726,465,43,-19368,9470
20.8,1788183283951,-3.2957746982574463,3.070422649383545,-0.002234912244603,-0.0022644947748631,0.5029303431510925,0.8643211722373962,0.0041784687911656,-0.0060919869379528,8.253713292617217e-08,0.0062953033484518,0.0020791378337889,1.0281736850738523,-0.0009933030232787,-0.0028989128768444,0.8537198901176453,0.5207234621047974,0.0090471754486929,0.0106307748757689,1.0080036519005142,-0.2424811124801635,0.0527535080909729,0.6359186172485352,457,43,-18157,9162
20.9,1788183284051,-3.2676055431365967,2.7887322902679443,-0.0021257565822452,-0.0017987022874876,0.541279673576355,0.8408379554748535,-0.0047507849470003,-0.0083890371261302,-8.230870548541538e-07,0.0096689704805612,-0.0041570733301341,0.999819815158844,-0.0010411636903882,-0.0024933591485023,0.8761451840400696,0.4820397198200226,0.0087500530301153,-0.0002830521468243,0.9770530769956652,0.1704549789428711,0.2492321133613586,-0.5325717926025391,220,17,-12992,6789
21.0,1788183284151,-1.0704225301742554,0.0,-0.002247623167932,-0.0015915869735181,0.5599133372306824,0.8285465836524963,0.0019789370401867,-0.001163717178468,4.860505898583868e-07,0.0006809593178331,0.0071352855302393,0.8927997350692749,-0.0012893546372652,-0.0022323615849018,0.8892216086387634,0.457469493150711,0.0096411703199404,-0.0039183407189161,0.3820449993772603,0.0750142335891723,0.1938894987106323,0.1510610580444336,59,42,-1769,1348
21.1,1788183284251,0.0,0.112676054239273,-0.0021598546300083,-0.0013876338489353,0.5764287114143372,0.8171433806419373,0.000862676276444,-0.0045395560904511,-8.813576613553847e-07,0.0020779345650225,-0.0002792975574266,0.2279789745807647,-0.001322878524661,-0.0022141514346003,0.8912357091903687,0.4535332024097442,0.001441613589592,0.005688491609403,-0.0292791565578899,-0.261165976524353,-0.1199592947959899,0.0315217971801757,203,235,-7256,6860
21.2,1788183284351,-2.7887322902679443,3.2957746982574463,-0.0018761962419375,-0.0014900591922923,0.5890423655509949,0.8080986142158508,-0.0084489762390813,0.0016708732554044,7.242850227722612e-07,0.0127288652583956,-0.0155673408880829,0.628058671951294,-0.000799786299467,-0.0022866250947117,0.900343120098114,0.4351740181446075,0.0030855447916547,-0.0296093556671828,0.8163747242756281,0.3067371845245361,0.5323554277420044,-0.8253602981567383,171,220,-10271,12828
21.3,1788183284451,-2.169013977050781,3.1549296379089355,-0.0019533571321517,-0.0019224705174565,0.6230664253234863,0.7821641564369202,0.036808860364359,-0.0147001683446221,2.7620257093252483e-06,-0.0034908016677945,0.0012235505273565,0.9144065380096436,-0.0009782323613762,-0.0026449365541338,0.9192076921463012,0.3937629163265228,-0.0079644787152735,0.0106806109446866,0.7454421785178018,-0.9740780591964722,-0.0154063701629638,0.2210607528686523,160,78,-10054,10274
21.4,1788183284551,-3.014084577560425,3.802816867828369,-0.0021574106067419,-0.0018866560421884,0.6371775269508362,0.7707117199897766,0.0144331069160949,-0.00069914737223,-1.5491828337880637e-07,-0.0053052394650876,0.004226011224091,0.7274786233901978,-0.000906036235392,-0.0025896960869431,0.934394598007202,0.3562290966510772,-0.0002972554694478,-0.0059421207825617,0.9866234913218388,0.2088057398796081,-0.0028052926063537,-0.1311473846435547,120,84,-10577,10976
21.5,1788183284651,-2.760563373565674,3.6056337356567374,-0.0018142316257581,-0.00195969408378,0.6789597272872925,0.7341707348823547,0.0174230838410349,-0.003475207697351,3.146322754974606e-06,0.0053010955452919,-0.0111940717324614,1.050586223602295,-0.0005007404834032,-0.0025345589965581,0.9513633847236632,0.3080603182315826,0.003899502541925,-0.01716961022623,0.9838242589070932,0.4611423015594482,-0.5002222061157227,-0.1267242431640625,176,46,-10916,10631
21.6,1788183284751,-2.169013977050781,3.323943614959717,-0.001198370475322,-0.0001055486500263,0.7281219363212585,0.6854465007781982,0.0269665152730734,-0.0055622264192242,-7.932040175533335e-06,0.0390388332307338,0.0339129902422428,0.8326647877693176,-0.0012015430256724,-0.0003997161984443,0.9651088118553162,0.2618461549282074,0.0459501932923159,0.0538318781664447,0.7898983962477616,-0.2876345515251159,0.0724912881851196,-0.6485376358032227,296,47,-12611,9386
21.7,1788183284851,-2.507042169570923,3.521126747131348,-0.0016840441385284,0.0013199048116803,0.7420178651809692,0.6703768372535706,0.0174212326737361,-0.0030180595540601,-1.0951247077973294e-05,0.0275626499205827,0.0525485239923,0.8207528591156006,-0.0027731386944651,0.001319708302617,0.9755151271820068,0.2199112325906753,0.0163111976876705,0.0116822246609342,0.9337569182767338,0.4101559519767761,0.0048853754997253,0.0386543273925781,221,120,-11403,12269
21.8,1788183284951,-1.436619758605957,7.183098793029785,-0.0020559190306812,0.002342581981793,0.7697789072990417,0.6383031010627747,0.025896573995413,-0.0069611342427898,-7.995151740117183e-06,-0.0056442678906023,0.0089362636208534,0.9769604802131652,-0.0026896903291344,0.000120592303574,0.9852903485298156,0.1708675473928451,-0.0429395683104449,-0.0123704213626057,1.1545092816197493,0.4229115843772888,0.281072735786438,0.1852569580078125,43,183,-5010,21357
21.9,1788183285051,-1.042253494262695,8.14084529876709,-0.0022784492466598,-0.0001760914456099,0.8107130527496338,0.5854392051696777,0.0901495217855933,-0.0070882665393376,6.389261076883535e-05,-0.0514713004231452,-0.0324528366327285,1.2912980318069458,-0.0019486565142869,-0.0019302787259221,0.9929994940757751,0.1180871948599815,-0.0443090972662309,-0.0111526485615826,1.2154162483653124,0.1294562220573425,0.2196360230445861,-0.2797451019287109,103,27,-6697,19079
22.0,1788183285151,-1.774647831916809,5.352112770080566,-0.0035063070245087,-0.0022195817437022,0.8672143220901489,0.4979177713394165,0.094798995225863,-0.0068660037721555,-1.343237685807316e-05,-0.0195616986602544,-0.0008213586988858,1.277712345123291,-0.0023114960640668,-0.0036656698212027,0.9997007846832277,0.0240750517696142,-0.0100331747383282,0.0067792643942331,1.1231306752511463,-0.754805862903595,-0.1733081340789795,-0.3031759262084961,309,58,-12075,10609
22.1,1788183285251,-1.7464789152145386,4.02816915512085,-0.0039488226175308,-0.0021873072255402,0.8892139792442322,0.4574692547321319,0.0337058400442198,-0.0072322879248776,-1.0952578653396608e-05,-0.0069707762449979,0.0202677063643932,0.9842569828033448,0.0024283360689878,0.0037756245583295,-0.99978107213974,0.0204393323510885,-0.0036077050929502,-0.0083432344572826,0.9571527786099072,0.3644053339958191,-0.4369978308677673,0.4962997436523437,190,20,-9592,9845
22.2,1788183285351,-0.9014084339141846,1.94366192817688,-0.0043426495976746,-0.0021362868137657,0.9067619442939758,0.4216152131557464,0.0398582532916379,-0.0061248354142262,-4.381148455439539e-06,-0.0070493067614734,0.0089912014082074,0.6850574612617493,0.0027610249817371,0.0038971062749624,-0.9985803365707396,0.0530521869659423,-0.0050040764046839,-0.0009370532639439,0.4930964436727899,-0.3053553104400635,-0.5694254636764526,0.0455923080444335,157,71,-5554,1750
22.3,1788183285451,0.0,0.0,-0.00424564210698,-0.002216599881649,0.9099234342575072,0.4147484600543976,0.0001042921934534,-0.0025765815828802,-5.486177085676227e-07,-0.0016045678639784,-0.0028283314313739,0.0085426531732082,0.002718168310821,0.0039433939382433,-0.9982804656028748,0.0584227442741394,-0.0021569065275017,-0.0028074235685567,-0.0396158231302911,-0.075535237789154,0.0583423972129821,-0.0226144790649414,0,4,0,0
22.4,1788183285551,0.0,0.0,-0.0042152181267738,-0.0022092880681157,0.909536063671112,0.4155977070331573,-0.0040078644456782,0.0021548846601167,-1.893190311829111e-07,0.0008775280439294,-0.0008418860961683,-0.037201665341854,0.0027276882901787,0.003933441825211,-0.9983309507369996,0.0575541071593761,-0.000201836979908,0.002433356003899,0.002043798661068,-0.0360682010650634,-0.0587089657783508,0.0129890441894531,0,0,0,0
22.5,1788183285651,0.0,0.0,-0.0042370366863906,-0.0021737872157245,0.9095416069030762,0.4155856072902679,-2.5457536390205653e-05,2.9947774091878088e-05,7.498432856934033e-08,0.0003835514362435,0.0008423843537457,-0.000285390211502,0.0027323449030518,0.0039061736315488,-0.9983344078063964,0.0574950128793716,-0.0003537999410718,0.0009038316743286,-0.0017291592818033,-0.0233768224716186,-0.0502039790153503,-0.0012893676757812,0,0,0,0
22.6,1788183285751,0.0,0.0,-0.0042407885193824,-0.0021767108701169,0.909559428691864,0.41554656624794,0.0001493351760199,-0.0001734329739849,-4.154172583376723e-07,-0.0001737358106765,8.144477033056319e-05,0.0017160379793494,0.0027284622192382,0.0038914615288376,-0.9983338117599488,0.057506613433361,-1.6341621800304423e-05,0.0020150164501474,-0.0018094815685054,0.0104682445526123,-0.0398930311203002,0.0420074462890625,0,0,0,0
22.7,1788183285851,0.0,0.0,-0.0042559877038002,-0.0021503926254808,0.9095380306243896,0.4155933856964111,1.628395742356917e-05,-1.9389387631595317e-05,-4.80389125794027e-08,0.000573810597416,-0.0001041736395563,0.0001860171032603,0.0027626836672425,0.0038945134729146,-0.9983342885971068,0.0574972368776798,0.0001511873509292,0.0007609530871539,0.0003304765503154,0.0184820890426635,-0.0379248261451721,0.0061292648315429,0,0,0,0
22.8,1788183285951,0.0,0.0,-0.0042809094302356,-0.0021444170270115,0.9095475077629088,0.4155721664428711,0.0001213229893524,-0.0001429878629573,-3.412769794015845e-07,-0.0001728779316181,0.0007247077301144,0.0014012187020853,0.0027851555496454,0.0038954056799411,-0.9983330368995668,0.0575178638100624,0.0003928870691442,0.0003831869332899,-0.0004418192989901,-0.0043774843215942,-0.0091511607170104,-0.0046272277832031,0,0,0,0
22.9,1788183286051,0.0,0.0,-0.0042719510383903,-0.0021623114589601,0.9095619320869446,0.4155407547950744,3.450759625475118e-05,-3.77922420442913e-05,-7.555803294978759e-08,-0.0004205638542771,-0.0003612707951106,0.0003796998935285,0.0027774488553404,0.0039219744503498,-0.9983314871788024,0.0575422011315822,-0.0009094489326042,0.0007682830885331,-0.000746906912619,0.0004358887672424,-0.0020277500152587,0.0112285614013671,0,0,0,0
23.0,1788183286151,0.0,0.0,-0.0042792498134076,-0.0021664965897798,0.9095685482025146,0.4155262112617492,5.54077888470414e-05,-6.686819444047812e-05,-1.6942495368719917e-07,-0.0002749457489699,0.0001932083978317,0.0006364993168972,0.0027627646923065,0.0038956003263592,-0.9983310699462892,0.0575515627861022,-1.978110542020501e-05,-0.001249304975102,-0.0005242121461963,0.0094344019889831,-0.0056505799293518,-0.0194644927978515,0,0,0,0
23.1,1788183286251,0.0,0.0,-0.0042597148567438,-0.0021473336964845,0.9095593690872192,0.4155464768409729,5.359206734722311e-05,-6.190335840881693e-05,-1.4475394430798492e-07,0.0003836335672531,0.000594729266595,0.0006180242053233,0.0027573965489864,0.0038823178038001,-0.9983312487602234,0.0575491823256015,0.0012102310466422,-0.0004780618845587,0.0005077859650695,-0.0029232501983642,-0.0125723481178283,0.0040445327758789,0,0,0,0
23.2,1788183286351,0.0,0.0,-0.0042791445739567,-0.0021613871213048,0.9095622897148132,0.4155398607254028,4.69167335686461e-05,-5.324017081054746e-05,-1.1749157714987089e-07,-0.0010192985646426,0.001044220291078,0.0005411006277427,0.0027735838666558,0.0039102314040064,-0.99833083152771,0.0575547590851783,-0.0011216822828712,0.0015725443401744,0.0009246605750508,-8.893013000488281e-05,0.0170813798904418,0.0009059906005859,0,0,0,0
23.3,1788183286451,0.0,0.0,-0.0042609451338648,-0.0021801837719976,0.9095768928527832,0.4155080318450928,0.0001208824517053,-0.0001425093029983,-3.433001883822766e-07,-0.000385345716495,-0.0009792764903977,0.0013951712753623,0.0027494113892316,0.0039099268615245,-0.9983313083648682,0.0575480610132217,0.0003295411403047,-0.0001126411357503,-0.001764947384674,-0.0109918713569641,-0.0347292423248291,0.013951301574707,0,0,0,0
23.4,1788183286551,0.0,0.0,-0.0042600519955158,-0.0021708845160901,0.9095667600631714,0.415530264377594,1.824399338502429e-05,-2.201807075035037e-05,-5.655151425214957e-08,-5.945900920778513e-05,0.0001916350302053,0.000218591740122,0.0027455585077404,0.0038837790489196,-0.998330533504486,0.0575639978051185,-0.0003710193462166,0.0011173415468262,-0.0012712579266549,-9.673833847045898e-05,-0.0207982063293457,0.0115413665771484,0,0,0,0
23.5,1788183286651,0.0,0.0,-0.0042774332687258,-0.0021420093253254,0.9095686674118042,0.4155260026454925,-4.772781424544836e-05,5.392793005685431e-05,1.1914522032721997e-07,-0.0004817869630642,0.0021086828783154,-0.0005210989620536,0.0027893977239727,0.0039263051003217,-0.9983292818069458,0.0575807131826877,-0.0016388212798509,5.5787145571746185e-05,-0.0002187805621674,-0.0137082338333129,-0.0072718858718872,0.0102128982543945,0,0,0,0
23.6,1788183286751,0.0,0.0,-0.0042958771809935,-0.0021933182142674,0.9095749258995056,0.4155120253562927,-2.9313314974419365e-05,3.1696477656127165e-05,6.429642532737502e-08,-0.0002716659510042,0.0005159176071174,-0.000314668403007,0.0027733501046895,0.0039375107735395,-0.9983291625976562,0.057581540197134,0.0011714269883039,0.0003911362941728,0.000665847757827,0.0108014345169067,-0.0069807767868041,-0.0069799423217773,0,0,0,0
23.7,1788183286851,0.0,0.0,-0.0042844386771321,-0.0022629268933087,0.9095679521560668,0.4155269265174866,-0.00013121801506,0.0001530204678302,3.756604148645921e-07,-0.0023862943053245,-0.001605148310773,-0.0015190750127658,0.0027477107942104,0.0040337005630135,-0.9983310699462892,0.0575439818203449,-0.0020134032427111,0.0012531998706491,-0.0016530890478358,2.8967857360839844e-05,0.0125073194503784,-0.0245704650878906,0,0,0,0
23.8,1788183286951,0.0,0.0,-0.0043234792537987,-0.0023051076568663,0.9095543026924132,0.415556252002716,-0.0001129147890816,0.0001287418531438,3.20682242754148e-07,-0.0021392041817307,0.0007108317804522,-0.00127403519582,0.0026990100741386,0.0040907682850956,-0.9983309507369996,0.057544145733118,-0.0006445042576064,-0.0007340790154261,-0.0002562761845468,-0.0128000378608703,0.0179475545883178,-0.0045995712280273,0,0,0,0
23.9,1788183287051,0.0,0.0,-0.004312883131206,-0.0024530906230211,0.9095571041107178,0.4155492484569549,-1.7847880107040036e-06,1.5455590264409754e-06,1.8654984349498104e-09,-0.0020280627068132,-0.0005462716217152,-1.4165876564220524e-05,0.0026583354920148,0.0042130621150135,-0.9983305931091307,0.0575436204671859,-0.0021622061690569,-0.0005271886284748,-1.704413560093664e-05,-0.0046825408935546,-0.0127844214439392,0.0031147003173828,0,0,0,0
24.0,1788183287151,0.0,0.0,-0.0043248855508863,-0.0025117816403508,0.909556806087494,0.4155493974685669,-1.803509632076693e-06,1.5617689215279512e-06,2.0947341488384212e-09,-0.0023363423533737,-0.000539178145118,-1.789308043953497e-05,0.0026363926008343,0.0042959731072187,-0.9983303546905518,0.0575432851910591,-0.0017531539507423,-0.0003239817129607,-1.2932451084186292e-05,-0.0057426691055297,-0.0086956024169921,0.0107421875,0,0,0,0
24.1,1788183287251,0.0,0.0,-0.0043551679700613,-0.0026260812301188,0.9095563292503356,0.4155495464801788,-1.128844311980031e-06,9.775303993083577e-07,1.6699046829304947e-09,-0.0012925192713737,-0.0001823423808673,-7.466354873031378e-06,0.0026187868788838,0.0043814517557621,-0.9983299970626832,0.0575429648160934,-0.0016682215498951,-0.0002305382092912,-1.1638012393035507e-05,0.005560278892517,-0.013449490070343,-0.0055017471313476,0,0,0,0
24.2,1788183287351,0.0,0.0,-0.0043673547916114,-0.0026662312448024,0.9095560908317566,0.4155496954917907,-1.8017327370573995e-06,1.5602217641043912e-06,2.758918720512301e-09,-0.0016627671429887,-0.0002238523011328,-1.549202534079086e-05,0.002606208436191,0.0044538360089063,-0.998329758644104,0.057542685419321,-0.0014997659625169,-0.0001560088603286,-1.0735352285561413e-05,-0.0031487941741943,0.0124650597572326,0.0050010681152343,0,0,0,0
24.3,1788183287451,0.0,0.0,-0.0043948711827397,-0.0027499683201313,0.9095556139945984,0.4155498445034027,-1.5029582471305749e-06,1.3014918398956892e-06,2.5693102734691023e-09,-0.0013009309768676,-0.0001445608213543,-9.94078982330393e-06,0.0025949766859412,0.004514979198575,-0.9983295202255248,0.0575424507260322,-0.0013037782049245,-0.0001835388266192,-9.560661277042672e-06,-0.0197663903236389,0.0186758637428283,-0.0165863037109375,0,0,0,0
24.4,1788183287551,0.0,0.0,-0.0044183721765875,-0.0028298357501626,0.9095552563667296,0.4155498445034027,-1.8488691599295929e-06,1.601031732782955e-06,3.44313087695792e-09,-0.0018174978904426,-0.0002680183679331,-1.3451553058985157e-05,0.0025749253109097,0.0046079698950052,-0.9983291625976562,0.0575420893728733,-0.0013257181694856,-0.0002289165064151,-9.723099436375666e-06,-0.0060479044914245,-0.0130996108055114,0.0138492584228515,0,0,0,0
24.5,1788183287651,0.0,0.0,-0.0044411411508917,-0.0029169633053243,0.9095548391342164,0.4155498445034027,-1.1366958891609994e-06,9.843207750998962e-07,2.3819804152923583e-09,-0.0009872770169749,-0.0001834456052165,-6.014609880367061e-06,0.0025622537359595,0.0046602794900536,-0.9983289241790771,0.0575418695807457,-0.0012433334957959,-0.0002314476707979,-9.320966350609608e-06,-0.0060833692550659,-0.0090895295143127,-0.0127859115600585,0,0,0,0
24.6,1788183287751,0.0,0.0,-0.0044563459232449,-0.00298204110004,0.909554660320282,0.4155498743057251,-9.114257405925372e-07,7.892472117234388e-07,2.0073905369782653e-09,-0.0013954363530501,-0.0002904506109189,-7.233949418150587e-06,0.0025439774617552,0.004729401320219,-0.998328685760498,0.057541586458683,-0.0011036577235191,-0.0002273574159291,-8.706056576960464e-06,0.0009160637855529,-0.0002302527427673,-0.0032205581665039,0,0,0,0
24.7,1788183287851,0.0,0.0,-0.0044675664976239,-0.0030331797897815,0.9095542430877686,0.4155499935150146,-7.396114680516673e-07,6.404635563062508e-07,1.7261620988917542e-09,-0.0008022921392694,-0.0001819781464291,-5.870262612006627e-06,0.0025314660742878,0.0047736186534166,-0.9983285665512084,0.0575414113700389,-0.0009361547888801,-0.0002254113472788,-7.405058037283106e-06,-0.0013335347175598,-0.0007911920547485,0.0445537567138671,0,0,0,0
24.8,1788183287951,0.0,0.0,-0.0044746743515133,-0.0030799843370914,0.9095540642738342,0.4155502319335937,-9.012107215336966e-07,7.803980138342795e-07,2.2051082396363504e-09,-0.000764797499869,-0.0002431042084936,-5.960719136055559e-06,0.0025143604725599,0.0048206932842731,-0.9983283281326294,0.0575411990284919,-0.0007168457799807,-0.0002499617057413,-5.948036269976436e-06,0.0037431716918945,0.0039571523666381,0.0059375762939453,0,0,0,0
24.9,1788183288051,0.0,0.0,-0.0044764317572116,-0.0031086970120668,0.9095539450645448,0.4155502319335937,0.0,0.0,0.0,-0.0004827835946343,-0.0001995538186747,-1.4923398339306004e-06,0.0025005936622619,0.0048490539193153,-0.9983282089233398,0.0575410574674606,-0.000607427140213,-0.000279497013537,-5.80574437778658e-06,-0.0075960755348205,-0.0033389925956726,0.0038986206054687,0,0,0,0
25.0,1788183288151,0.0,0.0,-0.0044761588796973,-0.0031257204245775,0.9095538854599,0.4155502021312713,-8.992714596337439e-07,7.787175309024574e-07,2.3014651572601767e-09,-0.0006135340081527,-0.0002922829589806,-2.379155375820119e-06,0.0024855136871337,0.0048748021945357,-0.9983282089233398,0.0575409233570098,-0.0005473762734386,-0.0002782225911426,-5.578287013895953e-06,0.0011593699455261,0.0059372186660766,0.0003318786621093,0,0,0,0
25.1,1788183288251,0.0,0.0,-0.0044749667868018,-0.0031617663335055,0.9095537662506104,0.415550172328949,0.0,0.0,0.0,-0.000585381523706,-0.0002709449327085,-5.941231847828021e-06,0.002473609521985,0.0048975106328725,-0.9983280897140504,0.0575407966971397,-0.0005477230134622,-0.0002361808987961,-5.617114531273681e-06,-0.0023655891418457,0.015261173248291,0.0150222778320312,0,0,0,0
25.2,1788183288351,0.0,0.0,-0.0044757835566997,-0.0032086819410324,0.9095535278320312,0.415550172328949,-9.032010475149544e-07,7.821190233982493e-07,2.481930159580068e-09,-0.000806184078101,-0.0003570138360373,-9.558203601045534e-06,0.0024569705128669,0.0049302745610475,-0.9983279705047609,0.057540625333786,-0.0004434765021537,-0.0002052831972413,-4.322551794087412e-06,-0.0112353563308715,-0.0136915445327758,-0.0095243453979492,0,0,0,0
25.3,1788183288451,0.0,0.0,-0.0044754100963473,-0.0032278227154165,0.9095534682273864,0.4155502617359161,0.0,0.0,0.0,-0.0003125864022877,-0.0001523276587249,-1.4863501291983994e-06,0.0024466542527079,0.0049486253410577,-0.9983279705047609,0.0575405210256576,-0.0003960152225694,-0.0002012333751578,-4.465140538060609e-06,-0.0077298283576965,0.025689423084259,-0.0073461532592773,0,0,0,0
25.4,1788183288551,0.0,0.0,-0.0044748736545443,-0.0032382779754698,0.9095533490180968,0.4155503213405609,-9.005638340858226e-07,7.798339270683534e-07,2.563932544693865e-09,-0.0003712252364493,-0.0001931558799697,-5.9564308685367e-06,0.002438036724925,0.0049628121778368,-0.9983278512954712,0.0575404278934001,-0.00029512979577,-0.000150105114454,-2.973246059766857e-06,0.0176895856857299,-0.0017497539520263,-0.010660171508789,0,0,0,0
25.5,1788183288651,0.0,0.0,-0.0044729504734277,-0.0032621575519442,0.9095533490180968,0.415550172328949,0.0,0.0,0.0,-0.0001997010986087,-0.0001326882338616,3.5178322832507547e-06,0.0024298746138811,0.0049748253077268,-0.9983278512954712,0.0575403571128845,-0.0001796085065476,-0.0001397864348156,-2.223110452656514e-06,-0.0004349946975708,-0.0041770339012146,-0.0069513320922851,0,0,0,0
25.6,1788183288751,0.0,0.0,-0.0044671888463199,-0.0032715620473027,0.9095533490180968,0.4155502021312713,0.0,0.0,0.0,-7.295607792912051e-05,-0.0001819895405787,0.0,0.0024221809580922,0.0049794893711805,-0.9983278512954712,0.0575403124094009,-8.382377125692966e-05,-0.0002044898888156,-2.252911445480775e-06,0.0115833282470703,-0.0067933201789855,0.0072698593139648,0,0,0,0
25.7,1788183288851,0.0,0.0,-0.0044593131169676,-0.0032753916457295,0.9095533490180968,0.4155502617359161,0.0,0.0,0.0,1.4928347809473053e-05,-0.0001696530089247,-1.4881842389513622e-06,0.002409154549241,0.0049783214926719,-0.9983278512954712,0.0575402304530143,5.59027256685323e-05,-0.0002209554932358,-2.4847505405236337e-06,-0.0050134658813476,0.0227870345115661,0.0012969970703125,0,0,0,0
25.8,1788183288951,0.0,0.0,-0.0044536762870848,-0.0032762018963694,0.9095533490180968,0.4155502617359161,0.0,0.0,0.0,6.295552884694189e-05,-0.000214277068153,-1.168717631117033e-06,0.0023995973169803,0.0049738148227334,-0.9983278512954712,0.0575401969254016,8.728039631366767e-05,-0.0002028139179849,-1.399100284380737e-06,-0.0033594369888305,-0.0080170631408691,-0.0025358200073242,0,0,0,0
25.9,1788183289051,0.0,0.0,-0.0044361082836985,-0.0032762330956757,0.9095534086227416,0.4155504107475281,0.0,0.0,0.0,7.055878813844174e-05,-0.0001400989422108,0.0,0.0023894468322396,0.0049682492390275,-0.9983279705047609,0.0575401820242404,7.127829182292687e-05,-0.0001618045663307,-6.206934246839859e-07,0.0149683356285095,-0.0096375346183776,0.0021524429321289,0,0,0,0
26.0,1788183289151,0.0,0.0,-0.0044288644567132,-0.0032767825759947,0.9095534086227416,0.4155504703521728,9.027584803055008e-07,-7.817327167329925e-07,-2.719333397261575e-09,4.439022814040072e-05,-0.000113858419354,-1.1941885986743728e-06,0.0023843180388212,0.0049659851938486,-0.9983279705047609,0.0575401782989501,5.925191085243848e-05,-0.0001072699538842,-4.7435228192249974e-07,0.0061684250831604,0.0387793779373168,-0.0188350677490234,0,0,0,0
26.1,1788183289251,0.0,0.0,-0.0044254316017031,-0.0032759900204837,0.9095533490180968,0.4155504703521728,0.0,0.0,0.0,8.592865924583748e-05,-0.0001117762076319,-1.192677132166864e-06,0.0023794043809175,0.0049613062292337,-0.9983279705047609,0.0575401782989501,8.14306201530479e-05,-9.160165886099151e-05,-2.485652765902976e-07,0.0078842639923095,0.0348525643348693,0.0279207229614257,0,0,0,0
26.2,1788183289351,0.0,0.0,-0.0044216979295015,-0.0032748612575232,0.9095534086227416,0.4155505299568176,0.0,0.0,0.0,4.885084490524605e-05,-5.491181582328864e-05,0.0,0.0023770350962877,0.0049578538164496,-0.9983280897140504,0.0575401820242404,6.924030491436784e-05,-4.35913899248484e-05,-2.3535891801351778e-07,-0.002481460571289,-0.0153197646141052,0.0023956298828125,0,0,0,0
26.3,1788183289451,0.0,0.0,-0.0044169784523546,-0.0032720724120736,0.9095534682273864,0.4155505895614624,0.0,0.0,0.0,0.0001058625784935,-6.159583426779136e-05,-1.1963985571128433e-06,0.0023766253143548,0.0049550347030162,-0.9983280897140504,0.0575401820242404,6.44776290183017e-05,8.758085440425056e-06,2.416110549533323e-07,-0.0038754343986511,0.0097222328186035,0.0041141510009765,0,0,0,0
26.4,1788183289551,0.0,0.0,-0.0044164606370031,-0.0032677922863513,0.9095534682273864,0.4155505895614624,0.0,0.0,0.0,0.0001025625970214,5.357477130019106e-05,1.2206427300043288e-06,0.0023802975192666,0.0049506686627864,-0.9983280897140504,0.0575401857495307,6.0106532778323205e-05,6.449115868574292e-05,4.756811613740458e-07,0.0072912573814392,-0.0082458853721618,0.007598876953125,0,0,0,0
26.5,1788183289651,0.0,0.0,-0.0044189868494868,-0.003263191320002,0.9095534086227416,0.4155505299568176,0.0,0.0,0.0,1.3270077033666894e-05,4.676566459238529e-05,1.4912817505319254e-06,0.0023828372359275,0.004949708469212,-0.9983280897140504,0.0575401857495307,1.212135222191988e-05,6.292110043598028e-05,2.3144620977632442e-07,-0.0105536580085754,0.0028668045997619,0.0126523971557617,0,0,0,0
26.6,1788183289751,0.0,0.0,-0.0044242404401302,-0.0032618034165352,0.9095534086227416,0.4155505299568176,0.0,0.0,0.0,-3.264643237343989e-05,0.0001328443468082,0.0,0.0023889578878879,0.0049513885751366,-0.9983280897140504,0.0575401820242404,-3.3991675572934454e-05,0.0001214165601237,4.952628705502524e-07,0.0007625818252563,-0.0074761509895324,0.0029525756835937,0,0,0,0
26.7,1788183289851,0.0,0.0,-0.0044275028631091,-0.0032614269293844,0.9095534682273864,0.4155505001544952,0.0,0.0,0.0,-4.089892900083214e-05,0.000126108949189,3.6095584619033616e-06,0.0023949854075908,0.0049544759094715,-0.9983280897140504,0.0575401969254016,-7.738618753004276e-05,0.0001468448879169,9.907686809873528e-07,-0.0043738484382629,-0.0232503414154052,0.0166482925415039,0,0,0,0
26.8,1788183289951,0.0,0.0,-0.0044424012303352,-0.0032656611874699,0.9095533490180968,0.4155505299568176,0.0,0.0,0.0,-0.0001897249167086,0.0001525981206214,0.0,0.0024026911705732,0.0049640005454421,-0.9983279705047609,0.0575401820242404,-0.000203372663347,0.0001439360758888,-4.5604121887481244e-10,-0.0149610042572021,0.0067219138145446,0.0156784057617187,0,0,0,0
26.9,1788183290051,0.0,0.0,-0.0044513745233416,-0.0032729818485677,0.909553289413452,0.41555055975914,-1.1293075605935654e-06,9.779101350243357e-07,3.363061100179701e-09,-0.000218980727368,8.6061074398458e-05,-4.481617907003965e-06,0.002407930791378,0.0049786372110247,-0.9983278512954712,0.0575401410460472,-0.0003268672575341,0.0001105775901919,-1.2093855467359328e-06,-0.0204592943191528,-0.0063449144363403,0.0159988403320312,0,0,0,0
27.0,1788183290151,0.0,0.0,-0.0044576181098818,-0.0032796398736536,0.909553289413452,0.4155505001544952,0.0,0.0,0.0,-0.0003389434423297,0.000114103211672,2.3353391043201555e-06,0.0024119233712553,0.0049951579421758,-0.9983278512954712,0.0575401112437248,-0.0003443892777095,9.514385375649678e-05,-9.481039893966912e-07,-0.0186348557472229,0.0030892491340637,0.0002298355102539,0,0,0,0
27.1,1788183290251,0.0,0.0,-0.0044715134426951,-0.0032951997127383,0.9095531105995178,0.4155504703521728,0.0,0.0,0.0,-0.0002705648366827,9.38257435336709e-05,1.4812154631727026e-06,0.0024172887206077,0.0050129275768995,-0.9983277320861816,0.0575401000678539,-0.0003253733728362,0.0001259865179417,-2.485902298358348e-07,0.0031474828720092,0.0156247019767761,0.0111618041992187,0,0,0,0
27.2,1788183290351,0.0,0.0,-0.0044879782944917,-0.0033131297677755,0.909553050994873,0.4155504405498504,0.0,0.0,0.0,-0.0002324607630725,4.501520743360743e-05,0.0,0.0024199811741709,0.0050280280411243,-0.998327612876892,0.0575400665402412,-0.0001998797917416,3.7003172819861952e-06,-1.2490646118400467e-06,0.0345240235328674,0.0202665925025939,0.0064525604248046,0,0,0,0
27.3,1788183290451,0.0,0.0,-0.0044887401163578,-0.0033191000111401,0.909553050994873,0.4155504405498504,0.0,0.0,0.0,-8.0552686995361e-05,-5.21933106938377e-05,0.0,0.0024168929085135,0.0050331791862845,-0.998327612876892,0.0575400292873382,-0.0001000996976982,-6.90111912746772e-05,-1.494386712278907e-06,-0.0054729580879211,-5.245208740234375e-05,0.0094289779663085,0,0,0,0
27.4,1788183290551,0.0,0.0,-0.0044882469810545,-0.0033220113255083,0.909553050994873,0.4155504405498504,0.0,0.0,0.0,-9.59105309448205e-05,-6.50981382932514e-05,0.0,0.0024147136136889,0.0050360551103949,-0.998327612876892,0.0575400106608867,-3.763024208098226e-05,-2.1350894992626235e-05,-2.2414298579975625e-07,-0.0212251543998718,-0.0004295706748962,-0.0108299255371093,0,0,0,0
27.5,1788183290651,0.0,0.0,-0.0044873869046568,-0.0033235126174986,0.909553050994873,0.4155504405498504,0.0,0.0,0.0,4.730204091174528e-05,6.75743422107189e-06,5.876029717910569e-06,0.0024147983640432,0.0050345715135335,-0.998327612876892,0.0575400032103061,7.672290473218328e-05,4.553975677990946e-06,2.470005320653816e-07,-0.0120555162429809,0.0094004273414611,-0.0090875625610351,0,0,0,0
27.6,1788183290751,0.0,0.0,-0.0044849179685115,-0.003317994531244,0.9095531702041626,0.4155501425266266,0.0,0.0,0.0,0.0001177111334982,-4.666797394747846e-06,9.519522791379131e-06,0.0024150442332029,0.0050277840346097,-0.998327612876892,0.0575400255620479,0.0001171020640042,-1.5038206625781828e-05,2.487960772844651e-07,-0.0033973455429077,0.0070737600326538,0.0182924270629882,0,0,0,0
27.7,1788183290851,0.0,0.0,-0.0044816359877586,-0.0033136699348688,0.9095532298088074,0.415550172328949,0.0,0.0,0.0,0.0001040670467773,-2.9696811907342635e-05,1.491833586442226e-06,0.0024137841537594,0.0050216792151331,-0.998327612876892,0.0575400255620479,0.0001274380626249,-3.968669747770614e-05,2.4815992841791777e-07,0.0036869049072265,-0.0127297043800354,-0.003488540649414,0,0,0,0
27.8,1788183290951,0.0,0.0,-0.004479432478547,-0.0033112606033682,0.9095532298088074,0.4155502021312713,0.0,0.0,0.0,0.000121912031318,-3.935239146812819e-05,-1.1692446832967107e-06,0.0024123955518007,0.0050161024555563,-0.998327612876892,0.0575400255620479,0.0001114984903092,-3.564660886326409e-05,2.229863613347101e-07,0.003602921962738,-0.0075036287307739,0.011092185974121,0,0,0,0
27.9,1788183291051,0.0,0.0,-0.0044760024175047,-0.0033074216917157,0.909553289413452,0.4155500829219818,0.0,0.0,0.0,4.871480996371247e-05,-1.654050538490992e-05,5.861530098627554e-06,0.0024103783071041,0.005011411383748,-0.9983277320861816,0.0575400255620479,9.368107680911206e-05,-5.9393237623700304e-05,-6.419220218649524e-11,0.0069175362586975,0.0194652676582336,0.0080490112304687,0,0,0,0
28.0,1788183291151,0.0,0.0,-0.0044641424901783,-0.0033030761405825,0.909553289413452,0.4155500829219818,9.01600437158868e-07,-7.80730250215939e-07,-2.7368663616343718e-09,4.525574331637472e-05,-0.0001380314206471,4.770628038386349e-06,0.0024030236527323,0.0050060264766216,-0.9983277320861816,0.0575399957597255,1.8556391148967423e-05,-0.0001413462971768,-1.4389852511425858e-06,0.0151759982109069,0.0255764126777648,0.0021095275878906,0,0,0,0
28.1,1788183291251,0.0,0.0,-0.0044605499133467,-0.0033046507742255,0.9095533490180968,0.4155501425266266,0.0,0.0,0.0,0.0,0.0,0.0,0.0023953160271048,0.0050060721114277,-0.9983277320861816,0.0575399473309516,-2.7420801108551287e-05,-0.0001768462657468,-2.389537113787461e-06,-0.0085960030555725,0.0079327225685119,-0.008305549621582,0,0,0,0
28.2,1788183291351,0.0,0.0,-0.0044543724507093,-0.0033086251933127,0.909553289413452,0.4155502617359161,-8.789074405134137e-07,7.610795963751232e-07,2.679122827341649e-09,-4.086491389898583e-05,-0.0002836110361386,-5.813190455228323e-06,0.0023872526362538,0.0050068236887454,-0.9983277320861816,0.057539913803339,-1.831691569434762e-05,-0.0001763553933219,-1.7624048911981165e-06,-0.0086420774459838,-0.0136886835098266,-0.0061588287353515,0,0,0,0
28.3,1788183291451,0.0,0.0,-0.0044462690129876,-0.0033134873956441,0.9095532298088074,0.4155502915382385,0.0,0.0,0.0,-1.1737171007553115e-05,-0.0001381362817483,-9.91001229522226e-07,0.0023792712017893,0.0050069196149706,-0.9983278512954712,0.0575398914515972,-6.486166904715444e-06,-0.0001583666734065,-1.1616824792637228e-06,-0.008643090724945,0.0095229744911193,-0.0025663375854492,0,0,0,0
28.4,1788183291551,0.0,0.0,-0.0044390670955181,-0.0033167037181556,0.9095534086227416,0.4155501127243042,9.129137716714374e-07,-7.905261357914812e-07,-2.823796689457066e-09,1.0896904313995036e-05,-0.0001653499057283,1.0868600838875864e-05,0.0023737614974379,0.005005850456655,-0.9983278512954712,0.057539876550436,3.199191235725169e-05,-9.873472951341728e-05,-4.960460615695002e-07,-0.0136415362358093,0.0055980086326599,0.0004711151123046,0,0,0,0
28.5,1788183291651,0.0,0.0,-0.0044353045523166,-0.0033153020776808,0.9095534086227416,0.4155501425266266,0.0,0.0,0.0,5.639388837153092e-05,-7.475712664017919e-06,1.4904848057994968e-06,0.0023728320375084,0.0050028525292873,-0.9983278512954712,0.057539876550436,3.757540959387927e-05,1.6529567201153623e-05,2.4087762930814e-07,-0.0091452598571777,-0.0141136050224304,-0.0183362960815429,0,0,0,0
28.6,1788183291751,0.0,0.0,-0.0044354945421218,-0.0033143167383968,0.9095534086227416,0.4155501425266266,0.0,0.0,0.0,3.2091604225570336e-05,2.286903691128828e-05,0.0,0.0023756334558129,0.0050035584717988,-0.9983278512954712,0.057539876550436,-3.51248903126987e-05,8.300119792459525e-05,2.339245341967991e-07,-0.0086476802825927,-0.0189587473869323,0.0084142684936523,0,0,0,0
28.7,1788183291851,0.0,0.0,-0.0044408105313777,-0.0033144387416541,0.9095534086227416,0.4155501127243042,-7.356239780250093e-07,6.370048376908083e-07,2.2774460738539684e-09,-5.765616151620634e-05,8.973804506240413e-05,9.73099758994067e-07,0.0023816600441932,0.0050098979845643,-0.9983278512954712,0.057539876550436,-0.0001754140958364,0.000147113270456,2.5603159068760525e-07,-0.0045821666717529,0.0055194497108459,0.0157718658447265,0,0,0,0
28.8,1788183291951,0.0,0.0,-0.0044541335664689,-0.003321336582303,0.9095533490180968,0.415550023317337,0.0,0.0,0.0,-9.013909584609792e-05,5.665192657033913e-05,0.0,0.0023899506777524,0.0050235856324434,-0.9983277320861816,0.0575398579239845,-0.0002274305765353,0.0001572616779879,2.392868900961894e-07,-0.0185062289237976,-0.0045046210289001,0.0013055801391601,0,0,0,0
28.9,1788183292051,0.0,0.0,-0.0044685890898108,-0.0033289100974798,0.909553289413452,0.415550023317337,0.0,0.0,0.0,-0.0001762400352163,0.0001621236297069,1.4871595794829773e-06,0.0023992154747247,0.0050349663943052,-0.998327612876892,0.0575398467481136,-0.0002502481626698,0.0002550152379949,4.959369434588394e-07,-0.02652108669281,-0.0023505687713623,0.000899314880371,0,0,0,0
29.0,1788183292151,0.0,0.0,-0.0044892085716128,-0.0033350535668432,0.909553289413452,0.4155497550964355,-9.162864298072868e-07,7.93448023572177e-07,2.836333205339653e-09,-0.0003174051234964,0.0003880185249727,3.636253040895099e-06,0.0024125538766384,0.005047402344644,-0.998327612876892,0.0575398541986942,-0.0002380043267823,0.0003087312668647,1.1666608585490653e-06,-0.0059660077095031,0.0104511976242065,-0.0135574340820312,0,0,0,0
29.1,1788183292251,0.0,0.0,-0.0045042433775961,-0.0033387425355613,0.9095532298088074,0.415549635887146,0.0,0.0,0.0,-0.0002343755913898,0.0002911020710598,1.9592525859479792e-06,0.0024250214919447,0.005058973096311,-0.9983274936676024,0.0575398690998554,-0.0002369340648005,0.0002563924065353,1.193728639956873e-06,0.0080766081809997,0.048341155052185,-0.0076808929443359,0,0,0,0
29.2,1788183292351,0.0,0.0,-0.0045160125009715,-0.0033428999595344,0.9095531702041626,0.4155495464801788,-9.179142727174072e-07,7.948580508410735e-07,2.8292405739191353e-09,-0.000353352719685,0.0003657702181953,3.6427138638828174e-06,0.0024355938658118,0.005070642568171,-0.998327374458313,0.0575398504734039,-0.0001475614846075,0.0001485406780505,4.7441646759540157e-07,0.0074191093444824,0.0136114358901977,0.0070362091064453,0,0,0,0
29.3,1788183292451,0.0,0.0,-0.0045262807980179,-0.0033464464358985,0.9095531702041626,0.4155496060848236,-8.980453230061518e-07,7.776530010148229e-07,2.7643635371745667e-09,-0.0001357331639155,0.0001502391969552,-3.5638654480862897e-06,0.002443310804665,0.0050778808072209,-0.998327374458313,0.0575398504734039,-0.0001122385603263,0.0001371026707226,3.445527481139628e-07,-0.0103763341903686,-0.0151448845863342,0.0015583038330078,0,0,0,0
29.4,1788183292551,0.0,0.0,-0.0045336196199059,-0.0033483528532087,0.909553050994873,0.4155495166778564,0.0,0.0,0.0,-0.0001205192384077,0.0001457475882489,1.1683173397614155e-06,0.0024483809247612,0.0050841942429542,-0.9983272552490234,0.057539839297533,-0.0001375285434791,0.0001031262893321,-1.6413892476687414e-10,0.0272520184516906,0.0032753348350524,-0.015974998474121,0,0,0,0
29.5,1788183292651,0.0,0.0,-0.0045427670702338,-0.0033536273986101,0.9095529913902284,0.4155494272708893,0.0,0.0,0.0,-0.000159795556101,8.059815445449203e-05,1.1795750651799608e-06,0.0024495935067534,0.0050926096737384,-0.9983272552490234,0.0575398355722427,-0.0001633293645963,-3.74608861569914e-06,-4.794895635194675e-07,0.0137086510658264,0.0375655889511108,0.000396728515625,0,0,0,0
29.6,1788183292751,0.0,0.0,-0.0045472225174307,-0.0033641452901065,0.9095528721809388,0.4155494570732116,0.0,0.0,0.0,-0.0001140365129685,-7.981901944731362e-06,1.1963505812673247e-06,0.0024487506598234,0.0050983969122171,-0.9983272552490234,0.0575398169457912,-0.0001247639222542,-7.028015137143161e-06,-1.3386564855048835e-06,-0.002453327178955,0.0192408561706542,-0.0052375793457031,0,0,0,0
29.7,1788183292851,0.0,0.0,-0.0045474455691874,-0.0033660414628684,0.9095528721809388,0.4155494570732116,0.0,0.0,0.0,0.0,0.0,0.0,0.0024465527385473,0.0051001217216253,-0.9983272552490234,0.0575397871434688,4.9523488404668766e-05,-7.450699463512338e-05,-3.942516937905272e-07,0.0077499747276306,-0.0304216146469116,-0.0017662048339843,0,0,0,0
29.8,1788183292951,0.0,0.0,-0.0045405896380543,-0.0033648279495537,0.9095529317855836,0.4155495464801788,0.0,0.0,0.0,0.0001035158420563,-0.0001202657003886,-1.2258328752068337e-06,0.0024420376867055,0.0050958171486854,-0.9983272552490234,0.0575397685170173,9.563065912799678e-05,-9.23330713206876e-05,-2.335999350026794e-07,0.0127222537994384,0.0012171864509582,0.0256986618041992,0,0,0,0
29.9,1788183293051,0.0,0.0,-0.0045339772477746,-0.0033611669205129,0.9095529913902284,0.4155496060848236,0.0,0.0,0.0,9.80892000370659e-05,-6.767209561076015e-05,-9.83427412393212e-07,0.0024375300854444,0.005087973549962,-0.9983272552490234,0.057539764791727,0.0001362766951526,-6.316927938479204e-05,2.4832433453091135e-07,-0.0228398442268371,0.0009738206863403,-0.0001001358032226,0,0,0,0
