time_s,timestamp_ms,wheel_vels__velocity_left,wheel_vels__velocity_right,odom__orient_x,odom__orient_y,odom__orient_z,odom__orient_w,odom__lin_x,odom__lin_y,odom__lin_z,odom__ang_x,odom__ang_y,odom__ang_z,imu__orient_x,imu__orient_y,imu__orient_z,imu__orient_w,imu__angvel_x,imu__angvel_y,imu__angvel_z,imu__acc_x,imu__acc_y,imu__acc_z,wheel_status__current_ma_left,wheel_status__current_ma_right,wheel_status__pwm_left,wheel_status__pwm_right
0.0,1788432176124,0.0,0.0,-0.0027232856955379,-0.001437381375581,0.1761483997106552,0.984358847141266,0.0,0.0,0.0,0.0,2.407056332032198e-09,0.0,-0.0018595252186059,-0.0018688384443521,0.5927395224571228,0.8053898811340332,6.028062217565477e-05,5.7791445234775646e-05,7.054781380915206e-11,-0.0163729786872863,-0.0051355361938476,-0.0156631469726562,0,0,0,0
0.1,1788432176224,0.0,0.0,-0.0027232856955379,-0.001437381375581,0.1761483997106552,0.984358847141266,0.0,0.0,0.0,0.0,2.407056332032198e-09,0.0,-0.0018595252186059,-0.0018688384443521,0.5927395224571228,0.8053898811340332,6.028062217565477e-05,5.7791445234775646e-05,7.054781380915206e-11,-0.0163729786872863,-0.0051355361938476,-0.0156631469726562,0,0,0,0
0.2,1788432176324,0.0,0.0,-0.0027232856955379,-0.001437381375581,0.1761483997106552,0.984358847141266,0.0,0.0,0.0,0.0,2.407056332032198e-09,0.0,-0.0018595252186059,-0.0018688384443521,0.5927395224571228,0.8053898811340332,6.028062217565477e-05,5.7791445234775646e-05,7.054781380915206e-11,-0.0163729786872863,-0.0051355361938476,-0.0156631469726562,0,0,0,0
0.3,1788432176424,0.0,0.0,-0.0027232856955379,-0.001437381375581,0.1761483997106552,0.984358847141266,0.0,0.0,0.0,0.0,2.407056332032198e-09,0.0,-0.0018595252186059,-0.0018688384443521,0.5927395224571228,0.8053898811340332,6.028062217565477e-05,5.7791445234775646e-05,7.054781380915206e-11,-0.0163729786872863,-0.0051355361938476,-0.0156631469726562,0,0,0,0
0.4,1788432176524,0.0,0.0,-0.0027232856955379,-0.001437381375581,0.1761483997106552,0.984358847141266,0.0,0.0,0.0,0.0,2.407056332032198e-09,0.0,-0.0018595252186059,-0.0018688384443521,0.5927395224571228,0.8053898811340332,6.028062217565477e-05,5.7791445234775646e-05,7.054781380915206e-11,-0.0163729786872863,-0.0051355361938476,-0.0156631469726562,0,0,0,0
0.5,1788432176624,0.0,0.0,-0.0027232856955379,-0.001437381375581,0.1761483997106552,0.984358847141266,0.0,0.0,0.0,0.0,2.407056332032198e-09,0.0,-0.0018595252186059,-0.0018688384443521,0.5927395224571228,0.8053898811340332,6.028062217565477e-05,5.7791445234775646e-05,7.054781380915206e-11,-0.0163729786872863,-0.0051355361938476,-0.0156631469726562,0,0,0,0
0.6,1788432176724,0.0,0.0,-0.0027232856955379,-0.001437381375581,0.1761483997106552,0.984358847141266,0.0,0.0,0.0,0.0,2.3930919468284632e-09,0.0,-0.0018585016950964,-0.001864718273282,0.5927395224571228,0.8053898811340332,0.0001184227438475,8.81703738762778e-05,1.5742488755489987e-10,0.0216372609138488,0.0049293041229248,-0.0012378692626953,0,0,0,0
0.7,1788432176824,0.0,0.0,-0.0027232856955379,-0.001437381375581,0.1761483997106552,0.984358847141266,0.0,0.0,0.0,0.0,2.379360708459899e-09,0.0,-0.0018566334620118,-0.0018582986667752,0.5927395224571228,0.8053898811340332,9.861519738431616e-05,9.69659666183957e-05,1.4849796493283302e-10,0.0128316283226013,0.0355876088142395,-0.0101776123046875,0,0,0,0
0.8,1788432176924,0.0,0.0,-0.002593747107312,-0.0011191992089152,0.1761218458414077,0.98436439037323,-0.0001079685569186,0.0001151991271256,8.779217346670784e-07,0.0077651548199355,0.0122892577201128,-0.0011190414661541,-0.0018522227182984,-0.0018504103645682,0.5927395224571228,0.8053898811340332,0.0001272350976409,4.483587962910438e-05,8.574734785754829e-11,0.0214585661888122,-0.0188029408454895,0.0280141830444335,0,0,0,0
0.9,1788432177024,0.0,0.0,-0.002593747107312,-0.0011191995581611,0.1761220097541809,0.9843643307685852,0.0,0.0,0.0,-1.6864149188222655e-08,-1.6239551925423257e-08,4.477119546208996e-06,-0.0018476657569408,-0.0018452396616339,0.5927395820617676,0.8053900003433228,0.0001780428852761,1.6884029101712037e-05,4.164038087655486e-11,-0.0380777120590209,-0.0406507849693298,0.017308235168457,0,0,0,0
1.0,1788432177124,0.0,0.0,-0.0025937468744814,-0.0011191996745765,0.176122099161148,0.9843643307685852,0.0,0.0,0.0,1.1909094155271305e-08,1.1909093711182095e-09,6.097455980125233e-07,-0.0018413811922073,-0.0018396442756056,0.5927395820617676,0.8053900003433228,0.0002187355038333,1.388416243081177e-05,4.5708173611901774e-11,0.017616868019104,0.0179214477539062,0.0086593627929687,0,0,0,0
1.1,1788432177224,0.0,0.0,-0.0025937468744814,-0.0011191996745765,0.176122099161148,0.9843643307685852,0.0,0.0,0.0,0.0,-1.1903086294395846e-09,0.0,-0.0018338663503527,-0.0018331659957766,0.5927395820617676,0.8053900003433228,0.0001954046642522,3.325953783453384e-05,9.7657595773595e-11,0.0142576098442077,-0.0070399045944213,-0.01104736328125,0,0,0,0
1.2,1788432177324,0.0,0.0,-0.0025937468744814,-0.0011191996745765,0.176122099161148,0.9843643307685852,0.0,0.0,0.0,0.0,-1.8329722184518003e-09,0.0,-0.0018263328820466,-0.0018270723521709,0.5927395820617676,0.8053900003433228,9.531468526198084e-05,-9.838883827998636e-06,-1.4169709092240078e-11,0.003075361251831,0.0132308602333068,0.0128459930419921,0,0,0,0
1.3,1788432177424,0.0,0.0,-0.0025937468744814,-0.0011191996745765,0.176122099161148,0.9843643307685852,0.0,0.0,0.0,0.0,-1.1975486158277704e-09,0.0,-0.0018223291262984,-0.0018273526802659,0.5927395820617676,0.8053900003433228,3.807111440492951e-05,-7.643894212824758e-05,-4.566795858571978e-11,-0.0279820561408996,0.0046729445457458,0.0006494522094726,0,0,0,0
1.4,1788432177524,0.0,0.0,-0.0025937468744814,-0.0011191996745765,0.176122099161148,0.9843643307685852,0.0,0.0,0.0,0.0,-1.2127961968033674e-09,0.0,-0.0018207756802439,-0.0018279924988746,0.5927395820617676,0.8053900003433228,1.1306530159382032e-05,-5.018239471251782e-06,-8.529322517771136e-13,0.0013520717620849,-0.0240402817726135,0.0112171173095703,0,0,0,0
1.5,1788432177624,0.0,0.0,-0.0025937468744814,-0.0011191996745765,0.176122099161148,0.9843643307685852,0.0,0.0,0.0,0.0,-1.2064973464731563e-09,0.0,-0.001822012476623,-0.0018266420811414,0.5927395820617676,0.8053900003433228,-1.2450374088454904e-05,5.167058572317017e-05,-9.696583672774428e-12,0.0304594039916992,0.0049085617065429,0.011183738708496,0,0,0,0
1.6,1788432177724,0.0,0.0,-0.0025937468744814,-0.0011191996745765,0.176122099161148,0.9843643307685852,0.0,0.0,0.0,0.0,-1.215497036355373e-09,0.0,-0.0018200865015387,-0.0018255393952131,0.5927395820617676,0.8053900003433228,4.084867856104901e-05,-6.470614741603838e-06,-3.966013826370035e-12,-0.0058280229568481,0.0135543942451477,0.0142383575439453,0,0,0,0
1.7,1788432177824,0.0,0.0,-0.0025937468744814,-0.0011191996745765,0.176122099161148,0.9843643307685852,0.0,0.0,0.0,0.0,-1.2183658526510044e-09,0.0,-0.0018202802166342,-0.0018229251727461,0.5927395820617676,0.8053900003433228,1.4343632898287413e-05,7.435221616677233e-05,1.5978496071390237e-11,-0.0212492942810058,0.0154933333396911,-0.0059843063354492,0,0,0,0
1.8,1788432177924,0.0,0.0,-0.0025937468744814,-0.0011191996745765,0.176122099161148,0.9843643307685852,0.0,0.0,0.0,0.0,-1.2126414317137344e-09,0.0,-0.0018249377608299,-0.0018162690103054,0.5927395820617676,0.8053900003433228,1.7246640140255484e-05,0.0001289428446002,2.9901770105613466e-11,-0.0281197428703308,0.0046234726905822,-0.002532958984375,0,0,0,0
1.9,1788432178024,0.0,0.0,-0.0025937468744814,-0.0011191996745765,0.176122099161148,0.9843643307685852,0.0,0.0,0.0,0.0,-1.243128822103756e-09,0.0,-0.001827304251492,-0.001811496913433,0.5927395820617676,0.8053900003433228,1.261100314783359e-05,0.0001042225681295,1.9776967482507462e-11,0.023933470249176,-0.0095232129096984,-0.0276660919189453,0,0,0,0
2.0,1788432178124,0.0,0.0,-0.0025937468744814,-0.0011191996745765,0.176122099161148,0.9843643307685852,0.0,0.0,0.0,0.0,-1.1830222357289701e-09,0.0,-0.0018303133547306,-0.0018108151853084,0.5927395820617676,0.8053900003433228,-8.329921022387833e-05,4.714645273610316e-05,-5.996813368105946e-11,-0.0212429165840148,0.023439347743988,-0.0040912628173828,0,0,0,0
2.1,1788432178224,0.0,0.0,-0.0025937468744814,-0.0011191996745765,0.176122099161148,0.9843643307685852,0.0,0.0,0.0,0.0,-1.210149980224173e-09,0.0,-0.0018340842798352,-0.0018126098439097,0.5927395820617676,0.8053900003433228,-6.336747191328272e-05,4.63135416935868e-06,-4.411413267496508e-12,-0.0035930275917053,0.0163216590881347,-0.0168676376342773,0,0,0,0
2.2,1788432178324,0.0,0.0,-0.0025937468744814,-0.0011191996745765,0.176122099161148,0.9843643307685852,0.0,0.0,0.0,0.0,-1.200812338453261e-09,0.0,-0.0018360689282417,-0.001813624985516,0.5927395820617676,0.8053900003433228,-3.323773101713708e-05,4.434797748472992e-06,-2.2132862188091343e-12,-0.0108423829078674,-0.0360833406448364,0.0315103530883789,0,0,0,0
2.3,1788432178424,0.0,0.0,-0.0025937468744814,-0.0011191996745765,0.176122099161148,0.9843643307685852,0.0,0.0,0.0,0.0,-1.2125920267891386e-09,0.0,-0.0018388908356428,-0.0018144259229302,0.5927395820617676,0.8053900003433228,-6.113848286903598e-05,2.7737784519195147e-05,-2.464775405312964e-11,-0.0016729831695556,0.000167965888977,-0.0299072265625,0,0,0,0
2.4,1788432178524,0.0,0.0,-0.0025937468744814,-0.0011191996745765,0.176122099161148,0.9843643307685852,0.0,0.0,0.0,0.0,-9.168519832236656e-10,0.0,-0.0018415050581097,-0.0018153935670852,0.5927395820617676,0.8053900003433228,-5.107710835288943e-05,2.1196063332177225e-05,-1.4889181181309035e-11,0.0090842843055725,0.0071797966957092,-0.014129638671875,0,0,0,0
2.5,1788432178624,0.0,0.0,-0.0025937468744814,-0.0011191996745765,0.176122099161148,0.9843643307685852,0.0,0.0,0.0,0.0,-1.1979137681805694e-09,0.0,-0.0018403893336653,-0.0018166489899158,0.5927395820617676,0.8053900003433228,2.0535664876248945e-05,-6.554870973086231e-05,-2.0275239419856618e-11,-0.0257242918014526,0.0193889737129211,0.0054092407226562,0,0,0,0
2.6,1788432178724,0.0,0.0,-0.0025937468744814,-0.0011191996745765,0.176122099161148,0.9843643307685852,0.0,0.0,0.0,0.0,-1.1929889298656347e-09,0.0,-0.001837208867073,-0.0018173167482018,0.5927395820617676,0.8053900003433228,6.638265264794144e-05,-5.528700115660728e-05,-5.810652607215152e-11,0.0263159275054931,-0.0169236660003662,-0.0233039855957031,0,0,0,0
2.7,1788432178824,0.0,0.0,-0.0025937468744814,-0.0011191996745765,0.176122099161148,0.9843643307685852,0.0,0.0,0.0,0.0,-1.1924343734648344e-09,0.0,-0.0018339101225137,-0.0018179798498749,0.5927395820617676,0.8053900003433228,3.0786299088903776e-05,-3.101794162585267e-05,-1.4396917445273412e-11,0.0103333592414855,-0.0275661945343017,-0.0015287399291992,0,0,0,0
2.8,1788432178924,0.0,0.0,-0.0025937468744814,-0.0011191996745765,0.176122099161148,0.9843643307685852,0.0,0.0,0.0,0.0,-1.19489085292912e-09,0.0,-0.0018334351480007,-0.0018173120915889,0.5927395820617676,0.8053900003433228,1.3762478055738902e-05,3.653508426037304e-05,7.575029419090003e-12,0.0217446088790893,0.0192858576774597,-0.0173921585083007,0,0,0,0
2.9,1788432179024,0.0,0.0,-0.0025937468744814,-0.0011191996745765,0.176122099161148,0.9843643307685852,0.0,0.0,0.0,0.0,-1.1956472478757971e-09,0.0,-0.0018380563706159,-0.0018178299069404,0.5927395820617676,0.8053900003433228,-0.0001424520048335,5.6726187958623816e-05,-1.2119293549569575e-10,0.0111220479011535,0.0314511656761169,0.0028324127197265,0,0,0,0
3.0,1788432179124,0.0,0.0,-0.0025937468744814,-0.0011191996745765,0.176122099161148,0.9843643307685852,0.0,0.0,0.0,0.0,-1.169664809452797e-09,0.0,-0.0018457388505339,-0.0018196441233158,0.5927395820617676,0.8053900003433228,-0.0001615925153609,7.746353329404904e-05,-1.877986391228344e-10,-0.0137607455253601,-0.0060644149780273,0.0065202713012695,0,0,0,0
3.1,1788432179224,0.0,0.0,-0.0025937468744814,-0.0011191996745765,0.176122099161148,0.9843643307685852,0.0,0.0,0.0,0.0,-1.1914932374068599e-09,0.0,-0.001854820176959,-0.001818667165935,0.5927395820617676,0.8053900003433228,-0.0001095420087121,0.0001487859175348,-2.6156382157144137e-10,0.0066878199577331,0.0006824731826782,0.0190277099609375,0,0,0,0
3.2,1788432179324,0.0,0.0,-0.0025937468744814,-0.0011191996745765,0.176122099161148,0.9843643307685852,0.0,0.0,0.0,0.0,-1.2121793568908854e-09,0.0,-0.0018600989133119,-0.0018141865730285,0.5927395820617676,0.8053900003433228,7.402653525961769e-06,0.0001607599266239,1.789146217662984e-11,0.0248004794120788,0.0016611218452453,-0.0081501007080078,0,0,0,0
3.3,1788432179424,0.0,0.0,-0.0025937468744814,-0.0011191996745765,0.176122099161148,0.9843643307685852,0.0,0.0,0.0,0.0,-1.1930629817413774e-09,0.0,-0.0018599424511194,-0.0018059872090816,0.5927395820617676,0.8053900003433228,8.577631726669317e-05,8.86352695809746e-05,1.1423615151212664e-10,0.0315265655517578,-0.0079865455627441,0.0244417190551757,0,0,0,0
3.4,1788432179524,0.0,0.0,-0.0025937468744814,-0.0011191996745765,0.176122099161148,0.9843643307685852,0.0,0.0,0.0,0.0,-1.2180628727875842e-09,0.0,-0.0018581068143248,-0.001801760867238,0.5927395820617676,0.8053900003433228,9.224036374831768e-05,2.2991513840981717e-05,3.060384843440137e-11,-0.0156612992286682,-0.0152110457420349,-0.0058279037475585,0,0,0,0
3.5,1788432179624,0.0,0.0,-0.0025937468744814,-0.0011191996745765,0.176122099161148,0.9843643307685852,0.0,0.0,0.0,0.0,-1.191008625056611e-09,0.0,-0.0018558269366621,-0.0018001561984419,0.5927395820617676,0.8053900003433228,6.664047310915553e-05,-1.577224698996866e-05,-1.577971711738976e-11,0.0217376947402954,0.0225500464439392,-0.0145111083984375,0,0,0,0
3.6,1788432179724,0.0,0.0,-0.0025937468744814,-0.0011191996745765,0.176122099161148,0.9843643307685852,0.0,0.0,0.0,0.0,-1.231608592888733e-09,0.0,-0.0018522208556532,-0.001799751073122,0.5927395820617676,0.8053900003433228,5.540403424930141e-05,-3.981305237211027e-05,-3.4571351031631885e-11,-0.012562096118927,0.0083327293395996,-0.0063772201538085,0,0,0,0
3.7,1788432179824,0.0,0.0,-0.0025937468744814,-0.0011191996745765,0.176122099161148,0.9843643307685852,0.0,0.0,0.0,0.0,-8.979152976706927e-10,0.0,-0.001848716288805,-0.0018029231578111,0.5927395820617676,0.8053900003433228,-4.3818696817401e-06,-9.722319263349012e-05,6.3948244822143225e-12,0.0155960917472839,0.0086917877197265,-0.0160951614379882,0,0,0,0
3.8,1788432179924,0.0,0.0,-0.0025937468744814,-0.0011191996745765,0.176122099161148,0.9843643307685852,0.0,0.0,0.0,0.0,-1.193879328731384e-09,0.0,-0.0018430575728416,-0.0018083872273564,0.5927395820617676,0.8053900003433228,3.374235670301568e-05,-0.0002087178696475,-1.0589054680654702e-10,-0.0231366753578186,-0.0166409015655517,-0.0189771652221679,0,0,0,0
3.9,1788432180024,-1.0140844583511353,1.3239436149597168,-0.0025937468744814,-0.0011191996745765,0.176122099161148,0.9843643307685852,0.0,0.0,0.0,0.0,-1.1915846087617863e-09,0.0,-0.0018513845279812,-0.0017657680436968,0.5967058539390564,0.8024559617042542,0.0040884568825628,0.0078286187975795,0.3056858245367708,-0.5180153250694275,0.8179401755332947,0.1600217819213867,134,363,-6725,12812
4.0,1788432180124,-2.169013977050781,3.802816867828369,-0.0024205588269978,-0.000781225040555,0.2071107476949691,0.9783141016960144,0.025592730045202,-0.0042596240311282,5.527190507006562e-06,0.0037795633543282,-0.0054129525087773,0.8446352481842041,-0.0019222209230065,-0.0015067877247929,0.6263552308082581,0.7795339226722717,0.0115901478616733,0.0212765026411037,0.9468179170180988,-0.2575359344482422,0.0426553487777709,-1.5427780151367188,24,82,-5926,10850
4.1,1788432180224,-1.9154930114746092,3.4647886753082275,-0.0016155365156009,-0.0009086494101211,0.2486299723386764,0.9685967564582824,0.0301824604116138,-0.0077609719718294,-3.72632025560964e-06,0.0287106614559888,-0.0267456527799367,0.8607578277587891,-0.0005372976884245,-0.0015214867889881,0.6561094522476196,0.7546640038490295,0.0457055545396915,-0.0511958225229878,0.7754361003685739,-0.0587978363037109,0.2022815942764282,0.4315900802612304,56,59,-5872,10216
4.2,1788432180324,-1.7183098793029783,3.239436626434326,-0.0015441048890352,-0.0014182054437696,0.2842397093772888,0.9587509632110596,0.0219512496403311,-0.007012044180273,-1.2058961499074727e-05,-0.0296192858368158,0.0221626628190279,0.7292454838752747,-0.0012692399322986,-0.0018971785902976,0.6900877952575684,0.7237221598625183,-0.0112928636893633,0.0234973210365897,0.7913605816960553,-0.038389503955841,0.1157801151275634,-0.1667165756225586,54,143,-6416,11645
4.3,1788432180424,-2.309859037399292,4.2816901206970215,-0.0022901627235114,-0.0010842973133549,0.3214519023895263,0.9469225406646729,0.0326700873229776,-0.0048363231561761,-1.7727807547269697e-06,-0.0106237204745411,0.002205685712397,0.8273101449012756,-0.0016301572322845,-0.0020794989541172,0.7188056707382202,0.6952061057090759,-0.0041546956036325,0.0035860159469903,1.0286110624171447,-0.2423753142356872,0.1270987391471862,-0.1200399398803711,110,76,-9319,12437
4.4,1788432180524,-2.619718313217163,4.084506988525391,-0.0024435957893729,-0.0011374220484867,0.3751851320266723,0.9269459247589112,0.0319907278226118,-0.0116724574234067,9.255485063687908e-06,-0.001704518450424,-0.0007539538783021,1.0200409889221191,-0.0016706027090549,-0.0021466016769409,0.7536100745201111,0.6573162078857422,-0.0005014445136139,-0.0041594499948679,1.056052477953985,-0.190030038356781,0.3524234294891357,0.9438409805297852,95,90,-7961,12279
4.5,1788432180624,-2.366197109222412,4.2816901206970215,-0.0024857071693986,-0.0017324797809123,0.4195424914360046,0.9077306389808656,0.0277341570038532,-0.0088415743163392,2.491018741047993e-05,-0.0052626491524279,-0.0181920733302831,1.0099422931671145,-0.0014615627005696,-0.0026326728984713,0.7827504277229309,0.6223284006118774,0.0053087533181025,-0.0060109796594364,0.9734953222209805,0.0748217105865478,0.2021991610527038,-0.1754007339477539,85,59,-8546,11390
4.6,1788432180724,-2.169013977050781,3.211267709732056,-0.0025170391891151,-0.0014127952745184,0.46192666888237,0.8869134187698364,0.0264114546442628,-0.0075625653610006,-6.03266623269268e-06,0.0035967964213341,0.0061004874296486,0.958711802959442,-0.0011327872052788,-0.0025064321234822,0.8152991533279419,0.5790334343910217,0.0143056720573227,-0.0472387875559612,0.8545736882801567,0.0079213976860046,-0.2252925634384155,-0.8428754806518555,73,19,-7519,7609
4.7,1788432180824,-2.2253520488739014,2.8450703620910645,-0.0024064583703875,-0.0014342442154884,0.4993554651737213,0.8663926720619202,0.0206459083366063,-0.0123086291277684,-8.426393825905893e-06,-0.006133388262242,0.0068384194746613,0.8193832039833069,-0.0017565479502081,-0.00227209366858,0.8356373906135559,0.5492740273475647,-0.003802033149199,0.0120669985097872,0.6790902601782107,-0.1141112446784973,-0.3331122398376465,-0.2630500793457031,85,88,-7202,8803
4.8,1788432180924,-1.774647831916809,2.6478872299194336,-0.0022698636166751,-0.0015441022114828,0.531827986240387,0.8468479514122009,0.0143077526420324,-0.0055130235086667,-2.233538689623463e-06,-0.0009061762248165,-0.0053011244162917,0.6507577896118164,-0.001101080328226,-0.0025104088708758,0.8566824793815613,0.5158368349075317,0.0032041986628161,-0.0233238693832002,0.5803501494227854,-0.1577387452125549,0.1697680354118347,0.0435466766357421,62,73,-6724,8166
4.9,1788432181024,-2.4788732528686523,4.056337833404541,-0.0019598773214966,-0.0020113692153245,0.560329020023346,0.828265368938446,0.0177602602021381,-0.0056581461324746,8.469153765542689e-06,-0.002400140510872,-0.0147541612386703,0.782065749168396,-0.0010259458795189,-0.0027492055669426,0.8774304986000061,0.4796947240829468,-0.0076180807049609,0.0044304401792282,0.9916638472889084,-0.2218915820121765,0.0496529340744018,-0.0250158309936523,131,138,-8811,13498
5.0,1788432181124,-2.7042253017425537,3.88732385635376,-0.0022238539531826,-0.0021139536984264,0.5997920632362366,0.8001500368118286,0.0245106354294248,-0.0099616446430257,-4.3338197628856265e-06,-0.0047850008122622,-0.0001429127878509,1.013525128364563,-0.0008778432384133,-0.0028905346989631,0.8987890481948853,0.4383709728717804,0.0067191143616056,-0.0194691652698936,0.9564120756214408,-0.0758669376373291,-0.3051420450210571,0.2525281906127929,123,59,-10198,10234
5.1,1788432181224,-3.183098554611206,3.633802890777588,-0.0020481145475059,-0.0020124011207371,0.6371016502380371,0.7707743644714355,0.0124271361979836,-0.0091580938803803,4.998434785587039e-06,0.0042856684885919,0.0018508062930777,0.9735875725746156,-0.0015335539355874,-0.0023739552125334,0.9173977971076964,0.3979615569114685,0.006635727487706,0.0456471879116719,0.9913285183718784,0.0144623517990112,-0.040884256362915,0.0735998153686523,44,99,-8258,11156
5.2,1788432181324,-3.126760482788086,3.521126747131348,-0.0023348000831902,-0.0018052806844934,0.6614755392074585,0.7499609589576721,0.0191520021776406,-0.0106650040490435,-2.6040007654546557e-05,-0.0025641673710197,0.0077767041511833,0.9949804544448853,-0.0004647243767976,-0.003116269595921,0.9287384748458862,0.370722234249115,-0.0058287640206238,-0.1111525894178057,0.914604468880556,-0.1487646698951721,0.3318575620651245,-0.2739152908325195,82,120,-8773,11506
5.3,1788432181424,-2.4788732528686523,3.380281686782837,-0.0004728777566924,-0.0031290769111365,0.7127753496170044,0.7013852596282959,0.0193530507637057,-0.0117276745181213,1.7117628373662432e-05,0.0115207778289914,-0.033823225647211,0.9294063448905944,0.0014284271746873,-0.0030024508014321,0.9530092477798462,0.3029229640960693,0.0135455988551533,-0.0477379178785161,0.8604219013884238,0.0399227142333984,0.2124879956245422,0.0797357559204101,53,67,-7511,8897
5.4,1788432181524,-1.97183096408844,2.873239517211914,-0.000379002187401,-0.0028689075261354,0.7392900586128235,0.6733809113502502,0.0140263249922697,-0.0089834495822664,2.427996732047154e-06,0.0063320533372461,0.0030969250947237,0.7717296481132507,0.0011039720848202,-0.0026677316054701,0.96308171749115,0.269193559885025,0.0118921951699541,-0.0134867332725446,0.7598059934007815,0.182436466217041,0.0873624682426452,0.0488815307617187,83,78,-7729,9293
5.5,1788432181624,-2.05633807182312,2.929577350616455,-0.000125783146359,-0.0025770349893718,0.7626218795776367,0.6468393206596375,0.0150567313714102,-0.0025873706845208,-4.140574385380465e-06,0.00767028843984,0.0041091535240411,0.7376129031181335,0.0010120244696736,-0.0021692933514714,0.9743393659591676,0.2250711768865585,0.0093174106760239,-0.0009204007368994,0.8838797819787588,0.0646194219589233,0.2314305901527404,-0.252568244934082,97,105,-8096,9605
5.6,1788432181724,-3.183098554611206,3.7183098793029785,-0.0004315105034038,-0.0020705386996269,0.7874472737312317,0.6163784265518188,0.0131753768017385,-0.0066334816786511,-1.2394501742119611e-05,0.0014925230061635,0.0199531316757202,0.8260207176208496,0.0001201638951897,-0.0017884727567434,0.9827672243118286,0.1848387569189071,0.0119892080828799,0.0157794308529954,1.0507348221508828,-0.123736560344696,0.4000030755996704,0.1033792495727539,53,94,-9053,11610
5.7,1788432181824,-3.070422649383545,3.577464818954468,-0.0009395526139996,-0.0015039388090372,0.8214504718780518,0.570277214050293,0.0178831817999838,-0.0099938930785032,2.0195169052052066e-06,-0.0005520569975487,0.0072364187799394,1.0378037691116333,-0.0003619948402047,-0.0017215479165315,0.9902731776237488,0.1391258537769317,0.0021944746473678,0.019762180809642,0.9639499876071436,-0.1002044081687927,0.4942402243614197,0.6316709518432617,107,113,-8807,11616
5.8,1788432181924,-2.4788732528686523,3.323943614959717,-0.0012740367092192,-0.0014946016017347,0.8477992415428162,0.5303135514259338,0.0160558957751692,-0.0112746015992662,6.213529965486301e-06,-0.0029770787805318,-0.0042850063182413,0.9894942045211792,-0.0005399975925683,-0.0017972318455576,0.9967575669288636,0.0804424360394477,0.0024622899348051,0.0098791723223472,0.9304026566595816,0.0187821984291076,0.1671502590179443,-0.7952203750610352,57,59,-8397,10160
5.9,1788432182024,-2.169013977050781,4.14084529876709,-0.0013093738816678,-0.0013736264081671,0.8702828288078308,0.4925487339496612,0.0150284927895883,-0.0100675095164589,-9.353677080265405e-06,0.0011604530736804,0.0027180649340152,0.8559962511062622,-0.0005264179781079,-0.001674803905189,0.9991339445114136,0.0415739081799984,0.0069478970137446,-0.0043472697645465,0.8593245961961947,0.4851015210151672,0.6216391324996948,-0.4885845184326172,23,165,-6048,13826
6.0,1788432182124,-1.154929518699646,2.422535181045532,-0.001154868863523,-0.001385917305015,0.8948180079460144,0.4464274644851684,0.039044807231597,-0.0094377689878671,1.4962566493231163e-06,0.0008098487160168,-0.0103956451639533,0.9863513708114624,0.0006872490048408,0.0018120305612683,-0.9999961853027344,0.0019878735765814,-0.0034997385663164,0.0172216909684152,0.8661975481953222,0.0762397646903991,-0.1890212297439575,0.6461620330810547,40,59,-1674,3449
6.1,1788432182224,0.0,0.0,-0.0013819395098835,-0.0012387769529595,0.9046761989593506,0.4260957241058349,0.0203225339612852,-0.0122050394789506,6.15524314150471e-06,0.0022518471814692,5.661773229803657e-06,0.3097126185894012,0.0005462141707539,0.0017511211335659,-0.9998540282249452,0.0169883780181407,-0.0029614834925291,-0.0096762606825209,-0.0417395465912571,0.0310865044593811,-0.1402148008346557,-0.0093059539794921,0,0,0,0
6.2,1788432182324,0.0,0.0,-0.0013755115214735,-0.001259712036699,0.9045554399490356,0.4263520836830139,4.059468104366889e-05,-0.0016560460608936,-5.659070099374212e-06,4.774155293318927e-09,0.0,0.0,0.0006066346541047,0.0017378591001033,-0.9998559951782228,0.0168678108602762,-0.0016496565315491,-0.0028562132040412,4.842386749528556e-05,0.0107151865959167,-0.0847644805908203,-0.0289278030395507,0,0,0,0
6.3,1788432182424,0.0,0.0,-0.0013755115214735,-0.001259712036699,0.9045554399490356,0.4263520836830139,0.0,0.0,0.0,0.0,0.0,0.0,0.0006318250671029,0.001742597669363,-0.9998567700386048,0.0168196577578783,-0.0004492492298732,0.0029297910032243,-0.0024239469283235,-0.0606409907341003,-0.0919138193130493,-0.0092096328735351,0,0,0,0
6.4,1788432182524,0.0,0.0,-0.0013755115214735,-0.001259712036699,0.9045554399490356,0.4263520836830139,0.0,0.0,0.0,0.0,0.0,0.0,0.0006901184096932,0.0017573209479451,-0.9998571276664734,0.0167937744408845,0.0007904482771324,0.0002642963754915,-0.0002968031703829,0.0195310711860656,0.0125104188919067,-0.0017328262329101,0,0,0,0
6.5,1788432182624,0.0,0.0,-0.0013755115214735,-0.001259712036699,0.9045554399490356,0.4263520836830139,0.0,0.0,0.0,0.0,0.0,0.0,0.0006753150373697,0.0017587039619684,-0.9998569488525392,0.0168070625513792,-0.0010287827519754,0.0013946445090108,-0.001240702935142,0.0318127870559692,0.0179167389869689,0.0036725997924804,0,0,0,0
6.6,1788432182724,0.0,0.0,-0.0013755115214735,-0.001259712036699,0.9045554399490356,0.4263520836830139,0.0,0.0,0.0,0.0,0.0,0.0,0.0006892681121826,0.0017952229827642,-0.9998567700386048,0.0168150123208761,-9.572517911721728e-05,-0.00169075299641,0.0009427496360712,0.0123500227928161,0.0186961889266967,-0.0232734680175781,0,0,0,0
6.7,1788432182824,0.0,0.0,-0.0013755115214735,-0.001259712036699,0.9045554399490356,0.4263520836830139,0.0,0.0,0.0,0.0,0.0,0.0,0.0006874669343233,0.0018181605264544,-0.9998570084571838,0.0167989060282707,-0.0002700489077357,-0.0007932935982172,0.0005825848301309,-0.0361766815185546,-0.0491365790367126,-0.0108880996704101,0,0,0,0
6.8,1788432182924,0.0,0.0,-0.0013755115214735,-0.001259712036699,0.9045554399490356,0.4263520836830139,0.0,0.0,0.0,0.0,0.0,0.0,0.0006098821759223,0.0018279217183589,-0.9998572468757628,0.0167836025357246,-0.0007797889227158,0.0011193926910835,-0.0014932073502156,0.0068469047546386,-0.0262179970741271,0.0039329528808593,0,0,0,0
6.9,1788432183024,0.0,0.0,-0.0013755115214735,-0.001259712036699,0.9045554399490356,0.4263520836830139,0.0,0.0,0.0,0.0,0.0,0.0,0.0006511947140097,0.0018222257494926,-0.9998567700386048,0.0168129298835992,-0.0009812637368702,0.0002649839261168,-0.0004753581320484,0.0425986051559448,0.0070476531982421,-0.0044374465942382,0,0,-257,591
7.0,1788432183124,-1.211267590522766,1.6056338548660278,-0.0013755115214735,-0.001259712036699,0.9045554399490356,0.4263520836830139,0.0,0.0,0.0,0.0,0.0,0.0,0.0006976854056119,0.001830656081438,-0.9997490048408508,0.0223174896091222,0.0043020833346442,0.0120883356206003,0.3498724119083204,-0.6661545634269714,0.8961586356163025,-0.16314697265625,50,404,-4867,13975
7.1,1788432183224,-1.8309859037399288,4.619718074798584,-0.0013680721167474,-0.0014005278935655,0.914048969745636,0.405599296092987,0.0289767324571038,0.0034377755052089,4.436498607934259e-06,-0.0013878241879865,-0.0041584502905607,0.6884302496910095,0.0003680875524878,0.0016749035567045,-0.998242974281311,0.059228703379631,0.0095562581007643,-0.0197245842660464,1.0218592564360642,-0.0447948575019836,0.4427041411399841,0.3118534088134765,74,100,-7287,12996
7.2,1788432183324,-1.4929577112197876,4.816901206970215,-0.0013075782917439,-0.001515639713034,0.9354856014251708,0.353359043598175,0.0427773306904558,-0.0084509159625136,1.2585435424974745e-05,-0.0067789051681756,0.0053558168001472,1.011881709098816,0.0004896102473139,0.0019533419981598,-0.9945188164711,0.1045384332537651,-0.0045121430983637,0.0033193348136443,0.9477643681600132,0.2631644606590271,0.1368750929832458,0.2465219497680664,23,137,-2172,16215
7.3,1788432183424,0.0,7.352112770080566,-0.0009014341048896,-0.001768761430867,0.9502925276756288,0.3113521635532379,0.1065213527317356,-0.0017043311294353,1.6448972923268938e-06,-0.002471154090017,-0.013683988712728,0.9073636531829834,0.0002208296209573,0.001890642568469,-0.986904799938202,0.161292478442192,0.006537319932875,0.0244997587078352,1.000297440865257,0.97339928150177,-0.0543857216835022,-1.2947940826416016,178,257,7326,23366
7.4,1788432183524,2.3380281925201416,8.873239517211914,-0.000211424761801,-0.0015265414258465,0.9639698266983032,0.2660073339939117,0.1826645568583015,-0.0017688500116317,8.375154837371885e-05,0.0149831874296069,-0.0073126526549458,0.9787693619728088,-0.0005000447854399,0.0013653729110956,-0.9785423874855042,0.2060408145189285,0.0008089469713369,-0.0050797942160747,1.050850013005242,-0.051672875881195,0.2307645678520202,-2.7294793128967285,36,67,5533,23138
7.5,1788432183624,1.94366192817688,8.08450698852539,-0.0015319463564082,-0.0016980518121272,0.9757156372070312,0.2190289199352264,0.1765254618610033,-0.0063689474738636,-2.0955329101778464e-05,-0.0193963553756475,0.0199490264058113,0.975151538848877,0.0005889097228646,0.0022367527708411,-0.9685540199279784,0.248792678117752,-0.0007349297375623,0.0019692349782756,1.0365630670200556,0.0835904479026794,0.1486149430274963,-1.2622079849243164,66,104,6637,23178
7.6,1788432183724,1.6901408433914185,8.394366264343262,-0.0014410961885005,-0.0015520916786044,0.9849001169204712,0.173110693693161,0.1718980629645408,-0.0057997386117874,4.4803528275935886e-05,0.027905847877264,-0.0260586570948362,0.9945058226585388,0.0009416006505489,0.0017992835491895,-0.9564748406410216,0.2918079197406769,0.0313957225115629,-0.0076511879782341,1.0516527370440794,-0.2127196192741394,-0.1498290300369262,0.0822172164916992,91,76,6510,22958
7.7,1788432183824,2.253521203994751,8.0,0.0003517715376801,-0.0001487883127992,0.993030607700348,0.1178562343120575,0.1731355802980789,0.0011595384540558,8.314605215862989e-05,0.0065813204273581,-0.0209161732345819,0.9826121926307678,-0.0007230537012219,8.13603401184082e-06,-0.9377169609069824,0.3473992943763733,-0.0034424752060732,-0.0075583176129359,0.830771791837824,-0.2360281348228454,-0.349866509437561,0.3762645721435547,32,81,6696,21822
7.8,1788432183924,1.94366192817688,8.338027954101562,0.0003749030875042,-0.0008473716443404,0.9971930384635924,0.0748672634363174,0.1664169532750378,-0.0037625588307001,-3.292080241948422e-05,-0.0174380782991647,0.0110563710331916,0.8853947520256042,-0.0008510947227478,0.0007312912493944,-0.9229215979576112,0.3849863111972809,-0.0123892571770498,-0.0027562767094291,0.910791565440077,0.0622105002403259,0.2366848587989807,-0.6513385772705078,52,145,5348,23805
7.9,1788432184024,2.563380241394043,7.690140724182129,-0.0001238169934367,-0.0010453587165102,0.999541699886322,0.0302536431699991,0.1688488649008202,-0.0031409873728328,-7.893528339396119e-05,-0.0024576815776526,0.0225703194737434,0.9260340929031372,-0.0002407794818282,0.0010215044021606,-0.9059866666793824,0.4233048260211944,-0.0014952786048372,0.006881159613281,0.8803641205973198,-0.1230471730232238,-0.0571354627609252,-0.7509365081787109,45,91,7895,21230
8.0,1788432184124,2.5352113246917725,7.915493011474609,0.0012376261875033,0.0011324067600071,-0.9998486042022704,0.0173225253820419,0.170883838735804,-0.0021785019532008,-0.0001129280693385,-0.0036841670516878,0.0310618821531534,0.8244743347167969,0.0017640748992562,0.0021879924461245,-0.8830893635749817,0.46919646859169,-0.0058719630481971,0.0940673781760116,1.0040465946393995,0.0655370354652404,0.0217326879501342,-1.5067195892333984,88,54,9386,19756
8.1,1788432184224,4.056337833404541,6.422535419464111,0.0014201960293576,0.0012975852005183,-0.9985358715057372,0.0540585331618785,0.1743930753339004,-0.0005110051806548,0.0001515176008293,9.759194654179735e-06,-0.0794503465294838,0.6366657614707947,0.000348855741322,0.0013319328427314,-0.8695143461227417,0.4939057528972626,0.0026280260398299,-0.0747536120396552,0.3826402713585008,0.3255912065505981,0.0858347415924072,1.331254959106445,48,22,12271,15770
8.2,1788432184324,3.746478796005249,6.591549396514893,0.0013768729986622,0.0016922070644795,-0.9976604580879213,0.0683286488056182,0.1657232068227164,-0.0006389854635332,3.73575298801484e-05,-0.0121854953467845,-0.0061782086268067,0.2609333097934723,0.0006906865164637,0.0023276517167687,-0.863386332988739,0.5045375227928162,-0.0170441680806515,0.0259596061152218,0.3207811719424291,-0.1846899390220642,0.4268173575401306,0.9943342208862304,34,124,9682,19152
8.3,1788432184424,3.859154939651489,6.366197109222412,0.0013001877814531,0.0017642084276303,-0.9960120320320128,0.0891913473606109,0.1600472086198623,0.0019316118535549,-7.542988313060303e-05,-0.0067700035870075,0.0159198939800262,0.4600655436515808,0.0001365216448903,0.0018858602270483,-0.8498340845108032,0.5270469188690186,0.0131240976975553,-0.0256883828415362,0.3723669327761881,-0.0767078399658203,-0.2354848384857177,-0.8986377716064453,99,86,12217,17905
8.4,1788432184524,3.8309860229492183,6.0,0.0007913507288321,0.0019674282521009,-0.994044065475464,0.1089584976434707,0.1600163868768677,0.0060419800273345,0.000110207851895,-0.0111188534647226,-0.0064170723780989,0.3159424662590027,0.000130595639348,0.0024860594421625,-0.8419328331947327,0.5395765900611877,-0.0235452094539638,0.0803781533339286,0.3127818367983685,0.1687445640563964,-0.2735047936439514,-0.5196571350097656,116,95,14000,16723
8.5,1788432184624,4.450704097747803,5.915493011474609,-0.0005592845845967,0.0012028402416035,-0.9924049377441406,0.1230069920420646,0.158615172750651,0.0058194792077722,5.801465321801062e-05,0.0128008853644132,-0.0226120557636022,0.2767766714096069,-0.0013163164258003,-4.347320646047592e-05,-0.8327575325965881,0.5536363124847412,0.0340014825388059,-0.042250041621644,0.2605637049818388,-0.0735417604446411,-0.097794234752655,-1.4694252014160156,100,97,11717,16719
8.6,1788432184724,4.816901206970215,5.521126747131348,-0.0017562509747222,-0.0001483965461375,-0.990831971168518,0.1350883543491363,0.1643987942211761,0.0013023059415322,4.3162572013949016e-05,0.0230606086552143,-0.0287254452705383,0.2331960946321487,-0.00155227817595,-0.0013831369578838,-0.8270447254180908,0.5621322989463806,0.018238784755371,-0.010277544976401,0.2053710766154652,-0.243731141090393,0.1438784599304199,1.3062067031860352,90,88,12782,15580
8.7,1788432184824,4.366197109222412,5.436619758605957,-0.0011667766375467,0.0005325356614775,-0.9899834394454956,0.1411777287721634,0.1606100380667689,0.0024552968289608,-6.902284199991306e-05,-0.0231645666062831,0.0115147475153207,0.0775114521384239,-0.000402589328587,0.0009400462731719,-0.82462477684021,0.565679132938385,-0.0150405977545236,0.1030543924690795,0.1336711757359226,-0.1610992550849914,0.3586701154708862,-0.5900392532348633,73,148,13808,16967
8.8,1788432184924,5.042253494262695,5.408450603485107,-0.0006739993114024,0.0011176388943567,-0.9889772534370422,0.1480618864297866,0.1626556676783203,0.0041188840778676,-3.164119611260572e-05,-0.0042466297745704,0.0143556734547019,0.1516308337450027,-0.0016444716602563,0.0005191601812839,-0.8206677436828613,0.5714031457901001,-0.0154026608734671,-0.0436930153341276,0.1673650348975534,0.3964978456497192,-0.0832839608192443,-1.280660629272461,130,61,13649,14676
8.9,1788432185024,4.816901206970215,5.211267471313477,-0.0029499451629817,0.0025825309567153,-0.9884933829307556,0.1512129157781601,0.1750684434650256,-0.006793633343153,6.529423690651974e-05,-0.0609566867351532,-0.0576281286776065,0.0131562007591128,-0.0051073413342237,0.0015397109091281,-0.8206047415733337,0.5714712738990784,-0.0593967047760599,-0.0302815432773658,-0.0631662213097215,-0.2617362737655639,-0.2825698852539062,-2.2059903144836426,71,127,14153,15453
9.0,1788432185124,4.8450703620910645,5.154929637908936,-0.0031731571070849,0.0033619634341448,-0.9882972240447998,0.1524703353643417,0.1591700428762761,-0.0098984498330459,8.911789841703068e-05,0.0140199214220047,-0.0135331908240914,0.0828579142689704,-0.004308309406042,0.0015960037708282,-0.8186836838722229,0.574226438999176,0.0055539434471211,0.0184843238888858,0.080220277698259,0.0816971659660339,-0.1620160341262817,0.2657222747802734,81,105,14997,14860
9.1,1788432185224,5.323943614959717,5.070422649383545,-0.0025757839903235,0.0034702252596616,-0.988095760345459,0.153779461979866,0.1631277723541534,-0.0057018659125199,-6.346556513189522e-05,-0.0025504429358989,0.0218395423144102,-0.0044267647899687,-0.0033514844253659,0.0024070488288998,-0.8186344504356384,0.5743000507354736,-0.0020575343517233,0.0207476632013431,-0.0009541290682839,-0.0879272818565368,0.0726319551467895,0.695439338684082,81,105,13495,15177
9.2,1788432185324,5.239436626434326,5.183098793029785,-0.0015255400212481,0.0038026538677513,-0.9881103038787842,0.1536924093961715,0.1692355010860287,-0.0007515978826509,6.142881761244071e-06,0.0002297584433108,0.0146418772637844,0.0018210287671536,-0.0030946973711252,0.0025935927405953,-0.8186929225921631,0.5742174983024597,0.0048217429463328,-0.0137592729800225,-0.0126319407354023,-0.0023943781852722,-0.0973272323608398,-0.2353601455688476,107,83,13437,15214
9.3,1788432185424,5.042253494262695,5.323943614959717,-0.0013293144293129,0.0038075409829616,-0.9879775643348694,0.1545449495315551,0.1616477931605404,-0.001578050438199,-4.537653118021208e-06,0.00104936666321,0.0076799243688583,0.0346870273351669,-0.0028746668249368,0.0028084591031074,-0.8175458312034607,0.5758495330810547,0.0007833440401057,0.0055489729796279,0.0853907583651657,-0.1007466912269592,0.0720189809799194,0.6630792617797852,97,106,13424,15299
9.4,1788432185524,4.732394218444824,5.154929637908936,-0.0017961547710001,0.0035249122884124,-0.9875808358192444,0.1570621579885482,0.165785443918934,-0.0022451343342953,4.92373448061844e-05,0.0085289711132645,-0.0093943681567907,0.0336643755435943,-0.0030519310384988,0.0022482387721538,-0.8164936900138855,0.5773417949676514,0.00859470699074,0.0018224857144758,0.011269099551437,-0.0175322294235229,-0.0913222432136535,-1.3992395401000977,107,84,14403,15396
9.5,1788432185624,4.873239517211914,4.901408672332764,-0.0020360003691166,0.0033504783641546,-0.9874584674835204,0.1578303575515747,0.1559956880658512,0.0002659810436806,2.344100575736136e-05,0.0036895857192575,-0.0085932286456227,0.0139813562855124,-0.0032553514465689,0.0021354528144001,-0.8161255717277527,0.5778616070747375,-0.0040057490352912,0.0086394653654356,-0.0070523416838344,0.2178674340248108,0.1237298250198364,1.1123361587524414,64,95,15078,15315
9.6,1788432185724,5.014084339141846,5.183098793029785,-0.0020590294152498,0.0035705249756574,-0.9874383211135864,0.1579512953758239,0.1586984696001953,-0.0005602487387058,2.1163760617200754e-07,-0.0133142564445734,0.0006962690385989,0.0074175824411213,-0.0028258124366402,0.002735611051321,-0.8159052133560181,0.5781722664833069,0.0161316944066183,0.0206642102735331,0.0233561799315357,-0.0239827036857604,0.1160330176353454,1.3756933212280271,41,87,14535,14709
9.7,1788432185824,5.267605781555176,5.042253494262695,-0.0015099282609298,0.0034069335088133,-0.987280011177063,0.1589469164609909,0.1675626997635703,-0.0022897490974718,6.859616839899826e-05,0.0030012091156095,-0.0242623593658208,0.0077312686480581,-0.0031364616006612,0.0020920243114233,-0.8156751990318298,0.5784979462623596,0.0030706747594641,-0.0182942507580874,-0.0255859458316874,0.5202320218086243,0.1863213777542114,1.5607013702392578,103,96,13895,14672
9.8,1788432185924,5.605633735656738,5.014084339141846,-0.0011065525468438,0.0033832520712167,-0.9873607754707336,0.1584483534097671,0.1695703647643184,-0.0022130301510677,-4.775337709968756e-06,0.0,4.871007153184337e-09,0.0,-0.0027262894436717,0.0023701507598161,-0.8157787919044495,0.5783527493476868,0.0132288308097936,-0.0136303358136413,0.0121449136208948,-0.1042590737342834,0.0955032706260681,-1.3790597915649414,74,57,13671,13791
9.9,1788432186024,4.8450703620910645,5.211267471313477,-0.0011065525468438,0.0033832520712167,-0.9873607754707336,0.1584483534097671,0.1594187745454895,-0.0056684925096215,7.152565368687488e-06,0.0,4.764840522142322e-09,0.0,-0.0022130170837044,0.0026351660490036,-0.8157177567481995,0.5784400105476379,0.0017610323528804,0.0596878394707797,0.0393159578465549,0.0793474912643432,-0.0249107480049133,-1.2643823623657229,34,115,14040,15767
10.0,1788432186124,5.239436626434326,5.295774459838867,-0.0004156298236921,0.0038466593250632,-0.987060010433197,0.1603050380945205,0.1698652511215125,0.000373623902773,-9.078955238381164e-05,-0.009871806949377,0.0309049282222986,0.0510944873094558,-0.0018031252548098,0.0034469366073608,-0.814275860786438,0.5804651379585266,-0.0001098532207813,0.0163061174089335,0.0647999676060556,-0.1132397055625915,0.2333497405052185,-0.6746282577514648,62,108,12682,15401
10.1,1788432186224,5.239436626434326,5.070422649383545,0.0001381794572807,0.0038951255846768,-0.9868181943893432,0.1617858856916427,0.1685038745639524,-0.0016657272512059,-8.771530830476358e-05,0.0003033158718608,0.0108081446960568,0.0147983944043517,-0.0016986411064863,0.0037703597918152,-0.8136927485466003,0.5812805891036987,0.0094714688598892,0.0089141888064807,0.0105560940454275,-0.0923017263412475,0.0667864084243774,1.4030637741088867,59,123,13723,15280
10.2,1788432186324,5.323943614959717,4.957746505737305,0.0001104862894862,0.0038421477656811,-0.9866971373558044,0.1625237613916397,0.1616381611612728,-0.0012299303943523,-2.1877537725401043e-06,0.0049124923534691,0.0004977311473339,0.0145785883069038,-0.0010575670748949,0.0040409909561276,-0.8133667707443237,0.5817362666130066,-0.0150186228742851,0.0655187046340511,-0.0200011635244506,0.0225070118904113,-0.2380560040473938,-1.3870000839233398,110,125,13568,15642
10.3,1788432186424,5.070422649383545,4.901408672332764,0.0001588421291671,0.0035657051485031,-0.9866744875907898,0.162667229771614,0.1631115593552154,-0.0044693728939161,-4.351451399166578e-06,0.0151147507131099,-0.0200645197182893,-0.0026678789872676,-0.0013213651254773,0.0029934933409094,-0.8133159279823303,0.5818130373954773,0.0105059147821882,0.0106947998794678,0.005917012465037,-0.1074600219726562,0.2098203897476196,0.7441749572753906,137,96,14357,15684
10.4,1788432186524,4.873239517211914,5.098591327667236,-0.0003195196040906,0.0033048861660063,-0.9866520166397096,0.1628089547157287,0.1617846893303362,-0.0049661380159524,9.31796561373954e-06,0.0,0.0,0.0,-0.0020936010405421,0.0025539509952068,-0.8131758570671082,0.5820086598396301,-0.0056555571212196,0.0068295608879261,0.0024634223137728,-0.0133111476898193,-0.1198605298995971,0.4308500289916992,108,69,14943,14893
10.5,1788432186624,4.929577350616455,4.985915660858154,-0.0009307217551395,0.0033448026515543,-0.9866411685943604,0.1628716886043548,0.1686467401180423,-0.0040398215727841,6.800088993683728e-05,-0.0057135401293635,-0.0245455484837293,0.0025368314236402,-0.0020602568984031,0.0031014243140816,-0.8135309815406799,0.5815098285675049,-0.0020485470027529,0.050545677340003,-0.0196787837578142,0.001152753829956,-0.4627156257629394,-1.3104000091552734,71,104,14673,15139
10.6,1788432186724,4.788732528686523,5.098591327667236,-0.0008270808029919,0.0033783006947487,-0.9866236448287964,0.1629774272441864,0.1612750122373013,-0.0014507582142127,-2.912656382195175e-06,0.0080420095473527,-0.0083227064460515,0.0148850437253713,-0.0023067304864525,0.0024103438481688,-0.8127305507659912,0.5826302170753479,0.0040067440282073,-0.0247352099025701,0.0446982217632763,0.450356662273407,0.1253342628479004,0.8321533203125,82,87,15192,14679
10.7,1788432186824,4.732394218444824,5.183098793029785,0.0002502693387214,0.0028151245787739,-0.9863753914833068,0.1644859910011291,0.1710544874978113,-0.0028437093944965,-0.0001134974914578,0.0148871410638093,0.0263421609997749,0.0258654318749904,-0.0010242229327559,0.0025824503973126,-0.8116864562034607,0.5840869545936584,-0.0010025653016328,-0.0203904358936208,0.0486458154441192,-0.0146017670631408,0.0763475894927978,-0.7820148468017578,35,91,14144,15187
10.8,1788432186924,4.732394218444824,5.070422649383545,0.0006012562080286,0.0026790844276547,-0.9858328700065612,0.1677083671092987,0.1645537435535509,0.0003444657796599,2.254132851123216e-06,-0.0055713816545903,-0.008082422427833,0.0404280982911586,-0.0009473022073507,0.0030061490833759,-0.8101965188980103,0.5861499309539795,-0.0353420375613331,-0.0061475170122651,0.0055751393951745,-0.049070656299591,-0.0118010640144348,0.6337623596191406,45,135,14268,16010
10.9,1788432187024,4.676056385040283,5.352112770080566,0.0005103937583044,0.0027803459670394,-0.9854546785354614,0.1699152290821075,0.1675839463599075,-0.0013575037608773,-5.616292883824372e-06,-0.0035699240397661,-0.0023801776114851,0.0680724084377288,-0.0007235454395413,0.0027861399576067,-0.8086408376693726,0.5882956385612488,-0.0034821864928918,0.0058306135735098,0.0487052218752225,-0.3994411826133728,-0.2269006371498108,0.5356559753417969,31,91,14424,14728
11.0,1788432187124,5.126760482788086,5.239436626434326,0.0004980394733138,0.0030351127497851,-0.9850373864173888,0.1723127365112304,0.1583062631725858,-0.0004949256082982,-4.098265146612323e-05,-0.0105261960998177,0.0081905145198106,0.0647320747375488,-0.0008553443476557,0.0031195748597383,-0.8072856664657593,0.5901521444320679,-0.0086181359993574,0.0104273752910978,0.0519749129133637,0.0825992226600647,0.0588771700859069,-1.4987335205078125,57,86,12856,15198
11.1,1788432187224,4.3380279541015625,5.577464580535889,2.7574715204536915e-06,0.0032935258932411,-0.9844821691513062,0.1754535883665084,0.1684142155845968,0.0003385886548738,1.7127595983753272e-05,-0.0032096188515424,-0.0006334400968626,0.0832886025309562,-0.0014303317293524,0.0026725037023425,-0.8036276698112488,0.5951247811317444,0.0106750093292566,-0.0263793668390947,0.1778268573012839,-0.1642322540283203,-0.1339285969734192,1.5604867935180664,48,85,13493,16470
11.2,1788432187324,4.591549396514893,5.605633735656738,-0.0004252766666468,0.0031640713568776,-0.9831931591033936,0.1825401932001114,0.1652371429401248,0.0040465911727261,2.1794979048145932e-05,0.0019375262781977,-0.0122698973864316,0.1486998349428177,-0.0018775323405861,0.0025074640288949,-0.7993819117546082,0.6008151173591614,-0.0004692131140367,-0.0122826656299833,0.1691661322521783,0.1945143938064575,0.3122251629829407,-1.2275934219360352,116,117,12774,16484
11.3,1788432187424,4.985915660858154,5.154929637908936,-0.0012175501324236,0.0028137601912021,-0.9814537167549132,0.1916743069887161,0.1609769272586098,0.0045675666616519,6.714387301868227e-05,0.0069808680564165,-0.0193145219236612,0.1723632663488388,-0.0020918361842632,0.0022375350818037,-0.7948629856109619,0.6067813038825989,-0.0050961005698166,0.027814869187759,0.1707643394549637,0.2441381812095642,-0.1525452136993408,-1.3383235931396484,77,116,13689,15797
11.4,1788432187524,5.211267471313477,5.239436626434326,-0.0007524720858782,0.0031736698001623,-0.9806440472602844,0.1957718133926391,0.1670155789479057,0.0027215298967741,-9.726188705929356e-05,-0.01069110725075,-0.0186663009226322,0.0428204797208309,-0.0029491763561964,0.0018158424645662,-0.7929403781890869,0.6092894077301025,0.0047555455823078,-0.1337368366835277,0.0474981425337193,0.1143943071365356,-0.3518785834312439,5.053481101989746,58,99,12979,15382
11.5,1788432187624,4.619718074798584,5.239436626434326,-0.0024153022095561,0.0027359751984477,-0.9803157448768616,0.1974023878574371,0.1686442535624709,0.0011026514212762,0.0001037268301737,0.003316793590784,-0.0236187819391489,0.0352723710238933,-0.0041406778618693,0.000793594866991,-0.791918933391571,0.6106117963790894,-0.005826744535835,-0.0608297371494362,0.0338442813909547,-0.2182041406631469,-0.1342712044715881,0.0860548019409179,107,91,13500,15983
11.6,1788432187724,5.098591327667236,5.211267471313477,-0.003768139751628,0.0022380528971552,-0.9795365929603576,0.2012182027101516,0.1733937859604476,-0.0003832228971683,9.48730315046211e-05,0.0041801505722105,-0.0147669622674584,0.0670753568410873,-0.0049417605623602,-0.0001844502985477,-0.7895021438598633,0.613727867603302,0.0076605060916606,-0.0615276749238093,0.0550970779021839,0.0413349270820617,0.0068825483322143,1.1247920989990234,79,95,12103,16382
11.7,1788432187824,4.985915660858154,5.211267471313477,-0.0041710934601724,0.0020529138855636,-0.9788501858711244,0.2045255154371261,0.1761568771187095,-0.0009872680887089,5.948248809348093e-05,0.000452944135759,-0.0099350968375802,0.090450569987297,-0.0044446438550949,0.0002913633361458,-0.7872964143753052,0.6165586113929749,-0.0125606190148982,0.0394503548024683,0.0981777669920288,-0.1182002425193786,-0.0511800050735473,-2.2485718727111816,111,87,13586,15398
11.8,1788432187924,4.732394218444824,5.239436626434326,-0.0030292444862425,0.0022276700474321,-0.9781237244606018,0.2079904228448867,0.1588459443429865,-0.0005506036371204,-0.000108376554587,0.0012648901902139,0.030956607311964,0.0570190884172916,-0.003544695675373,0.0002655759453773,-0.7848607301712036,0.6196620464324951,0.0222689204553755,-0.0136687404806252,0.0649268207107931,-0.0673441886901855,0.1231046915054321,-0.2689342498779297,50,81,14310,15234
11.9,1788432188024,5.239436626434326,5.408450603485107,-0.0012162548955529,0.0039356229826807,-0.9775107502937316,0.2108454406261444,0.1646649643947618,-0.0018293945351135,-0.0003185152330404,-0.0644242912530899,0.0865769833326339,0.080410212278366,-0.0026876367628574,0.0035597262904047,-0.782224714756012,0.622980535030365,-0.0107486208145904,0.0184151442215919,0.1513324779944406,-0.241758108139038,-0.3008066415786743,-0.6705732345581055,98,74,12722,15263
12.0,1788432188124,4.647887229919434,5.267605781555176,0.0015141306212171,0.0055921617895364,-0.9760791063308716,0.2173385620117187,0.1644717466638661,-7.161176789242506e-05,-0.0002118265393564,-0.0172133464366197,0.0812093168497085,0.1136162728071212,-0.0004373379051685,0.0063311820849776,-0.779025137424469,0.6269605159759521,-0.0214198043174135,0.1109059722244219,0.1305877135357505,-0.1319899559020996,-0.0631172060966491,0.6164121627807617,54,95,14677,15503
12.1,1788432188224,3.126760482788086,4.676056385040283,0.0009905949700623,0.0052701625972986,-0.97498881816864,0.2221892476081848,0.1659725091468467,0.0003776995633792,0.0001137064106877,0.0069180480204522,-0.0228943694382905,0.0952209532260894,-0.0018004272133111,0.0047054402530193,-0.7743066549301147,0.6327906250953674,0.0067091036887798,-0.0344286084459408,0.2189833615253308,-1.4723756313323977,0.2254965305328369,0.3955440521240234,63,52,5580,13542
12.2,1788432188324,0.0,4.084506988525391,-0.0001266797771677,0.0047882236540317,-0.9715934991836548,0.236607164144516,0.0858226921092445,0.0027657258781561,3.2171871814786054e-05,0.0030701761133968,-0.0269113108515739,0.4019954204559326,-0.002381375990808,0.0040106363594532,-0.7607381343841553,0.6490421891212463,0.0022612128779523,-0.0040614319377,0.5895514779835379,-0.0814078450202941,-0.102006196975708,-0.0916481018066406,37,121,0,12124
12.3,1788432188424,-1.6056338548660278,3.549295663833618,-7.79441324993968e-05,0.0044535542838275,-0.9642958045005798,0.2647902369499206,0.0604228463200733,-0.0020353518267699,-1.5243244442784288e-05,0.0074879331514239,0.0057685985229909,0.6211215257644653,-0.0019159540534019,0.0039956271648406,-0.7412538528442383,0.6712101697921753,0.0014830020282051,0.0146724332445574,0.7744276512410094,-1.01143479347229,0.1973899602890014,-0.4450368881225586,207,79,-11523,10242
12.4,1788432188524,-3.577464818954468,3.0985915660858154,-0.0001955764601007,0.0038450546562671,-0.9521872997283936,0.3054905831813812,-0.0013842420947514,-0.0049265321904673,-1.2535184507182229e-05,0.0106076775118708,-0.0139587679877877,0.9944697022438048,-0.0018595997244119,0.0036038588732481,-0.699400782585144,0.7147182822227478,-0.0071804436669453,0.0078740521691552,1.0252789126610122,0.1955752968788147,0.2703840136528015,0.2721261978149414,30,147,-10477,10957
12.5,1788432188624,-2.985915422439575,3.2957746982574463,-0.0001122485846281,0.0042304182425141,-0.93305242061615,0.3597156107425689,0.0046531251439207,-0.0090122090539856,1.4065167208675073e-05,-0.0083855194970965,-0.0090884305536746,1.0075771808624268,-0.0022615129128098,0.0034017916768789,-0.6664161086082458,0.7455688118934631,0.0001997410908496,-0.0295733938603555,0.9539926661659448,-0.2349523901939392,0.2721434831619262,0.3779668807983398,111,116,-11548,10550
12.6,1788432188724,-3.4084506034851074,3.4084506034851074,-0.000783063005656,0.0042403489351272,-0.9149205684661864,0.4036108553409576,-0.0020774897850473,-0.0010894152294134,-3.3258994917967333e-06,-0.0113381389528512,-0.0138381468132138,0.9944140911102296,-0.0025425441563129,0.0034116422757506,-0.6320681571960449,0.7749012112617493,0.0031256016928935,0.0068941303489516,1.023265681305466,0.065165102481842,-0.1625045537948608,0.2997426986694336,107,81,-10069,10338
12.7,1788432188824,-3.492957830429077,3.380281686782837,-0.0012615243904292,0.003853540867567,-0.8944879174232483,0.4470738470554352,0.0010245835747643,-0.0034407961384947,-5.241914380311085e-06,-0.0043855258263647,-0.0153928510844707,0.979387640953064,-0.0028897793963551,0.0028540147468447,-0.5968449115753174,0.802346408367157,-0.004328216084053,-0.0081083583496321,0.9658881465358528,0.1621614694595337,-0.3330193758010864,-0.552032470703125,61,101,-9823,10439
12.8,1788432188924,-3.6619718074798575,3.239436626434326,-0.001552203670144,0.0038366443477571,-0.8678539395332336,0.4968021810054779,0.0054073980289083,-0.0082782963653819,6.835864211071096e-06,-0.0055724503472447,-0.0076361894607543,1.0164436101913452,-0.0032664276659488,0.002331412397325,-0.5473942160606384,0.8368653059005737,0.0081493769719778,-0.0406757104270544,1.0144128397620178,-0.1964431405067443,0.2986292839050293,0.9940977096557616,46,90,-9076,10903
12.9,1788432189024,-3.436619758605957,3.3521127700805664,-0.0021296062041074,0.0034917797893285,-0.8429798483848572,0.5379296541213989,0.0038412572510457,-0.0054037090868781,7.784390592734255e-06,-0.0035398758482187,-0.0089125223457813,1.0355675220489502,-0.0034156218171119,0.0021049557253718,-0.5085400342941284,0.8610290288925171,0.0064566730500078,-0.0063154655708631,1.0324819095017506,-0.0918400883674621,0.0967422127723693,-0.1217575073242187,45,103,-9662,10548
13.0,1788432189124,-2.985915422439575,3.2957746982574463,-0.0024506356567144,0.0029659993015229,-0.8163132071495056,0.5775967836380005,0.0049760924532898,-0.0088656924575066,-1.2945780039302656e-06,0.0070907231420278,-0.0208392683416605,0.9799980521202089,-0.0033867256715893,0.0015199342742562,-0.4565574526786804,0.8896862864494324,0.003027284945406,0.0147537014403839,1.0989210475738849,-0.2786455154418945,0.3484456539154053,0.2595653533935547,100,111,-11343,10688
13.1,1788432189224,-3.183098554611206,3.2676055431365967,-0.0028890497051179,0.0024754542391747,-0.7875640392303467,0.6162210702896118,0.0023463631434438,-0.0072340087512548,-4.181829446689751e-06,0.0008757794857956,-0.0244881696999073,0.9999006986618042,-0.0039992043748497,0.0004179626703262,-0.4157811105251312,0.9094558358192444,-0.0065439061484167,-0.0358242151233082,1.0013452520725346,-0.4097365736961365,0.598593533039093,0.8672904968261719,92,96,-10578,10655
13.2,1788432189324,-2.901408433914185,3.2957746982574463,-0.0037448755465447,0.0015952631365507,-0.7516072988510132,0.6595982909202576,0.0103983355388853,-0.0090268214814408,7.847105750707561e-06,0.0291733164340257,-0.0052356487140059,0.9668144583702089,-0.0036724908277392,-0.000261940062046,-0.3755225837230682,0.9268059134483336,0.051726843565816,0.024979382205469,0.9252993859854658,-0.6620795130729675,0.5719128251075745,-0.3075265884399414,146,116,-11857,10479
13.3,1788432189424,-3.4647886753082275,3.211267709732056,-0.0023829024285078,0.0009817011887207,-0.7210463881492615,0.6928818821907043,0.0071998485927337,-0.005614917262528,2.2831418038935933e-08,0.0283888317644596,0.0011758861364796,0.9675669074058532,-0.0024066139012575,-8.948426693677902e-05,-0.3201958537101745,0.9473482966423036,-0.0011304911387525,0.0037141800471785,0.9962080807616994,-0.0544192790985107,0.1788744926452636,-0.0767421722412109,87,81,-10226,10590
13.4,1788432189524,-3.4084506034851074,3.2957746982574463,-0.001945772441104,0.0009418860427103,-0.6869516968727112,0.7266998291015625,0.0043461828601286,-0.0087276706307129,1.8961323408761687e-06,0.0105389393866062,0.0024084623437374,0.9898729920387268,-0.0020032944157719,2.2742897272109985e-05,-0.2770643830299377,0.9608493447303772,0.0071537977203961,0.0018595683483805,0.9977933126970672,-0.0945340991020202,0.2448206543922424,-0.9315509796142578,66,58,-9948,10180
13.5,1788432189624,-3.380281686782837,3.183098554611206,-0.0012311178725212,0.0006760954274795,-0.6519206166267395,0.7582858800888062,0.0057833090080004,-0.0093742022283508,-2.6526698541288987e-06,0.020920468494296,0.0088039636611938,0.9563610553741456,-0.0013175057247281,0.0001550298184156,-0.2344476580619812,0.9721279144287108,-0.0007104344484862,-0.0008649326569375,0.98378668121099,-0.1429812908172607,0.3988629579544067,-0.5540103912353516,49,68,-10009,10539
13.6,1788432189724,-3.1549296379089355,3.2957746982574463,-0.0004136869101785,0.0016297125257551,-0.6083811521530151,0.7936431765556335,0.005317729585779,-0.0160834001233098,7.452504334081887e-06,0.003238582983613,0.0273392591625452,1.0096094608306885,-0.0011058216914534,0.001190235838294,-0.1856428384780883,0.9826159477233888,-0.003556491771256,-0.013222371633246,0.9878750316635256,0.0262644290924072,0.4612688422203064,-0.4478168487548828,54,105,-10474,10053
13.7,1788432189824,-2.9577465057373047,3.2957746982574463,0.0008374382159672,0.0015266259433701,-0.5685893893241882,0.8226196765899658,0.0168438480816059,-0.0160131849411052,-1.807347693109427e-05,0.0287225227802991,-0.0399454496800899,1.0191785097122192,-3.26894223690033e-07,0.0015181871131062,-0.1352364867925644,0.9908121824264526,0.0069744825720274,-0.0705965238047204,1.1011545327707986,-0.1346637606620788,0.6931150555610657,-3.35152006149292,86,50,-11296,9772
13.8,1788432189924,-2.7887322902679443,2.676056385040283,-0.0002094763331115,0.0006098862504586,-0.5305840373039246,0.8476320505142212,-0.0018614826800093,-0.0124411743673213,-2.556654610105868e-06,-0.0057257823646068,-0.0140893505886197,0.8943655490875244,-0.0006566410884261,0.0004510162398219,-0.0939290672540664,0.9955786466598512,-0.0228400913517116,-0.024969533068232,0.8331218624785802,-0.0248271226882934,0.4668595790863037,0.4107074737548828,83,87,-9525,9827
13.9,1788432190024,-2.619718313217163,2.676056385040283,-0.000638709985651,0.0010689354967325,-0.4949356019496918,0.8689287900924683,0.0073645262009607,-0.0093652311291553,-3.329044078275477e-06,0.0007392126135528,0.0009104739874601,0.8687467575073242,-0.0008860295638442,0.0006364919245243,-0.0420820713043212,0.9991136193275452,0.007306576892767,0.0032144899525325,0.8344481270332864,0.051274299621582,-0.3523705005645752,0.0386533737182617,14,31,-7617,8133
14.0,1788432190124,-2.422535181045532,2.5915493965148926,-0.0002877610968425,0.0007092899177223,-0.4563663899898529,0.8897916078567505,0.0089308430203364,-0.0091851661362212,-9.322373883185682e-06,0.0083473762497305,0.0029060156084597,0.7425358295440674,-0.0005404595285654,0.0004845960065722,-0.0094539560377597,0.999955117702484,0.003071044424326,-0.0013691732177218,0.6945496354843553,-0.1935494542121887,0.1629688143730163,0.0901823043823242,138,112,-9624,9305
14.1,1788432190224,-2.2253520488739014,2.366197109222412,-0.000185586803127,0.0007684479933232,-0.4238566756248474,0.9057289361953736,0.005018505931207,-0.0072812161456472,-3.1168531483479417e-06,-0.0001007057799142,0.0068856766447424,0.7889339327812195,-0.0004948871210217,0.0005694264546036,0.0255458876490592,0.9996733665466307,-0.0005085912277208,-0.0124954517613392,0.8308869837409288,-0.0066816210746765,-0.2560980916023254,0.5238361358642578,66,64,-7384,6959
14.2,1788432190324,-2.3943662643432617,2.2253520488739014,-0.000358959659934,0.0005637755384668,-0.3927424848079681,0.9196481704711914,0.0030570390202203,-0.0035039820726018,-7.529660895882475e-07,-0.0027196824084967,-0.0036038062535226,0.6649336218833923,-0.0006784116849303,0.0004104394465684,0.0665363371372222,0.997783660888672,-0.0069959149490213,0.0056819927602038,0.6847292475529555,0.0323203802108764,-0.0590994954109191,-0.0647764205932617,38,95,-6657,7599
14.3,1788432190424,-1.9154930114746092,1.9154930114746092,-0.000539178319741,0.0008644479676149,-0.3632932901382446,0.9316742420196532,0.0060683931460402,-0.0061581731245042,-2.81739526125755e-06,-0.0066917813383042,0.0056688417680561,0.6466379761695862,-0.0009343195706605,0.0006543174386024,0.0960297062993049,0.9953778386116028,-0.0030585569234454,0.006893287355036,0.6168383730222818,-0.1093872189521789,-0.1162304878234863,0.0643520355224609,37,101,-6091,6476
14.4,1788432190524,-2.0,1.6901408433914185,-0.0007435128791257,0.0006255550542846,-0.3361632227897644,0.941803216934204,0.0002339195452582,-0.0076131254198457,2.3277228635331964e-06,-0.0026217328850179,-0.0210450682789087,0.5571365356445312,-0.0009770281612873,0.0002281786873936,0.1211049184203147,0.992639183998108,-0.0026740236955123,-0.0040016509517421,0.4959051807361727,0.3659643530845642,0.0574128031730651,0.1637220382690429,67,110,-6105,7228
14.5,1788432190624,-1.408450722694397,1.5774648189544678,-0.0004160237731412,0.0008837351924739,-0.3079140186309814,0.951413631439209,0.0023765694758298,-0.0041636112147223,-4.491192450267673e-06,0.0078479899093508,0.0046040904708206,0.5720375776290894,-0.000706972554326,0.0006204834207892,0.1539950519800186,0.9880712032318116,0.001873173403489,-0.0001230750795203,0.5589448004680326,-0.1260172128677368,-0.3197170495986938,0.354802131652832,55,85,-6138,5615
14.6,1788432190724,-1.6338027715682983,1.3239436149597168,-0.000454211665783,0.0007175435312092,-0.2853370904922485,0.958426833152771,-0.0004090186968646,-0.0073276318714759,7.518613091459422e-07,-0.0024280457291752,-0.0037016407586634,0.4337576031684875,-0.0007817214354872,0.0003598639741539,0.1733636558055877,0.9848575592041016,-0.0058507428077355,-0.0065642541428734,0.453141887571833,0.077946126461029,0.0536526441574096,-0.1668567657470703,57,184,-5191,6747
14.7,1788432190824,-1.5774648189544678,1.4929577112197876,-0.0006514944252558,0.0007177866646088,-0.264752060174942,0.9643160104751588,0.0025039131466257,-0.002549097700607,-1.2316204625600945e-06,-0.0026555219665169,-0.0013413336127996,0.4675224721431732,-0.0009001418948173,0.000319080427289,0.1939205080270767,0.9810167551040648,-0.000493312179078,-0.0059333731671728,0.4881105799599841,0.0599107146263122,-0.0970145463943481,-0.0774393081665039,39,72,-5691,6350
14.8,1788432190924,-1.4929577112197876,1.5211267471313477,-0.000777306035161,0.0006939290324226,-0.2395839095115661,0.970875084400177,0.0007620151614066,-0.0052264121204667,-7.98450829308295e-06,-0.0027622207999229,-0.0039397305808961,0.4621769785881042,-0.0010625664144754,0.0003725923597812,0.2215527296066284,0.9751477241516112,-0.0017477631254661,0.0059524648567463,0.4650503129212904,0.1607751250267028,-0.0413396954536438,0.2388448715209961,104,89,-5617,6159
14.9,1788432191024,-1.183098554611206,1.154929518699646,-0.000721245072782,0.0011203916510567,-0.2186136990785598,0.9758105278015136,0.0009038437491087,-0.0016856109311954,-1.8215022297110164e-06,-0.0007731196237728,0.0067107430659234,0.4172700643539428,-0.0011693313717842,0.0006687566637992,0.2393159717321396,0.9709408283233644,-0.003050798282281,-0.0018032327011846,0.3321420312935447,0.1583510637283325,-0.1031292676925659,-0.0163507461547851,41,141,-4662,5435
15.0,1788432191124,-1.154929518699646,1.2676056623458862,-0.0008690840913914,0.0012691499432548,-0.2034273594617843,0.9790887832641602,0.000995469661733,-2.093394234782341e-05,1.976636377088308e-06,-0.0055729052983224,0.0015250376891344,0.3134525120258331,-0.0013960711658,0.0007658107206225,0.25340536236763,0.9673588275909424,-0.005179504237814,-4.3940940894471286e-05,0.3414768626259987,-0.1365807056427002,-0.0189421772956848,0.0574159622192382,94,70,-5064,5462
15.1,1788432191224,-1.211267590522766,1.1267606019973757,-0.0011063163401558,0.0011558663100004,-0.1859693825244903,0.982554256916046,0.0025597456846278,-0.0040496761131706,-4.400002918765542e-06,-0.0051774093881249,-0.0048950593918561,0.3623755574226379,-0.0014561042189598,0.0005134018138051,0.2748647332191467,0.9614816904067992,0.0037037507190193,-0.0022868477053976,0.3676880470906675,-0.106381356716156,0.0783223509788513,0.0325193405151367,92,69,-4959,5546
15.2,1788432191324,-1.211267590522766,1.154929518699646,-0.0010838512098416,0.0011186769697815,-0.1663032621145248,0.9860734343528748,0.0024991496165283,-0.0022262572928119,-1.1391388356234075e-06,-0.0004435038135852,0.0002862764231394,0.3609457314014435,-0.001452543772757,0.0005111107602715,0.2902964651584625,0.9569355845451356,0.0014082705860667,-0.0031033469711714,0.385503049069783,-0.0970457196235656,-0.0242015123367309,-0.0431756973266601,64,103,-4360,5200
15.3,1788432191424,-0.6760563254356384,0.5633803009986877,-0.0011711881961673,0.0011155682150274,-0.1505207270383834,0.988605499267578,-0.0002997143591279,-0.0041131626732955,-3.375329716404641e-06,-0.0029908183496445,0.0005874863709323,0.3155136406421661,-0.0015779538080096,0.0005555851384997,0.3035003542900085,0.952829897403717,-0.0018506490257733,0.0048927860410208,0.2385912254054829,0.0072206854820251,-0.0872102379798889,0.0267496109008789,3,0,159,739
15.4,1788432191524,0.0,1.183098554611206,-0.0011884461855515,0.0012810106854885,-0.1456789970397949,0.9893303513526917,0.0055050472654647,-0.0020775435056913,-4.06593165728876e-06,2.045882683887612e-05,0.0009364737197756,0.013539770618081,-0.0017314041033387,0.0007223961874842,0.3094425499439239,0.950916349887848,-0.0004722200505642,0.0168505476069581,0.2190568247346998,0.4352902770042419,0.8448030352592468,0.061589241027832,194,277,5639,12151
15.5,1788432191624,1.2957746982574463,5.098591327667236,-0.0016191723989322,0.001534292823635,-0.1317965239286422,0.9912742972373962,0.0727486863205259,0.0040868564423704,2.9901934472029163e-06,-0.0144358985126018,0.0010398767190054,0.3676107823848724,-0.0019913977012038,6.181374192237854e-05,0.3271858394145965,0.944957971572876,-0.0014463347399878,-0.0509383983567169,0.4799620596334768,0.6228940486907959,0.0997213721275329,-0.2060766220092773,108,255,6202,18035
15.6,1788432191724,2.281690120697021,7.521126747131348,-0.0019146191189065,0.0009032050729729,-0.1001803278923034,0.9949670433998108,0.1315817299425463,0.0032824039176422,3.0934848095663534e-05,-0.0036916041281074,-0.012141072191298,0.6586629748344421,-0.0019627204164862,-0.0001387419179081,0.3579593300819397,0.9337351322174072,0.0066572833986481,-0.014123030054474,0.7837642108052965,0.594883382320404,0.3213776350021362,0.3710231781005859,121,199,7476,24085
15.7,1788432191824,1.8591549396514893,8.760563850402832,-0.0011682995827868,0.0003322082047816,-0.0573950409889221,0.9983507394790648,0.1822879802648639,0.0053171473422896,2.9367298324306032e-05,0.0228282716125249,-0.0030235319864004,0.9412541389465332,-0.000634990632534,-0.0006665214896202,0.3970965445041656,0.9177764058113098,0.0412045311705327,-0.0386394677471028,0.924564653544631,-0.2047073245048523,0.0513341426849365,0.4113931655883789,46,80,5934,23302
15.8,1788432191924,2.169013977050781,8.0,-0.0005264738574624,-0.0007989051518961,-0.0121050234884023,0.9999263286590576,0.1662121889651444,-0.003542219462137,-3.6501393330961255e-05,-0.0185374077409505,0.0395282730460166,0.9202455282211304,0.0002043964341282,-0.0012982338666915,0.4437361061573028,0.8961566090583801,0.0333311604065637,-0.0696699325961069,0.7789266650897775,-0.0781291127204895,0.0404642820358276,-0.9374179840087892,68,100,6574,22577
15.9,1788432192024,2.6478872299194336,7.267605781555176,-0.0005426638526841,-0.0009003856685012,0.0298949535936117,0.9995524287223816,0.1816252033589925,-0.0010768521220088,-0.0001427764989354,-0.0017308896640315,-0.0166863463819026,0.835754930973053,0.0007818592712283,-0.0020870799198746,0.4830392003059387,0.8755959272384644,0.0128186725105998,-0.0447315670872509,0.8065463865490633,-0.066643476486206,0.1669191122055053,0.3615589141845703,72,78,7804,20790
16.0,1788432192124,2.6478872299194336,7.718309879302978,-0.0004735550028271,-0.0030913089867681,0.0685056895017623,0.9976457953453064,0.1668282522603508,0.0001687496196389,-1.5382624788930624e-05,-0.0042625740170478,-0.021798089146614,0.665675163269043,0.0011313874274492,-0.0031440258026123,0.5099380016326904,0.8602046370506287,0.0174504045471457,-0.0548805969729729,0.7899497816932863,-0.1433444023132324,0.2381832003593444,0.1265401840209961,108,106,8327,21993
16.1,1788432192224,2.676056385040283,7.352112770080566,-0.0006321817636489,-0.0033417749218642,0.1056613475084304,0.9943963885307312,0.1715555986413132,0.0014842781444289,7.517977401312878e-06,-0.0050776181742548,-5.142754889675416e-05,0.7734673619270325,0.0008603679016232,-0.0034303795546293,0.539986252784729,0.8416664004325867,-0.0081212213817355,-0.0237419755059655,0.7567933117218565,-0.2830447554588318,-0.0396037101745605,0.1958398818969726,54,97,9265,19048
16.2,1788432192324,3.549295663833618,6.507042407989502,-0.000944638508372,-0.0032108114100992,0.1378722637891769,0.9904443621635436,0.1667461635748371,0.0001846330403932,-4.264781463690337e-06,-0.0041620396077632,0.0145974308252334,0.6070055365562439,0.0004724096506834,-0.0035669459030032,0.5704718828201294,0.8213092684745789,-0.0057274602414442,-0.0322302225141963,0.5046546150542365,0.280134916305542,-0.0292129516601562,0.8138818740844727,89,85,11683,18490
16.3,1788432192424,4.056337833404541,6.2253522872924805,-0.0015024177264422,-0.002888336777687,0.1598760485649109,0.9871317148208618,0.16655112164534,0.0054819810728626,-2.9020419025446743e-05,-0.0077003240585327,0.0051943594589829,0.4165418148040771,0.0001000808551907,-0.0033956328406929,0.5857242941856384,0.8105033040046692,0.0069813026070377,-0.0179577636823328,0.4473895096793935,-0.1427571177482605,0.1438639760017395,-0.9639902114868164,134,115,11613,17777
16.4,1788432192524,4.591549396514893,5.352112770080566,-0.0019697654061019,-0.0026356517337262,0.1803077608346939,0.9836046695709229,0.1629373876584942,0.0043397494160758,-3.119015200600292e-05,-0.0085565811023116,0.0177506599575281,0.3426294922828674,-0.0006801271811127,-0.0031110122799873,0.5982372164726257,0.8013128042221069,0.0027553859368523,0.029422585850725,0.3721949895815383,-0.0377742052078247,0.0984869003295898,1.6527833938598633,229,37,16632,14191
16.5,1788432192624,5.183098793029785,4.8450703620910645,-0.0018004402518272,-0.0020986828021705,0.1845840215682983,0.9828128814697266,0.175013797757358,-0.0049891712185838,-4.799606661260605e-05,0.0046859155409038,0.0113159883767366,0.0001412946439813,-0.0007781563326716,-0.0022567873820662,0.5973386168479919,0.8019856214523315,0.0106698347421124,0.0259414507067958,-0.1668683619788981,-0.4813011884689331,0.5027061700820923,1.8008794784545898,78,73,16343,13936
16.6,1788432192724,5.943662166595459,4.422535419464111,-0.0017247884534299,-0.0021611975971609,0.1767370998859405,0.9842541813850404,0.1511456267167137,-0.0063719456788251,2.258109426575791e-05,0.0004658640536945,0.0002551148936618,-0.1721568405628204,-0.0010316371917724,-0.0022436026483774,0.590935468673706,0.8067151308059692,-0.0074060013589432,0.0346165877130736,-0.1615021807705416,0.165499746799469,0.0184126496315002,-1.2624921798706057,78,123,15459,13859
16.7,1788432192824,5.323943614959717,4.676056385040283,-0.0017760397167876,-0.0027759987860918,0.1692213416099548,0.9855725169181824,0.1604007352963718,-0.0068016876198854,0.0002587939235512,-0.0074766627512872,-0.0542141236364841,-0.1515888422727584,-0.0013045780360698,-0.0021141776815056,0.5853833556175232,0.810752809047699,-0.0140787487813012,0.1452068676431042,-0.1619860613207501,0.1267547011375427,0.1424877643585205,0.4458913803100586,32,77,15379,13577
16.8,1788432192924,5.380281925201416,4.507042407989502,-0.0018378754612058,-0.0016189108137041,0.1614381968975067,0.986879825592041,0.1615301780439097,-0.0033620483968684,-4.686402171472848e-05,-0.0014203829923644,0.0116425594314932,-0.1782829016447067,-0.001670628786087,-0.0017390716820955,0.5777613520622253,0.8162022829055786,-0.018415470039407,0.0375814468034292,-0.1373073223464619,0.0558865070343017,-0.076932668685913,-0.287510871887207,94,130,16579,13719
16.9,1788432193024,5.492957592010498,4.8450703620910645,-0.002195433480665,-0.0002773566520772,0.1537093222141266,0.9881136417388916,0.167282390862266,-0.0057384059575187,-0.0001207845641087,-0.0004546098352875,0.0168062336742877,-0.1360397487878799,-0.0020657256245613,-0.0007694484665989,0.5727999210357666,0.8196922540664673,0.0047177279528723,0.0456449599888308,-0.1447648290779669,0.2681144475936889,-0.1687924265861511,-1.2863178253173828,65,135,13304,15144
17.0,1788432193124,5.126760482788086,4.957746505737305,-0.0024103859905153,0.0004035103775095,0.1494089514017105,0.9887725114822388,0.1583950492895086,-0.0052445305105555,-5.400041892837759e-05,0.0031446085777133,0.004858708474785,-0.0720921084284782,-0.0022914120927453,-0.0005908086895942,0.5702393054962158,0.8214752674102783,0.00969004143473,-0.0045652275003532,-0.0493785044027007,-0.2586724162101745,0.1438615322113037,0.0254688262939453,57,92,13484,14768
17.1,1788432193224,5.183098793029785,4.788732528686523,-0.0026238788850605,0.0008376846089959,0.146889179944992,0.9891492128372192,0.1580218180198121,-0.0072700839578288,-1.871814282489822e-05,-0.0109405843541026,0.0136772459372878,-0.0537798255681991,-0.0028598643839359,-0.000365980900824,0.5680814981460571,0.8229672908782959,-0.0191348881163015,0.0123117416918161,-0.071537810998948,0.018925666809082,-0.1590304374694824,-0.4170207977294922,54,101,13253,14559
17.2,1788432193324,5.239436626434326,4.788732528686523,-0.0019621062092483,0.0001430759439244,0.1444175988435745,0.9895148277282716,0.1732489055308185,-0.0020611602944095,5.29511757039092e-05,0.0230597481131553,-0.0222091171890497,-0.0521961599588394,-0.0019319280982017,-0.0008227238431572,0.5657939910888672,0.8245438933372498,-0.0213415045435039,0.0044503243666095,-0.0484197875500401,-0.0515300035476684,0.0816493034362793,1.356271743774414,61,105,13369,14533
17.3,1788432193424,5.605633735656738,4.507042407989502,-0.0021152170374989,0.0006142176571302,0.1425085514783859,0.9897910952568054,0.1583963494076254,-0.0045013401630211,-6.809009729279675e-06,0.0032232636585831,0.014122674241662,-0.032967235893011,-0.0022917045280337,-0.0001177685335278,0.5645837783813477,0.825372576713562,0.0046805461332492,0.0208989867660026,-0.0348745980631518,0.3489747643470764,-0.0448479056358337,-1.235673904418945,100,70,14976,13191
17.4,1788432193524,5.183098793029785,4.760563373565674,-0.001916934037581,0.0011312279384583,0.1381372064352035,0.990410566329956,0.1570597210409725,-0.0082386166097779,-4.994105810070846e-05,0.0081988656893372,0.0161314234137535,-0.1006431430578231,-0.002342902123928,-0.0004904000088572,0.5597050786018372,0.8286885023117065,-0.0369901497707684,-0.0288623991003824,-0.0871344581420872,-0.0290632843971252,0.1050032377243042,0.4493217468261719,46,80,15450,13996
17.5,1788432193624,4.563380241394043,5.633802890777588,-0.0022206674329936,0.0011459768284112,0.1368413716554641,0.9905897974967957,0.1645825497588425,0.0001263635093022,-8.740582425340904e-05,0.0098054129630327,0.0258196797221899,0.0338476002216339,-0.002720839343965,0.0004021199420094,0.5623648166656494,0.8268847465515137,-0.0018790369238927,0.0243994805072323,0.1441974924336953,-0.0653237104415893,0.2591357827186584,-1.6103792190551758,64,118,12023,17456
17.6,1788432193724,4.732394218444824,5.464788913726807,-0.0023278924636542,0.0010164144914597,0.1435736566781997,0.9896364212036132,0.1635443264856965,0.0029063392541175,2.483755057899841e-05,-0.0021505490876734,-0.0179579053074121,0.1499816179275512,-0.0025958390906453,5.491636693477631e-05,0.568219780921936,0.8228728175163269,0.0023908697226346,0.0193112529948976,0.1640613955411236,-0.0944554209709167,0.0938690900802612,1.14617919921875,126,125,12812,16957
17.7,1788432193824,4.2816901206970215,5.549295902252197,-0.0021221835631877,0.0010896527674049,0.154411494731903,0.9880037307739258,0.1590160668988886,0.002551400524677,-5.542114740196615e-06,0.0031188991852104,-0.0087762372568249,0.20491823554039,-0.0025733327493071,0.0005817171186208,0.5776874423027039,0.8162538409233093,0.0134419421381443,0.0447784479312698,0.157737683685907,0.0046793818473815,-0.3167964220046997,-1.0244970321655271,53,128,12535,18038
17.8,1788432193924,4.2816901206970215,5.85915470123291,-0.0020190817303955,0.0015007643960416,0.1630135327577591,0.9866206049919128,0.1710086751066186,0.0031645890592516,-3.1927795508900977e-06,0.0012487219646573,-0.004758923780173,0.1935596466064453,-0.0028258757665753,0.0009640790522098,0.5854619145393372,0.8106945157051086,-0.0003806281413529,0.0480773118668146,0.2542289015385461,0.0446123480796813,0.1268774271011352,-1.3322486877441406,63,103,12390,17676
17.9,1788432194024,4.676056385040283,5.6619720458984375,-0.0017775427550077,0.0021976565476506,0.1751449555158615,0.9845386147499084,0.1681849282110363,0.00172049173294,-7.521402646071078e-05,0.0102408500388264,0.0108335800468921,0.2653881311416626,-0.0023143151775002,0.0005997670814394,0.5949072241783142,0.8037909269332886,-0.0154342596706397,-0.0667138090080868,0.2682208544616008,0.1333878636360168,0.328657865524292,0.2380313873291015,72,66,13818,15629
18.0,1788432194124,4.169013977050781,5.633802890777588,-0.0018661862704902,0.0023315912112593,0.1848080903291702,0.9827700853347778,0.1603956597710633,-0.0010332302321071,-6.017771288581089e-05,-0.0034528980031609,0.0313717313110828,0.1862889379262924,-0.0024474281817674,0.0011678086593747,0.6028692722320557,0.7978354692459106,0.0087714821104528,-0.0238652815110466,0.1771143415125614,0.122808814048767,-0.0498831272125244,-0.4849233627319336,99,103,12452,16334
18.1,1788432194224,4.732394218444824,5.690140724182129,-0.0014445426641032,0.0021462021395564,0.1937181204557418,0.9810538291931152,0.1679196769484257,0.0017211983305664,8.71107729263702e-05,0.0100496346130967,-0.0098085133358836,0.1536973118782043,-0.0018497696146368,0.001113754697144,0.608373761177063,0.7936477661132812,0.0108778600252983,-0.0258364028915108,0.1615286996372938,0.0695875287055969,-0.0253435373306274,1.1675033569335938,54,84,12622,15662
18.2,1788432194324,4.591549396514893,5.211267471313477,-0.0011434835614636,0.0022156471386551,0.2005273401737213,0.9796849489212036,0.1647535558405864,0.0052684688606162,-2.7389512307103916e-05,0.0081517407670617,0.003636262146756,0.1551718115806579,-0.0021569728851318,0.001878541894257,0.6151033043861389,0.7884414196014404,0.0118852969658027,-0.0106246302423393,0.1474049119840176,-0.2060630321502685,-0.0057900547981262,-3.471771240234375,129,94,13580,15122
18.3,1788432194424,4.816901206970215,5.267605781555176,-0.0009860827121883,0.000662563543301,0.2043332904577255,0.978900671005249,0.1573558492017573,-0.0009844948504667,0.0001893783027828,-0.0013258694671094,-0.0375403575599193,0.0271007176488637,0.0001841550692915,-0.0013230303302407,0.6160246729850769,0.7877258062362671,0.0351894097401772,-0.1503333491168429,0.017717333256222,0.0784441232681274,0.0976315736770629,-1.5065975189208984,109,93,14998,15576
18.4,1788432194524,5.239436626434326,5.239436626434326,5.052483174949884e-06,-0.0013644704595208,0.2052098214626312,0.9787169694900512,0.1651867269725721,0.000327690718431,7.110434069179383e-06,0.0048995474353432,-0.0163355879485607,0.0068455068394541,0.0012055383995175,-0.0016981968656182,0.6165511012077332,0.7873122096061707,0.0228202576116667,-0.033314925165558,0.0107680972312404,-0.0079757571220397,-0.2138919830322265,-1.3636455535888672,91,111,13376,14963
18.5,1788432194624,5.380281925201416,5.183098793029785,0.0014406435657292,-0.003589259693399,0.2070830911397934,0.9783157110214232,0.1716470403241734,0.0028673695720322,0.000215417860615,0.0327777452766895,-0.0623506195843219,0.0434113852679729,0.0030725607648491,-0.0025586131960153,0.6183755993843079,0.7858725786209106,-0.0008049928999653,-0.0033363219425505,0.0231403811051935,-0.3415702581405639,-0.3993945717811584,2.968247413635254,101,69,12827,15144
18.6,1788432194724,4.197183132171631,5.380281925201416,0.0018067398341372,-0.003854066831991,0.2082558572292328,0.9780650734901428,0.1673727994887662,-0.0067993997984573,1.7328646328124604e-05,0.0068986332044005,0.000254067213973,0.0355289690196514,0.0033648973330855,-0.0028326846659183,0.6202240586280823,0.7844123840332031,-0.0043729654846247,-0.0140085260517348,0.1073180052176769,0.1155797839164733,-0.0842007994651794,-2.004124641418457,35,117,12958,16629
18.7,1788432194824,5.211267471313477,5.042253494262695,0.001832426758483,-0.004117117729038,0.213981419801712,0.9768273830413818,0.1695101250037713,-0.0020960616072658,-3.637203507585047e-05,0.0013309993082657,-0.0126160075888037,0.1367856413125991,0.001196370460093,-0.0025389874354004,0.6242747902870178,0.7811998128890991,-0.1296968367608288,0.1392369915515644,0.0674527172431412,0.1117342710494995,0.4936949610710144,0.100259780883789,124,189,13449,17732
18.8,1788432194924,5.070422649383545,5.211267471313477,-0.0014470040332525,-0.0024043438024818,0.2181767523288726,0.9759052395820618,0.1600943058428265,-0.0102453999367982,-1.8439428182885145e-05,-0.0276360549032688,0.0160596463829278,0.1164295151829719,-0.0009193709120154,-0.0028571560978889,0.6283613443374634,0.777915894985199,-0.0208227539158838,0.0320308401840439,0.0571416056876305,0.134564995765686,-0.2530741691589355,0.8580389022827148,58,138,14732,16190
18.9,1788432195024,5.154929637908936,5.042253494262695,-0.0024285013787448,-0.0024174724239856,0.2217383533716201,0.9751001596450806,0.1648879689575481,-0.0018403088872432,-5.549822036818768e-05,-0.0136265894398093,0.0049346489831805,0.0635472387075424,-0.0008407989516854,-0.0040429551154375,0.6300151944160461,0.7765718698501587,-0.0196380029344157,-0.0626036155840027,0.0250875987981091,0.2581890225410461,0.1248834729194641,-1.1973609924316406,53,81,13517,15475
19.0,1788432195124,5.352112770080566,5.042253494262695,-0.0024507930502295,-0.0029161733109503,0.2220789641141891,0.9750213027000428,0.166255250606279,-0.0021860727060609,4.619434256319825e-06,0.0,0.0,0.0,-0.0008013453334569,-0.0036554047837853,0.6303444504737854,0.7763066291809082,0.0175844452754142,-0.0110951278411109,0.0163373112322747,-0.0947151184082031,-0.1339631676673889,1.7204771041870115,73,115,14205,14940
19.1,1788432195224,5.464788913726807,5.014084339141846,-0.0023443014360964,-0.0027544815093278,0.2224053144454956,0.9749476313591005,0.1651296194548866,-0.0028720433465869,-3.1846309691498106e-05,0.0095903547480702,0.0136519754305481,-0.0015178446192294,-0.0007963813841342,-0.0038971602916717,0.6296088695526123,0.7769021391868591,-0.0195617198009038,-0.0349312599121464,-0.0444729532605203,-0.0317288637161254,0.0008664727210998,0.6791343688964844,40,56,14058,14303
19.2,1788432195324,5.380281925201416,4.985915660858154,-0.0027415542863309,-0.0026263075415045,0.2183941900730133,0.9758532047271729,0.1587705870044881,0.0001334549742636,-0.0001137163295648,0.0053899553604424,0.0393174141645431,-0.0698725655674934,-0.0008682608604431,-0.0036724135279655,0.6265838146209717,0.779344916343689,0.0184171292909083,-0.0440039048593434,-0.0283408850880422,-0.0719773173332214,0.26585853099823,-1.1378803253173828,145,72,15054,14881
19.3,1788432195424,5.492957592010498,4.873239517211914,-0.0020457743667066,-0.0020629032514989,0.2167626172304153,0.9762200117111206,0.1628951794128879,-0.0006080083395473,2.7439485597746414e-05,0.0169502776116132,0.0038385116495192,-0.0340449102222919,-0.0010043745860457,-0.002426846884191,0.625245213508606,0.7804239988327026,0.0062285613501489,0.0574196568086872,-0.0373330809121501,-0.102041482925415,-0.0074227452278137,0.1131753921508789,75,72,13586,14121
19.4,1788432195524,5.126760482788086,4.957746505737305,-0.0019877166487276,-0.0023190393112599,0.2143014669418335,0.97676283121109,0.1595836994667291,-0.0025563257605483,-8.296856241380652e-05,-0.002780984621495,0.0046129450201988,-0.057462390512228,-0.0008171582594513,-0.0028556175529956,0.6232759952545166,0.7819962501525879,0.001820919760923,-0.0222556131930259,-0.0508082266154371,-0.0786384940147399,-0.0819789171218872,-0.0324535369873046,79,104,13850,14515
19.5,1788432195624,5.154929637908936,4.873239517211914,-0.0022978580091148,-0.0019658007659018,0.2112156003713607,0.9774349331855774,0.1628369360997633,-0.0029825874421317,5.8909343563951215e-05,-0.010394730605185,-0.0038015248719602,-0.0682789757847786,-0.0017861360684037,-0.0027089416980743,0.6200019121170044,0.7845935821533203,-0.0190042644292554,0.0200356782400252,-0.0742950944172771,0.0870625376701355,-0.0952564477920532,-0.3498926162719726,65,113,13306,15121
19.6,1788432195724,5.211267471313477,4.760563373565674,-0.002466584322974,-0.0021391240879893,0.208886057138443,0.9779345393180848,0.1650657529990247,7.536082244147211e-05,2.3276529297285572e-05,0.009187146089971,-0.0291144866496324,-0.0496636405587196,-0.0012738388031721,-0.0028742477297782,0.6186851263046265,0.7856327891349792,0.0041616599531967,0.0147415355024391,-0.0455820566760246,0.0224667787551879,-0.048740804195404,-0.8927555084228516,67,106,13526,14545
19.7,1788432195824,5.521126747131348,4.957746505737305,-0.0023180632852017,-0.0024178582243621,0.2064537554979324,0.9784506559371948,0.1593456101810694,-0.0028344629461088,3.9793568993455634e-05,0.0008813364547677,-0.0190456770360469,-0.0481212027370929,-0.0009243860840797,-0.0032937163487076,0.6170774698257446,0.7868950963020325,0.0041741554045192,-0.0191760875750461,-0.0504450859689428,-0.0019319057464599,-0.011686086654663,-0.4561948776245117,92,75,13736,14293
19.8,1788432195924,5.295774459838867,4.929577350616455,-0.0029104412533342,-0.0032983908895403,0.2032238095998764,0.9791224598884584,0.1651855292674526,-0.0002028386434906,-4.643163452442806e-05,-0.0176771339029073,-0.0009963555494323,-0.0681059136986732,-0.0011338638141751,-0.0041920421645045,0.6138043999671936,0.789446234703064,0.0105485650134732,0.0092812345342697,-0.062226166198561,0.1203871369361877,0.0406091809272766,-0.2064571380615234,30,102,14307,14827
19.9,1788432196024,5.323943614959717,4.985915660858154,-0.0033244783990085,-0.0029463286045938,0.2013161778450012,0.9795162677764891,0.1665256523903936,-0.0003607504007191,-6.983204705644631e-05,-0.0098492903634905,0.0139446947723627,-0.0347312651574611,-0.0019868202507495,-0.0038597518578171,0.6127051115036011,0.790299654006958,8.137894235081291e-05,0.0202243311936032,-0.0277269848836578,-0.0910120010375976,-0.3418768644332886,0.5419149398803711,35,120,13511,15629
20.0,1788432196124,5.746479034423828,4.591549396514893,-0.0036068577319383,-0.0008798309136182,0.2008624374866485,0.9796124696731568,0.1628339611422387,-0.0014228343400083,-0.0001369366398471,0.0101474402472376,0.1075964123010635,0.0153830274939537,-0.0031410278752446,-0.0019428133964538,0.6132074594497681,0.7899132966995239,0.0021084994066948,0.0518054609197952,0.0385674235749462,-0.7893925905227661,0.1124493479728698,-1.1421518325805664,104,71,17082,13079
20.1,1788432196224,5.915493011474609,4.704225540161133,-0.0036453851498663,-0.0016756586264818,0.1961748898029327,0.9805607199668884,0.16349983978804,-0.0040681812252593,2.36846898379153e-05,-0.0064657344482839,0.0169009305536746,-0.1494177877902984,-0.0025966605171561,-0.0033212173730134,0.6071142554283142,0.7946034669876099,-0.0119972775643785,-0.0163077059405657,-0.1349500996377605,-0.205427348613739,0.0485681295394897,-1.134878158569336,48,101,15868,13496
20.2,1788432196324,5.323943614959717,4.394366264343262,-0.003752197837457,-0.0015057440614327,0.1892121136188507,0.9819279313087464,0.1594066296420222,-0.0032867222514995,-1.5187293922237323e-05,0.0040515689179301,0.0134840421378612,-0.1502091884613037,-0.0029988512396812,-0.0022257193922996,0.6016792058944702,0.7987291812896729,0.0198371784331886,0.0734890683049307,-0.1556272668913138,-0.0247918963432312,0.3264113068580627,0.6601200103759766,91,112,16394,13878
20.3,1788432196424,5.070422649383545,4.788732528686523,-0.0035981656983494,-0.0012278254143893,0.1823188662528991,0.9832320213317872,0.1667672843090451,-0.0041224834406415,-5.202255065286728e-05,0.0036780550144612,-0.004635174293071,-0.1395995467901229,-0.0026701455935835,-0.0027983300387859,0.5965858697891235,0.8025399446487427,-0.0108084782352877,-0.0302658654883439,-0.1276409840361654,-0.1009260416030883,-0.1314940452575683,0.5152654647827148,118,130,14359,14989
20.4,1788432196524,5.464788913726807,4.591549396514893,-0.0030738615896552,-0.0019021199550479,0.1785856336355209,0.9839177131652832,0.1687953575256871,-0.0050038172855231,-1.310634123597133e-05,0.0138457333669066,-0.0142971947789192,-0.0337843745946884,-0.0017402479425072,-0.0032185902819037,0.5939042568206787,0.8045274019241333,-0.0010206279607592,-0.0219238626057363,-0.0686014189615056,0.181770384311676,0.0527138710021972,-0.9156656265258788,136,57,15153,13067
20.5,1788432196624,4.788732528686523,5.436619758605957,-0.001987429568544,-0.0022025203797966,0.1729373931884765,0.98492830991745,0.1579323032005768,-0.0077304739324714,2.287189163910279e-05,0.0269419532269239,-0.0116460723802447,-0.1417624652385711,-0.00022844504565,-0.0029074028134346,0.5887449979782104,0.8083135485649109,0.0329642955098424,-0.0365171884192142,-0.140123054439914,0.4193679690361023,0.1360450387001037,2.024808883666992,24,138,11221,17387
20.6,1788432196724,4.2253522872924805,5.6619720458984375,-0.0017612172523513,-0.0023912021424621,0.1732184737920761,0.984878957271576,0.1596071251160634,0.0059403295209696,-1.8487763471533502e-05,-0.0077820178121328,9.10054804990068e-05,0.0817911773920059,-0.0007112622261047,-0.0028833039104938,0.5920360088348389,0.8059061169624329,-0.0069998943980288,-0.0049206441009257,0.2134030332609137,-0.0639925003051757,0.2257640361785888,-0.6351499557495117,104,112,12409,16428
20.7,1788432196824,4.394366264343262,5.352112770080566,-0.0018323070835322,-0.0026231757365167,0.1836338937282562,0.982989490032196,0.1597084459079386,0.0024827700379869,-6.221597244483302e-05,-0.0028241421096026,-0.000714240653906,0.2109700590372085,-0.000497699715197,-0.0033135339617729,0.6020964980125427,0.798416256904602,-0.0063287188974963,0.0100019884960262,0.1720112363972541,0.1827000975608825,0.0474873781204223,-1.707747459411621,50,92,13695,16273
20.8,1788432196924,4.8450703620910645,5.633802890777588,-0.0021471627987921,-0.0032594068907201,0.1926938891410827,0.9812511205673218,0.1651401230065243,0.0033152172004716,-6.20229995860802e-05,-0.0146084558218717,-0.0087566720321774,0.1481149196624755,0.0003796610981225,-0.0048379367217421,0.6076757311820984,0.7941703796386719,0.0140763670877435,-0.1306810554191698,0.1553564471275332,0.2997976541519165,0.0169839859008789,-1.942837238311768,111,62,12909,16442
20.9,1788432197024,4.647887229919434,5.239436626434326,-0.0019571287557482,-0.0041611236520111,0.1990766823291778,0.9799731969833374,0.174991928594296,0.0017102768243815,2.681569299354939e-05,-0.0042133228853344,-0.0169170182198286,0.1175453960895538,-0.0002504540607333,-0.0036008255556225,0.6122361421585083,0.7906667590141296,0.0389405327073092,0.0618379740168252,0.1008899205544399,-0.1877444386482238,-0.3774054050445556,0.8900423049926758,123,91,15989,14315
21.0,1788432197124,4.8450703620910645,5.098591327667236,-0.0016175716882571,-0.0019660415127873,0.2024895250797271,0.9792811274528505,0.1585285247562881,0.0029885019244806,-0.0002086604521777,-2.5514576918794774e-05,0.0517501682043075,0.0299273543059825,-0.0006370926275849,-0.0019782884046435,0.6141289472579956,0.7892029285430908,0.0091285067820093,0.0297479423388181,-0.0115959823114547,-0.0245448946952819,-0.0910472869873046,-0.4581918716430664,64,87,15215,14363
21.1,1788432197224,5.323943614959717,4.957746505737305,-0.0014853298198431,-0.001748512382619,0.2011006325483322,0.9795679450035096,0.154587663770133,-0.0066164963772719,-1.267321777832897e-05,0.0070120627060532,0.0077396547421813,-0.058056753128767,-0.0009624948725104,-0.0018187090754508,0.6122503876686096,0.7906612753868103,-0.009107619826143,0.0397572324561293,-0.0506520271615353,-0.0776304602622985,0.0691730380058288,-0.1003885269165039,47,114,13696,15474
21.2,1788432197324,4.8450703620910645,5.267605781555176,-0.0018198704347014,-0.0017709052190184,0.2001785784959793,0.9797561168670654,0.1670237603717076,-0.0037627894724848,3.170645789317095e-05,-0.01131740398705,-0.0141334747895598,-0.0028422251343727,-0.0010923268273472,-0.0024700574576854,0.6125974655151367,0.7903905510902405,-0.004734479745909,0.0098504895517054,0.0256891156214201,-0.1400431990623474,-0.1761502623558044,-0.0542984008789062,66,111,12835,16072
21.3,1788432197424,4.760563373565674,5.267605781555176,-0.0021547810174524,-0.0020130071789026,0.2017394453287124,0.9794347882270812,0.1600519386549888,-0.0024176164921176,6.929608993861964e-05,-0.0070090014487504,-0.007150009740144,0.0373070612549781,-0.001059959642589,-0.0027944287285208,0.6141244769096375,0.7892035841941833,-0.0044471108602842,0.0388898178260532,0.0547068693201189,-0.1035602092742919,0.2281936407089233,-1.610447883605957,94,132,14400,16368
21.4,1788432197524,4.816901206970215,5.183098793029785,-0.0021249586716294,-0.0039462801069021,0.2052255272865295,0.9787045121192932,0.1643259878355647,-0.0028196827390935,1.7687321106428138e-05,-0.0051460051909089,-0.0253925509750843,0.0731770917773246,-0.0002886587753891,-0.0045174146071076,0.6173781752586365,0.786653459072113,-0.0051875155005712,0.019166154472882,0.0574412469142382,0.0764981508255004,-0.014201283454895,-2.3076772689819336,101,140,14732,16112
21.5,1788432197624,5.323943614959717,5.070422649383545,-0.002120015444234,-0.0037449384108185,0.2071875184774398,0.9782918095588684,0.1646057397412323,-0.0011262960387485,-1.2319526203517388e-05,0.0059364419430494,0.0046122674830257,0.0224913880228996,-0.000232171267271,-0.0044678132981061,0.6181174516677856,0.7860729694366455,-0.0117668226602,-0.0117381185682094,-0.0139914733636028,-0.0252413749694824,0.1122362613677978,1.8056659698486328,125,91,14606,14456
21.6,1788432197724,5.492957592010498,4.619718074798584,-0.0022538481280207,-0.0035407899413257,0.2066051959991455,0.9784154295921326,0.1669826400523215,-0.0034744998877373,-2.6183456791401964e-06,-0.0056148567236959,0.0142089203000068,-0.0368567779660224,-0.0014255428686738,-0.0030055940151214,0.616115927696228,0.7876484394073486,2.4918046597968757e-05,0.1026345011619937,-0.1438421777689166,0.2210206389427185,-0.4837382435798645,-1.6229114532470703,106,97,16107,13663
21.7,1788432197824,5.408450603485107,4.3380279541015625,-0.0032894776668399,0.0006565587245859,0.1969670355319976,0.9804044365882874,0.1640700982657034,-0.0080516620684812,-0.0001458439008146,-0.0043794005177915,-0.0097840977832674,-0.1892504543066024,-0.0028306180611252,-0.001393181271851,0.6072145700454712,0.7945317029953003,0.0053384692624003,-0.037719578655413,-0.161336916956925,0.0356561541557312,-0.1098331809043884,4.834901809692383,75,101,14284,13817
21.8,1788432197924,5.577464580535889,4.704225540161133,-0.0031840805895626,0.0003046406200155,0.1898020803928375,0.9818171858787536,0.1578995854575981,-0.0060699143567084,-7.02825680978149e-05,0.002655231161043,0.0218531247228384,-0.1485246568918228,-0.0029148058965802,-0.0009679337963461,0.6020042896270752,0.7984868884086609,0.0117328988939276,-0.0015239444521355,-0.1393880325278012,-0.3095613121986389,-0.2515402436256408,0.509434700012207,47,80,14891,13376
21.9,1788432198024,5.352112770080566,4.563380241394043,-0.0030996119603514,0.0011331250425428,0.1827672719955444,0.9831506609916688,0.1659461690634779,-0.0032981834401711,-2.4931988883534817e-05,0.0041779060848057,0.0306075271219015,-0.1477087885141372,-0.0033968370407819,-0.000337865203619,0.5964160561561584,0.8026682138442993,-0.0077150729961054,0.0091775202646093,-0.1692719277717267,-0.033890426158905,0.1985526084899902,0.2269182205200195,73,106,16226,13568
22.0,1788432198124,5.295774459838867,4.563380241394043,-0.0033080375287681,0.0014840811491012,0.1739702075719833,0.9847442507743835,0.1601216582938219,-0.00481821489962,-2.075875043903371e-05,-0.0016315625980496,0.0170206800103187,-0.1578919291496276,-0.0039840582758188,0.0002903342247009,0.5889066457748413,0.8081912994384766,-0.0021846646381437,0.0290519219932147,-0.1416786169350612,-0.0482229590415954,0.1040014624595642,0.1998043060302734,128,72,15623,13317
22.1,1788432198224,5.492957592010498,4.507042407989502,-0.0038870240096002,0.001675279228948,0.1659659147262573,0.98612242937088,0.1650045762065575,-0.0045357402349273,-3.400419575538643e-05,-0.0132260387763381,-0.0050279540009796,-0.1767271012067794,-0.0038492018356919,-0.0003258734941482,0.5827982425689697,0.8126077055931091,0.0158171529444051,-0.0200067848458163,-0.140272160718055,-0.1931697130203247,0.1056230068206787,0.9289493560791016,66,76,14614,13438
22.2,1788432198324,5.323943614959717,4.535211086273193,-0.0020311961416155,-0.0008383045205846,0.1608310937881469,0.9869795441627502,0.1594310780229425,-0.0074072225988028,0.0003376710123736,0.0187693871557712,-0.0483413003385067,-0.0913663059473037,-0.0018715104088187,-0.0011436566710472,0.5788928866386414,0.8154006600379944,-0.0085837378313224,0.1174737387235587,-0.1452129963270397,0.0849210023880004,-0.25191330909729,-3.4993767738342285,126,67,15629,13048
22.3,1788432198424,5.77464771270752,4.535211086273193,-0.0026476341299712,-0.0003479698789305,0.1519673019647598,0.9883819222450256,0.1575417599615376,-0.0026505393790441,-7.370048061699991e-05,-0.0102335624396801,0.0037019762676209,-0.1990382522344589,-0.0029794936999678,-0.0007630633190274,0.5698260068893433,0.8217595815658569,-0.0126244420676474,0.0601990185040099,-0.1579125176393196,-0.0024707913398742,0.033614695072174,0.4689464569091797,80,100,14502,13902
22.4,1788432198524,5.633802890777588,4.507042407989502,-0.0033582218457013,-0.0002404931292403,0.1430349797010421,0.9897119402885436,0.1592984093152059,-0.0024203762510534,1.2545121932936717e-05,-0.0139174228534102,-0.0156712550669908,-0.1635525226593017,-0.0032082153484225,-0.0026757959276437,0.5636627078056335,0.8259944319725037,-0.0727095231908408,-0.0615005458933507,-0.1692294182567688,0.2077793478965759,0.1089786887168884,-0.2706842422485351,69,97,14516,13631
22.5,1788432198624,5.408450603485107,4.591549396514893,-0.0039089517667889,-0.0008148649940267,0.134716585278511,0.9908761382102966,0.1580555825114252,-0.0043218050810656,-5.891281232768285e-05,0.0115906596183776,0.0117216864600777,-0.1647516787052154,-0.0030510388314723,-0.0021402575075626,0.5576425790786743,0.830072820186615,0.0254651987445747,0.011549559589948,-0.0990259653907045,-0.3679720163345337,0.0502305626869201,0.4312067031860351,106,109,15108,15026
22.6,1788432198724,4.732394218444824,5.464788913726807,-0.0029591729398816,-0.0008340995991602,0.1300604939460754,0.9915012717247008,0.1572996407760103,-0.0089296540309888,-3.141986711567195e-05,0.0192759204655885,0.0012458760756999,-0.0854887068271637,-0.001738361082971,-0.0021988805383443,0.5543386340141296,0.832286536693573,0.0366761987792315,-0.028442517300945,-0.0313970719850564,-0.1231746077537536,0.2511395812034607,0.8340587615966797,78,190,13136,17759
22.7,1788432198824,4.647887229919434,5.830986022949219,-0.0027647523675113,-0.0005856556817889,0.1342634558677673,0.9909416437149048,0.1719182826116316,0.0028890119366286,-0.0001901062607592,-0.0061848387122154,0.0427285842597484,0.1414345651865005,-0.0025195386260747,-0.0012112138792872,0.5593161582946777,0.8289496898651123,0.0133176808272857,0.0367260091321587,0.1583517034489643,-0.112465500831604,-0.0761327743530273,0.3446798324584961,110,119,12128,16634
22.8,1788432198924,4.676056385040283,5.436619758605957,-0.0029474352486431,7.822524639777839e-05,0.1422457695007324,0.989827036857605,0.1588924230158772,0.0022663525239203,-9.3830357627676e-05,-0.0015944336773827,0.019289918243885,0.1706668436527252,-0.0027535175904631,-0.0013756435364484,0.5679211616516113,0.8230772614479065,-0.0064453020410275,0.0032594299630602,0.1702811489047684,-0.1137663125991821,0.042370855808258,0.4114532470703125,63,138,12386,17436
22.9,1788432199024,4.2816901206970215,5.633802890777588,-0.0029741902835667,-0.0008697613375261,0.1528283208608627,0.9882479310035706,0.1689575661839893,0.0003659430304947,0.0001464631982375,-0.0034524423535913,-0.0242794249206781,0.1935101747512817,-0.0020313160493969,-0.0021479791030287,0.5752666592597961,0.8179605603218079,0.0182737412257888,-0.0089343241538473,0.1909122838915064,-0.2432715892791748,-0.371501624584198,0.2612857818603515,72,107,13747,16277
23.0,1788432199124,4.676056385040283,5.549295902252197,-0.0022041527554392,-0.0019691721536219,0.161546528339386,0.986860692501068,0.1594945645802503,0.0022406614566314,0.0001022659741811,0.0109192552044987,-0.025927010923624,0.171553373336792,-0.0005546705797314,-0.003303226083517,0.5835474133491516,0.812072217464447,0.0118278668318056,-0.0556070018075571,0.1532860221984895,-0.0985720157623291,-0.1031864285469055,0.9302453994750975,85,99,12012,16320
23.1,1788432199224,4.760563373565674,5.211267471313477,-0.0016105682589113,-0.0034499873872846,0.1681847870349884,0.9857481718063354,0.1692296309201905,0.001911954055842,0.0001624723778416,0.0078335413709282,-0.0362050868570804,0.1182614415884018,9.228195995092392e-05,-0.003470180556178,0.5870341062545776,0.8095547556877136,0.0112593382426503,0.0157454036173821,0.0389970153159271,0.0822373628616333,-0.1321303248405456,-0.0737476348876953,143,71,15537,15105
23.2,1788432199324,5.126760482788086,5.154929637908936,-0.0016026478260755,-0.0027823077980428,0.1694740653038025,0.9855294227600098,0.1638328884916163,-0.0004680003405007,-3.4657157086415047e-05,-0.0029448640998452,0.0139226764440536,0.0151687553152441,-0.0006246175616979,-0.0028303461149334,0.5877853631973267,0.8090117573738098,-0.0066334994808209,0.0151936983255248,0.0210501354485326,0.0763882994651794,-0.0512607097625732,2.915069580078125,104,85,14354,14161
23.3,1788432199424,5.380281925201416,5.126760482788086,-0.0022834937553852,-0.0003913099935743,0.170826643705368,0.9852983951568604,0.170872308219642,-0.0021815101707854,-0.000134904635954,-0.0034050941467285,0.0501634553074836,0.020037779584527,-0.0009279353544116,-0.002481298521161,0.5883246660232544,0.8086205124855042,0.0161817543996437,-0.1211939342177669,-0.0038742486612248,0.0790406465530395,-0.5612951517105103,-5.271064281463623,106,91,14064,14005
23.4,1788432199524,5.7183098793029785,4.901408672332764,-0.0014533133944496,-0.0031525325030088,0.1698163151741027,0.9854695796966552,0.1634640613820095,-0.0089449353284751,0.0001466387710808,0.0090889977291226,-0.0373224094510078,-0.044334527105093,0.0001294547691941,-0.0037519335746765,0.586393415927887,0.8100177645683289,-0.0129307961923933,-0.0246402334389138,-0.094390041126613,-0.1095777153968811,-0.1805516481399536,0.2152729034423828,90,91,14197,14354
23.5,1788432199624,5.492957592010498,4.985915660858154,-0.0016812954563647,-0.0038315413985401,0.1659533083438873,0.9861246943473816,0.1644706039224478,-0.0018150512587332,-1.971086486473557e-05,-0.0098865702748298,-0.0048777237534523,-0.076116181910038,0.0007658619433641,-0.0052333883941173,0.5837134718894958,0.8119425177574158,-0.0083343089897379,-0.1052295440949138,-0.0627908941704168,0.1079729199409484,-0.1594433188438415,-1.9522252082824707,96,67,13787,14316
23.6,1788432199724,3.94366192817688,5.802816867828369,-0.0020025921985507,-0.0043310434557497,0.1631636619567871,0.9865875244140624,0.1752013508535302,-0.0008230015395317,7.858913248307376e-08,-0.0074354540556669,0.0113713927567005,-0.05396668612957,0.0001939479261636,-0.0052897036075592,0.5813263058662415,0.8136534094810486,-0.0021174656352188,-0.0494509571341423,-0.0136865359395039,0.1221348047256469,0.3056491017341614,-1.0063190460205078,34,174,10176,18669
23.7,1788432199824,4.14084529876709,6.084506988525391,-0.0022413756232708,-0.0039482293650507,0.169299840927124,0.9855541586875916,0.1681318036751094,0.006899000067672,-6.588022306898456e-05,0.0049844901077449,0.0117293437942862,0.2688168883323669,-5.416013300418854e-05,-0.0044939657673239,0.5913888812065125,0.8063739538192749,0.0129104374771757,0.0044652723301052,0.3159078307190348,-0.1366008520126342,-0.1322688460350036,-0.6807708740234375,53,119,10425,17768
23.8,1788432199924,3.91549301147461,5.97183084487915,-0.001012526336126,-0.0048945331946015,0.1847729533910751,0.9827685952186584,0.15835719912592,0.0014046380767454,4.947107264276063e-05,0.0320617146790027,-0.0336893089115619,0.325883537530899,0.0014062328264117,-0.0044127777218818,0.6029896140098572,0.7977356314659119,0.0308016755260658,0.0108680367543624,0.3031406871875294,0.138360321521759,-0.1039424538612365,1.8250274658203125,97,128,12072,17559
23.9,1788432200024,4.253520965576172,6.056337833404541,-0.0015127253718674,-0.0044613555073738,0.1972486525774002,0.9803422093391418,0.1653085679544994,0.0055176133997037,-3.3589890112423465e-05,-0.0145766157656908,0.0073654698207974,0.2527185976505279,0.0003143735229969,-0.00440816860646,0.61207515001297,0.7907872200012207,-0.0081198321985295,0.0348691555535012,0.2704721094545314,0.1905322670936584,-0.2186518311500549,-1.1424827575683594,63,126,12023,18062
24.0,1788432200124,4.2816901206970215,6.02816915512085,-0.0012327411677688,-0.0045289094559848,0.2096119523048401,0.977773368358612,0.1600943079550627,-0.000141095009218,9.470542418385117e-05,0.0132798375561833,-0.0164806246757507,0.2510052621364593,0.0007324134930968,-0.0043202005326747,0.6242833733558655,0.7811856269836426,0.0011944093419427,0.0003382359508431,0.2528878943377965,-0.0970818996429443,0.0880792737007141,1.458963394165039,54,132,12803,17541
24.1,1788432200224,4.309859275817871,5.88732385635376,-0.0014274769928306,-0.0041128490120172,0.2238561511039734,0.9746124744415284,0.1698557596036403,0.0035952824411673,-9.488828815549246e-05,-0.0024057612754404,0.0021760133095085,0.2656332850456238,-3.618653863668442e-05,-0.0037706512957811,0.6334309577941895,0.7737900018692017,-0.0115500654829316,0.0772147516111937,0.2361313973768575,-0.2528928518295288,0.0779352188110351,1.3384313583374023,94,130,12059,17435
24.2,1788432200324,4.647887229919434,5.633802890777588,-0.0014448061119765,-0.0044135646894574,0.2361006140708923,0.9717174768447876,0.1692340117227434,0.0046810778318285,-4.415471579503624e-06,0.0006868333439342,-0.0245723277330398,0.2621603608131408,0.0009694127365946,-0.004667779430747,0.6453144550323486,0.7639021277427673,0.0180204931337755,-0.0235722746165043,0.2468025394079777,0.3313689827919006,0.2360181808471679,-1.202275276184082,161,70,13236,15940
24.3,1788432200424,4.394366264343262,5.239436626434326,-0.0010261205025017,-0.0040737711824476,0.244846761226654,0.9695526957511902,0.158220139849731,0.0063538665795182,-5.000968518110728e-05,0.0259958561509847,0.0335398912429809,0.1401551961898803,0.0007594004273414,-0.0029244991019368,0.650014340877533,0.7599160075187683,0.0151920726926965,0.0489869682808584,0.1278246526615324,0.5208414793014526,0.3271654844284057,2.267841339111328,126,82,14965,14899
24.4,1788432200524,4.8450703620910645,5.042253494262695,-0.0004232029314152,-0.0030926652252674,0.2474572360515594,0.9688937664031982,0.1646894954862766,0.0027271585211797,-9.880638543229509e-07,0.0,-2.253245146022209e-09,0.0,0.0017861807718873,-0.0035186875611543,0.6504542231559753,0.7595351338386536,0.0116214491544045,-0.0763010122253334,0.0105568775037815,0.33585125207901,-0.3582035303115845,1.0753860473632812,78,76,13190,14850
24.5,1788432200624,4.8450703620910645,5.211267471313477,-0.0008187021012417,-0.0027245676610618,0.2486546784639358,0.9685879945755004,0.1652135719914738,0.0034739578823603,-9.873930822173996e-05,-0.0177601780742406,0.0340567156672477,0.0348408631980419,0.0003000302240252,-0.0025930209085345,0.6514720916748047,0.7586681842803955,-0.0036584019695289,0.0127940071288021,0.0301641888749043,0.2368624210357666,-0.1013977527618408,-2.6008105278015137,103,84,15290,14466
24.6,1788432200724,4.309859275817871,5.464788913726807,-0.0009781916160136,-0.0023285043425858,0.2489320784807205,0.9685176610946656,0.1676590023346747,-0.0033462577343646,-2.078786059723081e-05,-0.0035590510815382,0.0061954641714692,-0.0128061771392822,0.0001831240952014,-0.0026466287672519,0.6513276696205139,0.758791983127594,0.0041290037976469,-0.0228630664484907,0.0362317370321448,0.1377755999565124,0.4533852338790893,0.5527143478393555,74,140,12255,16659
24.7,1788432200824,6.2816901206970215,3.746478796005249,-0.0011692328844219,-0.0020841490477323,0.2520981729030609,0.9676987528800964,0.1676218672905171,-0.0017241690275222,-3.0660519219499414e-05,-0.0011196492705494,0.0109785553067922,0.0974001288414001,-0.000614957883954,-0.0020332802087068,0.6527671217918396,0.7575557231903076,-0.011640749887201,0.0425952120198743,-0.0885089082110466,0.2582024335861206,-0.6648892164230347,-0.9409151077270508,279,19,21765,8578
24.8,1788432200924,8.788732528686523,1.2957746982574463,-0.0013972391607239,-0.0019281501881778,0.2303744256496429,0.973099172115326,0.1576801002575463,-0.0097958268081197,5.277800139059415e-06,-0.0012139098253101,-0.0085560949519276,-0.8016366958618164,-0.0002761995419859,-0.002834478393197,0.612224280834198,0.7906790971755981,-0.0147321839257826,-0.0391089714472442,-1.164759245711449,-0.5234454274177551,-1.1791726350784302,-0.8795375823974609,63,89,24758,5567
24.9,1788432201024,8.36619758605957,1.4647886753082275,-0.0016136725898832,-0.0018578170565888,0.1675512939691543,0.9858603477478028,0.1632578962807149,-0.0063660794325609,-2.309525631902322e-05,-0.0034997162874788,0.0149403559044003,-1.1676594018936155,-0.0010770810768008,-0.0015154099091887,0.5705353617668152,0.8212710618972778,0.0056887036869503,0.0671531729843744,-1.027634703398164,0.5573158264160156,0.1637932658195495,-0.8417491912841797,112,136,21494,7266
25.0,1788432201124,7.605633735656738,2.197183132171631,-0.0016024862416088,-0.0004441434284672,0.1190305948257446,0.992889165878296,0.1772565442932528,0.0012117648084318,-0.0001408685635546,0.0029139155521988,0.0337337739765644,-0.969055950641632,-0.0013229455798864,-0.001195098273456,0.5337581038475037,0.8456352949142456,-0.0077893797185865,-0.0199032025361722,-0.9819103834264024,0.0048638582229614,-0.1380190253257751,-0.0506172180175781,106,145,19440,9130
25.1,1788432201224,7.549295902252197,2.8450703620910645,-0.0011781755601987,0.0012892788508906,0.0778054744005203,0.9969670176506042,0.1668657499445663,0.0045118731923439,-0.0002723295517961,0.0292814411222934,0.0447876565158367,-0.7649301886558533,-0.0013984460383653,-0.0005186758935451,0.5033836960792542,0.8640617728233337,-0.0305199342955074,-0.1078695067652961,-0.69536980936325,-0.1010656356811523,-0.2311925292015075,0.4735631942749023,87,106,18246,9858
25.2,1788432201324,7.436619758605957,2.7887322902679443,-0.0013781973393633,0.000195930188056,0.0394603312015533,0.9992201328277588,0.1821288680199032,-0.0018986435049011,5.162118778173196e-05,0.0072151473723351,-0.0061430064961314,-0.7289613485336304,-0.0009617786854505,-0.001425483264029,0.4663755893707275,0.8845852017402649,-0.0148921827929033,-0.096144672598195,-0.8603485149153454,0.1529039144515991,-0.231239914894104,0.1413841247558593,82,138,18699,9603
25.3,1788432201424,6.985915660858154,2.816901445388794,-0.0013922589132562,-0.0002972564252559,0.0062818229198455,0.9999792575836182,0.1660209533022208,0.0018369905767096,3.4383871430046418e-06,0.0002113442897098,0.0073665650561451,-0.6617592573165894,-0.0013149427250027,-0.0004800772294402,0.4397924840450287,0.898098349571228,-0.0022011236802237,0.0843634784505674,-0.6936785132686706,-0.1711899042129516,-0.3707310557365417,-0.3422403335571289,147,143,19427,10073
25.4,1788432201524,6.788732528686523,3.4084506034851074,-0.0014219233999028,-0.0001260424614883,-0.0259108338505029,0.999663233757019,0.1790560028851722,-0.0009875973266984,-1.4162059096980111e-05,0.0009256153134629,0.0008433987968601,-0.6349422931671143,-0.001445778645575,-0.0003177942708134,0.4132461547851562,0.9106181859970092,-0.0044741095445874,0.0341825043486886,-0.6013343374573732,-0.1103591322898864,0.0001891255378723,-0.9824838638305664,63,116,16905,12128
25.5,1788432201624,5.492957592010498,4.084506988525391,-0.0015448225894942,-0.0001522075035609,-0.0495622716844081,0.9987698793411256,0.1714683403678484,0.0003115264769455,1.370507094846303e-05,0.0003026160702574,-0.0107142850756645,-0.435745507478714,-0.0011321697384119,-0.0010788105428218,0.3888340592384338,0.9213064908981324,0.0017743132438433,-0.0097609164901585,-0.3799856195841653,0.4777347445487976,0.3985975980758667,-0.0347347259521484,39,186,16905,13837
25.6,1788432201724,6.253520965576172,3.859154939651489,-0.0021948767825961,-0.0010533652966842,-0.0678756833076477,0.9976907968521118,0.1803659070125456,-0.0014123740344497,8.566189100983245e-05,-0.0270341727882623,-0.036607876420021,-0.2923612594604492,-0.0017254119738936,-0.0029406864196062,0.3762137293815613,0.926526665687561,-0.064814749613478,-0.0729284595606684,-0.3483468638056738,0.0396360754966735,-0.3233473300933838,1.7397575378417969,66,88,16294,12296
25.7,1788432201824,5.830986022949219,4.197183132171631,-0.0023321411572396,-0.0021621962077915,-0.0830143615603447,0.9965432286262512,0.1715714602421836,-0.0017376364981551,-5.099671392818099e-05,0.0073686186224222,-0.0168929900974035,-0.2940798997879028,-0.0012338506057858,-0.0028153918683528,0.3633243143558502,0.931657612323761,-0.0037159368057178,-0.0056768463814268,-0.3048880317546179,0.7820826172828674,-0.1530250906944275,-0.8333940505981445,26,212,11749,17811
25.8,1788432201924,3.0422534942626958,7.126760482788086,-0.001993601443246,-0.0018674237653613,-0.0878669992089271,0.9961284399032592,0.1758484711751378,0.0055108174027701,-6.489134218909359e-05,0.0063013592734932,-0.0026709840167313,0.0659651383757591,-0.0008540889248251,-0.0026802932843565,0.3707943856716156,0.9287107586860656,-0.0002854799311316,0.0016304925076385,0.6020175976701584,0.2756024599075317,0.5091555118560791,-0.7510595321655273,12,160,7269,22177
25.9,1788432202024,2.873239517211914,7.070422649383545,-0.000939939985983,-0.0030088732019066,-0.0555019527673721,0.9984536170959472,0.1748164415201015,0.001556690803796,2.8034390447725485e-05,0.0424241796135902,-0.037070158869028,0.763361394405365,0.0002944460138678,-0.0031105205416679,0.4028339385986328,0.9152677655220032,-0.0201461419393205,0.0053632455399841,0.7064668773676215,-0.1716519594192505,0.5653943419456482,1.3127374649047852,114,61,9375,19182
26.0,1788432202124,2.7042253017425537,7.464788913726807,-0.0016354272374883,-0.0023008298594504,-0.0239527579396963,0.999709129333496,0.1691835678103186,0.0008350524360726,-4.882720982009812e-05,-0.0078610461205244,0.0192631315439939,0.6083599328994751,-0.0003036670386791,-0.0030253985896706,0.4292844533920288,0.9031642079353333,0.0127156206165623,-0.0375982823953077,0.7693726207263116,0.1190830469131469,0.476776123046875,1.858575820922852,69,79,9382,20680
26.1,1788432202224,2.619718313217163,7.211267471313477,-0.0015742840478196,-0.0033476706594228,0.015298418700695,0.999876081943512,0.1821110356974539,0.002806385137989,7.663435851546567e-05,0.007629812695086,-0.0351525135338306,0.681991696357727,0.0005484092980623,-0.0035298513248562,0.4663854241371155,0.8845744729042053,0.0326425763088365,0.0079770870153099,0.6935748185177565,-0.0091174840927124,0.3407185077667236,1.3338232040405271,24,99,8179,20554
26.2,1788432202324,3.521126747131348,6.507042407989502,-0.0013011432019993,-0.0032165083102881,0.0477592535316944,0.9988528490066528,0.1767275849452451,0.0035918261357927,1.121788171732756e-05,-0.0030515016987919,0.0079639265313744,0.6481606960296631,0.000542351976037,-0.0039000203832983,0.4914146065711975,0.8709169030189514,0.0046405353063026,-0.0464589205796416,0.619711345401372,0.3291274309158325,-0.3174026012420654,-1.1355361938476562,83,50,10846,18252
26.3,1788432202424,4.02816915512085,5.915493011474609,-0.0010814033448696,-0.0029432873707264,0.0700617581605911,0.9975376725196838,0.1701436956477995,0.0011020205245906,-5.8578144912095175e-05,0.0063734073191881,0.0195936877280473,0.4046114087104797,8.898414671421051e-05,-0.002669621258974,0.5077615976333618,0.8614935874938965,0.0075132717608175,0.0514088359726551,0.408988982624588,0.2813394069671631,0.0710451006889343,-1.1904077529907229,145,77,11864,18130
26.4,1788432202524,4.169013977050781,6.2253522872924805,-0.0011627654312178,-0.0022992913145571,0.0900388732552528,0.9959349036216736,0.1806663855479461,-0.0020632158174589,-0.0001229652519078,0.0081083048135042,0.023009018972516,0.3353128433227539,-0.000444496050477,-0.0023092040792107,0.5254356265068054,0.8508301973342896,-0.0204537897440193,0.0258772131546184,0.3187719606227926,-0.1414719223976135,0.2534568309783935,-0.5884361267089844,94,119,12469,18339
26.5,1788432202624,4.253520965576172,6.11267614364624,-0.0013390368549153,-0.0018010648200288,0.1069978922605514,0.9942567348480223,0.1809158099020487,0.0015657149741252,-1.0578227589214494e-05,0.0007649431936442,0.0064445207826793,0.3645744919776916,-0.0003907373175024,-0.0023660957813262,0.5390387773513794,0.842277467250824,-0.0005814851172678,-0.0411985372479303,0.3437251074467605,-0.1104981303215026,-0.1568611860275268,0.5366888046264648,141,103,14311,17418
26.6,1788432202724,4.563380241394043,5.88732385635376,-0.0014301447663456,-0.001841353951022,0.1195525825023651,0.9928250908851624,0.1778808990354829,-0.0031397618701909,5.535301197924978e-07,-0.0154507607221603,0.0100063802674412,0.2184821963310241,-0.0004066172987222,-0.0023826342076063,0.5476453900337219,0.8367070555686951,-0.0045071417845385,-0.0002214532757508,0.2067666324835391,-0.0896944403648376,-0.2194640636444091,-2.0803756713867188,86,115,12830,17877
26.7,1788432202824,4.366197109222412,5.633802890777588,-0.0016252424102276,-0.000797500135377,0.1316168904304504,0.9912989735603333,0.1692548772008152,0.0007306195533178,0.0001121465804469,0.0019276929087936,0.0118516888469457,0.264885812997818,-0.0010912399739027,-0.0018170420080423,0.560546875,0.8281200528144836,-0.0177668273503916,-0.0722873246085442,0.2344180432449314,0.1740326285362243,0.0948538184165954,2.1772050857543945,128,78,13078,15964
26.8,1788432202924,6.901408672332764,3.436619758605957,-0.0019767479971051,-9.102746844291689e-06,0.1396792978048324,0.9901947975158693,0.1882947375801293,0.0026899068680323,-0.0001756309722837,-0.0067903161980211,-0.0216087270528078,0.0437367931008338,-0.001703767105937,-0.0008343365043401,0.5612673163414001,0.8276323676109314,0.0037139336501937,-0.0712543425743122,-0.117145324950405,0.5972071886062622,-1.032679557800293,2.3828001022338867,338,42,21733,7355
