time_s,timestamp_ms,wheel_vels__velocity_left,wheel_vels__velocity_right,odom__orient_x,odom__orient_y,odom__orient_z,odom__orient_w,odom__lin_x,odom__lin_y,odom__lin_z,odom__ang_x,odom__ang_y,odom__ang_z,imu__orient_x,imu__orient_y,imu__orient_z,imu__orient_w,imu__angvel_x,imu__angvel_y,imu__angvel_z,imu__acc_x,imu__acc_y,imu__acc_z,wheel_status__current_ma_left,wheel_status__current_ma_right,wheel_status__pwm_left,wheel_status__pwm_right
0.0,1788171593307,0.0,0.0,-0.0054514175280928,-0.0039713168516755,0.8018238544464111,0.5975224375724792,0.0,0.0,0.0,0.0,0.0,0.0,-0.0014097271487116,0.0064280563965439,-0.8752731084823608,0.4835842549800873,-2.083626741830326e-06,-0.0001466427005422,-7.286891073786017e-07,-0.0044047832489013,0.0413588285446167,0.0079631805419921,0,0,0,0
0.1,1788171593407,0.0,0.0,-0.0054514175280928,-0.0039713168516755,0.8018238544464111,0.5975224375724792,0.0,0.0,0.0,0.0,0.0,0.0,-0.0014097271487116,0.0064280563965439,-0.8752731084823608,0.4835842549800873,-2.083626741830326e-06,-0.0001466427005422,-7.286891073786017e-07,-0.0044047832489013,0.0413588285446167,0.0079631805419921,0,0,0,0
0.2,1788171593507,0.0,0.0,-0.0054514175280928,-0.0039713168516755,0.8018238544464111,0.5975224375724792,0.0,0.0,0.0,0.0,0.0,0.0,-0.0014097271487116,0.0064280563965439,-0.8752731084823608,0.4835842549800873,-2.083626741830326e-06,-0.0001466427005422,-7.286891073786017e-07,-0.0044047832489013,0.0413588285446167,0.0079631805419921,0,0,0,0
0.3,1788171593607,0.0,0.0,-0.0054514175280928,-0.0039713168516755,0.8018238544464111,0.5975224375724792,0.0,0.0,0.0,0.0,0.0,0.0,-0.0014097271487116,0.0064280563965439,-0.8752731084823608,0.4835842549800873,-2.083626741830326e-06,-0.0001466427005422,-7.286891073786017e-07,-0.0044047832489013,0.0413588285446167,0.0079631805419921,0,0,0,0
0.4,1788171593707,0.0,0.0,-0.0054514175280928,-0.0039713168516755,0.8018238544464111,0.5975224375724792,0.0,0.0,0.0,0.0,0.0,0.0,-0.0014223232865333,0.0064201150089502,-0.8752731084823608,0.4835842549800873,-1.7651628831988166e-06,-0.0002350840831067,6.239764735606973e-12,-0.0035845637321472,-0.0302501916885375,-0.0045528411865234,0,0,0,0
0.5,1788171593807,0.0,0.0,-0.0054514175280928,-0.0039713168516755,0.8018238544464111,0.5975224375724792,0.0,0.0,0.0,0.0,0.0,0.0,-0.0014348337426781,0.0064158700406551,-0.8752731084823608,0.4835842549800873,-6.677050458647272e-05,-0.0002879901070466,-1.603137083301033e-06,-0.0184502601623535,-0.0136341452598571,-0.0061550140380859,0,0,0,0
0.6,1788171593907,0.0,0.0,-0.0054514175280928,-0.0039713168516755,0.8018238544464111,0.5975224375724792,0.0,0.0,0.0,0.0,0.0,0.0,-0.0014499202370643,0.0064121941104531,-0.8752731084823608,0.4835842549800873,-8.917706438535523e-05,-0.0003081298667493,-1.7288101656564442e-06,-0.0152283906936645,-0.0113535523414611,-0.0201959609985351,0,0,0,0
0.7,1788171594007,0.0,0.0,-0.0054514175280928,-0.0039713168516755,0.8018238544464111,0.5975224375724792,0.0,0.0,0.0,0.0,0.0,0.0,-0.0014618635177612,0.0064108213409781,-0.8752731084823608,0.4835842549800873,-0.000117337846294,-0.0002695540183091,-1.476180388472288e-06,-0.026097297668457,-0.0148265361785888,0.0067090988159179,0,0,0,0
0.8,1788171594107,0.0,0.0,-0.0054514175280928,-0.0039713168516755,0.8018238544464111,0.5975224375724792,0.0,0.0,0.0,0.0,0.0,0.0,-0.0014768308028578,0.0064137605950236,-0.8752731084823608,0.4835842549800873,-0.0001561748880158,-0.0001286542287226,-2.1816057148185834e-06,-0.0054218173027038,0.0015110969543457,0.0249042510986328,0,0,0,0
0.9,1788171594207,0.0,0.0,-0.0054514175280928,-0.0039713168516755,0.8018238544464111,0.5975224375724792,0.0,0.0,0.0,0.0,0.0,0.0,-0.0014807917177677,0.0064162043854594,-0.8752731084823608,0.4835842549800873,-1.4960905412857556e-05,-1.0702457154873991e-05,2.4818916797352328e-12,0.0043568611145019,0.0132308006286621,0.0034856796264648,0,0,0,0
1.0,1788171594307,0.0,0.0,-0.0054514175280928,-0.0039713168516755,0.8018238544464111,0.5975224375724792,0.0,0.0,0.0,0.0,0.0,0.0,-0.0014800140634179,0.0064151501283049,-0.8752731084823608,0.4835842549800873,3.3963217927626974e-05,1.3386406802135116e-05,6.919217134235572e-12,-0.0133174061775207,0.0147931575775146,-0.0112867355346679,0,0,0,0
1.1,1788171594407,0.0,0.0,-0.0054514175280928,-0.0039713168516755,0.8018238544464111,0.5975224375724792,0.0,0.0,0.0,0.0,0.0,0.0,-0.0014778207987546,0.0064132744446396,-0.8752731084823608,0.4835842549800873,5.5319051939695786e-05,1.5226002584106834e-05,1.2570849319482342e-11,-0.0097337961196899,0.0235655903816223,-0.0121412277221679,0,0,0,0
1.2,1788171594507,0.0,0.0,-0.0054514175280928,-0.0039713168516755,0.8018238544464111,0.5975224375724792,0.0,0.0,0.0,0.0,0.0,0.0,-0.0014771381393074,0.0064120236784219,-0.8752731084823608,0.4835842549800873,1.7161465617693463e-05,-1.273920729848674e-05,-3.280482085451096e-12,-0.0011565685272216,0.0057730674743652,0.0161094665527343,0,0,0,0
1.3,1788171594607,0.0,0.0,-0.0054514175280928,-0.0039713168516755,0.8018238544464111,0.5975224375724792,0.0,0.0,0.0,0.0,0.0,0.0,-0.0014789486303925,0.0064114518463611,-0.8752731084823608,0.4835842549800873,-1.4041950966037004e-05,-3.610567435894383e-05,7.666734749301517e-12,-0.0030148029327392,0.0115047693252563,-0.0061140060424804,0,0,0,0
1.4,1788171594707,0.0,0.0,-0.0054514175280928,-0.0039713168516755,0.8018238544464111,0.5975224375724792,0.0,0.0,0.0,0.0,0.0,0.0,-0.0014802943915128,0.0064121130853891,-0.8752731084823608,0.4835842549800873,-3.190841522510447e-05,-1.8683012801871176e-06,8.952254510077388e-13,0.0026872158050537,0.0170614123344421,-0.0062408447265625,0,0,0,0
1.5,1788171594807,0.0,0.0,-0.0054514175280928,-0.0039713168516755,0.8018238544464111,0.5975224375724792,0.0,0.0,0.0,0.0,0.0,0.0,-0.0014800000935792,0.0064130872488021,-0.8752731084823608,0.4835842549800873,-1.892685978060912e-05,2.9659425510377823e-05,1.878005170213893e-06,-0.0114973783493042,0.024017333984375,0.0099754333496093,0,0,0,0
1.6,1788171594907,0.0,0.0,-0.0054514175280928,-0.0039713168516755,0.8018238544464111,0.5975224375724792,0.0,0.0,0.0,0.0,0.0,0.0,-0.001472532749176,0.0064173163846135,-0.8752731084823608,0.4835842549800873,5.987071586897199e-06,0.000154538891442,1.1899992653990855e-06,0.0094982385635375,-0.0263652205467224,-0.0047025680541992,0,0,0,0
1.7,1788171595007,0.0,0.0,-0.0054514175280928,-0.0039713168516755,0.8018238544464111,0.5975224375724792,0.0,0.0,0.0,0.0,0.0,0.0,-0.001472532749176,0.0064173163846135,-0.8752731084823608,0.4835842549800873,5.987071586897199e-06,0.000154538891442,1.1899992653990855e-06,0.0094982385635375,-0.0263652205467224,-0.0047025680541992,0,0,0,0
1.8,1788171595107,0.0,0.0,-0.0054514175280928,-0.0039713168516755,0.8018238544464111,0.5975224375724792,0.0,0.0,0.0,0.0,0.0,0.0,-0.0014540888369083,0.0064329449087381,-0.8752729892730713,0.4835841953754425,-7.885800910104565e-05,0.0002371329677872,-2.8820574034161554e-10,0.0105932354927062,0.0139907002449035,-0.0168075561523437,0,0,0,0
1.9,1788171595207,0.0,0.0,-0.0054514175280928,-0.0039713168516755,0.8018238544464111,0.5975224375724792,0.0,0.0,0.0,0.0,0.0,0.0,-0.0014540888369083,0.0064329449087381,-0.8752729892730713,0.4835841953754425,-7.885800910104565e-05,0.0002371329677872,-2.8820574034161554e-10,0.0105932354927062,0.0139907002449035,-0.0168075561523437,0,0,0,0
2.0,1788171595307,0.0,0.0,-0.0054514175280928,-0.0039713168516755,0.8018238544464111,0.5975224375724792,0.0,0.0,0.0,0.0,0.0,0.0,-0.0014540888369083,0.0064329449087381,-0.8752729892730713,0.4835841953754425,-7.885800910104565e-05,0.0002371329677872,-2.8820574034161554e-10,0.0105932354927062,0.0139907002449035,-0.0168075561523437,0,0,0,0
2.1,1788171595407,0.0,0.0,-0.0054514175280928,-0.0039713168516755,0.8018238544464111,0.5975224375724792,0.0,0.0,0.0,0.0,0.0,0.0,-0.0014379126951098,0.0064504239708185,-0.8752729892730713,0.4835841953754425,-4.653178700377699e-05,0.0001133092398215,1.4896566699351286e-06,0.0097685456275939,0.0029489398002624,0.0136699676513671,0,0,0,0
2.2,1788171595507,0.0,0.0,-0.0054514175280928,-0.0039713168516755,0.8018238544464111,0.5975224375724792,0.0,0.0,0.0,0.0,0.0,0.0,-0.0014379126951098,0.0064504239708185,-0.8752729892730713,0.4835841953754425,-4.653178700377699e-05,0.0001133092398215,1.4896566699351286e-06,0.0097685456275939,0.0029489398002624,0.0136699676513671,0,0,0,0
2.3,1788171595607,0.0,0.0,-0.0054514175280928,-0.0039713168516755,0.8018238544464111,0.5975224375724792,0.0,0.0,0.0,0.0,0.0,0.0,-0.0014390796422958,0.0064449524506926,-0.8752729892730713,0.4835841953754425,0.0001416295307291,-0.0001319379387862,-2.8237090327232925e-10,-0.0082591772079467,0.0085163712501525,0.0121841430664062,0,0,0,0
2.4,1788171595707,0.0,0.0,-0.0054514175280928,-0.0039713168516755,0.8018238544464111,0.5975224375724792,0.0,0.0,0.0,0.0,0.0,0.0,-0.0014403481036424,0.0064325826242566,-0.8752729892730713,0.4835841953754425,0.0002435620904869,-0.0001512782359434,-6.990200875333605e-10,0.0077829957008361,0.0077124238014221,0.0030088424682617,0,0,0,0
2.5,1788171595807,0.0,0.0,-0.0054514175280928,-0.0039713168516755,0.8018238544464111,0.5975224375724792,0.0,0.0,0.0,0.0,0.0,0.0,-0.0014404030516743,0.006420531310141,-0.8752731084823608,0.4835842549800873,0.0002027471458001,-0.0001116857827529,-3.7091910122051515e-10,-0.0208426117897033,-0.0066087841987609,-0.0099010467529296,0,0,0,0
2.6,1788171595907,0.0,0.0,-0.0054514175280928,-0.0039713168516755,0.8018238544464111,0.5975224375724792,0.0,0.0,0.0,0.0,0.0,0.0,-0.0014407346025109,0.0064074331894516,-0.8752731084823608,0.4835842549800873,0.0001431542618242,-8.504746045223614e-05,-1.8918506960956623e-10,0.0061755776405334,0.013368010520935,0.0035619735717773,0,0,0,0
2.7,1788171596007,0.0,0.0,-0.0054514175280928,-0.0039713168516755,0.8018238544464111,0.5975224375724792,0.0,0.0,0.0,0.0,0.0,0.0,-0.0014405865222215,0.0064031276851892,-0.8752732276916504,0.483584314584732,0.0001542029507456,-7.840083340832836e-05,-3.0111990587408303e-10,0.0241572260856628,-0.0209087133407592,0.0069608688354492,0,0,0,0
2.8,1788171596107,0.0,0.0,-0.0054514175280928,-0.0039713168516755,0.8018238544464111,0.5975224375724792,0.0,0.0,0.0,0.0,0.0,0.0,-0.0014399038627743,0.0063950438052415,-0.8752732276916504,0.483584314584732,9.20863295124376e-05,-4.141054809915937e-05,-7.215806794681324e-11,0.0029006004333496,-0.0043637752532958,-0.0019378662109375,0,0,0,0
2.9,1788171596207,0.0,0.0,-0.0054514175280928,-0.0039713168516755,0.8018238544464111,0.5975224375724792,0.0,0.0,0.0,0.0,0.0,0.0,-0.0014387303963303,0.0063931168988347,-0.8752732276916504,0.483584314584732,1.4386929097958802e-05,1.823524369333325e-05,6.555398075890953e-12,0.0248594880104064,-0.0162751078605651,0.0004186630249023,0,0,0,0
3.0,1788171596307,0.0,0.0,-0.0054514175280928,-0.0039713168516755,0.8018238544464111,0.5975224375724792,0.0,0.0,0.0,0.0,0.0,0.0,-0.0014398321509361,0.0063935127109289,-0.8752732276916504,0.483584314584732,-3.181990299631886e-05,-3.664226571107087e-05,1.7591837649360648e-11,-0.0097118020057678,-0.0051805973052978,-0.0045499801635742,0,0,0,0
3.1,1788171596407,0.0,0.0,-0.0054514175280928,-0.0039713168516755,0.8018238544464111,0.5975224375724792,0.0,0.0,0.0,0.0,0.0,0.0,-0.0014424817636609,0.006393963471055,-0.8752732276916504,0.483584314584732,-3.1081686113771086e-05,-5.019504691562479e-05,2.3233646822222994e-11,-0.0026831030845642,-0.003401756286621,-0.0071134567260742,0,0,0,0
3.2,1788171596507,0.0,0.0,-0.0054514175280928,-0.0039713168516755,0.8018238544464111,0.5975224375724792,0.0,0.0,0.0,0.0,0.0,0.0,-0.001446328125894,0.0063944412395358,-0.8752732276916504,0.483584314584732,-5.365760377140704e-05,-6.867463720264327e-05,7.013021293204026e-11,-0.0154562592506408,-0.017692744731903,-0.0030574798583984,0,0,0,0
3.3,1788171596607,0.0,0.0,-0.0054514175280928,-0.0039713168516755,0.8018238544464111,0.5975224375724792,0.0,0.0,0.0,0.0,0.0,0.0,-0.0014511756598949,0.0063928738236427,-0.8752732276916504,0.483584314584732,-1.2046299026877056e-05,-8.359822645190449e-05,1.518209852103272e-11,-0.0032164454460144,-0.0090335607528686,0.0330781936645507,0,0,0,0
3.4,1788171596707,0.0,0.0,-0.0054514175280928,-0.0039713168516755,0.8018238544464111,0.5975224375724792,0.0,0.0,0.0,0.0,0.0,0.0,-0.0014547947794198,0.0063912961632013,-0.8752732276916504,0.483584314584732,-1.333950230823586e-05,-8.904117790747436e-05,1.7829102696950534e-11,-0.0175244808197021,0.0073229074478149,-0.0089187622070312,0,0,0,0
3.5,1788171596807,0.0,0.0,-0.0054514175280928,-0.0039713168516755,0.8018238544464111,0.5975224375724792,0.0,0.0,0.0,0.0,0.0,0.0,-0.00145601388067,0.0063908426091074,-0.8752732276916504,0.483584314584732,-1.283588194363864e-05,-8.585742885080074e-05,1.651194185674777e-11,-0.0049828290939331,0.0217072963714599,-0.005380630493164,0,0,0,0
3.6,1788171596907,0.0,0.0,-0.0054514175280928,-0.0039713168516755,0.8018238544464111,0.5975224375724792,0.0,0.0,0.0,0.0,0.0,0.0,-0.00145601388067,0.0063908426091074,-0.8752732276916504,0.483584314584732,-1.283588194363864e-05,-8.585742885080074e-05,1.651194185674777e-11,-0.0049828290939331,0.0217072963714599,-0.005380630493164,0,0,0,0
3.7,1788171597007,0.0,0.0,-0.0054514175280928,-0.0039713168516755,0.8018238544464111,0.5975224375724792,0.0,0.0,0.0,0.0,0.0,0.0,-0.0014640251174569,0.0063931373879313,-0.8752732276916504,0.483584314584732,-3.8221487461525984e-05,-2.5108151044263303e-05,1.048762886165836e-11,-0.0028644800186157,-0.0103304982185363,-0.0023584365844726,0,0,0,0
3.8,1788171597107,0.0,0.0,-0.0054514175280928,-0.0039713168516755,0.8018238544464111,0.5975224375724792,0.0,0.0,0.0,0.0,0.0,0.0,-0.0014636665582656,0.006392509676516,-0.8752732276916504,0.483584314584732,4.587898893494407e-05,7.88309158131692e-06,5.576022021481954e-12,-0.0026720762252807,-0.0344074964523315,0.0157384872436523,0,0,0,0
3.9,1788171597207,0.0,0.0,-0.0054514175280928,-0.0039713168516755,0.8018238544464111,0.5975224375724792,0.0,0.0,0.0,0.0,0.0,0.0,-0.001461342908442,0.0063909338787198,-0.8752732276916504,0.483584314584732,6.679938974074247e-05,2.844989782979584e-05,1.9494868437163086e-06,-0.0060153603553771,-0.0148782134056091,-0.0095472335815429,0,0,0,0
4.0,1788171597307,0.0,0.0,-0.0054514175280928,-0.0039713168516755,0.8018238544464111,0.5975224375724792,0.0,0.0,0.0,0.0,0.0,0.0,-0.0014605429023504,0.0063900640234351,-0.8752732276916504,0.483584314584732,7.304287506913107e-05,1.7809014045139924e-05,2.0450460089051656e-11,-0.0026289224624633,0.0065200924873352,0.0245704650878906,0,0,0,0
4.1,1788171597407,0.0,0.0,-0.0054514175280928,-0.0039713168516755,0.8018238544464111,0.5975224375724792,0.0,0.0,0.0,0.0,0.0,0.0,-0.0014566089957952,0.0063884016126394,-0.8752732276916504,0.483584314584732,5.030911490105146e-06,5.91431522549567e-05,4.6268343593772e-12,-0.0091593861579895,-0.0016961693763732,-0.0196485519409179,0,0,0,0
4.2,1788171597507,0.0,0.0,-0.0054514175280928,-0.0039713168516755,0.8018238544464111,0.5975224375724792,0.0,0.0,0.0,0.0,0.0,0.0,-0.0014540953561663,0.0063924044370651,-0.8752732276916504,0.483584314584732,-5.769697354560937e-05,7.963807616154532e-05,-6.845774529232302e-11,-0.0215356349945068,0.016782522201538,-0.0293827056884765,0,0,0,0
4.3,1788171597607,0.5633803009986877,0.0,-0.0054514175280928,-0.0039713168516755,0.8018238544464111,0.5975224375724792,0.0,0.0,0.0,0.0,0.0,0.0,-0.0014483593404293,0.0063902912661433,-0.8752784729003906,0.4835747480392456,0.0004442945377834,0.0001057350574641,-0.0007122871746619,0.0011119246482849,-0.0128359794616699,0.0136280059814453,116,76,4840,3437
4.4,1788171597707,3.802816867828369,2.816901445388794,-0.0046962308697402,-0.0041985977441072,0.7996351718902588,0.6004531383514404,0.0621204683494103,-0.006007761078504,1.9793442163746537e-05,0.0055161779746413,-0.0049614906311035,-0.0971389934420585,-0.0018927678465843,0.0059953825548291,-0.8770760297775269,0.4803104996681213,0.0063953993282468,0.0158132478127134,-0.0873101675672794,0.8082565069198608,0.2288972735404968,0.0289430618286132,228,135,14565,9950
4.5,1788171597807,4.816901206970215,3.2676055431365967,-0.0052131824195384,-0.0036825304850935,0.7976681590080261,0.6030628085136414,0.0981060312472325,-0.0079967826467037,-5.56752750966062e-05,0.0044354018755257,0.0310328472405672,-0.136216938495636,-0.0010031424462795,0.006405166350305,-0.8815820217132568,0.4719862639904022,-0.0040060744079172,0.008348596896043,-0.2506648161884985,0.4835741519927978,-0.0464135408401489,0.3568305969238281,179,161,16282,12094
4.6,1788171597907,5.943662166595459,4.309859275817871,-0.0053988178260624,-0.0035094923805445,0.7868914604187012,0.6170578002929688,0.1632951797397845,-0.0097968340928859,-3.644329501105653e-05,0.001726213376969,0.0099544264376163,-0.2573412358760834,-0.0009564096108078,0.0063926065340638,-0.8869289755821228,0.4618607461452484,0.0011296964239721,0.0138894518022718,-0.2365698834059475,-0.2265720963478088,-0.1041385531425476,-0.0524454116821289,92,82,16595,11810
4.7,1788171598007,5.88732385635376,4.2816901206970215,-0.0059239575639367,-0.0030177854932844,0.7780373096466064,0.6281828880310059,0.1558629126398966,-0.0106132595403997,-5.274468801667048e-05,0.0008567496552132,0.0112804984673857,-0.2526262700557709,-0.0004012640565633,0.0065858559682965,-0.8944228887557983,0.4471736252307892,-0.0055237183042359,-0.0256302646957104,-0.2695685732160488,0.3275824189186096,-0.2912006378173828,0.2455520629882812,108,104,16622,11761
4.8,1788171598107,5.802816867828369,4.169013977050781,-0.0059859370812773,-0.0030036428943276,0.7741592526435852,0.6329553127288818,0.1616214731932527,-0.0125458584990224,-1.812978225176329e-05,-0.0004891967400908,0.0040677646175026,-0.2647340893745422,0.0002070544287562,0.0067127766087651,-0.8983769416809082,0.4391738474369049,0.0123592983270362,0.0190303752071356,-0.2706055684874832,-0.0660302639007568,-0.0013644099235534,-0.5219030380249023,109,112,16780,12081
4.9,1788171598207,6.0,4.197183132171631,-0.0061682844534516,-0.0025654160417616,0.7704046368598938,0.6375203132629395,0.1534725947927134,-0.010584719728893,-4.196545283795136e-05,0.0099148787558078,0.0187946110963821,-0.2441586554050445,0.0006258869543671,0.0062819011509418,-0.9037404656410216,0.4280343353748321,0.0076085451402628,0.0141088901456377,-0.2688002374575604,0.1174197196960449,-0.5022408366203308,0.3694009780883789,101,87,16370,11880
5.0,1788171598307,6.0,4.197183132171631,-0.0062216389924287,-0.0017998951952904,0.7626819610595703,0.6467413306236267,0.164998218947371,-0.0086902787296162,2.93911485715906e-06,0.0084282616153359,0.0137515952810645,-0.2640445530414581,0.0016638291999697,0.0065082488581538,-0.9111908078193665,0.4119297564029693,-0.0040854246812953,0.0230154073936439,-0.2576361104396334,-0.0078481435775756,-0.1750361919403076,0.3828344345092773,101,87,16370,11880
5.1,1788171598407,5.549295902252197,4.422535419464111,-0.0064079365693032,-0.0012798379175364,0.7546347975730896,0.6561124324798584,0.1553991401559762,-0.0113117739095322,-3.60798337841655e-05,0.0168954953551292,0.0162047613412141,-0.236845001578331,0.0026251329109072,0.0069093955680727,-0.9145968556404114,0.4042994678020477,0.0012346635209061,0.0374054076895884,-0.1216725168543354,-0.2624459862709045,0.18506520986557,0.2342500686645507,103,120,15468,13622
5.2,1788171598507,5.605633735656738,4.591549396514893,-0.0068484293296933,-0.0008164150640368,0.7470293641090393,0.6647552847862244,0.1562246555892828,-0.0089309825737209,-9.5131168548431e-05,0.0006610914133489,0.0132834911346435,-0.177993431687355,0.0026251329109072,0.0069093955680727,-0.9145968556404114,0.4042994678020477,0.0012346635209061,0.0374054076895884,-0.1216725168543354,-0.2624459862709045,0.18506520986557,0.2342500686645507,103,120,15468,13622
5.3,1788171598607,5.605633735656738,4.591549396514893,-0.0068484293296933,-0.0008164150640368,0.7470293641090393,0.6647552847862244,0.1562246555892828,-0.0089309825737209,-9.5131168548431e-05,0.0006610914133489,0.0132834911346435,-0.177993431687355,0.0027633178979158,0.006821290589869,-0.9205461144447328,0.3905644416809082,0.0066021445988247,-0.0327088407670826,-0.1671768082255513,0.4188167452812195,-0.4606736898422241,-0.2414522171020507,103,120,15468,13622
5.4,1788171598707,5.690140724182129,4.478873252868652,-0.0077128885313868,-8.128350600600243e-06,0.7325640916824341,0.6806542873382568,0.1664607841032472,-0.0059942524551734,5.811556454728393e-05,0.0012023077579215,-0.0049043823964893,-0.1653371304273605,0.0029955757781863,0.0069698225706815,-0.9224203824996948,0.3861129879951477,0.0123510831734013,-0.0207789437326114,-0.154480120252914,0.0299606323242187,-0.1901673078536987,-0.1629533767700195,103,120,15468,13622
5.5,1788171598807,5.915493011474609,4.2253522872924805,-0.0077176392078399,-0.0001563301775604,0.7289217114448547,0.6845535635948181,0.1623043964798598,-0.0075049838978453,1.4635651674795867e-05,-0.0033781663514673,-0.0028621933888643,-0.2205173820257187,0.0029955757781863,0.0069698225706815,-0.9224203824996948,0.3861129879951477,0.0123510831734013,-0.0207789437326114,-0.154480120252914,0.0299606323242187,-0.1901673078536987,-0.1629533767700195,57,99,16194,11705
5.6,1788171598907,5.943662166595459,4.253520965576172,-0.0078717824071645,0.0001558058429509,0.7187228798866272,0.6952520608901978,0.1635482268620841,-0.005810420136549,-1.0914637617420056e-05,0.0115343676880002,0.0083479499444365,-0.253002256155014,0.0029955757781863,0.0069698225706815,-0.9224203824996948,0.3861129879951477,0.0123510831734013,-0.0207789437326114,-0.154480120252914,0.0299606323242187,-0.1901673078536987,-0.1629533767700195,119,100,15671,10790
5.7,1788171599007,3.9718310832977295,2.4788732528686523,-0.0078313611447811,-0.0001250677742063,0.7098968625068665,0.7042621374130249,0.1565305296700092,-0.0102125219986658,-2.006946352720606e-05,-0.002985977102071,-0.0002543368027545,-0.2666692435741424,0.0031167762354016,0.0070294020697474,-0.937305510044098,0.3484239876270294,0.0128406580334882,-0.0163029710570378,-0.2101368871140208,-1.068612813949585,-0.238992691040039,0.1356010437011718,8,15,9450,5378
5.8,1788171599107,0.8450704216957092,-0.98591548204422,-0.0077688880264759,-3.8056401535868645e-05,0.6968654990196228,0.7171597480773926,0.0389149956744424,-0.0007153272596859,4.216568263901164e-06,-0.0004533344472292,-0.0035539707168936,-0.2724922895431518,0.0031807124614715,0.0070023462176322,-0.9423163533210754,0.3346354067325592,0.00682393709546,-0.0023718210987786,-0.2129632449625154,-0.8403474688529968,0.3119382262229919,-0.0335187911987304,6,248,944,-7790
5.9,1788171599207,1.0140844583511353,-1.0704225301742554,-0.0073583861812949,-0.0003256103955209,0.6905005574226379,0.7232943773269653,-0.0212550838747047,0.0007456637416106,-8.913972968933661e-06,0.0014568171463906,-0.0180692188441753,-0.1704387813806533,0.0027378071099519,0.0067913774400949,-0.9448782205581664,0.327340304851532,0.0044829001061581,0.0064493560588932,-0.180179111155473,1.0641905069351196,0.1772472262382507,-0.0994529724121093,232,15,9216,1430
6.0,1788171599307,3.4647886753082275,1.6056338548660278,-0.0075637940317392,-2.11792066693306e-05,0.6850275993347168,0.7284777760505676,0.0076473005991505,-0.0008135223374894,-3.327183429099705e-06,0.0030399370007216,0.0125317079946398,-0.2337484806776046,0.0029263431206345,0.0069006299600005,-0.9483577609062196,0.3171144127845764,-0.0019944987762657,-0.0132430321086403,-0.3361631141534221,1.852126121520996,-0.0562162399291992,-0.5172481536865234,146,196,13761,10860
6.1,1788171599407,5.88732385635376,4.8450703620910645,-0.0076065938919782,-0.0001628343015909,0.6763807535171509,0.7365128397941589,0.1047008885595357,-0.0029557047064131,-1.1074302862363216e-05,-0.0040367762558162,0.0017116735689342,-0.1993239670991897,0.0028195437043905,0.0069427853450179,-0.9515926241874696,0.3072707056999206,0.0105986521789859,-0.0077026969818458,-0.1333053262929107,0.7544874548912048,0.1070504188537597,0.1054840087890625,114,165,16325,14293
6.2,1788171599507,5.577464580535889,4.704225540161133,-0.0074608018621802,-0.0001806779764592,0.6686490774154663,0.7435405254364014,0.1712883152975226,-0.0082000840395328,-3.807412245093068e-05,0.0026999239344149,-0.0030885119922459,-0.1472962796688079,0.0027464376762509,0.0068045947700738,-0.9535288214683532,0.3012124300003052,0.0048464512152199,-0.0449201390872617,-0.1643296662606868,-0.003364086151123,-0.0945044159889221,-0.1717138290405273,91,90,15425,13123
6.3,1788171599607,5.267605781555176,4.816901206970215,-0.0071490183472633,-0.0005615127738565,0.6623038053512573,0.7492011189460754,0.1606723543516562,-0.0079777294658399,5.335912826080527e-05,0.0019769370555877,-0.0129565736278891,-0.1458236277103424,0.0028380993753671,0.0065017230808734,-0.9561342597007751,0.2928428053855896,0.0288088046905966,0.0147789162288311,-0.0800366551074603,-0.1062146425247192,0.0962905883789062,-0.7012615203857422,100,120,14293,14319
6.4,1788171599707,5.267605781555176,4.901408672332764,-0.0071360366418957,-0.0001144234556704,0.6605968475341797,0.7507068514823914,0.1668945655058353,0.0014171529518852,2.6171604326656145e-05,2.1752091925009157e-05,-0.0016229389002546,-0.0516642741858959,0.0022777253761887,0.0065110893920063,-0.9566966891288756,0.2910049259662628,-0.01067122252559,-0.0407070350623321,-0.0342599751075843,-0.1142334342002868,0.0542466044425964,0.7479753494262695,119,122,14479,13813
6.5,1788171599807,5.295774459838867,4.929577350616455,-0.006665869615972,-0.0008519496768712,0.6588546633720398,0.7522402405738831,0.1684696033151385,-0.0028014553747581,4.752145359875669e-05,-0.0052872486412525,-0.0220503602176904,-0.0373541079461574,0.0023999121040105,0.0065606012940406,-0.9572616815567015,0.2891387939453125,-0.0011794672633343,0.0290284130351792,-0.0422523740246096,-0.2896730303764343,-0.1753199696540832,0.3331489562988281,94,103,14453,13595
6.6,1788171599907,5.295774459838867,4.929577350616455,-0.0066205887123942,-0.0005728201940655,0.6572415232658386,0.7536506652832031,0.165221133507609,-0.0056153038895848,-8.661675939909839e-05,0.0042007700540125,0.0166011396795511,-0.0554949156939983,0.0025203339755535,0.0061550745740532,-0.9577699303627014,0.2874586284160614,0.0155980292982217,0.0252903214331848,-0.0515695512066895,-0.276017427444458,0.1282728314399719,-1.194072723388672,105,97,14551,13534
6.7,1788171600007,5.267605781555176,4.816901206970215,-0.0066118733957409,-0.001407983712852,0.6550509333610535,0.7555543780326843,0.1621203420384513,-0.0037538153158002,0.0001046585454398,-0.0072393142618238,-0.01798065751791,-0.0441600382328033,0.0015080347657203,0.0066127032041549,-0.9587151408195496,0.2842872738838196,0.0006207374984612,0.0232607023644125,-0.0222376577514143,0.1010611057281494,0.0338145494461059,-0.9071884155273438,86,106,14447,14033
6.8,1788171600107,5.295774459838867,4.8450703620910645,-0.0062083867378532,-0.0018689972348511,0.6534680128097534,0.7569263577461243,0.1693823334944908,-0.0022571085783477,4.068723524681752e-06,-0.0052701635286211,-0.0133768552914261,-0.0598309189081192,0.0006199805065989,0.0063990224152803,-0.9592130184173584,0.282611072063446,-0.0096724890242734,-0.0713197458203815,-0.0739459215503346,0.0371078252792358,-0.2604277729988098,0.5443449020385742,80,96,14469,13831
6.9,1788171600207,5.098591327667236,5.126760482788086,-0.0067158993333578,-0.0020404008682817,0.6511576175689697,0.7589101195335388,0.1656211467562642,-0.0029021596784957,-1.8651793608938608e-06,-0.0100584914907813,0.0151665825396776,-0.0590365044772625,0.000518157146871,0.0067132161930203,-0.960159182548523,0.2793728411197662,0.0068845189345586,-0.0375792542029793,-0.0330254384756107,-0.2039563059806823,-0.0291693806648254,0.0880956649780273,84,111,13924,14207
7.0,1788171600307,5.126760482788086,4.957746505737305,-0.006321171298623,-0.0023293194826692,0.6509954929351807,0.7590517997741699,0.166483904364831,-0.0083758320611461,5.241623963692696e-05,0.0047329543158411,-0.0200598295778036,-0.0092094652354717,0.0004210630431771,0.0067794555798172,-0.9603744149208068,0.278630256652832,-0.0082648941057098,0.0110993468275609,-0.0586667589645682,0.0283681750297546,0.0411946773529052,-0.4116935729980469,82,129,13723,14671
7.1,1788171600407,5.070422649383545,5.014084339141846,-0.00625164154917,-0.0026660072617232,0.6500731110572815,0.75984126329422,0.1689079769611283,-0.0011883957738057,-4.262349310966016e-07,0.0,-1.4437171458325793e-08,0.0,7.31106847524643e-05,0.0068105142563581,-0.9604158997535706,0.2784869074821472,0.0050339397663275,0.0043485086302928,0.028218428162592,0.07343190908432,-0.1104633212089538,-0.3336143493652344,85,119,14054,14564
7.2,1788171600507,4.816901206970215,5.267605781555176,-0.006131449714303,-0.0026898155920207,0.6503999829292297,0.7595623731613159,0.1659702847382229,-0.0049826051343069,1.0210782965780949e-05,0.0031151166185736,-0.0041136662475764,0.017831478267908,-8.409656584262848e-05,0.0066196005791425,-0.9601916670799256,0.2792637646198272,-0.0002549128588994,-0.0095660586594416,0.0199786497921863,-0.0750225186347961,0.3315997123718261,-0.0152196884155273,84,128,13577,15283
7.3,1788171600607,4.957746505737305,4.985915660858154,-0.0059919124469161,-0.0029221822042018,0.652360200881958,0.7578797340393066,0.173580677383442,0.0008346132280051,2.500147583117362e-05,-0.0005088855396024,-0.0087388949468731,0.0620659291744232,-0.0002238852903246,0.0064864642918109,-0.9593222737312316,0.2822388112545013,0.001809248020929,-0.0113277956649486,0.0274145790462835,0.2452003955841064,0.1167019009590148,-0.0094995498657226,105,96,13958,15124
7.4,1788171600707,5.042253494262695,5.126760482788086,-0.0057808817364275,-0.0027220286428928,0.6537432074546814,0.7566894292831421,0.1712372975039377,-0.0025595830050294,-7.1138040013365135e-06,0.0062116454355418,-0.0009189903503283,0.0549413226544857,-0.0001417752355337,0.006360943429172,-0.9589654207229614,0.2834515869617462,0.00589057180632,-0.0139665737775087,0.0739892574909437,0.3623834252357483,0.1309976577758789,0.0544004440307617,109,94,14490,13982
7.5,1788171600807,5.126760482788086,5.098591327667236,-0.0058174175210297,-0.002753160893917,0.6539927124977112,0.7564734220504761,0.1714543223843907,-0.0043397077295826,5.895662352669619e-07,0.0,-7.146257363643826e-09,0.0,-3.243517130613327e-05,0.0066922092810273,-0.9589581489562988,0.2834687829017639,-0.0003899898935396,0.0057693691796031,0.0116671375462994,-0.0971382856369018,0.1638360619544983,0.4930992126464844,72,110,14008,14198
7.6,1788171600907,5.070422649383545,5.098591327667236,-0.0059670433402061,-0.0023865385446697,0.6542748808860779,0.7562295198440552,0.170477265632642,-0.0016641148335661,3.4817066293040533e-07,-7.27407680756187e-08,-8.728891742748601e-08,7.448654287145473e-06,0.0007407562807202,0.0064951367676258,-0.9588671326637268,0.283779889345169,0.0032982405544712,0.0304303842852246,-0.0252153559013454,-0.1746932864189148,-0.1758421659469604,-0.0424470901489257,106,99,14362,13950
7.7,1788171601007,5.239436626434326,5.014084339141846,-0.0063325366936624,-0.0019979635253548,0.6540502905845642,0.7564219236373901,0.1755541936694522,-0.0014196505560485,-2.526424173222305e-05,-0.0025167160201817,0.0091601470485329,-0.0141823692247271,0.0009177587926387,0.0066993068903684,-0.9590796828269958,0.2830555140972137,0.0097302125813364,0.0073248167808525,-0.0012802488905285,-0.1561044454574585,-0.2232942581176757,0.5248250961303711,107,106,13672,14392
7.8,1788171601107,5.098591327667236,5.014084339141846,-0.0065174531191587,-0.0017972844652831,0.6538450717926025,0.7565982341766357,0.164687945556951,0.0006988210375465,2.6337940680531497e-07,0.0,0.0,0.0,0.0014163274317979,0.0068593807518482,-0.9588591456413268,0.283795952796936,0.0034831242057235,0.0298493782031813,0.0209386575535806,-0.0633209943771362,0.1551467180252075,-0.1484756469726562,115,107,14404,13999
7.9,1788171601207,4.901408672332764,5.211267471313477,-0.0071549797430634,-0.001830366672948,0.6538098454475403,0.7566227912902832,0.1671332087498887,-0.003808619823312,-2.4968544827973205e-05,-0.0223497375845909,0.0046004704199731,-0.0150702875107526,0.0007424820214509,0.0072875283658504,-0.9590424299240112,0.2831679582595825,-0.0013533865356697,-0.0479349116547145,0.0073673173340873,0.0668720006942749,-0.0842095613479614,-0.2210254669189453,94,121,14357,14037
8.0,1788171601307,5.098591327667236,5.014084339141846,-0.0070681399665772,-0.0019903790671378,0.6551992297172546,0.7554205060005188,0.1686993311388452,0.0010850380168297,6.034943191972471e-05,0.0038037081249058,-0.0063972002826631,0.029031079262495,0.0012112893164157,0.0072425082325935,-0.9584501385688782,0.285165786743164,0.0041464137920627,0.0300126890271884,0.0179637213419871,-0.0256674289703369,0.0322516560554504,-0.6489992141723633,101,91,13654,13684
8.1,1788171601407,4.929577350616455,4.873239517211914,-0.0068717771209776,-0.0023376820608973,0.6552662253379822,0.7553631663322449,0.1740970385390513,-0.0023859355556799,4.469586252750254e-05,-0.0033097059931606,-0.0163055267184972,0.003557652933523,0.0001353984698653,0.0071707796305418,-0.9584975242614746,0.2850106656551361,-0.0086752655217946,-0.0561485378459213,-0.0043845400127269,0.3225317001342773,0.0167458653450012,0.293365478515625,96,106,14724,13986
8.2,1788171601507,5.295774459838867,4.929577350616455,-0.0068717771209776,-0.0023376820608973,0.6552662253379822,0.7553631663322449,0.1716328305613526,-0.0056085398450957,-6.675248410860511e-07,0.0,0.0,0.0,0.0006542904302477,0.006831681355834,-0.9588963389396667,0.2836738228797912,0.0062124672167688,-0.0166733555066035,-0.0707364040778227,0.0019106864929199,0.0234841108322143,0.020364761352539,116,82,14713,13506
8.3,1788171601607,5.295774459838867,4.816901206970215,-0.0066426103003323,-0.0022849780507385,0.652066707611084,0.7581290006637573,0.1650330262710429,-0.003261120005399,-2.700426976984627e-06,-0.0040653320029377,0.0002248934324597,-0.0700285509228706,0.0007638782262802,0.0069960420951247,-0.9599086046218872,0.2802248299121856,0.0029366740727481,0.0067060894042816,-0.0479646662254718,0.0744696855545044,0.2483943700790405,0.2442207336425781,106,103,14323,14237
8.4,1788171601707,5.154929637908936,4.8450703620910645,-0.0065533369779586,-0.0021113231778144,0.6506390571594238,0.7593560218811035,0.1705147656815164,0.0004415703540163,1.959691669364582e-05,0.005032667890191,-0.0028794915415346,-0.0440112352371215,0.0008593704551458,0.0067974384874105,-0.9604976177215576,0.2782041728496551,-0.0009289631480464,0.0124671630866357,-0.0704796818103045,-0.2089864611625671,-0.3801569938659668,0.1358585357666015,106,81,14946,14013
8.5,1788171601807,5.408450603485107,5.042253494262695,-0.0063319010660052,-0.0020285886712372,0.6494758725166321,0.7603532075881958,0.1632718714375679,-0.0026421433962392,-6.795670984360463e-06,0.0094344709068536,-0.0029849191196262,-0.0639369785785675,0.0007551768794655,0.0065948013216257,-0.961151123046875,0.2759430408477783,-0.0039780855677828,0.0087989000168312,-0.05272585265647,-0.2196924686431884,0.0970330834388732,0.0568342208862304,92,106,13962,13252
8.6,1788171601907,5.211267471313477,4.929577350616455,-0.0058114137500524,-0.0019650254398584,0.6472731232643127,0.7622334361076355,0.164774217706583,-0.0055783738309753,-1.8605942032082825e-06,0.0163032058626413,-0.0044950130395591,-0.033387754112482,0.0005228854715824,0.0059311529621481,-0.9614911675453186,0.2747713625431061,0.0152226370977717,-0.0211458876980855,-0.0228973603387473,0.0776568055152893,0.3415811061859131,-0.0614337921142578,110,107,14741,13705
8.7,1788171602007,5.295774459838867,4.985915660858154,-0.0050531565211713,-0.0021547195501625,0.6454522609710693,0.7637808918952942,0.1660737303808186,-0.0032422049388735,5.9995712932554894e-05,0.0069057997316122,-0.0135695710778236,-0.0470207445323467,-7.447786629199982e-06,0.0054601524025201,-0.9622825980186462,0.2719970047473907,-0.0046553053503678,-0.0239896375388985,-0.0573480948196217,0.1217005848884582,0.1025688648223877,-0.1163778305053711,91,101,14798,13932
8.8,1788171602107,5.239436626434326,5.014084339141846,-0.0048134489916265,-0.0020699389278888,0.6443558931350708,0.7647078633308411,0.1696262309868729,-0.0050021985199686,-8.702201596961285e-06,0.0066624721512198,0.0013256962411105,-0.0149403186514973,9.76063311100006e-05,0.0049679102376103,-0.9627019166946412,0.2705187201499939,-0.0023206241086532,-0.0176203661073835,-0.0212024436083774,-0.1086650490760803,0.0183550119400024,0.0903282165527343,94,117,14031,14351
8.9,1788171602207,4.985915660858154,5.154929637908936,-0.004299122840166,-0.0021479316055774,0.644136369228363,0.7648956179618835,0.1720612374047231,-0.0060103051991999,3.503010318492769e-05,0.0067744683474302,-0.0140934474766254,0.007910132408142,-0.0004242705181241,0.0046214396134018,-0.9625587463378906,0.2710337340831756,0.0013961752478998,-0.0125331309267201,0.0091157673221593,0.0185479521751403,-0.0582908391952514,0.2807731628417969,122,112,14505,13885
9.0,1788171602307,4.816901206970215,5.211267471313477,-0.0040015056729316,-0.0023750285618007,0.6442002058029175,0.7648427486419678,0.1712472513524446,-0.0028716920791998,-5.634080197222484e-07,0.0,-9.974582049210312e-09,0.0,-0.0005183806642889,0.004489348269999,-0.962434470653534,0.2714763879776001,-0.0056598588633073,-0.0202078912006948,0.0253257786632081,0.0018141269683837,0.1967131495475769,0.1900148391723632,75,127,14001,14998
9.1,1788171602407,5.098591327667236,5.070422649383545,-0.0037494932767003,-0.0020928024314343,0.6450473666191101,0.7641305327415466,0.1709738917515766,-0.000357972167188,2.261711648080283e-05,0.0060305991210043,-0.0040381527505815,0.0216678883880376,-0.0008180458098649,0.0040976619347929,-0.962331235408783,0.2718477249145508,0.0016703817937319,-0.0108867898840704,-0.0310287655226121,0.0134903192520141,-0.136281669139862,0.21380615234375,73,104,14390,13963
9.2,1788171602507,4.957746505737305,4.985915660858154,-0.003599056508392,-0.0027601360343396,0.6444120407104492,0.7646650075912476,0.1655400865162474,-0.0027909744551324,4.991805977659826e-07,0.0,0.0,0.0,-0.0011117057874798,0.0044348035007715,-0.9624800682067872,0.2713140249252319,-0.0105540022956654,0.0132014851490871,0.004041268016052,-0.2913500070571899,-0.0862553715705871,0.8358478546142578,92,95,14558,14463
9.3,1788171602607,5.014084339141846,5.126760482788086,-0.0033054016530513,-0.0030634556896984,0.6445524096488953,0.764546811580658,0.170866098083717,-0.00124725853549,1.0553490519324308e-06,-9.721119909045228e-09,0.0,0.0,-0.0022344579920172,0.0044691581279039,-0.9622781872749328,0.2720217406749725,-0.0215251678348957,-0.0195526554712274,0.043947699300066,-0.2598142623901367,0.3247017860412597,0.2846088409423828,67,112,13211,15057
9.4,1788171602707,4.816901206970215,5.211267471313477,-0.0030452280770987,-0.0037890598177909,0.6465873718261719,0.7628244757652283,0.1659621544659688,-0.0021202584209526,5.119040728696756e-05,0.003704464295879,-0.007985670119524,0.0868280827999115,-0.0021032709628343,0.0043592229485511,-0.961307168006897,0.2754364609718323,-0.0023865207913113,0.012539077084223,0.0746111579686121,0.0623883008956909,-0.2727289199829101,-0.190770149230957,124,125,14042,14873
9.5,1788171602807,4.929577350616455,5.126760482788086,-0.0029654162935912,-0.0040057855658233,0.6487012505531311,0.7610267400741577,0.1659073038734094,-0.0006186916900389,-1.4849403658193292e-07,-0.0029668037313967,-0.0099863931536674,0.028971504420042,-0.0024483948945999,0.0046310750767588,-0.9607765674591064,0.2772742807865143,-0.0190081040267653,0.0079316677213543,0.0233011735657721,-0.1507900953292846,0.2229541540145874,0.1480541229248047,107,117,13754,15089
9.6,1788171602907,4.957746505737305,5.070422649383545,-0.0032138209789991,-0.0043062050826847,0.65000319480896,0.7599125504493713,0.1669323556301535,-0.0007540226602261,-5.4689180820937695e-06,-0.0029532553162425,0.0019261591369286,0.0349882692098617,-0.0026477873325347,0.0045487964525818,-0.9602290391921996,0.2791639268398285,0.0096339311048492,-0.0078024738694828,0.0461027035122392,0.3872395753860473,-0.2916576266288757,-0.2218217849731445,99,81,14687,14250
9.7,1788171603007,4.788732528686523,5.239436626434326,-0.0028327736072242,-0.0042992420494556,0.6514869332313538,0.7586423754692078,0.176101447764377,-0.0052451478282589,1.4416796231320323e-05,0.008401833474636,-0.0076771662570536,0.0555145107209682,-0.0028229290619492,0.0043188268318772,-0.9597923159599304,0.2806638479232788,0.0019727387407691,-0.0045405205823423,0.0533865578430628,-0.1104075908660888,0.4260209202766418,-0.0181245803833007,93,104,14184,14808
9.8,1788171603107,4.788732528686523,5.183098793029785,-0.0026684117037802,-0.0046029351651668,0.6526926159858704,0.7576041221618652,0.1693929817389868,-0.0002619831589015,1.4518336564602342e-05,-0.0009862947044894,-0.0070633282884955,0.0381702631711959,-0.0033944910392165,0.0041207186877727,-0.9590137004852296,0.2833094596862793,-0.0002418173090848,-0.0112728113041825,0.0575042273161558,0.2420243024826049,0.3172054886817932,0.0547723770141601,91,104,14160,15016
9.9,1788171603207,4.901408672332764,5.183098793029785,-0.0023067956790328,-0.0046745319850742,0.6551641821861267,0.7554686069488525,0.1673934351886192,-0.0007793645390445,-1.2848550753211254e-05,0.0043600974604487,-0.0012174339499324,0.0705918371677398,-0.0034447386860847,0.0039707133546471,-0.958139717578888,0.2862528264522552,0.000152053557296,-0.0060376166497784,0.0597688681786724,-0.0685005187988281,-0.2098354697227478,0.0421476364135742,103,135,13882,15031
10.0,1788171603307,4.985915660858154,5.126760482788086,-0.0021479327697306,-0.0048762951046228,0.6574037075042725,0.7535197734832764,0.1703671256801166,-0.0002518161656241,2.958342940494041e-05,-0.0033330626320093,-0.006318349391222,0.0383507758378982,-0.0036949794739484,0.0040019517764449,-0.9574815034866332,0.2884433269500732,-0.0036708247958469,-0.0049410340013092,0.0540197059318969,0.1075317859649658,0.0966231822967529,0.2399559020996093,99,122,13600,15282
10.1,1788171603407,4.788732528686523,5.098591327667236,-0.0017230643425136,-0.0046821441501379,0.6599614024162292,0.7512829303741455,0.1743741698748104,-0.0004680497429374,-1.3550974158228004e-05,0.0102986125275492,-0.004541446454823,0.0694469138979911,-0.00331262499094,0.0033788923174142,-0.9564119577407836,0.2919825911521911,0.0132743912656469,0.0255163291130455,0.0492366689379843,0.1085113883018493,-0.0225655436515808,-0.7809572219848633,98,129,14419,15100
10.2,1788171603507,4.788732528686523,5.295774459838867,-0.001628537196666,-0.004686611238867,0.6614898443222046,0.7499376535415649,0.1708135971902507,-0.00058412873593,3.271811457716271e-05,-0.0024339212104678,-0.0058712963946163,0.0415200814604759,-0.0038922978565096,0.003253486007452,-0.9557543992996216,0.2941223084926605,0.0078278761059785,-0.0169436030154833,0.070681379080254,0.1289957165718078,0.1165013313293457,-0.3114557266235351,103,114,14200,14594
10.3,1788171603607,4.985915660858154,5.183098793029785,-0.0012936972780153,-0.0046137068420648,0.6636889576911926,0.7479933500289917,0.1653675394861931,-0.0018149514681967,-2.10331514055179e-05,0.0098515460267663,-0.008606375195086,0.0679073855280876,-0.0033327415585517,0.0030249096453189,-0.9550278186798096,0.2964821755886078,0.0097397715773153,0.0331729303874907,0.0403348524883285,-0.0816835165023803,-0.0929738283157348,-0.1284399032592773,103,95,13854,14775
10.4,1788171603707,4.788732528686523,5.211267471313477,-0.0017069174209609,-0.004432592075318,0.6648669242858887,0.7469466328620911,0.1734974306566447,0.0002576451944258,-5.974044332389537e-05,-0.0099576422944664,0.0087700290605425,0.0255587454885244,-0.0033762697130441,0.0035196775570511,-0.9546529054641724,0.2976812124252319,-0.0142113621232862,-0.0181282975905605,0.038777843496755,-0.0623029470443725,0.2500352263450622,-0.0030059814453125,80,92,14234,14744
10.5,1788171603807,4.929577350616455,5.183098793029785,-0.0021118116565048,-0.0040539358742535,0.6662992238998413,0.74567049741745,0.170508857755921,-0.0029256431430983,-2.378947491789732e-06,2.3885813789092936e-05,0.0095850657671689,0.0423273704946041,-0.0027314079925417,0.0036431495100259,-0.954163372516632,0.2992517948150635,-0.0099586557815332,0.027199788987087,0.0312191535100197,-0.1352773904800415,0.1034310460090637,-0.0938987731933593,105,115,13729,14791
10.6,1788171603907,4.929577350616455,5.042253494262695,-0.0025848224759101,-0.0037627625279128,0.6680307388305664,0.7441197037696838,0.1691559912585988,-0.0053931313002488,-5.176661350876965e-05,-0.0048693702556192,0.0178609564900398,0.0732591524720192,-0.0023875627666711,0.0038505401462316,-0.9535049796104432,0.3013432621955871,-6.909241317815728e-05,0.0064906334236205,0.0581585435230278,0.0734227299690246,-0.2218394875526428,-0.0459184646606445,105,108,13952,14541
10.7,1788171604007,4.760563373565674,5.154929637908936,-0.0032570497132837,-0.0031071361154317,0.6701216697692871,0.7422376275062561,0.1674154851355903,-0.0016019839319965,-6.982616235486803e-05,0.0093902200460433,0.0278370566666126,0.0839190408587455,-0.0010068146511912,0.0043893726542592,-0.9523029923439026,0.3051207959651947,-0.0019899055545915,0.0260649294457823,0.0672068589400228,0.1061834692955017,-0.0009880065917968,-0.0288543701171875,98,115,14514,15068
10.8,1788171604107,4.985915660858154,5.098591327667236,-0.0042590200901031,-0.0021798233501613,0.6725097894668579,0.7400727868080139,0.17307401874191,-0.0004938868713588,-5.321408575279647e-05,-0.0019794872496277,0.0183917731046676,0.0546938516199588,-5.77019527554512e-05,0.0048865396529436,-0.9515175819396972,0.3075556457042694,-0.0033600418150174,0.0163322041709146,0.0485820904696704,-0.0550752282142639,0.0072419047355651,0.1230974197387695,87,124,13624,15389
10.9,1788171604207,5.211267471313477,4.788732528686523,-0.0050215381197631,-0.0013454195577651,0.6731734275817871,0.7394663691520691,0.1747778779377539,-0.0036418758930341,-4.6710741516852334e-05,0.003304042853415,0.0294093284755945,-0.0163979288190603,0.001553164795041,0.0053223082795739,-0.9518482089042664,0.3065195381641388,-0.0016443048562906,0.0369087734367943,-0.0714282847927863,-0.114827275276184,-0.1244889497756958,0.2585105895996094,116,102,15030,14141
11.0,1788171604307,5.295774459838867,4.957746505737305,-0.0059495470486581,-0.0004234188236296,0.6709062457084656,0.7415182590484619,0.1698658667505111,-0.0011080924295586,-7.55623336527315e-05,-0.0027978152502328,0.023637767881155,-0.0669256225228309,0.0023953597992658,0.0056846113875508,-0.9526389241218568,0.3040412962436676,0.0018722626571109,0.0165603124691057,-0.0469052779795162,-0.075196623802185,0.1974503993988037,-0.2482118606567382,88,117,14498,13707
11.1,1788171604407,5.239436626434326,4.816901206970215,-0.0067267906852066,0.0001576163340359,0.6690343022346497,0.7432010769844055,0.165981968937255,-0.0032330254018602,-0.0001065012704173,-0.0034407675266265,0.0202843938022851,-0.0457418970763683,0.0032637789845466,0.0061302511021494,-0.9533555507659912,0.3017698526382446,0.0043147497231376,0.0159987084539484,-0.0432988257760546,0.267671525478363,0.0760642886161804,-0.0495433807373046,110,114,14814,14274
11.2,1788171604507,5.239436626434326,4.901408672332764,-0.0078005152754485,0.0013960625510662,0.6666197776794434,0.7453557848930359,0.1724920044128096,-0.0037821214373411,-6.28933982682487e-05,0.0030886158347129,0.030431630089879,-0.0614813826978206,0.0048653176054358,0.0066249445080757,-0.9542296528816224,0.2989620566368103,0.0028111390385947,0.0402986509337188,-0.043407778961857,-0.0541577935218811,0.1295557618141174,0.0806245803833007,102,107,14040,14561
11.3,1788171604607,5.239436626434326,4.957746505737305,-0.0082518775016069,0.0018308064900338,0.6658737063407898,0.7460165023803711,0.1649542271402139,0.0005555854394814,-8.8836672998747e-05,-0.0007111097220331,0.0175374448299407,-0.0174912177026271,0.0056995945051312,0.0065037282183766,-0.95425283908844,0.2988759279251098,0.0062611201321024,0.0236569439643869,-0.0188025997458818,-0.0185967683792114,-0.2053883075714111,-0.1306629180908203,129,77,14852,13401
11.4,1788171604707,5.126760482788086,5.070422649383545,-0.008328141644597,0.0024834908545017,0.6647229194641113,0.7470394372940063,0.1635246363230804,-0.001929518600337,-2.4389371842883748e-05,0.0042618196457624,0.0114892860874533,-0.0839047059416771,0.0054126670584082,0.0066305818036198,-0.955047369003296,0.2963298559188843,-0.0105970901105132,-0.0206087822730304,-0.0272983688615513,-0.0142463445663452,0.2735071182250976,0.2269678115844726,58,118,13777,14317
11.5,1788171604807,5.183098793029785,4.8450703620910645,-0.0082386936992406,0.0022852234542369,0.6644273996353149,0.74730384349823,0.1698598140188868,-0.0024262992488568,4.635856675517639e-05,-0.0025992006994783,-0.0086213136091828,-0.0166734680533409,0.0053674587979912,0.0060622533783316,-0.9551223516464232,0.2961011230945587,0.0152951898426586,-0.0033282832727176,-0.0382417008872025,-0.2614134550094604,-0.0571164488792419,-0.0647640228271484,103,83,14754,13708
11.6,1788171604907,4.957746505737305,4.929577350616455,-0.0076279575005173,0.002209210768342,0.6636613011360168,0.7479910254478455,0.1678265060774588,-0.0063953156798156,5.5580980913059607e-05,0.0131289083510637,-0.0145437372848391,-0.0326649509370327,0.0047316746786236,0.0058902828022837,-0.955535352230072,0.2947799563407898,-0.0137883754812994,-0.0023437010384735,-0.0223511068247676,0.0634459853172302,0.1843952536582946,-0.1109371185302734,97,99,14386,14530
11.7,1788171605007,5.211267471313477,4.985915660858154,-0.0071161999367177,0.0013399049639701,0.6625521779060364,0.748980700969696,0.1704682401761945,-0.0018670089924545,3.756261496990486e-05,-0.0040478315204381,-0.0071863043121993,-0.0088831195607781,0.0037538092583417,0.0057459007948637,-0.955777943134308,0.2940092086791992,0.0062662419250866,-0.0313209889503282,-0.0085215384315673,0.1460707783699035,-0.0404584407806396,-0.3516340255737304,102,78,14628,13232
11.8,1788171605107,5.211267471313477,5.126760482788086,-0.006816663313657,0.0008660382591187,0.6614572405815125,0.7499514222145081,0.1681058494769457,-0.0012864917111243,6.288477052410637e-05,-0.0040116794407367,-0.0160859990864992,-0.0491771809756755,0.0032575717195868,0.005919131450355,-0.9563267827033995,0.2922218143939972,-0.0066949056146444,-0.0120288711610624,-0.0190805696344278,-0.0998676419258117,-0.0813241600990295,0.1681089401245117,83,101,13397,13802
11.9,1788171605207,4.901408672332764,4.985915660858154,-0.0067618247121572,0.0006330411415547,0.6611204743385315,0.7502490282058716,0.1608989088418934,-0.0010580459056247,-1.0097332555584957e-06,0.0,0.0,0.0,0.0027883043512701,0.0057250652462244,-0.9561399817466736,0.2928409278392792,0.014884739375172,-0.032003338386211,0.0410198395027157,0.0998065471649169,0.0938942432403564,-0.0796232223510742,88,106,14597,14396
12.0,1788171605307,5.042253494262695,4.957746505737305,-0.0063527133315801,0.0001783431507647,0.661645770072937,0.7497895956039429,0.165777754273603,-0.0026082792503049,-5.226154461154445e-07,0.0,0.0,0.0,0.0021806871518492,0.0057281786575913,-0.9560384154319764,0.293177455663681,-0.0024295601231449,-0.0211353961861931,-0.0118025645342568,0.1625943779945373,-0.0296859145164489,-0.0574779510498046,105,107,13552,13925
12.1,1788171605407,4.985915660858154,4.957746505737305,-0.0060666250064969,-0.0005653360858559,0.6617493629455566,0.7497004270553589,0.1692232353419097,-0.0003893260487732,7.113622139555761e-05,-0.0057933190837502,-0.0138019006699323,0.0029328917153179,0.0017062909901142,0.0055020982399582,-0.9558827877044678,0.2936920523643493,0.010395331938529,0.0003968069898181,0.027133440369167,-0.0484234094619751,0.0772174000740051,0.0543184280395507,88,107,14384,14649
12.2,1788171605507,5.070422649383545,4.985915660858154,-0.0054439883679151,-0.000795311294496,0.6625030636787415,0.7490390539169312,0.1670520633202072,-0.001663518505294,1.8175963919696382e-05,0.0054267854429781,-0.0077470699325203,0.0132350511848926,0.0012667151167988,0.0051510650664567,-0.9557445645332336,0.2941499948501587,0.0001038482684411,-0.0126289663162134,-0.0090835197301583,-0.0111024975776672,0.0797399878501892,0.034027099609375,103,103,14546,14525
12.3,1788171605607,4.957746505737305,5.154929637908936,-0.0048848995938897,-0.0011633083922788,0.6625280380249023,0.7490202784538269,0.17025179464632,-0.0020172429575645,4.153004485197359e-05,0.0072614816017448,-0.0268289595842361,0.0011903278063982,0.0007946612313389,0.0048578390851616,-0.9555936455726624,0.294646292924881,-0.0011828686132891,-0.0039560739899197,0.0328333515896438,0.0496749877929687,-0.0026981830596923,0.0300750732421875,95,122,13266,15178
12.4,1788171605707,5.295774459838867,4.957746505737305,-0.0048337033949792,-0.0011562870349735,0.6635849475860596,0.7480844855308533,0.163112926467463,-0.0042302003680166,4.438113679459555e-06,0.000843105954118,-0.0005574789247475,0.0162374228239059,0.0009507536888122,0.0049670077860355,-0.9554362297058104,0.2951541543006897,-0.0072601471274772,0.0011822938793797,-0.061702230988988,0.1340159177780151,-0.2049830555915832,0.0239429473876953,135,96,14762,13486
12.5,1788171605807,5.154929637908936,4.873239517211914,-0.0049596708267927,-0.001353204017505,0.6606429815292358,0.750682532787323,0.1709327569139455,-0.0041412862382102,1.245554393683836e-05,-0.0059784105978906,-0.0055804057046771,-0.0798937827348709,0.0007299957796931,0.005081184208393,-0.956753432750702,0.2908550500869751,-0.0006614207707569,-0.004005583143993,-0.0485389698351793,-0.1479316353797912,-0.0860331654548645,0.3590974807739258,86,118,14381,14158
12.6,1788171605907,5.239436626434326,4.760563373565674,-0.0047329487279057,-0.0012548617087304,0.659361720085144,0.75180983543396,0.1634299273633249,-0.0032166481540165,-4.492537537457804e-05,0.009769176132977,-0.0002087137982016,-0.0362734012305736,0.0008362075313925,0.0048056486994028,-0.9569969177246094,0.2900572717189789,-0.0037190956904248,-0.0149184739814575,-0.026027510871629,0.0152714252471923,0.0567368268966674,0.4950923919677734,86,100,14716,14199
12.7,1788171606007,5.211267471313477,4.8450703620910645,-0.0046742856502532,-0.0013256501406431,0.6575378179550171,0.7534058690071106,0.1649039361550747,-0.0067684585482473,3.5692462468202056e-05,-0.0009754249476827,-0.003606755984947,-0.0418046005070209,0.0004494981840252,0.0047294814139604,-0.9578288197517396,0.2873002588748932,0.0014447184008443,-0.0086517227612687,-0.0456967898117031,0.1312934756278991,0.0720763802528381,0.8997993469238281,106,84,14829,13774
12.8,1788171606107,5.352112770080566,4.788732528686523,-0.0041321129538118,-0.0013599049998447,0.6560026407241821,0.7547460794448853,0.1634347684207297,-0.0020892272489276,5.686941014639923e-05,0.0098214894533157,-0.009251938201487,-0.0392301157116889,0.0003204736858606,0.0042163077741861,-0.9583224058151244,0.2856578528881073,0.0256908535562958,-0.013932045506225,-0.0366010141978242,-0.0122652053833007,-0.3032265305519104,-0.375885009765625,88,89,14604,12965
12.9,1788171606207,5.323943614959717,4.8450703620910645,-0.0041057248599827,-0.0018296905327588,0.6539584994316101,0.7565171122550964,0.1633798906331117,-0.0056592433785682,-1.026000755431817e-05,-0.0130044128745794,-0.00430717645213,-0.0606901608407497,3.84356826543808e-06,0.0043532811105251,-0.9592453837394714,0.2825410366058349,0.015509352972806,-0.0217362742912615,-0.0591444463492547,0.0074300169944763,-0.3705735206604004,0.035257339477539,105,100,14357,14057
13.0,1788171606307,5.042253494262695,5.126760482788086,-0.0040826122276484,-0.0015870805364102,0.6526163816452026,0.75767582654953,0.1646956321148324,-0.004298808035255,1.2640698778555192e-05,0.0028191120363771,-0.0021981375757604,-0.0432250536978244,-1.944601535797119e-06,0.0043889451771974,-0.9598363637924194,0.2805258631706238,-0.0013926186237859,-0.0043073078436606,-0.030307938805329,-0.2026615738868713,-0.1685280799865722,0.0046577453613281,92,112,14170,14053
13.1,1788171606407,5.126760482788086,5.267605781555176,-0.0039130318909883,-0.0021201018244028,0.6519416570663452,0.7582560777664185,0.1621513385570068,-0.0020607234473653,3.379561271734895e-05,-0.006733457557857,-0.0130448210984468,-0.0166097283363342,-0.0003242781385779,0.0043590972200036,-0.9597429037094116,0.2808461487293243,0.0082709048319008,0.0061509060889792,0.0308029472434844,0.171041190624237,0.2233856916427612,0.2055244445800781,110,101,13746,13408
13.2,1788171606507,4.985915660858154,5.070422649383545,-0.0039130318909883,-0.0021201018244028,0.6519416570663452,0.7582560777664185,0.1650216252218514,-0.0064095371516802,-6.094717345822436e-07,0.0,0.0,0.0,-0.0002946825698018,0.0043761152774095,-0.959692120552063,0.2810195088386535,-0.006539123595584,-0.0038603729388398,-0.0007873134166778,0.0404442548751831,-0.0548922419548034,-0.2621383666992187,94,107,14418,14185
13.3,1788171606607,4.957746505737305,4.929577350616455,-0.0039130318909883,-0.0021201018244028,0.6519416570663452,0.7582560777664185,0.1679034140472261,-0.0052875829918586,-1.1731012245888556e-06,0.0,0.0,0.0,1.986511051654816e-05,0.0047567933797836,-0.9598146677017212,0.2805943489074707,0.0015833113717983,0.0178372600352669,0.0002438818439587,-0.2327388525009155,0.150981605052948,-0.2322320938110351,104,118,14556,14818
13.4,1788171606707,5.070422649383545,5.070422649383545,-0.0042220959439873,-0.0018693273887038,0.6521273851394653,0.7580952644348145,0.1692367004053026,0.0001703594255748,-4.1125830080167576e-05,-0.003029664279893,0.0166441071778535,0.0105397813022136,0.0005756383761763,0.0046449014917016,-0.9595418572425842,0.2815271615982055,0.008425202655202,0.0150467129716894,0.0196942000930946,0.0735886096954345,-0.3053571581840515,0.0358161926269531,62,79,12027,13413
13.5,1788171606807,3.4084506034851074,4.197183132171631,-0.0046085589565336,-0.0011652761604636,0.6530418395996094,0.7573068737983704,0.1559168065392953,-0.0036615290149757,-4.125022424748367e-05,0.00333685381338,0.0176790356636047,0.0343695469200611,0.0010444624349474,0.0047248341143131,-0.9590861797332764,0.2830731868743896,0.0009858247645464,0.0037276690321266,0.0505146440376823,-0.637735903263092,0.3700721263885498,-0.2626295089721679,8,41,6260,10704
13.6,1788171606907,0.0,2.197183132171631,-0.0043802359141409,-0.000884945387952,0.6597501039505005,0.751471757888794,0.0726320308502978,-0.0014757118688896,1.3932678548886606e-05,0.0103924041613936,-0.0089279785752296,0.2635493278503418,0.0010634902864694,0.0043630320578813,-0.9557015299797058,0.2943035066127777,-0.0010659474805893,0.0081086594145599,0.3363574224673442,-1.2915072441101074,0.455055832862854,-0.0280742645263671,0,77,-1950,7203
13.7,1788171607007,-1.436619758605957,1.2676056623458862,-0.0043836319819092,-0.0009510649833828,0.6664563417434692,0.7455304861068726,0.0332174910720544,-0.0004766480583855,1.3840368764628341e-07,-0.0027596643194556,-0.0034183100797235,0.3731124103069305,0.0010329904034733,0.0044205291196703,-0.9500247836112976,0.3121417164802551,-0.0002238412601987,0.0032404572813124,0.3949201349751322,-1.0580685138702393,0.4003796577453613,0.2565069198608398,188,64,-7631,5753
13.8,1788171607107,-1.6056338548660278,1.4647886753082275,-0.0043408940546214,-0.0009135187137871,0.6904588937759399,0.7233580350875854,-0.0012239947508717,-0.005756727241802,3.978304676190055e-07,0.0028656625654548,-3.2468477002112195e-05,0.4850983619689941,0.0010368395596742,0.0043278597295284,-0.9422609210014344,0.3348499238491058,0.0031371306335025,0.0044447371313661,0.4678405084883168,0.0129913687705993,0.1327486634254455,0.003218650817871,72,121,-5930,6367
13.9,1788171607207,-1.4929577112197876,1.4929577112197876,-0.0044705010950565,-0.0007890061242505,0.7089523077011108,0.705241858959198,0.0021145430747896,-0.0027111599912125,4.2404253352189694e-08,-0.0009895879775285,0.0016849688254296,0.4663474559783935,0.001135773025453,0.0043929694220423,-0.9343380331993104,0.3563593626022339,0.0007313898315403,0.0003482666127833,0.5174519041953914,0.0850386619567871,0.1697291135787964,0.0342216491699218,75,141,-6580,6411
14.0,1788171607307,-1.183098554611206,1.211267590522766,-0.0044583766721189,-0.0009047485655173,0.7249621748924255,0.6887736320495605,0.0015422180882041,-0.0063016086401083,5.620885541422831e-07,-0.0028498105239123,-0.0057420916855335,0.4766487181186676,0.0010153846815228,0.0044421199709177,-0.9264199733734132,0.3764640688896179,-0.0022666029555764,-0.0034272135416351,0.4369127663689121,0.041397213935852,-0.1100621223449707,0.0939302444458007,55,62,-4888,4703
14.1,1788171607407,-1.1267606019973757,1.0985915660858154,-0.0043784924782812,-0.0010605260031297,0.7361791729927063,0.6767716407775879,0.0011775238523236,-0.0038929718067588,4.207834715451658e-07,-0.0018657121108844,-0.0029095702338963,0.3164268434047699,0.0008404953405261,0.0044614793732762,-0.9185516238212584,0.3952750861644745,-0.0031147301773787,-0.001056153064208,0.3473205779558844,-0.0585899353027343,0.1010255217552185,0.022531509399414,75,112,-5513,5526
14.2,1788171607507,-1.154929518699646,1.2957746982574463,-0.0043996348977088,-0.0011534246150404,0.7479704022407532,0.6637165546417236,0.0014742855401578,-0.0046779712315788,9.536410249463212e-07,-0.0018527498468756,-0.0020370327401906,0.371389776468277,0.000718543305993,0.0044876402243971,-0.9117395877838136,0.4107437133789062,-0.0026778759781339,-0.0066157498185019,0.3623684099999387,0.0809248089790344,0.0981726646423339,-0.0109949111938476,62,89,-5529,4825
14.3,1788171607607,-1.211267590522766,1.2394366264343262,-0.0043761986307799,-0.0013146040728315,0.7592409253120422,0.6507936716079712,0.002513028182739,-0.0029512100507941,1.841079399215644e-06,-0.0022947452962398,-0.0027262237854301,0.344845175743103,0.0006115790456533,0.0045353295281529,-0.9028077721595764,0.4300201535224914,-0.0010608217140515,-0.0002536701760535,0.3653998331130926,0.0505019426345825,0.0072918534278869,-0.018691062927246,97,90,-5455,5027
14.4,1788171607707,-1.154929518699646,1.183098554611206,-0.0043451823294162,-0.0013779298169538,0.7723060846328735,0.6352341771125793,0.0020443372973109,-0.0024684909679617,5.828497094008783e-09,-0.001512168906629,-0.0040252110920846,0.3732530474662781,0.0004996247589588,0.0045416569337248,-0.895491898059845,0.4450544714927673,-0.0036241037400292,-0.0047273657508978,0.3775074285943912,0.0011111497879028,0.0001396536827087,0.034947395324707,128,86,-5142,4628
14.5,1788171607807,-0.8732394576072693,0.5633803009986877,-0.004259324632585,-0.0015197212342172,0.7822579145431519,0.6229382753372192,0.0016028214094623,-0.0049670621679031,3.357407207249037e-07,-0.0021398467943072,-0.0049505503848195,0.2838039398193359,0.0003083264455199,0.0044990312308073,-0.8896234631538391,0.4566725194454193,-0.0043220333531418,-0.0061068075241126,0.178349984566023,0.3272956609725952,-0.0873076915740966,-0.0196714401245117,108,141,-3941,4877
14.6,1788171607907,-0.9295774698257446,1.0704225301742554,-0.0042147394269704,-0.0016748703783378,0.7886077165603638,0.6148799061775208,-0.0022111860955861,-0.0009053322627569,3.163160190999252e-07,-0.0027688343543559,-0.0051632635295391,0.2394905835390091,0.0002198815345764,0.0045435018837451,-0.8855774998664856,0.4644694030284881,-0.0025458823995826,-0.0021295064660764,0.242241353025091,0.1454094052314758,0.0557435750961303,-0.0162715911865234,123,81,-4517,4779
14.7,1788171608007,0.0,0.0,-0.004159933887422,-0.0017622790765017,0.7951403260231018,0.6064086556434631,0.0026594440926826,-0.0036727625833551,6.919639632451875e-07,-0.0004220920964144,-0.0019193186890333,0.1803408414125442,3.8543716073036194e-05,0.0044766385108232,-0.8803098797798157,0.4743781685829162,3.127833292982842e-05,-0.0058549520054862,-0.0043060550547629,0.094472587108612,0.1477939486503601,-0.1184892654418945,0,0,0,0
14.8,1788171608107,0.0,1.6056338548660278,-0.0040681143291294,-0.0018344785785302,0.7954904437065125,0.6059497594833374,0.0032264958767572,-0.0014177103686034,-5.254878409409713e-07,-0.0001300160802202,-0.0051245386712253,0.0248242262750864,-0.0001778807491064,0.0042550358921289,-0.8796936869621277,0.4755218029022217,0.0049213359751718,-0.0172424151414292,0.1010299760956089,2.0959391593933105,0.3264168500900268,-0.3263168334960937,251,251,6883,5651
14.9,1788171608207,3.0985915660858154,5.126760482788086,-0.004237400367856,-0.0018271397566422,0.7999553680419922,0.6000417470932007,0.0983600637588574,0.0041701476847662,-1.3720949091313184e-05,-0.0046817837283015,0.0087458789348602,0.1660994887351989,0.0001646373420953,0.0045709703117609,-0.873860239982605,0.4861557483673095,0.005849310901358,-0.0094094181101871,0.3181842929102824,0.977731466293335,0.2275747060775756,0.0922651290893554,142,231,11521,16836
15.0,1788171608307,4.0,6.732394218444824,-0.0044719721190631,-0.0016379607841372,0.8082674741744995,0.5887963175773621,0.1612963301871869,0.0075441174627401,-3.249917432383409e-05,-0.0020918506197631,0.0045685758814215,0.3268783986568451,0.0007907971739768,0.0046944292262196,-0.8658720850944519,0.5002428889274597,0.0152548206646511,0.0226397498125451,0.4144121908818053,-0.3071783781051636,-0.1988064050674438,-0.4575757980346679,101,78,11858,17166
15.1,1788171608407,4.2253522872924805,6.0,-0.0041889892891049,-0.0013737076660618,0.8191471099853516,0.5735666155815125,0.1685458966970847,0.0024101103780704,1.9383741378772145e-05,0.0007934766472317,-0.0080004837363958,0.3722812235355377,0.0005540801212191,0.0044564343988895,-0.8576721549034119,0.5141773223876953,-0.0025407294986989,0.0062094712564569,0.3110002298129918,0.25554358959198,-0.186513602733612,0.277740478515625,119,116,12471,16011
15.2,1788171608507,4.253520965576172,5.830986022949219,-0.0035850573331117,-0.0013405729550868,0.8280245065689087,0.5606788396835327,0.1676667936945503,0.0005937278682364,9.09386925288035e-06,0.0140659101307392,-0.0091836182400584,0.2631630599498749,0.0003427313640713,0.0037379227578639,-0.8509712815284729,0.525198757648468,0.0103674549651643,-0.0021698258120452,0.2551577237682028,0.0630514621734619,0.4700274467468261,0.1107845306396484,92,99,12152,16541
15.3,1788171608607,4.788732528686523,5.549295902252197,-0.002810416277498,-0.0012476067058742,0.8338436484336853,0.5519921779632568,0.1703674739578619,-0.0016507745328495,4.020243277819632e-05,0.0090923672541975,-0.0161721464246511,0.1803608983755111,4.180707037448883e-06,0.0029811486601829,-0.8456881046295166,0.5336691737174988,0.0045113161745804,0.0077393823685294,0.119870623465611,-0.0379499197006225,0.1156116127967834,-0.2898883819580078,86,93,12570,14975
15.4,1788171608707,4.563380241394043,5.577464580535889,-0.0020692904945462,-0.0015084818005561,0.8371384143829346,0.5469851493835449,0.1672603438321314,0.002281790675165,9.337214020414192e-05,0.0034744343720376,-0.025787353515625,0.1390614807605743,-0.0006934022530913,0.0022436687722802,-0.8421094417572021,0.5393015146255493,0.007906190908512,-0.0152555018192762,0.1735386791375478,0.0941483974456787,0.1845147609710693,0.0738344192504882,124,109,12980,15354
15.5,1788171608807,4.619718074798584,5.408450603485107,-0.0017301498446613,-0.0013557821512222,0.8409213423728943,0.5411529541015625,0.1675651421858435,0.0001367983677082,-1.2664833612282933e-05,0.0055140443146228,-0.0016900901682674,0.1392173022031784,-0.0008096396923065,0.0019609639421105,-0.838951587677002,0.5442019701004028,-0.0021707859520345,-0.0238866339370285,0.1002278365968533,-0.0464870929718017,-0.0519414544105529,-0.0498943328857421,86,114,13407,15486
15.6,1788171608907,4.619718074798584,5.549295902252197,-0.0012230831198394,-0.0017416073242202,0.8452143669128418,0.534423291683197,0.1678054993245143,0.0008680316921242,6.988201448542671e-05,-0.0016249597538262,-0.0166853573173284,0.1520697623491287,-0.0010979659855365,0.0018502036109566,-0.8345818519592285,0.5508798956871033,0.0045552865302044,0.0075644001198832,0.1822985773075599,0.1693229079246521,0.0772743821144104,-0.1579523086547851,73,133,13255,15611
15.7,1788171609007,4.535211086273193,5.464788913726807,-0.0010358188301324,-0.0019639246165752,0.8495280146598816,0.5275388360023499,0.1694093172878715,-0.0003274774618536,-1.959494023894972e-05,0.0019570034928619,-0.0053459666669368,0.1723555326461792,-0.001575656235218,0.0016558924689888,-0.8300313353538513,0.557712197303772,-0.0052095178044117,-0.0268073700406482,0.1614487172717021,-0.0455719828605651,0.2135334610939026,0.3877458572387695,107,118,13156,15980
15.8,1788171609107,4.647887229919434,5.633802890777588,-0.0013183244736865,-0.002283078385517,0.8532945513725281,0.5214225649833679,0.170236242657475,0.0016016615369221,2.927441395314689e-05,-0.0137293608859181,-0.0048419907689094,0.1498564481735229,-0.0015760790556669,0.00237896759063,-0.8258587121963501,0.5638698935508728,-0.0138526386210399,0.0115556588148826,0.1685275734702184,0.0126218199729919,0.0505342483520507,-0.3401403427124023,76,122,12699,15516
15.9,1788171609207,4.647887229919434,5.746479034423828,-0.0017706215148791,-0.0029362081550061,0.8571417927742004,0.5150690674781799,0.1698838023319974,-3.885675045561292e-05,2.829372957902221e-06,-0.0134839545935392,0.0051894979551434,0.1617997735738754,-0.0020473329350352,0.0029623871669173,-0.8217533230781555,0.569831907749176,-0.0177188671460774,-0.0035275849003081,0.1787294689875742,0.0637992620468139,0.1440593600273132,0.1257095336914062,81,91,12668,15090
16.0,1788171609307,4.563380241394043,5.492957592010498,-0.0017630156362429,-0.0033066861797124,0.8618316054344177,0.5071806311607361,0.1696305810892509,0.0001843090241492,5.197806982954131e-05,-0.0071369558572769,-0.011154725216329,0.1526201963424682,-0.0023676920682191,0.0029182787984609,-0.8176307678222656,0.5757307410240173,-0.010924348881235,-0.0144056575592608,0.133437007673,0.0614696741104126,0.1730660796165466,-0.1022567749023437,95,124,13039,15786
16.1,1788171609407,4.591549396514893,5.549295902252197,-0.0017526113661006,-0.0037010863889008,0.8651711344718933,0.5014599561691284,0.1715301599206501,0.0003270436003281,1.5911383626614495e-05,-0.0019113712478429,-0.0057307877577841,0.1409448087215423,-0.0024112751707434,0.0032386491075158,-0.8126544952392578,0.5827319622039795,0.0054792280666591,0.0161059297399673,0.1697254217833455,0.1665462255477905,0.3556581735610962,0.103729248046875,109,117,12741,15644
16.2,1788171609507,4.563380241394043,5.802816867828369,-0.0018721095984801,-0.0034823585301637,0.8688749670982361,0.4950158596038818,0.1687975722894414,-0.0004866944490535,1.8187291531077088e-05,-0.0025880385655909,-0.000101360354165,0.153482899069786,-0.0024724453687667,0.0032902909442782,-0.8087465167045593,0.5881430506706238,-0.015036279786878,0.0050160369359161,0.1284418392506745,-0.1071953177452087,-0.1035305857658386,-0.1059408187866211,119,105,12957,14832
16.3,1788171609607,4.647887229919434,5.549295902252197,-0.0026806266978383,-0.003817735472694,0.8720421195030212,0.4894084632396698,0.1723809422966706,0.0026232711720466,9.951046352180664e-06,-0.0146178063005208,0.0055646728724241,0.1435685604810714,-0.0025909570977091,0.0040655750781297,-0.8041900396347046,0.5943527221679688,-0.0010748602687573,-0.0285433323623083,0.143944336011786,-0.0984352827072143,-0.1085947155952453,0.492218017578125,99,124,13094,15755
16.4,1788171609707,4.422535419464111,5.492957592010498,-0.0031318308319896,-0.0042406837455928,0.876369297504425,0.481611043214798,0.1695705927508342,0.0005675765675985,1.96017574607206e-05,-0.0122557170689105,-0.0016259539406746,0.1643652915954589,-0.0026321485638618,0.0046061165630817,-0.7993431687355042,0.60085129737854,-0.0056823840811213,7.957242295983286e-05,0.1688995787912001,0.1983398199081421,0.0377246141433715,-0.5835123062133789,96,111,13359,15870
16.5,1788171609807,4.901408672332764,5.549295902252197,-0.0036000811960548,-0.0043364819139242,0.880038321018219,0.4748693108558655,0.1654013129636986,0.0034215346093041,-3.2043148307324786e-05,-0.0065533611923456,0.0064536589197814,0.1540336459875106,-0.0024585695937275,0.0050793569535017,-0.7955369353294373,0.6058787703514099,-0.0008812381866579,-0.0009922358189897,0.1613022166861741,-0.0631274580955505,-0.1267823576927185,0.0612688064575195,84,87,12243,14909
16.6,1788171609907,4.929577350616455,5.126760482788086,-0.0039337729103863,-0.0042965868487954,0.883013129234314,0.4693120419979095,0.1642425856720464,-0.0001017829296709,-4.636267913388086e-05,-0.0028908075764775,0.0109955985099077,0.1042530015110969,-0.0022985832765698,0.0053781056776642,-0.7917941212654114,0.6107600331306458,-0.0015796517001714,0.0049490291564278,0.0750911768399505,0.2023974657058715,-0.1635588407516479,0.0245637893676757,115,116,14102,14895
16.7,1788171610007,4.8450703620910645,5.295774459838867,-0.0041599702090024,-0.0040274327620863,0.8838608860969543,0.4677140414714813,0.1705631763343892,-0.0042306196324082,-2.7794458200851395e-05,0.0021549009252339,0.0084035471081733,0.0452482998371124,-0.0016280254349112,0.0056413384154438,-0.7903826236724854,0.6125854849815369,0.0032567630155615,0.0249203560793172,0.0346703164764331,-0.1014670729637146,-0.0631947517395019,-0.0302686691284179,70,87,14109,14492
16.8,1788171610107,4.873239517211914,5.154929637908936,-0.0043558715842664,-0.0037727886810898,0.8848398327827454,0.4658596515655517,0.1655886189927007,-0.0020764120335616,-2.9883205194631663e-05,0.0034926061052829,0.0077455635182559,0.0474737919867038,-0.0013395966961979,0.0054474314674735,-0.7891830801963806,0.6141324639320374,0.0245270793599912,0.0121600756628424,0.0587795769816091,0.0807012319564819,0.0436904430389404,0.3301601409912109,121,90,13887,14973
16.9,1788171610207,5.436619758605957,5.014084339141846,-0.0043987059034407,-0.0031341286376118,0.8851959109306335,0.4651870429515838,0.1714813306067976,-0.0053552965134239,-1.0314506299947446e-06,0.0077352696098387,0.0111227380111813,-0.0230815596878528,-0.0010134456679224,0.0054082451388239,-0.7895568609237671,0.6136527061462402,-0.0053828682906426,0.0246701446106276,-0.0847966333216548,-0.0500673055648803,-0.1931315660476684,0.0501728057861328,109,107,14430,13191
17.0,1788171610307,5.126760482788086,4.901408672332764,-0.0043936418369412,-0.003201846498996,0.8834949731826782,0.4684090912342071,0.1655293186301384,-0.0014970747054763,-4.295370807420869e-06,-0.0006953860283829,0.0042509860359132,-0.063417911529541,-0.0008283862844109,0.0052899615839123,-0.7916854023933411,0.6109054684638977,0.0168962740505242,0.0211918655752103,-0.0542811826910234,-0.1641892790794372,0.0091807842254638,-0.2925567626953125,110,87,15176,13830
17.1,1788171610407,4.816901206970215,5.183098793029785,-0.0045204255729913,-0.0029184333980083,0.8828946948051453,0.4695401489734649,0.1708774754414421,-0.0055918347384846,-2.8592595940382088e-05,0.0030717046465724,0.0100188599899411,-0.019983572885394,-0.0007889177650213,0.0052191838622093,-0.7924051880836487,0.609972357749939,0.0095467596318387,-0.0078243393821313,0.0114383842107926,-0.003253698348999,0.0845435261726379,-0.2071294784545898,84,124,14717,14137
17.2,1788171610507,5.042253494262695,5.098591327667236,-0.0042862640693783,-0.0031323125585913,0.8833179473876953,0.4687443971633911,0.1676450448337203,0.0005142392471094,1.990836996361811e-07,-0.0024930317886173,-0.0001989468437386,0.0173443853855133,-0.0012184036895632,0.0052347965538501,-0.791388213634491,0.6112902164459229,-0.0044803777832317,-0.0003470837240967,0.0030110970408474,0.1324418187141418,-0.1326680183410644,0.1733598709106445,100,102,14281,14024
17.3,1788171610607,4.957746505737305,5.098591327667236,-0.0041985586285591,-0.0033036586828529,0.8834456205368042,0.4685032963752746,0.1696437173340259,-0.001555258490695,1.9163794095129648e-05,-0.0046268189325928,-0.0066389003768563,0.0113420970737934,-0.0014152992516756,0.0053013013675808,-0.7911763191223145,0.6115635633468628,-0.0049765007699865,-0.0035626495143295,0.0035314323790023,-0.0609864592552185,-0.0870450139045715,-0.0499963760375976,75,85,14477,13995
17.4,1788171610707,4.8450703620910645,5.070422649383545,-0.0042378394864499,-0.0034611630253493,0.8834946155548096,0.4684093296527862,0.1626025976507366,-0.0052543081978633,9.434779653557944e-06,-0.0066269468516111,-0.0016634427011013,0.0044285715557634,-0.0011736303567886,0.0055936900898814,-0.7912118434906006,0.6115154027938843,0.0011291751666839,0.0193245392174252,0.0130401756431404,0.0391133427619934,-0.0194714665412902,0.0746698379516601,105,106,14951,14121
17.5,1788171610807,5.098591327667236,4.957746505737305,-0.0049254051409661,-0.0032767383381724,0.8834713101387024,0.4684478342533111,0.1703503801754758,-0.0021821806165749,-8.105629171880207e-05,-0.0021340863313525,0.00997253973037,-0.0050473678857088,-0.0009100977331399,0.0061704032123088,-0.791335940361023,0.6113496422767639,-0.0122793787550119,0.0131627266563439,0.0009976072654105,0.2723273634910583,-0.044743001461029,-0.2261133193969726,121,120,14051,14547
17.6,1788171610907,4.929577350616455,5.126760482788086,-0.0049254051409661,-0.0032767383381724,0.8834713101387024,0.4684478342533111,0.1683312012359584,-0.0029645279535304,-9.029483264064812e-07,0.0,-1.9388926020269537e-08,0.0,-0.0011482061818242,0.0059438059106469,-0.7911102771759033,0.6116436123847961,0.0042474182393402,0.0144447255302032,0.013011433795047,-0.2235592603683471,0.0596839785575866,0.4079666137695312,81,128,13354,14934
17.7,1788171611007,5.042253494262695,4.957746505737305,-0.0047756182029843,-0.0034595453180372,0.8839620351791382,0.467521458864212,0.1709837306530305,-0.0007242231301417,-7.187190580899084e-07,0.0,0.0,0.0,-0.0013977857306599,0.0059439977630972,-0.7905536890029907,0.6123623847961426,-0.0084101037674475,-0.0031272433375914,-0.0170221962881009,0.1475239992141723,-0.2577299475669861,-0.2922115325927734,91,105,14401,14518
17.8,1788171611107,5.323943614959717,4.929577350616455,-0.004593638703227,-0.003773876465857,0.8837931752204895,0.4678401052951813,0.1737137512088644,-0.0031523381302174,2.576367336765853e-07,-0.0081621250137686,-0.0130154443904757,-0.0154339065775275,-0.0019297925755381,0.0055698901414871,-0.7916585206985474,0.6109355092048645,0.0027651167568863,-0.0121611491758257,-0.0580542635375303,0.2705836296081543,-0.0061163306236267,-0.173868179321289,148,65,16357,11513
17.9,1788171611207,5.633802890777588,4.507042407989502,-0.0041880486533045,-0.0040361210703849,0.8813437223434448,0.4724397957324981,0.1663636432404417,-0.0051736520050867,2.8340841365295763e-05,0.0013818886363878,-0.0039845849387347,-0.1282299011945724,-0.0020859893411397,0.0053577572107315,-0.7950915694236755,0.6064621806144714,-0.000735618867178,-0.0154903951973505,-0.177160691983201,0.1674804091453552,-0.2269038558006286,0.2791709899902344,95,109,15546,12836
18.0,1788171611307,5.380281925201416,4.619718074798584,-0.0041146953590214,-0.0039245416410267,0.8777932524681091,0.4790058732032776,0.1588225405760695,-0.0064610591912691,1.9924089301631463e-05,0.0029869691934436,-0.0015958878211677,-0.1498792618513107,-0.0018066121265292,0.0052586793899536,-0.7995649576187134,0.6005539894104004,0.0134424240295693,0.0061620475551597,-0.1335770977229504,-0.003949224948883,0.1262510418891906,0.2726850509643554,84,102,15258,13215
18.1,1788171611407,5.690140724182129,4.619718074798584,-0.0042443973943591,-0.0035331612452864,0.8742212057113647,0.4854965209960937,0.1675484826613259,-0.0058384903312474,-1.566938715106341e-05,0.0006308068986982,0.0031329754274338,-0.1658138483762741,-0.0011369846761226,0.0054099885746836,-0.8038831949234009,0.5947615504264832,0.0121499461630675,0.0244519938328916,-0.1648461825756406,-0.0289390087127685,-0.0538312196731567,0.0059595108032226,116,82,15334,12964
18.2,1788171611507,5.521126747131348,4.535211086273193,-0.0041417758911848,-0.0032430517021566,0.87062668800354,0.4919161796569824,0.1624813005066098,-0.0065128110609574,-4.008787978764114e-05,0.0052087772637605,0.004850918892771,-0.1535866558551788,-0.0008077807724475,0.0051577426493167,-0.8091412782669067,0.5875910520553589,0.0140575506626583,0.0172257637771777,-0.1569412169590579,-0.1916749477386474,0.0816121101379394,-0.648015022277832,83,119,15711,13179
18.3,1788171611607,5.352112770080566,4.591549396514893,-0.0041607907041907,-0.0030541978776454,0.8689206838607788,0.4949244260787964,0.1639755821302395,-0.0033862956628747,-4.682242724382712e-05,0.0066905748099088,0.005215392448008,-0.1427948325872421,-0.0013354634866118,0.0048512173816561,-0.8104707598686218,0.5857574939727783,-0.0036831438932739,-0.0397329189546074,-0.1510098267298229,0.3140011429786682,-0.0332789421081543,-0.3535041809082031,104,95,16352,12880
18.4,1788171611707,5.070422649383545,4.985915660858154,-0.0039388863369822,-0.0033083842135965,0.86379075050354,0.5038244724273682,0.16097203436207,-0.0058514924584003,7.47029385548028e-05,-0.0007371437968686,-0.0149003826081752,-0.063768021762371,-0.001062543131411,0.0050632571801543,-0.8156569600105286,0.5785127878189087,0.0118733440847521,0.0328148285230858,-0.0312848435527807,-0.1453059911727905,0.04262375831604,-0.7503452301025391,102,85,14760,13811
18.5,1788171611807,5.295774459838867,4.816901206970215,-0.003691584104672,-0.0033758394420146,0.8633036613464355,0.5046602487564087,0.1722297065502836,-0.0030451223814589,2.2994485623615496e-05,0.0028348085470497,-0.0101253697648644,-0.0403659977018833,-0.0014584371820092,0.0049815801903605,-0.8167487382888794,0.5769702792167664,-0.0084079364089345,0.0151985825242963,-0.0683989163312692,-0.2791746258735657,-0.0713993310928344,0.2310924530029297,84,107,14514,14108
18.6,1788171611907,5.154929637908936,5.014084339141846,-0.0037998906336724,-0.0036918125115334,0.8623506426811218,0.506283700466156,0.1663418266291204,-0.0016983632314385,-2.292951141341713e-05,-0.0026950407773256,0.004210181068629,-0.0156317297369241,-0.00150634534657,0.004855228587985,-0.8175040483474731,0.5759005546569824,0.0068042638093303,0.0063447355170546,-0.0130997142534739,0.0097478628158569,-0.0133832097053527,-0.2415828704833984,106,83,14542,13636
18.7,1788171612007,5.126760482788086,5.014084339141846,-0.0034178146161139,-0.0033698230981826,0.8619741201400757,0.5069295763969421,0.1705777053478647,-0.0020910694417057,-3.547701453141919e-07,0.0103299329057335,-0.0078060301020741,-0.008516764268279,-0.0018556006252765,0.0041517866775393,-0.8177453875541687,0.5755622386932373,-0.0009909932442616,-0.0115603655517003,-0.0068049036430181,0.0796239972114563,0.0250654220581054,-0.02020263671875,93,109,13946,14311
18.8,1788171612107,5.070422649383545,4.929577350616455,-0.003331275191158,-0.0033352740574628,0.8616568446159363,0.5074694156646729,0.1691957434303356,-0.0034275878112742,-8.786737586625539e-07,0.0035534722264856,0.0058406647294759,-0.0080584697425365,-0.0017194226384162,0.0043053599074482,-0.8180367350578308,0.5751473903656006,0.0105154109483651,0.0139568139343465,0.0070944603778684,-0.1332489848136901,0.0714642405509948,-0.1538581848144531,95,89,14049,13391
18.9,1788171612207,4.732394218444824,5.295774459838867,-0.0033913939259946,-0.0030422781128436,0.8616976737976074,0.5074016451835632,0.1672420536387817,-0.0007975670167626,-3.171483556946076e-07,0.0092343958094716,0.0083296382799744,0.0033429570030421,-0.0013537146151065,0.0043299570679664,-0.8176662921905518,0.5756745934486389,-0.0024010953490619,-0.0050327084706027,0.0217754050864172,-0.079919159412384,0.0664151310920715,0.1570558547973632,37,175,12364,16546
19.0,1788171612307,4.422535419464111,5.690140724182129,-0.0036275452002882,-0.0029433737508952,0.86478590965271,0.5021190047264099,0.1708829836019151,0.0018233825846476,2.6938416800347364e-05,-0.0034344636369496,0.0014437828212976,0.1728139072656631,-0.0011139875277876,0.0047072991728782,-0.8133878111839294,0.5817017555236816,-0.0155198704059009,0.0236704691728605,0.1629632059409452,-0.0325881242752075,-0.1649636626243591,-0.0412778854370117,101,106,13207,15341
19.1,1788171612407,4.647887229919434,5.521126747131348,-0.0038696858100593,-0.0027638264000415,0.8688352108001709,0.4950786232948303,0.1654941915264069,-0.00018686290846,-2.4904727343547537e-05,-0.0026979080867022,0.0110920323058962,0.1621989607810974,-0.0008294368162751,0.0050064856186509,-0.8075862526893616,0.5897276401519775,-0.0114250700176912,0.0102557248706883,0.150905475680776,0.2640923261642456,0.1023959517478942,-0.1484184265136718,98,118,12578,15796
19.2,1788171612507,5.070422649383545,5.014084339141846,-0.0046609402634203,-0.0027331532910466,0.8720754384994507,0.4893415570259094,0.1743272948804527,-0.0026478769120784,-4.213965270084927e-05,-0.0033783863764256,0.009330803528428,0.0712452977895736,-0.0003737425431609,0.0057216817513108,-0.8054029941558838,0.5926999449729919,-0.0096029368272219,0.021908482479604,0.0146293900004907,-0.2929664254188537,-0.1071599721908569,0.2452545166015625,85,140,13580,15423
19.3,1788171612607,4.647887229919434,5.380281925201416,-0.0050338571891188,-0.0023811801802366,0.8728097081184387,0.488028734922409,0.1705594811543724,-0.0013884715233487,-2.943069141616241e-05,0.0104167768731713,0.0104335071519017,0.0204194840043783,2.9872171580791477e-05,0.0057353470474481,-0.8037429451942444,0.5949490666389465,-0.0038977990082857,0.004019325954246,0.0993404297499283,-0.2088668346405029,0.0804403424263,0.2266426086425781,37,177,12548,16588
19.4,1788171612707,4.563380241394043,5.633802890777588,-0.0050876569002866,-0.0023356794845312,0.8758783936500549,0.4824993908405304,0.1717368490951799,0.0003203792837754,7.227714483602567e-07,-1.003817124001216e-05,-0.0097144767642021,0.1733636260032653,7.165968418121338e-05,0.0059343231841921,-0.7990903854370117,0.6011815667152405,-0.0126742137527042,0.0182509243707047,0.1761763226001014,0.2321987152099609,-0.1663155555725097,-0.3938989639282226,104,126,12948,15614
19.5,1788171612807,4.535211086273193,5.6619720458984375,-0.0053667402826249,-0.0023392415605485,0.8795702457427979,0.4757331311702728,0.1668736295335013,0.0007526364630091,1.6061948918129692e-05,0.0038418592885136,0.0022845186758786,0.1584095954895019,0.0001945160329341,0.0058510359376668,-0.7957062125205994,0.6056545376777649,0.0077705872833798,0.014063851408519,0.1628689123665756,0.0748170614242553,-0.0085610747337341,-0.2179193496704101,83,117,12940,15780
19.6,1788171612907,5.352112770080566,5.126760482788086,-0.0047440198250114,-0.0025542380753904,0.8825696706771851,0.470150738954544,0.1757716129043568,-0.0014323171894628,5.3578155757538846e-05,-0.0007148903096094,-0.0129957236349582,0.0590545982122421,-0.0004383688792586,0.0053538102656602,-0.7925639748573303,0.6097651124000549,-0.0087380172471737,-0.0183191090313208,0.0015516081449464,-0.0774233341217041,-0.2447869777679443,-0.1226215362548828,96,108,13987,13156
19.7,1788171613007,5.549295902252197,4.563380241394043,-0.0046062441542744,-0.0024443008005619,0.8807538747787476,0.4735454618930816,0.1638706212997381,-0.0080128227051227,3.5760129254756265e-08,0.003982656635344,0.0073995860293507,-0.1147156655788421,-0.00036973785609,0.0052124997600913,-0.795887291431427,0.60542231798172,-0.0111098855581604,0.0005090610843828,-0.1928987519290723,-0.0384379625320434,-0.0151875615119934,0.1604871749877929,122,81,16146,12162
19.8,1788171613107,5.577464580535889,4.563380241394043,-0.0046409051865339,-0.0023827881086617,0.8767080903053284,0.4809944033622741,0.1633512388151921,-0.0056798204055083,1.1635779971857542e-05,-0.0037396647967398,0.0007883478538133,-0.1644957810640335,-0.0006244778633117,0.005156303755939,-0.8016796112060547,0.5977314710617065,-0.0116037049838923,-0.0249773837584554,-0.1318910337585433,0.1876251697540283,0.1238117218017578,0.1943960189819336,124,97,15467,12897
19.9,1788171613207,5.633802890777588,4.563380241394043,-0.0042491732165217,-0.002493520732969,0.8734555840492249,0.4868790209293365,0.1700289440485653,-0.0013727942482343,1.49107957804104e-05,0.0144688598811626,-0.0057962969876825,-0.1376009881496429,-0.000376608222723,0.004772019572556,-0.8054153919219971,0.5926913619041443,0.0079428354901724,0.0103635312648139,-0.1310796653186872,-0.1176504492759704,0.1845524311065673,-0.0725479125976562,82,70,15280,12793
20.0,1788171613307,5.605633735656738,4.507042407989502,-0.0042699100449681,-0.0025306553579866,0.8693019151687622,0.4942564666271209,0.1651561647746115,-0.0026125567914455,-2.103274374594567e-05,-0.008659953251481,0.0045980405993759,-0.1608938127756118,-0.0005471231415867,0.0049659768119454,-0.8091658353805542,0.5875592231750488,-0.0024619715606312,-0.0036502877805976,-0.1590666799933023,0.2003412842750549,-0.0299219489097595,0.0950031280517578,91,112,15299,13086
20.1,1788171613407,5.6619720458984375,4.450704097747803,-0.0042137689888477,-0.0023349621333181,0.8658695220947266,0.5002466440200806,0.1668631363623426,-0.0028325056920842,-2.50558809481379e-05,0.0073479157872498,-0.0009589308174327,-0.1393779516220092,-0.0002407897263765,0.0049737365916371,-0.8147491216659546,0.579792320728302,-0.0046160401823169,0.0180668372188472,-0.1652473830730176,0.0502711534500122,0.1128841638565063,0.0428495407104492,104,80,16009,12168
20.2,1788171613507,4.169013977050781,4.309859275817871,-0.0043147662654519,-0.0023981239646673,0.8619576096534729,0.5069562196731567,0.1640216581388352,-0.0046650646078106,1.7292580407376992e-05,-0.0045517785474658,-0.0042290561832487,-0.1596303731203079,-0.0004967516288161,0.0048702796921133,-0.8192952275276184,0.5733510851860046,0.0012407138440693,-0.0050656031256168,-0.1606412323484594,-0.6572318077087402,-0.0841842889785766,-0.1173334121704101,10,49,9375,11483
20.3,1788171613607,2.7323944568634038,3.88732385635376,-0.0043569020926952,-0.0024671424180269,0.8599198460578918,0.5104045867919922,0.1295955292010329,0.0028823404115891,4.434684983069432e-07,0.0,1.4646875712287512e-08,0.0,-0.0004384350031614,0.0049336943775415,-0.8182023167610168,0.5749090909957886,0.006115729208653,-0.0072171312085334,0.1870166179872691,-0.7736054062843323,0.1338317394256591,0.2117643356323242,48,96,2791,11562
20.4,1788171613707,-0.3661971688270569,3.633802890777588,-0.0042715808376669,-0.0024275085888803,0.8696370124816895,0.4936672747135162,0.0701258968187614,-0.0010067320612027,8.07506368932778e-07,-0.002218042500317,-0.0014711174881085,0.4712106883525848,-0.0004074564203619,0.0050435345619916,-0.805038571357727,0.5932008624076843,-0.0096914736967695,0.0088647524485385,0.5679731065774403,-0.35482919216156,0.1235307455062866,0.1596755981445312,165,82,-6241,10662
20.5,1788171613807,-3.126760482788086,2.816901445388794,-0.0045278500765562,-0.0025431576650589,0.884654700756073,0.4662177264690399,0.0230537716693061,-0.0050455139003572,-2.059379531262813e-06,-0.0034836230333894,-7.746470510028303e-05,0.7277071475982666,-0.0004693893715739,0.0053667807951569,-0.7774913311004639,0.6288707256317139,-0.0121525692785863,0.0030258672972679,0.9657115218440798,-0.2435681819915771,-0.2124638557434082,-0.3207893371582031,145,134,-10729,8925
20.6,1788171613907,-2.507042169570923,2.619718313217163,-0.0045327506959438,-0.0026401267386972,0.9034408330917358,0.4286806583404541,-4.36932028244622e-05,-0.0105704676299101,7.046515792260312e-07,-0.0007839372847229,-0.0055578262545168,0.8815507888793945,-0.0005252799019217,0.0053214048966765,-0.7529849410057068,0.6580160856246948,-0.0060223840980048,-0.0025703584512592,0.8445226321060749,0.0527945756912231,-0.3045273423194885,0.1075925827026367,70,99,-8776,8394
20.7,1788171614007,-2.4788732528686523,2.507042169570923,-0.0046120630577206,-0.0026009494904428,0.9211605787277222,0.3891468048095703,0.0042641618927864,-0.0087623139269933,-4.840895134905459e-07,-0.0002757295151241,-0.0008616520208306,0.7506060004234314,-0.000403132289648,0.0052825100719928,-0.7301484942436218,0.6832680702209473,0.0041353575563249,-0.0023505640638702,0.7542594499266815,-0.1129818558692932,0.1175537705421447,-0.0638027191162109,103,146,-9279,9014
20.8,1788171614107,-2.08450698852539,2.08450698852539,-0.0045408885926008,-0.002662174636498,0.9344322085380554,0.3561022877693176,0.002951014286515,-0.0089806373982728,8.063803860096068e-07,-0.0055444668978452,-0.0043119201436638,0.7005936503410339,-0.0005448730662465,0.0053115533664822,-0.703082263469696,0.7110885977745056,-0.0048090797945316,0.0024450581176817,0.5909103016583479,-0.0185117125511169,0.2480068802833557,0.0449275970458984,79,114,-8051,7935
20.9,1788171614207,-2.253521203994751,2.309859037399292,-0.0047084665857255,-0.0028149005956947,0.9451901912689208,0.3264741003513336,0.0013063525152604,-0.0030725265000518,-2.649386338978263e-07,-0.0075453962199389,-0.002048309892416,0.6797451972961426,-0.0006223618984222,0.0054863151162862,-0.6810901761054993,0.732178807258606,-0.0049756056731927,-0.0020652803822125,0.684732398465296,0.0557220578193664,-0.2137296795845031,-0.0213270187377929,48,86,-8021,7606
21.0,1788171614307,-1.97183096408844,1.97183096408844,-0.0046803234145045,-0.0027203364297747,0.9552668333053588,0.2956955730915069,0.0045709163687021,-0.0046396335794644,4.745410942211837e-08,0.0011599194258451,-0.0043972702696919,0.6747709512710571,-0.0005468437448143,0.0053710062056779,-0.6584841012954712,0.7525753378868103,-0.0025567524092742,-0.0037564829984876,0.6978678805663335,-0.1024170517921447,-0.1143687963485717,-0.0144319534301757,60,41,-6652,6084
21.1,1788171614407,-1.7464789152145386,1.8591549396514893,-0.0045417635701596,-0.0029685890767723,0.9643617272377014,0.2645317316055298,-0.0006580979825653,-0.0063492019665568,8.185544069051769e-07,-0.0062042376957833,-0.0024522584863007,0.5309300422668457,-0.0008239867165684,0.005384724587202,-0.635457456111908,0.7721166610717773,-0.0029385686047878,0.0017791081930892,0.5232050365093225,0.0741474032402038,0.1874290108680725,0.0576610565185546,62,131,-7297,7404
21.2,1788171614507,-1.774647831916809,1.8591549396514893,-0.0046507497318089,-0.002940968144685,0.971257507801056,0.2379674017429351,0.0023673285798037,-0.0033385489938972,-5.730381898651873e-07,-0.0003906261117663,-0.0021151923574507,0.594866156578064,-0.0007421765476465,0.0054553840309381,-0.6172199845314026,0.7867714166641235,0.0004082149682557,-0.001366552698403,0.5475690848253723,-0.0761506557464599,0.0113512277603149,0.0005884170532226,118,126,-7322,6690
21.3,1788171614607,-1.4929577112197876,1.4929577112197876,-0.0046205199323594,-0.002952582668513,0.976905643939972,0.2136009931564331,0.0045372265549746,-0.0061641163770859,-1.1279981345589946e-06,-0.0024740411899983,-0.0008258206071332,0.4729832410812378,-0.0007742000743746,0.0054672332480549,-0.5934544801712036,0.8048487305641174,-0.0030165000054683,0.0016953672554376,0.4114166504961816,-0.0633361935615539,0.1210197210311889,0.0136775970458984,123,97,-6463,6057
21.4,1788171614707,-1.5492957830429075,1.5492957830429075,-0.0047248094342648,-0.0029837023466825,0.9813519716262816,0.1921380460262298,0.0028146213848187,-0.0025487365430551,1.4225345570678942e-06,-0.0021977657452225,-0.0002911900519393,0.476377785205841,-0.0008051879703998,0.005483322776854,-0.5705466270446777,0.8212465047836304,-0.0019458334051173,-0.0054979870955863,0.4377293685590795,0.0176296234130859,-0.0727641582489013,0.0311841964721679,76,85,-6452,5892
21.5,1788171614807,-1.5211267471313477,1.6056338548660278,-0.0046583618968725,-0.0029747737571597,0.9859662055969238,0.1668539196252823,0.0016077678834648,-0.0047278672929718,-7.290213059166867e-07,-0.0012025584001094,-0.0018158230232074,0.4551557004451751,-0.0007913643494248,0.0054481755942106,-0.5536468029022217,0.8327333927154541,-0.0011214187855196,-0.0027743202233492,0.4593014099183841,-0.0601077675819397,0.1263588070869445,-0.0168180465698242,79,56,-6513,5826
21.6,1788171614907,-1.183098554611206,1.211267590522766,-0.0045227091759443,-0.0031359568238258,0.989489734172821,0.1444988250732422,-0.0004670540015689,-0.0014665001787418,6.617328197052096e-07,-0.0066251745447516,-0.0070407190360128,0.484473705291748,-0.0010702703148126,0.0053906757384538,-0.5356966257095337,0.8443926572799683,-0.0059437661567318,-0.0071786915400073,0.4589082220085561,0.1151267886161804,-0.3062288761138916,0.0324230194091796,70,82,-4954,4597
21.7,1788171615007,-1.1267606019973757,1.183098554611206,-0.0043658055365085,-0.0033953778911381,0.9918015003204346,0.1276686191558838,0.0009006266797965,-0.0036605984360638,1.220383584351912e-06,-0.0051917945966124,-0.0039961258880794,0.3188566565513611,-0.0013921689242124,0.0053697898983955,-0.5204509496688843,0.853873610496521,-0.0061465196066677,-0.0042273414563123,0.3469987841636052,-0.065098226070404,-0.0852362513542175,0.0559158325195312,65,75,-5458,5170
21.8,1788171615107,-1.0985915660858154,1.2394366264343262,-0.0041991835460066,-0.0034721351694315,0.9938632249832152,0.1104822680354118,0.0030622327691723,-0.002956381608404,-1.6201307941204283e-08,-0.0003299236414022,-0.004748719278723,0.3674139082431793,-0.001458060927689,0.0052044559270143,-0.5062698125839233,0.8623582720756531,-0.001717565069207,-0.0063692662400485,0.3862196333979923,-0.0529609322547912,-0.017037808895111,0.0706100463867187,75,97,-5640,4820
21.9,1788171615207,-1.0985915660858154,1.2676056623458862,-0.0040400847792625,-0.0034234102349728,0.9956297278404236,0.0932387560606002,0.0013875391530785,-0.0047702851791571,3.394791457645489e-07,0.0008074892684817,-0.0035484835971146,0.3530696034431457,-0.0013974523171782,0.0050576077774167,-0.4909079372882843,0.8711956143379211,0.0039641413885865,-0.0021379355249514,0.3157482849175682,0.0583696961402893,-0.0651693940162658,-0.0566415786743164,133,102,-5864,4847
22.0,1788171615307,-1.154929518699646,1.3239436149597168,-0.003887077094987,-0.0032593021169304,0.99726003408432,0.0738022699952125,0.0029664064508952,-0.0021434633797564,3.5350513013104146e-07,7.28732265997678e-05,-0.0053127729333937,0.3513975143432617,-0.0013664923608303,0.0048603722825646,-0.4770137369632721,0.8788813352584839,-0.0001564211303028,-0.0039776329716263,0.3617978861015006,0.0130939483642578,-0.0976456999778747,-0.010293960571289,114,78,-5747,4476
22.1,1788171615407,-0.7605633735656738,0.9014084339141846,-0.0036894297227263,-0.0031558685004711,0.9984143972396852,0.056080263108015,0.000784962358742,-0.0023911725409839,3.279328901321481e-07,0.0001262809673789,-0.0042647402733564,0.3673580586910248,-0.0013511544093489,0.0046520149335265,-0.4622633159160614,0.8867294192314148,0.000144281415559,-0.0043532160042822,0.3697280120946117,-0.0073949694633483,-0.067050039768219,0.0328378677368164,48,50,-4349,3488
22.2,1788171615507,0.0,0.0,-0.0036647759843617,-0.0031929789111018,0.998993456363678,0.0445916876196861,0.0004144042096352,-0.0023076489867069,-2.00282074376035e-07,-0.0011951914057135,-0.0001255785464309,0.1991536766290664,-0.001380180940032,0.0047012083232402,-0.4503733217716217,0.8928268551826477,-0.0010964580275691,0.0026824716165787,0.2105577328500688,0.060354471206665,-0.2719572782516479,0.0735893249511718,0,1,0,0
22.3,1788171615607,0.0,0.0845070406794548,-0.0035750062670558,-0.0032415695022791,0.9991485476493835,0.0409742258489131,0.0018021482192964,-0.0005488399626054,-9.68969548521196e-07,-0.0009275207994505,-0.0038213364314287,0.0036586844362318,-0.0014994870871305,0.0045562945306301,-0.4498291015625,0.8931017518043518,0.0008833110891508,-0.000345435048459,0.0061040118362262,0.1019906401634216,0.0775192975997924,0.0105676651000976,57,217,2621,7541
22.4,1788171615707,0.6760563254356384,3.577464818954468,-0.0033476832322776,-0.0031880037859082,0.9994283318519592,0.0334903560578823,0.042484109279824,0.0024663318993786,5.329929869503366e-06,0.0022444785572588,-0.0081938225775957,0.2789373993873596,-0.0015574572607874,0.0043051745742559,-0.4394764900207519,0.8982424736022949,-0.0003362994179643,-0.011499137149315,0.3825833806754848,0.5310877561569214,-0.2078002095222473,-0.0803670883178711,174,188,7204,12804
22.5,1788171615807,1.8028168678283687,5.915493011474609,-0.003257616655901,-0.0030089553911238,0.9999045729637146,0.0130814388394355,0.1088849232024557,0.0009502986906096,1.1961084664118538e-05,0.005481497850269,-0.0049713389016687,0.4618708789348602,-0.0013349205255508,0.0042681023478507,-0.4122756123542785,0.9110482335090636,0.0004525470401852,0.0096632002515339,0.634698816106221,0.2721520066261291,-0.0053951144218444,-0.1363382339477539,98,231,6648,18807
22.6,1788171615907,2.7323944568634038,8.0,0.0030423831194639,0.0031418271828442,-0.9998092651367188,0.0190326776355505,0.161307417482575,0.001285843380802,2.919026703142808e-05,-0.0108838900923728,-0.0063715642318129,0.7340340614318848,-0.0016426304355263,0.004316889680922,-0.3807434737682342,0.9246691465377808,-0.0041977892480211,0.0124494238000357,0.8071786227781572,-0.3755398988723755,-0.3733036518096924,0.2382774353027343,91,141,7977,21553
22.7,1788171616007,2.3380281925201416,8.08450698852539,0.0028681722469627,0.0030314645264297,-0.997940719127655,0.0640073344111442,0.1770138621902498,-0.00175914108675,3.5344153004316464e-05,0.004802101291716,-0.0086807468906044,0.7960204482078552,-0.0016344524919986,0.0037990855053067,-0.346765398979187,0.9379427433013916,-0.0073721234658723,-0.0053296404380147,0.7777946326064745,-0.0281900167465209,0.0128545761108398,0.0653705596923828,71,86,8272,19855
22.8,1788171616107,2.5915493965148926,7.436619758605957,0.0023180861026048,0.0029603366274386,-0.9945160150527954,0.1045172810554504,0.175771441179223,-0.0028823637486829,4.144463066560404e-06,-0.0040803211741149,-0.0100581739097833,0.8332126140594482,-0.001788374967873,0.0031922599300742,-0.3110179603099823,0.95039701461792,-0.0011160154919066,-0.028799960118004,0.7589922307480013,0.2497507333755493,0.0409954786300659,-0.1021480560302734,149,49,10379,18828
22.9,1788171616207,2.929577350616455,7.211267471313477,0.0022018204908818,0.0032266220077872,-0.990751326084137,0.1356339305639267,0.1712933204181182,-0.0016147086776587,2.839519602319176e-06,-0.0077372621744871,-0.0043114991858601,0.6354308128356934,-0.0020648995414376,0.0033219680190086,-0.2740502655506134,0.9617074131965636,-0.0023173143509549,-0.0025718116674094,0.6639250000482251,0.0687835812568664,0.1035615801811218,0.064371109008789,81,180,8339,20446
23.0,1788171616307,2.7887322902679443,7.408450603485107,0.0020409359131008,0.0033349655568599,-0.9858036041259766,0.1678572446107864,0.1694535502042648,-0.0003493376392889,2.4457176737773413e-05,-0.0022270535118877,-0.0086096134036779,0.6905020475387573,-0.0022603049874305,0.0034221829846501,-0.244152545928955,0.9697281718254088,-0.0119042060732427,0.0175659687010201,0.719343392009647,-0.0767711997032165,0.1643932461738586,-0.1228017807006836,78,132,8755,19778
23.1,1788171616407,3.183098554611206,7.042253494262695,0.0022625494748353,0.0034027411602437,-0.9797901511192322,0.199986532330513,0.1705575463120342,-0.0014429430970342,-6.100534400565918e-07,2.533523365855217e-05,0.0022231105249375,0.6940227150917053,-0.0021444028243422,0.0035209385678172,-0.2175635546445846,0.9760375022888184,-0.0035874286479115,0.0090615488040981,0.7601819979928467,0.2133547067642212,-0.0485106110572814,-0.2517461776733398,120,73,9746,18455
23.2,1788171616507,3.521126747131348,6.676056385040283,0.0019741863943636,0.0032501304522156,-0.9729557633399964,0.2309601455926895,0.1710779174620038,0.0023883621933409,3.3897463365327035e-05,-0.0006336722872219,-0.0061372611671686,0.4942201673984527,-0.0021863775327801,0.0031423093751072,-0.1865091025829315,0.9824458360671996,-0.0069581387220969,0.0032103550262745,0.4357363674567514,-0.0237918496131896,-0.1046047806739807,-0.3087091445922851,104,107,10768,17563
23.3,1788171616607,4.11267614364624,6.253520965576172,0.001817456446588,0.0032946420833468,-0.9682439565658568,0.2499788701534271,0.1689709983392763,0.0031405722759262,1.8687184841533785e-05,-0.0051212105900049,-0.0052657127380371,0.3783224523067474,-0.0024312734603881,0.0031798649579286,-0.1651003658771515,0.9862686395645142,-0.0084164665711285,0.0015021913647456,0.3114871560044243,-0.0581389069557189,0.2230081558227539,0.4019899368286133,74,112,10809,16897
23.4,1788171616707,4.2253522872924805,6.02816915512085,0.001928977901116,0.0036248478572815,-0.9645329713821412,0.2639303803443908,0.1685566385166347,0.0029206401142562,-2.526440435546363e-05,-0.0036878697574138,0.0010895014274865,0.292701780796051,-0.0024266764521598,0.0035872012376785,-0.152960404753685,0.98822283744812,0.002685274689026,0.0252729119652185,0.2399429489875748,-0.2821722030639648,-0.1691178679466247,-0.2059135437011718,96,99,12177,15901
23.5,1788171616807,4.591549396514893,5.464788913726807,0.0022449807729572,0.0037044202908873,-0.9614658355712892,0.274890273809433,0.1713048473976112,0.0045677878734265,-3.511943548064718e-05,-0.0098626874387264,0.0094217229634523,0.2321979701519012,-0.0026593143120408,0.0041631869971752,-0.1430809497833252,0.9896986484527588,-0.0217547623372865,0.0314763997390301,0.1938198637692019,0.140698492527008,-0.1918277740478515,0.0976295471191406,120,93,13248,15522
23.6,1788171616907,4.309859275817871,5.88732385635376,0.0026925383135676,0.0044305883347988,-0.9589524865150452,0.2835190892219543,0.170231747635692,-0.0023533337851938,-7.219995230455042e-05,-0.0097308550029993,0.0077057518064975,0.1449632048606872,-0.0028681587427854,0.0044464124366641,-0.1376080513000488,0.9904726147651672,0.0119907442499586,-0.0040789348381608,0.1426622174932562,-0.261762261390686,-0.0294633507728576,-0.3057527542114258,35,171,11561,16798
23.7,1788171617007,4.422535419464111,5.380281925201416,0.0030074887908995,0.0044646789319813,-0.9557976126670836,0.2939760684967041,0.1689261651419069,0.0021338536973605,8.75736313296378e-06,-0.0049429717473685,0.0038586761802434,0.21613609790802,-0.0027960324659943,0.0042479997500777,-0.1251941174268722,0.9921192526817322,0.0021538975737894,-0.0186744575496291,0.1148610601839532,-0.421704888343811,-0.3761230111122131,0.295572280883789,93,101,13509,15831
23.8,1788171617107,4.535211086273193,5.633802890777588,0.0028636581264436,0.0045167854987084,-0.9538711905479432,0.300168514251709,0.165235802249094,0.0034227418992371,5.350068120444231e-05,-0.00352996843867,-0.0112224668264389,0.1352668106555938,-0.0028613796457648,0.0047049866989254,-0.1186551228165626,0.9929202795028688,0.0046168026075325,0.0293657956781995,0.1754361586245786,-0.0402325987815856,-0.0882232189178466,0.1799430847167968,70,111,13060,15216
23.9,1788171617207,4.478873252868652,5.605633735656738,0.002713331952691,0.0045469584874808,-0.951610267162323,0.3072617053985595,0.1616273718379941,0.0013159826044134,-3.210299923704232e-05,-0.0024027642793953,-0.0024351496249437,0.1472094506025314,-0.0030689369887113,0.0043731480836868,-0.1100690439343452,0.9939096570014954,0.0005433847813607,0.0140561172892669,0.1276060960265861,-0.0237460732460021,-0.231690764427185,-0.1115751266479492,84,96,13224,15335
24.0,1788171617307,4.507042407989502,5.352112770080566,0.002171418396756,0.004497586749494,-0.9491249322891236,0.3148602843284607,0.1673047082434588,0.0005119530640474,6.307603699032651e-06,-0.0040183379314839,-0.0115282014012336,0.1461986303329467,-0.0031440500169992,0.0036133993417024,-0.1033670976758003,0.9946317076683044,0.009904643139706,-0.0279560039192226,0.1533843639877717,-0.1043847203254699,0.0302324295043945,-0.1827163696289062,99,122,12984,16361
24.1,1788171617407,4.535211086273193,5.577464580535889,0.0016853039851412,0.0043515590950846,-0.946857452392578,0.3216197490692138,0.1669850252710494,0.001212038971524,1.7621995653964212e-06,0.0039547523483633,-0.0014710261020809,0.1517386585474014,-0.0032023591920733,0.0029813824221491,-0.0966907069087028,0.9953048825263976,0.0028690949868376,-0.0325592067337488,0.1654866950684999,0.0651364922523498,0.0712169408798217,0.2061376571655273,72,98,12951,15542
24.2,1788171617507,4.873239517211914,5.436619758605957,0.0012413125950843,0.0040587224066257,-0.944441556930542,0.3286520540714264,0.1659152710782127,0.0028873798156449,2.6678595069483887e-05,-0.0072488742880523,-0.0077816089615225,0.149165004491806,-0.0032571488991379,0.0029274243861436,-0.0883097350597381,0.996083438396454,-0.0050435441044847,0.007578120578719,0.1045251763651753,-0.1863088607788086,-0.3802964687347412,0.0702323913574218,122,107,13600,14677
24.3,1788171617607,4.816901206970215,5.267605781555176,0.0010894703445956,0.0042290799319744,-0.9429804682731628,0.3328193724155426,0.1690914870585733,0.0001685491078478,2.6009654281723053e-05,-0.0014352287398651,-0.0018017707625404,0.0902698040008544,-0.0033280774950981,0.0027087079361081,-0.0833537429571151,0.9965108036994934,0.0046585023448828,-0.0054757121297555,0.1751273982799443,0.3572220802307129,0.257780373096466,-0.2839393615722656,103,74,13984,14715
24.4,1788171617707,5.042253494262695,5.183098793029785,0.0010433959541842,0.0041238823905587,-0.9416505098342896,0.3365654647350311,0.1710708664522491,-0.0031510379210035,6.331033235632752e-07,0.0,0.0,0.0,-0.0032807104289531,0.0021946309134364,-0.0819840505719184,0.9966257810592652,0.002624842835601,-0.0132385935390401,-0.0258058597333676,-0.0847037434577941,-0.0269680619239807,-0.0589618682861328,99,99,13693,14349
24.5,1788171617807,5.126760482788086,5.239436626434326,1.813995186239481e-05,0.0039252727292478,-0.9418978095054626,0.33587646484375,0.1708705478335604,-0.0030358064275399,8.293183052524621e-05,-0.0042392467148602,-0.0155700994655489,-0.0161042008548975,-0.0035718260332942,0.0014070086181163,-0.0830820202827453,0.9965353608131408,0.0056810300439854,-0.0010159651539537,-0.0044512131970673,-0.1452236771583557,0.0334571599960327,-0.1307859420776367,97,112,13763,13522
24.6,1788171617907,5.070422649383545,5.042253494262695,-0.0003835711395367,0.0035208687186241,-0.9417134523391724,0.3363972902297973,0.1662373803760817,-0.0009204011501599,3.1743596565715106e-05,0.0102355051785707,-0.0215454343706369,0.022992979735136,-0.0031290566548705,0.0007906891405582,-0.082901045680046,0.996552586555481,0.0034335200977678,-0.0077374024805786,-0.0463102164773563,-0.1947497725486755,0.1149221658706665,-0.0157041549682617,99,74,15320,12963
24.7,1788171618007,5.014084339141846,5.042253494262695,-0.0008466857252642,0.0032171190250664,-0.9423527717590332,0.3346045315265655,0.1697427313524602,-0.0027568675773669,5.006863034308748e-05,-0.0009911992819979,-0.008266594260931,-0.0431840606033802,-0.0032194554805755,0.0002952627837657,-0.0843869894742965,0.9964277744293212,0.0196197077973496,-0.0378854706346971,-0.0010042408813601,-0.055605411529541,-0.149873673915863,0.3969449996948242,79,118,14138,14335
24.8,1788171618107,4.929577350616455,5.014084339141846,-0.0008979744743555,0.0028719473630189,-0.9421853423118592,0.3350785970687866,0.1715211915644973,-0.001642203352183,1.7438536549415966e-05,0.0128678269684314,-0.0069147194735705,0.0209878906607627,-0.0028051445260643,0.0003309529274702,-0.0833822339773178,0.996513605117798,0.0154132460526532,-0.0036887627126413,0.0335361653994962,0.1310045719146728,-0.2099037170410156,-0.0533380508422851,107,93,14699,14293
24.9,1788171618207,5.154929637908936,5.014084339141846,-0.0008979744743555,0.0028719473630189,-0.9421853423118592,0.3350785970687866,0.1738071226060304,-0.0047542195367555,-5.96112848666116e-07,0.0,2.426382206266453e-09,0.0,-0.0028091985732316,5.3960829973220825e-06,-0.0837477594614029,0.9964830875396729,0.0010706512932288,0.0028954832246602,-0.0005384997656508,-0.232618510723114,-0.0970258712768554,-0.0957422256469726,83,94,13958,14279
25.0,1788171618307,5.098591327667236,5.239436626434326,-0.0006838286062702,0.0025650921743363,-0.942101001739502,0.3353186845779419,0.1702917780604074,-0.0028814242502397,-1.3399482644545412e-05,0.0154250496998429,0.0041968869045376,0.0108924154192209,-0.0026749745011329,-4.472304135560989e-05,-0.0833882167935371,0.9965135455131532,-0.0100777640962799,-0.0346727942626685,0.0015578736132574,0.1172102689743042,0.1161903142929077,0.2407636642456054,108,100,14209,13594
25.1,1788171618407,4.816901206970215,5.295774459838867,-0.0010527705308049,0.0026013634633272,-0.9421676993370056,0.3351300358772278,0.1599632068616261,0.0028266097095385,5.033605641646371e-05,-0.0099130924791097,-0.0210322551429271,-0.0126245962455868,-0.0030361590906977,-8.217338472604752e-05,-0.0831592604517936,0.99653160572052,-0.0097807811896451,-0.0113391652123541,0.0439125256658518,0.058133840560913,0.3477438688278198,-0.2083654403686523,83,139,13903,14865
25.2,1788171618507,4.901408672332764,5.126760482788086,-0.0011117657413706,0.0027556580025702,-0.9411466717720032,0.3379853963851928,0.1676031202985215,0.0003326028304103,-5.850071499055743e-06,-0.0029603443108499,0.0003855869872495,0.0728204399347305,-0.0030323173850774,0.0001233825460076,-0.0807664841413497,0.9967284202575684,-0.0107004669556773,-0.0039928798180609,0.0824261277967454,0.177057147026062,0.2519710063934326,0.0436973571777343,111,75,14958,14008
25.3,1788171618607,5.014084339141846,5.211267471313477,-0.0009235354373231,0.002765420358628,-0.9410205483436584,0.3383368849754333,0.1683989404180306,-0.0026402777239608,-2.076637681789087e-05,0.0022768569178879,0.0074959620833396,0.0156315509229898,-0.0030307956039905,0.000156270340085,-0.079665906727314,0.9968170523643494,0.0042783167883976,-0.0187341213589995,0.0012182608331297,0.000482439994812,-0.3368677496910095,0.2409830093383789,101,100,14379,13749
25.4,1788171618707,4.873239517211914,5.295774459838867,-0.0010152499889954,0.0028908615931868,-0.940882444381714,0.3387195169925689,0.1686882945184824,-0.0028418807553535,-5.045638224598817e-07,0.0,0.0,0.0,-0.0029421802610158,0.0004322975873947,-0.0788604170083999,0.9968813061714172,0.0035209127063692,0.010591565154553,0.0530517338980227,-0.1708909273147583,0.1431854367256164,0.0559215545654296,92,145,13743,14921
25.5,1788171618807,4.957746505737305,5.126760482788086,-0.0008873774786479,0.0029628423508256,-0.9402748942375184,0.3404020965099334,0.1685049948728512,-0.0005531032882373,-1.3700352483973076e-05,-0.0028073790017515,0.0051889414899051,0.0202017221599817,-0.0034238127991557,0.0002437345683574,-0.0781827121973037,0.9969331622123718,-0.0147565952369473,-0.0109537911834335,-0.0170872278691761,-0.0726683735847473,0.103348970413208,0.1987333297729492,78,154,13443,15205
25.6,1788171618907,4.873239517211914,5.267605781555176,-0.0006972527480684,0.0030905534513294,-0.939220666885376,0.3432994484901428,0.1679901534779974,0.0032955642430734,-2.9050593094131795e-05,0.0030856602825224,0.0068377205170691,0.0917501971125602,-0.0030697351321578,0.0006838161498308,-0.0739356875419616,0.9972580671310424,0.0017465100782884,-8.804298068171327e-05,0.0669256249992992,-0.0179064869880676,0.0534403920173645,0.1538238525390625,112,115,13883,14607
25.7,1788171619007,4.929577350616455,5.183098793029785,-0.0006729175220243,0.0033253270667046,-0.938539743423462,0.3451547026634216,0.1708946153003967,-0.0001216578651148,4.513556978842196e-06,-0.0065649030730128,-0.0016942657530307,0.0204592980444431,-0.0035762470215559,0.0006512040272355,-0.07236859947443,0.9973713755607604,-0.0123917973330563,-0.0104783673536806,0.0309527976148286,-0.1806426048278808,-0.1358593106269836,0.3553714752197265,50,115,13522,14876
25.8,1788171619107,4.873239517211914,5.352112770080566,-0.0008787452243268,0.0035785781219601,-0.9380155801773072,0.3465736508369446,0.1679802751000369,-9.17002348376913e-05,4.200551360604349e-08,0.0,4.937287023665249e-09,0.0,-0.0034700650721788,0.000705131329596,-0.0706507638096809,0.9974948763847352,0.0063111743260509,-0.0138480278795083,0.0206403667487539,0.160299003124237,-0.0289960503578186,-0.1517610549926757,63,102,13709,14257
25.9,1788171619207,5.014084339141846,4.873239517211914,-0.0005817576893605,0.0034304503351449,-0.9375228881835938,0.3479060530662536,0.1663222674020859,-0.0032939776109355,-5.000416346317832e-05,0.0044121141545474,0.0061679291538894,0.0251047238707542,-0.0035902392119169,0.0012639267370104,-0.070111945271492,0.9975318312644958,-0.0177817512224236,0.0263013011200715,-0.0288987464265355,0.0035316944122314,-0.0486820936203002,-0.0974159240722656,69,113,13430,15855
26.0,1788171619307,4.788732528686523,5.295774459838867,-0.0001691214274615,0.0037891312967985,-0.9370760321617126,0.3491048812866211,0.1652032850918809,0.0011222284264615,-7.828553628447279e-05,-0.0079870764166116,0.0209333170205354,0.0528634190559387,-0.0034680003300309,0.0014352826401591,-0.0684041455388069,0.997650682926178,0.0093704768265953,0.0070225708294674,0.0821687444460209,0.0860605835914611,-0.0190872550010681,0.2870664596557617,95,85,14761,13908
26.1,1788171619407,5.098591327667236,5.070422649383545,-4.158960655331612e-05,0.0037553885485976,-0.9366652965545654,0.3502057492733001,0.1708842922969093,-0.0107161438899543,7.655758439592827e-07,0.0,2.127061193846202e-09,0.0,-0.0032209828495979,0.0021409094333648,-0.0688463374972343,0.9976198077201844,0.0119117958868637,0.0114072093668898,-0.0352767415599539,-0.2965025901794433,0.0918420553207397,-0.1096887588500976,70,134,13478,14707
26.2,1788171619507,4.957746505737305,5.014084339141846,0.0003984656650573,0.0038540558889508,-0.9369308352470398,0.3494933545589447,0.163410633926653,0.0036516887580734,2.6730848497472374e-08,0.0,1.210524902539589e-09,0.0,-0.0032654665410518,0.0024471813812851,-0.0673566684126854,0.9977205991744996,0.0160336258963402,0.0093704661525148,0.0305846996052052,0.1098346710205078,0.1180664300918579,0.3520088195800781,123,107,14628,14417
26.3,1788171619607,5.380281925201416,4.957746505737305,0.0008357039187103,0.0039271316491067,-0.9366037249565125,0.3503675758838653,0.1677674481183355,-0.0045214423378092,-8.593682026339457e-07,0.0,0.0,0.0,-0.0033971946686506,0.0026312367990612,-0.0683182626962661,0.9976543188095092,0.0043042140046552,0.0123432227024822,-0.0307175920066207,0.1307281851768493,-0.1598151326179504,-0.3728923797607422,121,88,14361,13485
26.4,1788171619707,5.183098793029785,5.014084339141846,0.0009710513986647,0.0042927116155624,-0.937260091304779,0.3486029505729675,0.167134132499812,-0.0017832887226884,-5.2366877306270324e-08,0.0,0.0,0.0,-0.0034058410674333,0.0026176739484071,-0.0694746598601341,0.9975744485855104,0.0066104288739285,7.192635654918219e-05,0.032214065184045,0.0875558853149414,0.0383885502815246,0.3821210861206054,140,104,14826,13544
26.5,1788171619807,5.154929637908936,4.8450703620910645,0.0013081701472401,0.0041176322847604,-0.9376727342605592,0.347492903470993,0.1688530662367865,-0.0071047231835845,-4.3377882034594826e-05,0.0091055687516927,0.0126609038561582,-0.0304965358227491,-0.0033083902671933,0.0029780445620417,-0.0721943005919456,0.9973806738853456,-0.0096437059374239,-0.0071738522633436,-0.0751755809003552,0.1156005263328552,-0.2023118734359741,0.0848751068115234,105,90,15057,14045
26.6,1788171619907,5.408450603485107,5.042253494262695,0.0011980364797636,0.004234264139086,-0.938710391521454,0.3446788489818573,0.1673188164171528,-0.0051853554035026,6.319572792080814e-05,-0.0019863699562847,-0.0149163622409105,-0.0395654663443565,-0.0032527977600693,0.0028434246778488,-0.0744727104902267,0.9972137212753296,0.0056826809416452,0.0116082981473986,-0.030177092126429,0.1120985150337219,0.1961398720741272,-0.5528955459594727,87,126,14904,14270
26.7,1788171620007,5.267605781555176,4.8450703620910645,0.0011546122841536,0.0041278954595327,-0.9394354820251464,0.342698872089386,0.1655726134085856,-0.0039762217416983,-2.1680910213421547e-05,0.0015229145064949,-0.001306515885517,-0.0309447068721056,-0.0033373078331351,0.0026949709281325,-0.0764225870370864,0.9970663189888,-0.0060241677369805,-0.0139898474891555,-0.041443339030949,0.0216308832168579,-0.2756721377372741,0.1057052612304687,86,119,14542,14071
26.8,1788171620107,5.239436626434326,4.816901206970215,0.0007201295811682,0.0041949423030018,-0.9405004978179932,0.3397657871246338,0.1670518925751701,-0.0038784853977291,1.0023719430078593e-05,-0.0013195003848522,-0.0021216778550297,-0.0392523296177387,-0.0034528877586126,0.0023652017116546,-0.0791094675660133,0.996857225894928,0.00795777336478,0.001205730455413,-0.0376583174322828,0.1303833127021789,0.1650302410125732,-0.0320644378662109,75,120,14382,14227
26.9,1788171620207,5.211267471313477,4.873239517211914,0.000739675364457,0.0038181331474334,-0.9411312341690063,0.3380189538002014,0.162057608657441,-0.0021268071303153,1.235130240622712e-05,0.004926738794893,-0.0050264652818441,-0.0414459481835365,-0.0031884871423244,0.0023227557539939,-0.0818578898906707,0.9966362714767456,-0.0038259923436748,0.0029738158419187,-0.0620347620903675,-0.004178762435913,0.2230809926986694,0.0242862701416015,104,95,14700,13819
27.0,1788171620307,5.211267471313477,4.957746505737305,0.0007438969332724,0.0040059061720967,-0.9419875144958496,0.3356230854988098,0.1685893097324454,-0.0055667699282655,2.485309024631889e-05,-0.0030754429753869,-0.003850020468235,-0.0335585288703441,-0.0032735643908381,0.0024475883692502,-0.0842441990971565,0.9964367747306824,0.0050768063326004,0.0063209219959873,-0.0464475915712457,-0.1099180579185485,-0.1252514719963073,0.1562795639038086,71,94,14584,13591
