time_s,timestamp_ms,wheel_vels__velocity_left,wheel_vels__velocity_right,odom__orient_x,odom__orient_y,odom__orient_z,odom__orient_w,odom__lin_x,odom__lin_y,odom__lin_z,odom__ang_x,odom__ang_y,odom__ang_z,imu__orient_x,imu__orient_y,imu__orient_z,imu__orient_w,imu__angvel_x,imu__angvel_y,imu__angvel_z,imu__acc_x,imu__acc_y,imu__acc_z,wheel_status__current_ma_left,wheel_status__current_ma_right,wheel_status__pwm_left,wheel_status__pwm_right
0.0,1788442624565,0.0,0.0,-0.0009358796523883,0.0026611206121742,-0.8877357840538025,0.4603446424007416,0.0,0.0,0.0,0.0,-2.334709980900129e-09,0.0,-0.0028997352346777,0.0003301193937659,0.0102446470409631,0.9999432563781738,-0.0009492451785123,0.0008304877510555,-0.0003044668476384,-0.0013303756713867,-0.0258100032806396,0.0020999908447265,0,0,0,0
0.1,1788442624665,0.0,0.0,-0.0009358796523883,0.0026611206121742,-0.8877357840538025,0.4603446424007416,0.0,0.0,0.0,0.0,-2.334709980900129e-09,0.0,-0.0028997352346777,0.0003301193937659,0.0102446470409631,0.9999432563781738,-0.0009492451785123,0.0008304877510555,-0.0003044668476384,-0.0013303756713867,-0.0258100032806396,0.0020999908447265,0,0,0,0
0.2,1788442624765,0.0,0.0,-0.0009358796523883,0.0026611206121742,-0.8877357840538025,0.4603446424007416,0.0,0.0,0.0,0.0,-2.334709980900129e-09,0.0,-0.0028997352346777,0.0003301193937659,0.0102446470409631,0.9999432563781738,-0.0009492451785123,0.0008304877510555,-0.0003044668476384,-0.0013303756713867,-0.0258100032806396,0.0020999908447265,0,0,0,0
0.3,1788442624865,0.0,0.0,-0.0009358796523883,0.0026611206121742,-0.8877357840538025,0.4603446424007416,0.0,0.0,0.0,0.0,-2.334709980900129e-09,0.0,-0.0028997352346777,0.0003301193937659,0.0102446470409631,0.9999432563781738,-0.0009492451785123,0.0008304877510555,-0.0003044668476384,-0.0013303756713867,-0.0258100032806396,0.0020999908447265,0,0,0,0
0.4,1788442624965,0.0,0.0,-0.0009358796523883,0.0026611206121742,-0.8877357840538025,0.4603446424007416,0.0,0.0,0.0,0.0,-2.334709980900129e-09,0.0,-0.0028997352346777,0.0003301193937659,0.0102446470409631,0.9999432563781738,-0.0009492451785123,0.0008304877510555,-0.0003044668476384,-0.0013303756713867,-0.0258100032806396,0.0020999908447265,0,0,0,0
0.5,1788442625065,0.0,0.0,-0.0009358796523883,0.0026611206121742,-0.8877357840538025,0.4603446424007416,0.0,0.0,0.0,0.0,-2.334709980900129e-09,0.0,-0.0028997352346777,0.0003301193937659,0.0102446470409631,0.9999432563781738,-0.0009492451785123,0.0008304877510555,-0.0003044668476384,-0.0013303756713867,-0.0258100032806396,0.0020999908447265,0,0,0,0
0.6,1788442625165,0.0,0.0,-0.0009358796523883,0.0026611206121742,-0.8877357840538025,0.4603446424007416,0.0,0.0,0.0,0.0,-2.334709980900129e-09,0.0,-0.0028997352346777,0.0003301193937659,0.0102446470409631,0.9999432563781738,-0.0009492451785123,0.0008304877510555,-0.0003044668476384,-0.0013303756713867,-0.0258100032806396,0.0020999908447265,0,0,0,0
0.7,1788442625265,0.0,0.0,-0.0009358796523883,0.0026611206121742,-0.8877357840538025,0.4603446424007416,0.0,0.0,0.0,0.0,-2.334709980900129e-09,0.0,-0.0028997352346777,0.0003301193937659,0.0102446470409631,0.9999432563781738,-0.0009492451785123,0.0008304877510555,-0.0003044668476384,-0.0013303756713867,-0.0258100032806396,0.0020999908447265,0,0,0,0
0.8,1788442625365,0.0,0.0,-0.0009358796523883,0.0026611206121742,-0.8877357840538025,0.4603446424007416,0.0,0.0,0.0,0.0,-2.334709980900129e-09,0.0,-0.0028997352346777,0.0003301193937659,0.0102446470409631,0.9999432563781738,-0.0009492451785123,0.0008304877510555,-0.0003044668476384,-0.0013303756713867,-0.0258100032806396,0.0020999908447265,0,0,0,0
0.9,1788442625465,0.0,0.0,-0.0009358796523883,0.0026611206121742,-0.8877357840538025,0.4603446424007416,0.0,0.0,0.0,0.0,-2.334709980900129e-09,0.0,-0.0028997352346777,0.0003301193937659,0.0102446470409631,0.9999432563781738,-0.0009492451785123,0.0008304877510555,-0.0003044668476384,-0.0013303756713867,-0.0258100032806396,0.0020999908447265,0,0,0,0
1.0,1788442625565,0.0,0.0,-0.0009358796523883,0.0026611206121742,-0.8877357840538025,0.4603446424007416,0.0,0.0,0.0,0.0,-2.334709980900129e-09,0.0,-0.0028997352346777,0.0003301193937659,0.0102446470409631,0.9999432563781738,-0.0009492451785123,0.0008304877510555,-0.0003044668476384,-0.0013303756713867,-0.0258100032806396,0.0020999908447265,0,0,0,0
1.1,1788442625665,0.0,0.0,-0.0009358796523883,0.0026611206121742,-0.8877357840538025,0.4603446424007416,0.0,0.0,0.0,0.0,-2.334709980900129e-09,0.0,-0.0028997352346777,0.0003301193937659,0.0102446470409631,0.9999432563781738,-0.0009492451785123,0.0008304877510555,-0.0003044668476384,-0.0013303756713867,-0.0258100032806396,0.0020999908447265,0,0,0,0
1.2,1788442625765,0.0,0.0,-0.0009358796523883,0.0026611206121742,-0.8877357840538025,0.4603446424007416,0.0,0.0,0.0,0.0,-2.334709980900129e-09,0.0,-0.0028997352346777,0.0003301193937659,0.0102446470409631,0.9999432563781738,-0.0009492451785123,0.0008304877510555,-0.0003044668476384,-0.0013303756713867,-0.0258100032806396,0.0020999908447265,0,0,0,0
1.3,1788442625865,0.0,0.0,-0.0009358796523883,0.0026611206121742,-0.8877357840538025,0.4603446424007416,0.0,0.0,0.0,0.0,-2.334709980900129e-09,0.0,-0.0028997352346777,0.0003301193937659,0.0102446470409631,0.9999432563781738,-0.0009492451785123,0.0008304877510555,-0.0003044668476384,-0.0013303756713867,-0.0258100032806396,0.0020999908447265,0,0,0,0
1.4,1788442625965,0.0,0.0,-0.0009358796523883,0.0026611206121742,-0.8877357840538025,0.4603446424007416,0.0,0.0,0.0,0.0,-2.334709980900129e-09,0.0,-0.0028997352346777,0.0003301193937659,0.0102446470409631,0.9999432563781738,-0.0009492451785123,0.0008304877510555,-0.0003044668476384,-0.0013303756713867,-0.0258100032806396,0.0020999908447265,0,0,0,0
1.5,1788442626065,0.0,0.0,-0.0009358796523883,0.0026611206121742,-0.8877357840538025,0.4603446424007416,0.0,0.0,0.0,0.0,-2.334709980900129e-09,0.0,-0.0028997352346777,0.0003301193937659,0.0102446470409631,0.9999432563781738,-0.0009492451785123,0.0008304877510555,-0.0003044668476384,-0.0013303756713867,-0.0258100032806396,0.0020999908447265,0,0,0,0
1.6,1788442626165,0.0,0.0,-0.0009358796523883,0.0026611206121742,-0.8877357840538025,0.4603446424007416,0.0,0.0,0.0,0.0,-2.334709980900129e-09,0.0,-0.0028997352346777,0.0003301193937659,0.0102446470409631,0.9999432563781738,-0.0009492451785123,0.0008304877510555,-0.0003044668476384,-0.0013303756713867,-0.0258100032806396,0.0020999908447265,0,0,0,0
1.7,1788442626265,0.0,0.0,-0.0009358796523883,0.0026611206121742,-0.8877357840538025,0.4603446424007416,0.0,0.0,0.0,0.0,-2.334709980900129e-09,0.0,-0.0028997352346777,0.0003301193937659,0.0102446470409631,0.9999432563781738,-0.0009492451785123,0.0008304877510555,-0.0003044668476384,-0.0013303756713867,-0.0258100032806396,0.0020999908447265,0,0,0,0
1.8,1788442626365,0.0,0.0,-0.0009358796523883,0.0026611206121742,-0.8877357840538025,0.4603446424007416,0.0,0.0,0.0,0.0,-2.334709980900129e-09,0.0,-0.0028997352346777,0.0003301193937659,0.0102446470409631,0.9999432563781738,-0.0009492451785123,0.0008304877510555,-0.0003044668476384,-0.0013303756713867,-0.0258100032806396,0.0020999908447265,0,0,0,0
1.9,1788442626465,0.0,0.0,-0.0009358796523883,0.0026611206121742,-0.8877357840538025,0.4603446424007416,0.0,0.0,0.0,0.0,-2.334709980900129e-09,0.0,-0.0028997352346777,0.0003301193937659,0.0102446470409631,0.9999432563781738,-0.0009492451785123,0.0008304877510555,-0.0003044668476384,-0.0013303756713867,-0.0258100032806396,0.0020999908447265,0,0,0,0
2.0,1788442626565,0.0,0.0,-0.0009358796523883,0.0026611206121742,-0.8877357840538025,0.4603446424007416,0.0,0.0,0.0,0.0,-2.334709980900129e-09,0.0,-0.0028997352346777,0.0003301193937659,0.0102446470409631,0.9999432563781738,-0.0009492451785123,0.0008304877510555,-0.0003044668476384,-0.0013303756713867,-0.0258100032806396,0.0020999908447265,0,0,0,0
2.1,1788442626665,0.0,0.0,-0.0009358796523883,0.0026611206121742,-0.8877357840538025,0.4603446424007416,0.0,0.0,0.0,0.0,-2.334709980900129e-09,0.0,-0.0028997352346777,0.0003301193937659,0.0102446470409631,0.9999432563781738,-0.0009492451785123,0.0008304877510555,-0.0003044668476384,-0.0013303756713867,-0.0258100032806396,0.0020999908447265,0,0,0,0
2.2,1788442626765,0.0,0.0,-0.0009358796523883,0.0026611206121742,-0.8877357840538025,0.4603446424007416,0.0,0.0,0.0,0.0,-2.334709980900129e-09,0.0,-0.0028997352346777,0.0003301193937659,0.0102446470409631,0.9999432563781738,-0.0009492451785123,0.0008304877510555,-0.0003044668476384,-0.0013303756713867,-0.0258100032806396,0.0020999908447265,0,0,0,0
2.3,1788442626865,0.0,0.0,-0.0009358796523883,0.0026611206121742,-0.8877357840538025,0.4603446424007416,0.0,0.0,0.0,0.0,-2.334709980900129e-09,0.0,-0.0028997352346777,0.0003301193937659,0.0102446470409631,0.9999432563781738,-0.0009492451785123,0.0008304877510555,-0.0003044668476384,-0.0013303756713867,-0.0258100032806396,0.0020999908447265,0,0,0,0
2.4,1788442626965,0.0,0.0,-0.0009358796523883,0.0026611206121742,-0.8877357840538025,0.4603446424007416,0.0,0.0,0.0,0.0,-2.334709980900129e-09,0.0,-0.0028997352346777,0.0003301193937659,0.0102446470409631,0.9999432563781738,-0.0009492451785123,0.0008304877510555,-0.0003044668476384,-0.0013303756713867,-0.0258100032806396,0.0020999908447265,0,0,0,0
2.5,1788442627065,0.0,0.0,-0.0009358796523883,0.0026611206121742,-0.8877357840538025,0.4603446424007416,0.0,0.0,0.0,0.0,-2.334709980900129e-09,0.0,-0.0028997352346777,0.0003301193937659,0.0102446470409631,0.9999432563781738,-0.0009492451785123,0.0008304877510555,-0.0003044668476384,-0.0013303756713867,-0.0258100032806396,0.0020999908447265,0,0,0,0
2.6,1788442627165,0.0,0.0,-0.0009358796523883,0.0026611206121742,-0.8877357840538025,0.4603446424007416,0.0,0.0,0.0,0.0,-2.334709980900129e-09,0.0,-0.0028997352346777,0.0003301193937659,0.0102446470409631,0.9999432563781738,-0.0009492451785123,0.0008304877510555,-0.0003044668476384,-0.0013303756713867,-0.0258100032806396,0.0020999908447265,0,0,0,0
2.7,1788442627265,0.0,0.0,-0.0009358796523883,0.0026611206121742,-0.8877357840538025,0.4603446424007416,0.0,0.0,0.0,0.0,-2.334709980900129e-09,0.0,-0.0028997352346777,0.0003301193937659,0.0102446470409631,0.9999432563781738,-0.0009492451785123,0.0008304877510555,-0.0003044668476384,-0.0013303756713867,-0.0258100032806396,0.0020999908447265,0,0,0,0
2.8,1788442627365,0.0,0.0,-0.0009358796523883,0.0026611206121742,-0.8877357840538025,0.4603446424007416,0.0,0.0,0.0,0.0,-2.334709980900129e-09,0.0,-0.0028997352346777,0.0003301193937659,0.0102446470409631,0.9999432563781738,-0.0009492451785123,0.0008304877510555,-0.0003044668476384,-0.0013303756713867,-0.0258100032806396,0.0020999908447265,0,0,0,0
2.9,1788442627465,0.0,0.0,-0.0009358796523883,0.0026611206121742,-0.8877357840538025,0.4603446424007416,0.0,0.0,0.0,0.0,-2.334709980900129e-09,0.0,-0.0028997352346777,0.0003301193937659,0.0102446470409631,0.9999432563781738,-0.0009492451785123,0.0008304877510555,-0.0003044668476384,-0.0013303756713867,-0.0258100032806396,0.0020999908447265,0,0,0,0
3.0,1788442627565,0.0,0.0,-0.0009358796523883,0.0026611206121742,-0.8877357840538025,0.4603446424007416,0.0,0.0,0.0,0.0,-2.334709980900129e-09,0.0,-0.0028997352346777,0.0003301193937659,0.0102446470409631,0.9999432563781738,-0.0009492451785123,0.0008304877510555,-0.0003044668476384,-0.0013303756713867,-0.0258100032806396,0.0020999908447265,0,0,0,0
3.1,1788442627665,0.0,0.0,-0.0009358796523883,0.0026611206121742,-0.8877357840538025,0.4603446424007416,0.0,0.0,0.0,0.0,-2.334709980900129e-09,0.0,-0.0028997352346777,0.0003301193937659,0.0102446470409631,0.9999432563781738,-0.0009492451785123,0.0008304877510555,-0.0003044668476384,-0.0013303756713867,-0.0258100032806396,0.0020999908447265,0,0,0,0
3.2,1788442627765,0.0,0.0,-0.0009358796523883,0.0026611206121742,-0.8877357840538025,0.4603446424007416,0.0,0.0,0.0,0.0,-2.334709980900129e-09,0.0,-0.0028997352346777,0.0003301193937659,0.0102446470409631,0.9999432563781738,-0.0009492451785123,0.0008304877510555,-0.0003044668476384,-0.0013303756713867,-0.0258100032806396,0.0020999908447265,0,0,0,0
3.3,1788442627865,0.0,0.0,-0.0009358796523883,0.0026611206121742,-0.8877357840538025,0.4603446424007416,0.0,0.0,0.0,0.0,-2.334709980900129e-09,0.0,-0.0028997352346777,0.0003301193937659,0.0102446470409631,0.9999432563781738,-0.0009492451785123,0.0008304877510555,-0.0003044668476384,-0.0013303756713867,-0.0258100032806396,0.0020999908447265,0,0,0,0
3.4,1788442627965,0.0,0.0,-0.0009358796523883,0.0026611206121742,-0.8877357840538025,0.4603446424007416,0.0,0.0,0.0,0.0,-2.334709980900129e-09,0.0,-0.0028997352346777,0.0003301193937659,0.0102446470409631,0.9999432563781738,-0.0009492451785123,0.0008304877510555,-0.0003044668476384,-0.0013303756713867,-0.0258100032806396,0.0020999908447265,0,0,0,0
3.5,1788442628065,0.0,0.0,-0.0009358796523883,0.0026611206121742,-0.8877357840538025,0.4603446424007416,0.0,0.0,0.0,0.0,-2.334709980900129e-09,0.0,-0.0028997352346777,0.0003301193937659,0.0102446470409631,0.9999432563781738,-0.0009492451785123,0.0008304877510555,-0.0003044668476384,-0.0013303756713867,-0.0258100032806396,0.0020999908447265,0,0,0,0
3.6,1788442628165,0.0,0.0,-0.0009358796523883,0.0026611206121742,-0.8877357840538025,0.4603446424007416,0.0,0.0,0.0,0.0,-2.334709980900129e-09,0.0,-0.0028997352346777,0.0003301193937659,0.0102446470409631,0.9999432563781738,-0.0009492451785123,0.0008304877510555,-0.0003044668476384,-0.0013303756713867,-0.0258100032806396,0.0020999908447265,0,0,0,0
3.7,1788442628265,0.0,0.0,-0.0009358796523883,0.0026611206121742,-0.8877357840538025,0.4603446424007416,0.0,0.0,0.0,0.0,-2.334709980900129e-09,0.0,-0.0028997352346777,0.0003301193937659,0.0102446470409631,0.9999432563781738,-0.0009492451785123,0.0008304877510555,-0.0003044668476384,-0.0013303756713867,-0.0258100032806396,0.0020999908447265,0,0,0,0
3.8,1788442628365,0.0,0.0,-0.0009358796523883,0.0026611206121742,-0.8877357840538025,0.4603446424007416,0.0,0.0,0.0,0.0,-2.334709980900129e-09,0.0,-0.0028997352346777,0.0003301193937659,0.0102446470409631,0.9999432563781738,-0.0009492451785123,0.0008304877510555,-0.0003044668476384,-0.0013303756713867,-0.0258100032806396,0.0020999908447265,0,0,0,0
3.9,1788442628465,0.0,0.0,-0.0009358796523883,0.0026611206121742,-0.8877357840538025,0.4603446424007416,0.0,0.0,0.0,0.0,-2.334709980900129e-09,0.0,-0.0028997352346777,0.0003301193937659,0.0102446470409631,0.9999432563781738,-0.0009492451785123,0.0008304877510555,-0.0003044668476384,-0.0013303756713867,-0.0258100032806396,0.0020999908447265,0,0,0,0
4.0,1788442628565,0.0,0.0,-0.0009358796523883,0.0026611206121742,-0.8877357840538025,0.4603446424007416,0.0,0.0,0.0,0.0,-2.334709980900129e-09,0.0,-0.0028997352346777,0.0003301193937659,0.0102446470409631,0.9999432563781738,-0.0009492451785123,0.0008304877510555,-0.0003044668476384,-0.0013303756713867,-0.0258100032806396,0.0020999908447265,0,0,0,0
4.1,1788442628665,0.0,0.0,-0.0009358796523883,0.0026611206121742,-0.8877357840538025,0.4603446424007416,0.0,0.0,0.0,0.0,-2.334709980900129e-09,0.0,-0.0028997352346777,0.0003301193937659,0.0102446470409631,0.9999432563781738,-0.0009492451785123,0.0008304877510555,-0.0003044668476384,-0.0013303756713867,-0.0258100032806396,0.0020999908447265,0,0,0,0
4.2,1788442628765,0.0,0.0,-0.0009358796523883,0.0026611206121742,-0.8877357840538025,0.4603446424007416,0.0,0.0,0.0,0.0,-2.334709980900129e-09,0.0,-0.0028997352346777,0.0003301193937659,0.0102446470409631,0.9999432563781738,-0.0009492451785123,0.0008304877510555,-0.0003044668476384,-0.0013303756713867,-0.0258100032806396,0.0020999908447265,0,0,0,0
4.3,1788442628865,0.0,0.0,-0.0009358796523883,0.0026611206121742,-0.8877357840538025,0.4603446424007416,0.0,0.0,0.0,0.0,-2.334709980900129e-09,0.0,-0.0028997352346777,0.0003301193937659,0.0102446470409631,0.9999432563781738,-0.0009492451785123,0.0008304877510555,-0.0003044668476384,-0.0013303756713867,-0.0258100032806396,0.0020999908447265,0,0,0,0
4.4,1788442628965,0.0,0.0,-0.0009358796523883,0.0026611206121742,-0.8877357840538025,0.4603446424007416,0.0,0.0,0.0,0.0,-2.334709980900129e-09,0.0,-0.0028997352346777,0.0003301193937659,0.0102446470409631,0.9999432563781738,-0.0009492451785123,0.0008304877510555,-0.0003044668476384,-0.0013303756713867,-0.0258100032806396,0.0020999908447265,0,0,0,0
4.5,1788442629065,0.0,0.0,-0.0009358796523883,0.0026611206121742,-0.8877357840538025,0.4603446424007416,0.0,0.0,0.0,0.0,-2.334709980900129e-09,0.0,-0.0028997352346777,0.0003301193937659,0.0102446470409631,0.9999432563781738,-0.0009492451785123,0.0008304877510555,-0.0003044668476384,-0.0013303756713867,-0.0258100032806396,0.0020999908447265,0,0,0,0
4.6,1788442629165,0.0,0.0,-0.0009358796523883,0.0026611206121742,-0.8877357840538025,0.4603446424007416,0.0,0.0,0.0,0.0,-2.334709980900129e-09,0.0,-0.0028997352346777,0.0003301193937659,0.0102446470409631,0.9999432563781738,-0.0009492451785123,0.0008304877510555,-0.0003044668476384,-0.0013303756713867,-0.0258100032806396,0.0020999908447265,0,0,0,0
4.7,1788442629265,0.0,0.0,-0.0009358796523883,0.0026611206121742,-0.8877357840538025,0.4603446424007416,0.0,0.0,0.0,0.0,-1.2796319559527092e-09,0.0,-0.0028997352346777,0.0003301193937659,0.0102446470409631,0.9999432563781738,-0.0009492451785123,0.0008304877510555,-0.0003044668476384,-0.0013303756713867,-0.0258100032806396,0.0020999908447265,0,0,0,0
4.8,1788442629365,0.0,0.0,-0.0009358796523883,0.0026611206121742,-0.8877357840538025,0.4603446424007416,0.0,0.0,0.0,0.0,-2.3283144301444736e-09,0.0,-0.0028835413977503,0.000318082049489,0.0102153308689594,0.9999436140060424,-0.0005715980547321,-0.0004881864561459,-0.001383901181671,-0.017745554447174,-0.0315629839897155,0.0128250122070312,0,0,0,0
4.9,1788442629465,0.0,0.0,-0.0009358796523883,0.0026611206121742,-0.8877357840538025,0.4603446424007416,0.0,0.0,0.0,0.0,-2.3406661053826383e-09,0.0,-0.0028870105743408,0.0003234324976801,0.0102112283930182,0.9999436736106871,-0.0002254893236272,0.0003565918480065,-0.0002701194195222,-0.0050380229949951,-0.0224327445030212,-0.0086784362792968,0,0,0,0
5.0,1788442629565,0.0,0.0,-0.0009358796523883,0.0026611206121742,-0.8877357840538025,0.4603446424007416,0.0,0.0,0.0,0.0,-2.280455824177352e-09,0.0,-0.0028865411877632,0.0004141721874475,0.0102268420159816,0.9999434351921082,0.0007026490767637,0.0003554513085912,0.0008714612570407,0.0075171589851379,0.0170029997825622,0.0040531158447265,0,0,0,0
5.1,1788442629665,0.0,0.0,-0.0009358796523883,0.0026611206121742,-0.8877357840538025,0.4603446424007416,0.0,0.0,0.0,0.0,-2.988992831021164e-09,0.0,-0.0028547337278723,0.0004510451108217,0.0102489097043871,0.9999432563781738,0.0005099320888053,0.0005494522693113,0.0019459132865371,-0.0043582916259765,-0.0375961065292358,0.0235671997070312,0,0,0,0
5.2,1788442629765,0.0,0.0,-0.0008855866617523,0.0027511240914463,-0.8877389430999756,0.460338145494461,-2.426959269621456e-05,2.8378569441487523e-05,1.3940116174993808e-07,-0.0022121551446616,0.0033565366175025,-0.0002730282722041,-0.0028371000662446,0.0003973096609115,0.0102589214220643,0.9999433159828186,8.610681370397927e-05,-0.0019281305608148,-0.0007333778841418,0.0107853412628173,-0.0324224829673767,-0.0069293975830078,0,0,0,0
5.3,1788442629865,0.0,0.0,-0.0009140751790255,0.0027139002922922,-0.8877304792404175,0.4603546261787414,0.0,0.0,0.0,0.0,0.0,0.0,-0.0028079971671104,0.0004394780844449,0.0102863432839512,0.9999430179595948,0.000351131592436,-0.0013732547395219,0.0016366397828798,-0.0117151141166687,0.0011985301971435,-0.0265893936157226,0,0,0,0
5.4,1788442629965,0.0,0.0,-0.0009140751790255,0.0027139002922922,-0.8877304792404175,0.4603546261787414,0.0,0.0,0.0,0.0,0.0,0.0,-0.0028111804276704,0.000466332770884,0.0102779809385538,0.9999431371688844,-0.0004361063019157,0.000766239903322,0.0006686736526044,0.0210855603218078,0.0388063788414001,0.0149049758911132,0,0,0,0
5.5,1788442630065,0.0,0.0,-0.0009140751790255,0.0027139002922922,-0.8877304792404175,0.4603546261787414,0.0,0.0,0.0,0.0,0.0,0.0,-0.0028163846582174,0.0004284000024199,0.0102904830127954,0.9999430775642396,-0.0003177344763067,0.0002212658834595,0.0013857077704312,-0.0083937048912048,-0.0077543854713439,0.0074882507324218,0,0,0,0
5.6,1788442630165,0.0,0.0,-0.0009140751790255,0.0027139002922922,-0.8877304792404175,0.4603546261787414,0.0,0.0,0.0,0.0,0.0,0.0,-0.0028163846582174,0.0004284000024199,0.0102904830127954,0.9999430775642396,-0.0003177344763067,0.0002212658834595,0.0013857077704312,-0.0083937048912048,-0.0077543854713439,0.0074882507324218,0,0,0,0
5.7,1788442630265,0.0,0.0,-0.0009140751790255,0.0027139002922922,-0.8877304792404175,0.4603546261787414,0.0,0.0,0.0,0.0,0.0,0.0,-0.0027780653908848,0.0004671504721045,0.0102797886356711,0.999943196773529,0.0015156825366523,-0.0001910059269594,0.0010423886803398,0.0013308525085449,0.0022540688514709,0.0093259811401367,0,0,0,0
5.8,1788442630365,0.0,0.0,-0.0009140751790255,0.0027139002922922,-0.8877304792404175,0.4603546261787414,0.0,0.0,0.0,0.0,0.0,0.0,-0.0027890363708138,0.0005115214735269,0.0102697359398007,0.9999432563781738,0.0006627221502574,-0.0001826869137904,0.0017124010539641,-0.010353684425354,-0.0118647217750549,-0.0033273696899414,0,0,0,0
5.9,1788442630465,0.0,0.0,-0.0009140751790255,0.0027139002922922,-0.8877304792404175,0.4603546261787414,0.0,0.0,0.0,0.0,0.0,0.0,-0.0027818344533443,0.0004921276122331,0.0102918706834316,0.9999430775642396,0.0003499112528452,-0.0009775679928744,0.0011055518435428,-0.0089295506477355,0.0077883601188659,-0.0122365951538085,0,0,0,0
6.0,1788442630565,0.0,0.0,-0.0009140751790255,0.0027139002922922,-0.8877304792404175,0.4603546261787414,0.0,0.0,0.0,0.0,0.0,0.0,-0.0027746483683586,0.0004630936309695,0.0103087564930319,0.99994295835495,0.000637588711401,-0.0007274324392618,-0.0010689344442324,0.0030481815338134,-0.0426967144012451,0.0001392364501953,0,0,0,0
6.1,1788442630665,0.0,0.0,-0.0008308787364512,0.0026990175247192,-0.8877196311950684,0.4603757858276367,-0.0001014499882429,0.0001180887574223,5.565981785723796e-07,-0.000309433118673,0.000833201687783,-0.0011493518250063,-0.0027478635311126,0.0004394771531224,0.0103244446218013,0.9999427795410156,0.0008236127480132,-0.0017288760484223,0.0012893409374934,0.0277286171913146,0.0142832994461059,-0.0067958831787109,0,0,0,0
6.2,1788442630765,0.0,0.0,-0.0008542332798242,0.0026535303331911,-0.8877085447311401,0.4603973031044006,5.796668291904469e-05,-6.732235272335113e-05,-3.124405623566537e-07,0.0003899497096426,-0.0018656286410987,0.0006472073146142,-0.002738719806075,0.0004280600696802,0.0103291319683194,0.9999428391456604,-0.000405211435471,-0.0007111793805097,0.0004376020925561,-0.0084278583526611,-0.0397903323173522,-0.0034704208374023,0,0,0,0
6.3,1788442630865,0.0,0.0,-0.0008672466501593,0.0026016323827207,-0.8876911401748657,0.4604311287403106,8.498420885280907e-05,-9.780188342695155e-05,-4.572548542092521e-07,0.001015922287479,-0.0011386268306523,0.0009739158558659,-0.0027000932022929,0.000382394529879,0.0103391455486416,0.9999427795410156,0.0018097041517304,-0.0015012955534164,-0.0006333448249841,-0.0075600743293762,-0.0190459489822387,0.0109786987304687,0,0,0,0
6.4,1788442630965,0.0,0.0,-0.0008675951976329,0.0025850823149085,-0.8877086043357849,0.460397720336914,-0.0001285303515495,0.0001499024369246,7.02079595240526e-07,0.000571142998524,-0.0003073207335546,-0.0014813153538852,-0.002714330330491,0.0003928076475858,0.0103453863412141,0.9999427199363708,-0.0002581374130215,-0.0001791975750357,-0.0004219626841563,0.0286044478416442,0.0100998282432556,-0.0212059020996093,0,0,0,0
6.5,1788442631065,0.0,0.0,-0.0008623826433904,0.0026613818481564,-0.8876975178718567,0.4604184627532959,3.5536257005632664e-05,-4.014791053321969e-05,-1.8863079579872654e-07,-0.0013764101313427,0.0013615210773423,0.0004174261703155,-0.0027643628418445,0.000430348329246,0.0103442594408988,0.9999426007270812,-0.0001786518472637,0.0006172398796717,0.0005763756551876,-0.0047985315322875,-0.0302916169166564,-0.0052490234375,0,0,0,0
6.6,1788442631165,0.0,0.0,-0.0008613722166046,0.0026477815117686,-0.887688398361206,0.4604362249374389,5.871945337075854e-05,-6.752169884184756e-05,-3.1866517851801445e-07,0.0004252819926477,-0.0001839690521592,0.0006777578382752,-0.0027433885261416,0.0004215007647871,0.0103728519752621,0.9999423623085022,5.973533119182093e-05,0.0014205639000866,1.698422779865395e-05,0.0021924376487731,0.010591983795166,0.0003042221069335,0,0,0,0
6.7,1788442631265,0.0,0.0,-0.0008659269078634,0.0026368598919361,-0.887677788734436,0.4604567289352417,3.776375969199626e-05,-4.326628609738727e-05,-2.06770552647166e-07,0.0006898859282955,0.0009867360349744,0.0004414912837091,-0.0027388194575905,0.0004135183990001,0.0103901484981179,0.9999422430992126,0.0002949974940827,-0.0005320598013922,0.0011380564065549,-0.0196958184242248,0.0284160375595092,0.0003461837768554,0,0,0,0
6.8,1788442631365,0.0,0.0,-0.0009130584076046,0.0026250837836414,-0.8876747488975525,0.4604626893997192,0.0001467249566417,-0.0001691326926166,-8.020259138018567e-07,-0.0001674130617175,-0.0013854022836312,0.0016909422120079,-0.0027391882613301,0.0003458242863416,0.0103851174935698,0.9999423027038574,0.0010097792858996,-0.0016415484234013,0.0001668524621074,0.036608338356018,0.0141167044639587,0.0021514892578125,0,0,0,0
6.9,1788442631465,0.0,0.0,-0.000913348281756,0.0025770098436623,-0.8876769542694092,0.4604585170745849,4.712699528703676e-05,-5.444526355995589e-05,-2.605062543466949e-07,0.0009090905077755,-0.0006116612348705,0.0005457472288981,-0.0027323337271809,0.0003644665703177,0.0103730084374547,0.999942421913147,0.0004572218256968,0.0012061364019571,-0.0007816989977626,0.0171852707862854,-0.0184401273727417,0.0235481262207031,0,0,0,0
7.0,1788442631565,0.0,0.0,-0.0009506258647888,0.0025692018680274,-0.8876904845237732,0.4604324996471405,-0.0001271215501191,0.0001475938222314,7.129500146173553e-07,-0.0004614909412339,3.3848271414171904e-05,-0.0014753228751942,-0.0027213571593165,0.0003100903704762,0.0103721087798476,0.999942421913147,-0.0007557061234288,-1.5430279996371038e-06,-0.0013523957063278,0.0071610808372497,-0.0149257183074951,-0.0051956176757812,0,0,0,0
7.1,1788442631665,0.0,0.0,-0.0009506258647888,0.0025692018680274,-0.8876904845237732,0.4604324996471405,-0.0001271215501191,0.0001475938222314,7.129500146173553e-07,-0.0004614909412339,3.3848271414171904e-05,-0.0014753228751942,-0.0027261981740593,0.0003256183117628,0.0103865452110767,0.9999423027038574,-0.0011102655150845,-0.0017966988611146,0.0004344188272585,0.0037841796875,-0.0290251970291137,0.0073137283325195,0,0,0,0
7.2,1788442631765,0.0,0.0,-0.0009539985330775,0.0026189121417701,-0.8876956105232239,0.4604222774505615,-0.0001320747764488,0.000152947109353,7.312968103740199e-07,-0.0020544819999486,-0.0004929950810037,-0.0015164498472586,-0.0027261981740593,0.0003256183117628,0.0103865452110767,0.9999423027038574,-0.0011102655150845,-0.0017966988611146,0.0004344188272585,0.0037841796875,-0.0290251970291137,0.0073137283325195,0,0,0,0
7.3,1788442631865,0.0,0.0,-0.0009539985330775,0.0026189121417701,-0.8876956105232239,0.4604222774505615,-0.0001320747764488,0.000152947109353,7.312968103740199e-07,-0.0020544819999486,-0.0004929950810037,-0.0015164498472586,-0.002774684689939,0.0003171926364302,0.0103781633079051,0.9999423027038574,-0.0004089812328849,-0.0006290521645667,0.0003479702194274,-0.0142945051193237,0.0129721760749816,0.0254077911376953,0,0,0,0
7.4,1788442631965,0.0,0.0,-0.0009093555272556,0.0026172210928052,-0.887688159942627,0.4604368507862091,-8.48278787399993e-05,9.764350267701025e-05,4.719740320787804e-07,5.566439722315408e-05,0.0008823132957331,-0.0009484171168878,-0.002746314741671,0.000379123724997,0.01036231033504,0.9999425411224364,-4.197697482687446e-05,0.0025491977865183,-7.872128648744682e-05,0.0031402111053466,-0.0341042876243591,-0.0214529037475585,0,0,0,0
7.5,1788442632065,0.0,0.0,-0.0008887705625966,0.0025554641615599,-0.8876593112945557,0.460492879152298,0.0001324108015564,-0.000154343928442,-7.320069489402643e-07,0.0015486642951145,-0.0002782666124403,0.0015361398691311,-0.0026764450594782,0.0003616958856582,0.0104200821369886,0.9999420046806335,0.0014819736225328,0.0003318191293717,0.0001675354212022,-0.0259541273117065,-0.0013431906700134,-0.0213603973388671,0,0,0,0
7.6,1788442632165,0.0,0.0,-0.0008669112576171,0.0025371245574206,-0.8876445889472961,0.4605213701725006,0.0001373626673839,-0.0001580022827988,-7.43261341978995e-07,0.0016172296600416,0.0003000062424689,0.0015869418857619,-0.0026589119806885,0.0003789430484175,0.0104674790054559,0.99994158744812,-0.0002303198704287,0.0005126343852193,0.0007883255194247,-0.0058822631835937,0.0072343349456787,-0.005131721496582,0,0,0,0
7.7,1788442632265,0.0,0.0,-0.0008983599254861,0.0025659978855401,-0.8876478672027588,0.4605147540569305,-4.654842195784536e-05,5.3796459997814096e-05,2.524842467490215e-07,-0.0006907795905135,0.0002388132706983,-0.0005179233849048,-0.0026996731758117,0.0003965571522712,0.0104670887812972,0.9999415278434752,-4.819334635684338e-05,0.0014106101610208,0.0002678850100927,0.0070037841796875,-0.0064552426338195,0.0271673202514648,0,0,0,0
7.8,1788442632365,0.0,0.0,-0.0008983599254861,0.0025659978855401,-0.8876478672027588,0.4605147540569305,-4.654842195784536e-05,5.3796459997814096e-05,2.524842467490215e-07,-0.0006907795905135,0.0002388132706983,-0.0005179233849048,-0.0026996731758117,0.0003965571522712,0.0104670887812972,0.9999415278434752,-4.819334635684338e-05,0.0014106101610208,0.0002678850100927,0.0070037841796875,-0.0064552426338195,0.0271673202514648,0,0,0,0
7.9,1788442632465,0.0,0.0,-0.0008983599254861,0.0025659978855401,-0.8876478672027588,0.4605147540569305,-4.654842195784536e-05,5.3796459997814096e-05,2.524842467490215e-07,-0.0006907795905135,0.0002388132706983,-0.0005179233849048,-0.0026996731758117,0.0003965571522712,0.0104670887812972,0.9999415278434752,-4.819334635684338e-05,0.0014106101610208,0.0002678850100927,0.0070037841796875,-0.0064552426338195,0.0271673202514648,0,0,0,0
8.0,1788442632565,0.0,0.0,-0.0008983599254861,0.0025659978855401,-0.8876478672027588,0.4605147540569305,-4.654842195784536e-05,5.3796459997814096e-05,2.524842467490215e-07,-0.0006907795905135,0.0002388132706983,-0.0005179233849048,-0.0026996731758117,0.0003965571522712,0.0104670887812972,0.9999415278434752,-4.819334635684338e-05,0.0014106101610208,0.0002678850100927,0.0070037841796875,-0.0064552426338195,0.0271673202514648,0,0,0,0
8.1,1788442632665,0.0,0.0,-0.0008983599254861,0.0025659978855401,-0.8876478672027588,0.4605147540569305,-4.654842195784536e-05,5.3796459997814096e-05,2.524842467490215e-07,-0.0006907795905135,0.0002388132706983,-0.0005179233849048,-0.0026996731758117,0.0003965571522712,0.0104670887812972,0.9999415278434752,-4.819334635684338e-05,0.0014106101610208,0.0002678850100927,0.0070037841796875,-0.0064552426338195,0.0271673202514648,0,0,0,0
8.2,1788442632765,0.0,0.0,-0.0008650960517115,0.0026973625645041,-0.8876615166664124,0.4604878723621368,7.220627878227398e-05,-8.379145884898276e-05,-4.0847283188007306e-07,0.0006771846092306,0.0016925478121265,0.000860346655827,-0.0026996731758117,0.0003965571522712,0.0104670887812972,0.9999415278434752,-4.819334635684338e-05,0.0014106101610208,0.0002678850100927,0.0070037841796875,-0.0064552426338195,0.0271673202514648,0,0,0,0
8.3,1788442632865,0.0,0.0,-0.0008739032782614,0.0026820786297321,-0.8876484632492065,0.460513025522232,6.076882103011392e-05,-7.110770822898479e-05,-3.400057558919912e-07,0.0003457556886132,-0.0003996016748715,0.0007130202138796,-0.0027986876666545,0.0004265932366251,0.010451509617269,0.9999414086341858,0.0001158007365251,-0.0002741073548562,0.0011258111290191,0.0165922045707702,0.020644724369049,0.023721694946289,0,0,0,0
8.4,1788442632965,0.0,0.0,-0.000898852944374,0.0027253974694758,-0.8876563310623169,0.4604975581169128,-3.389269312375847e-05,3.988703599939368e-05,1.947930828765617e-07,-0.0005577416159212,0.0005230377428233,-0.0003755546349566,-0.0028549097478389,0.0004369700327515,0.0104141123592853,0.99994158744812,-0.0008680702164518,0.0004887712787571,-0.0007780606152293,-0.013689637184143,-0.0176407694816589,-0.0069942474365234,0,0,0,0
8.5,1788442633065,0.0,0.0,-0.000911760260351,0.0027469804044812,-0.8876628279685974,0.4604848325252533,-4.35536760198801e-05,4.961552049630683e-05,2.392597626495662e-07,-0.0006841580034233,-0.0013322334270924,-0.0005169511423446,-0.0028542270883917,0.0004499740898609,0.0104246493428945,0.9999414682388306,2.716316374336889e-05,0.000433131134638,0.0003532612308012,0.0152909755706787,0.005652904510498,0.0021162033081054,0,0,0,0
8.6,1788442633165,0.0,0.0,-0.0009100588504225,0.0027906012255698,-0.8876639604568481,0.4604824185371399,3.322181906376207e-05,-3.838558186060946e-05,-1.9014927779098254e-07,-0.0007761491579003,0.0005811597802676,0.000404111779062,-0.0028952462598681,0.000437363050878,0.0104210749268531,0.9999414682388306,-0.0005885422630492,-0.0001898857065978,8.182684791268256e-05,-0.0010900497436523,0.0119292736053466,-0.0194244384765625,0,0,0,0
8.7,1788442633265,0.0,0.0,-0.0009132663253694,0.0028092004358768,-0.8876643776893616,0.4604814648628235,5.927730621472237e-05,-6.935238799074662e-05,-3.480886561480116e-07,-4.167006409261376e-05,0.0004956775228492,0.0007011393317952,-0.0029283994808793,0.0003890693187713,0.010396858677268,0.99994158744812,0.0001347528990487,0.0003504737252146,-0.0022366050426324,-0.0038347840309143,0.0036132335662841,-0.0194520950317382,0,0,0,0
8.8,1788442633365,0.0,0.0,-0.0009741316316649,0.0027889003977179,-0.8876710534095764,0.4604687094688415,-0.0001132469003832,0.0001305104130427,6.699372564349553e-07,7.874284347053617e-05,0.000204734125873,-0.0013044613879173,-0.00289520714432,0.0004006084054708,0.0104078976437449,0.9999415278434752,0.0013364531749084,0.0004478367608159,0.0004448379837037,-0.009042203426361,-0.0061427354812622,0.0110397338867187,0,0,0,0
8.9,1788442633465,0.0,0.0,-0.000925775791984,0.002777358982712,-0.8876703977584839,0.4604700803756714,4.001909358094014e-06,-3.454145268847474e-06,-1.6843855228995462e-08,0.0013986813137307,0.0016178446821868,7.051854481687769e-05,-0.0029099276289343,0.0004954887554049,0.0103567754849791,0.9999420642852784,0.0001925894973816,0.0029152231030191,-7.339269467223852e-05,-0.0089464783668518,-0.0075903534889221,-0.0087184906005859,0,0,0,0
9.0,1788442633565,0.0,0.0,-0.0009177076863124,0.0027920431457459,-0.8876849412918091,0.4604418575763702,-0.000108992594422,0.0001259313418111,6.286723540500227e-07,-0.0003696011553984,0.0005566813633777,-0.0012594885192811,-0.0029056267812848,0.0005433242768049,0.0104734953492879,0.999940812587738,-0.0003331356063862,-0.0002120562639207,0.0065214545235052,-0.6720390319824219,0.2188102006912231,-0.036285400390625,12,31,-1701,1701
9.1,1788442633665,-1.6901408433914185,1.6338027715682983,-0.0004722887533716,0.0030489452183246,-0.8807837963104248,0.4735085368156433,0.0021809084811806,-0.0028763732379942,-1.2259057096496898e-06,-9.20308957574889e-05,0.0026083986740559,0.5116580724716187,-0.0030664149671792,0.001138973981142,0.037267617881298,0.9993000030517578,-0.003629813921911,0.0104827066389937,0.4895842200426989,-0.167154312133789,-0.3505346179008484,-0.0486555099487304,85,100,-6358,6710
9.2,1788442633765,-1.7464789152145386,1.6619718074798584,-0.0004408366512507,0.003232208546251,-0.8687644004821777,0.4952148795127868,0.0026470879733895,-0.0039933930290781,-3.4420767074147738e-06,-0.0015572976553812,-0.00274896947667,0.4924784004688263,-0.0031527178362011,0.0010821530595421,0.0618912950158119,0.9980773329734802,-0.0040358925809529,0.001199022629898,0.5026671978061109,-0.2422998547554016,0.0219101309776306,0.0730657577514648,186,210,-9287,9752
9.3,1788442633865,-3.521126747131348,3.2957746982574463,-0.0003997919848188,0.0034224723931401,-0.8494110107421875,0.5277206301689148,-0.0024024432072238,-0.003636899505427,-1.6757813382182865e-06,-0.0035160414408892,0.0009977999143302,0.832045316696167,-0.0031288154423236,0.0009710164740681,0.1150236278772354,0.9933574199676514,0.003564078435797,-0.0126736595505457,1.1568680830030689,0.3478056192398071,-0.789685070514679,0.0526456832885742,205,294,-12484,12752
9.4,1788442633965,-3.380281686782837,3.323943614959717,-0.0004932284355163,0.0029998421669006,-0.8204598426818848,0.5716961622238159,0.0080555566393288,-0.0151720293151063,-1.9227215063475394e-06,0.0061325738206505,-0.0081266611814498,1.0014691352844238,-0.0028797863051295,0.0008103372529149,0.1352514624595642,0.9908068776130676,0.0098097038021657,-0.0126587492585607,1.0196174388976311,-0.2363321781158447,0.4799592494964599,-0.2394437789916992,131,122,-10678,10170
9.5,1788442634065,-3.0985915660858154,2.760563373565674,-0.0005366640398278,0.0029760103207081,-0.8061732649803162,0.5916717052459717,0.0029373391095229,-0.0101180950634245,-2.1912588524332634e-07,-0.0015285252593457,-0.0046406788751482,0.9804479479789734,-0.0030533857643604,0.0008611558005213,0.1915610283613205,0.981475591659546,-0.0060353112269462,-0.0010693813929383,0.9450683143738636,0.0243804454803466,-0.3594965934753418,0.3664531707763672,87,126,-9043,9900
9.6,1788442634165,-3.070422649383545,3.3521127700805664,-0.0007653117645531,0.0029814504086971,-0.7809255123138428,0.6246166229248047,0.0014554301645575,-0.0100348191735476,4.9221491957840574e-06,-0.002981899306178,-0.0040669576264917,0.8688716888427734,-0.0030285082757472,0.0005800034850835,0.2168459147214889,0.976201057434082,-0.0022087128759234,-0.0045748982705273,0.8132832300922782,-0.0583599805831909,0.2144969701766967,0.0992012023925781,184,316,-12443,16526
9.7,1788442634265,-3.070422649383545,3.3521127700805664,-0.0010827563237398,0.0029088722076267,-0.7264530062675476,0.6872091889381409,0.023664904010846,-0.0117719022149533,3.630432921107768e-06,0.0001511936425231,-0.0042333658784627,1.143225908279419,-0.0031041167676448,0.0001620054244995,0.2394569665193557,0.9709020256996156,-0.0085599110172416,-0.01896836645543,0.973609199909196,0.0681260824203491,0.3427228927612304,0.1824951171875,184,316,-12443,16526
9.8,1788442634365,-2.8450703620910645,3.91549301147461,0.0001004959922283,0.004051748663187,-0.6919475197792053,0.7219364047050476,0.021941147425015,-0.014762486968412,-3.505079653212722e-05,-0.0009496208513155,0.0499652400612831,0.9870906472206116,-0.0028762370347976,0.0010655149817466,0.3408460021018982,0.9401140809059144,0.0123850194377161,-0.0104960080208099,0.9638441589631828,-0.8115062713623047,0.6719906330108643,2.336212158203125,175,110,-11055,11729
9.9,1788442634465,-3.436619758605957,3.690140962600708,-0.0009573196293786,0.0025900499895215,-0.6576390862464905,0.7533280849456787,0.0177593556706198,-0.0112737410346216,9.833291123757033e-06,-6.094904529163614e-05,-0.0230079945176839,1.0440714359283447,-0.0029875552281737,0.0007030302658677,0.3599731922149658,0.9329575896263124,-0.0133544837325166,-0.0166605091855553,0.9871636675594452,0.2284552454948425,-0.5501601696014404,-1.4876155853271484,74,215,-9361,12872
10.0,1788442634565,-3.0985915660858154,2.816901445388794,-0.0012081374879926,0.0024954634718596,-0.638519823551178,0.7696004509925842,0.0165907285136269,-0.0150838478962266,4.096514670593088e-06,-0.0064288168214261,-0.0118685895577073,1.0043593645095823,-0.0026618111878633,-0.0003716498613357,0.4290314316749573,0.9032856225967408,-0.001579630726652,-0.0114527241483369,0.9751749478888004,-0.1168952584266662,0.0581547021865844,0.1595602035522461,93,70,-10068,10411
10.1,1788442634665,-2.816901445388794,2.8450703620910645,-0.0016669917386025,0.0020703331101685,-0.5966610908508301,0.8024888634681702,0.0014907623393933,-0.0099330383519843,-4.965515153025295e-07,-0.0027813797350972,-0.0082510439679026,0.9451292753219604,-0.0027670869603753,-0.0006425278261303,0.4783405661582947,0.8781698942184448,-0.0091879066188761,0.0049214484542829,0.8107601473919044,-0.1945382356643676,-0.0572213530540466,-0.2343416213989257,137,161,-9991,10073
10.2,1788442634765,-2.9577465057373047,2.6478872299194336,-0.0009496401762589,0.0029119469691067,-0.542596697807312,0.8399878144264221,0.0086109545959189,-0.0119439698675549,-1.7292724874983893e-05,0.0060314214788377,0.0408614352345466,0.8742771744728088,-0.0031172269955277,0.0005888622254133,0.5011950135231018,0.8653285503387451,0.0101624716773441,0.0407979172281282,0.9141805025391868,0.207093060016632,-0.8292297124862671,0.7474155426025391,137,161,-9991,10073
10.3,1788442634865,-2.6478872299194336,2.619718313217163,-0.0009496401762589,0.0029119469691067,-0.542596697807312,0.8399878144264221,0.0086109545959189,-0.0119439698675549,-1.7292724874983893e-05,0.0060314214788377,0.0408614352345466,0.8742771744728088,-0.0019685057923197,-0.0011156946420669,0.5368459224700928,0.8436772227287292,0.0004146320540609,-0.0405993707121346,0.8324168851127141,0.4597806930541992,-0.4311752319335937,-0.6911907196044922,79,43,-9008,8910
10.4,1788442634965,-2.6478872299194336,2.619718313217163,-0.0024934399407356,0.0007819817401468,-0.4771646857261657,0.8788100481033325,0.0010925016183832,-0.0034785683207097,2.3651853166502337e-06,-0.0075302189216017,-0.0185849480330944,0.7491510510444641,-0.0019685057923197,-0.0011156946420669,0.5368459224700928,0.8436772227287292,0.0004146320540609,-0.0405993707121346,0.8324168851127141,0.4597806930541992,-0.4311752319335937,-0.6911907196044922,79,43,-9008,8910
10.5,1788442635065,-2.05633807182312,3.492957830429077,-0.0027586868964135,0.0004267558106221,-0.4389829635620117,0.8984910249710083,0.0068770507136741,-0.0026435034941457,8.634221279550981e-07,-0.0025478901807218,-0.0095326695591211,0.7801530957221985,-0.0016997558996081,-0.0021133469417691,0.5933229923248291,0.8049600124359131,-0.0015405306291362,-0.0009791955829475,0.7774907117480029,-0.2486075758934021,0.0738019943237304,0.1253604888916015,98,228,-8754,12088
10.6,1788442635165,-0.7042253613471985,6.563380241394043,-0.0026890670415014,0.0002493147621862,-0.4176541864871979,0.9086021184921264,0.0420585215745018,-0.0101646473928987,9.003420016163771e-06,0.006336118094623,-0.0076406137086451,0.9391254186630248,0.0001907451078295,-0.0026079174131155,0.6533070206642151,0.7570886015892029,0.0538321099572239,-0.0722413542111887,1.0941539332300736,0.0793203115463256,0.1531440019607544,0.2285871505737304,98,228,-8754,12088
10.7,1788442635265,-0.9295774698257446,7.661972045898437,-0.0026890670415014,0.0002493147621862,-0.4176541864871979,0.9086021184921264,0.0420585215745018,-0.0101646473928987,9.003420016163771e-06,0.006336118094623,-0.0076406137086451,0.9391254186630248,0.0002448754385113,-0.0025223270058631,0.6758629083633423,0.7370229959487915,0.0063863818153422,-0.0009403374394017,1.2132631994976952,-0.622834324836731,0.0387744307518005,1.2671632766723633,107,88,-3982,16803
10.8,1788442635365,-0.9014084339141846,6.11267614364624,-0.0021682605147361,-0.0016412154072895,-0.2952973842620849,0.9554015398025512,0.0737604209620746,-0.0060417343837605,-1.6507264416537314e-07,0.0056130308657884,-0.0080314083024859,0.9455468654632568,0.0004596104845404,-0.0026992987841367,0.727605938911438,0.6859898567199707,0.0010090674785081,-0.0053115795458499,0.8322196551458826,0.5054380893707275,0.1452071070671081,-0.0456886291503906,72,88,-5139,13093
10.9,1788442635465,-0.8169013857841492,7.97183084487915,-0.0021682605147361,-0.0016412154072895,-0.2952973842620849,0.9554015398025512,0.0737604209620746,-0.0060417343837605,-1.6507264416537314e-07,0.0056130308657884,-0.0080314083024859,0.9455468654632568,0.0003694063052535,-0.0025269975885748,0.7563398480415344,0.6541739702224731,0.0040571201946753,0.0064921893845636,1.0932848321507411,0.1714756488800048,0.4615483283996582,-0.4526090621948242,63,203,-4453,18862
11.0,1788442635565,-0.8169013857841492,9.295774459838867,-0.0012669818243011,-0.002175606554374,-0.1753245294094085,0.9845075011253356,0.1359103326022235,-0.0065925060090864,5.1964716521070753e-05,0.0248675178736448,-0.020986758172512,1.3600804805755615,0.0009074648842215,-0.0018973713740706,0.7888669371604919,0.6145605444908142,0.0342095253709079,0.0039522467586674,1.2983507022418517,0.1300628185272216,-0.1021321415901184,0.3910799026489258,80,128,-4597,26647
11.1,1788442635665,-0.7887324094772339,8.36619758605957,-0.0016329149948433,-0.0009568423265591,-0.142605111002922,0.9897778630256652,0.136262801274119,-0.0005522648937691,-0.0001258218390322,-0.0214002933353185,0.0477000437676906,1.4295676946640017,-0.0001352308318018,-0.0017640320584177,0.8426642417907715,0.5384365320205688,-0.0011121343139605,0.0144974222597499,1.4111590972150962,-0.2551674246788025,0.0274524688720703,-1.1392841339111328,135,109,-4628,23971
11.2,1788442635765,-0.7887324094772339,8.704225540161133,-0.0012522088363766,-0.0009346008882857,-0.0420905910432338,0.999112606048584,0.1366141345922788,-0.0098588847694726,3.8936758802562025e-05,0.0155041925609111,-0.0122595410794019,1.3991390466690063,0.0001438511535525,-0.0017556808888912,0.8648070693016052,0.5021012425422668,0.0059961367605176,-0.010260633240958,1.4285457812074167,-0.0827763080596923,-0.0009284615516662,0.4755373001098633,135,109,-4628,23971
11.3,1788442635865,-1.380281686782837,4.394366264343262,-0.0009518479928374,-0.0011243694461882,-0.0104865357279777,0.9999439716339112,0.1124202348224444,-0.0103842888158875,2.941679850047112e-05,0.0133080231025815,-0.0084783611819148,1.2421693801879885,0.0006308760493993,-0.0013691745698451,0.8866584300994873,0.4624225795269012,0.0124590376689838,-0.0092258175726763,1.2011171113110175,-0.1820886135101318,-0.0861333608627319,-0.5558652877807617,212,17,-8967,12583
11.4,1788442635965,-1.380281686782837,4.394366264343262,-0.0003110021352767,-0.0014673193218186,0.0716497972607612,0.9974287748336792,0.067029652856315,-0.0073913321417125,-1.9020818554105195e-05,0.0015861076535657,0.0082139996811747,1.1439967155456543,0.0011873329058289,-0.0009320443496108,0.9238553643226624,0.3827389478683471,0.0061195828324187,-0.004016595686965,1.3429835071459189,0.621562659740448,-0.0498361587524414,0.4242420196533203,212,17,-8967,12583
11.5,1788442636065,-0.5633803009986877,7.605633735656738,-0.0009239735081791,-0.0013936068862676,0.1336984634399414,0.991020679473877,0.1270409320319722,-0.0139258299042796,8.47924499847016e-05,-0.0258027035742998,-0.0075804302468895,1.4796583652496338,0.0005063936114311,-0.0024414183571934,0.9585718512535096,0.2848397493362427,-0.028944144540987,0.0128788177906728,1.282716403498116,0.1230919957160949,0.0041103959083557,-0.2587747573852539,212,17,-8967,12583
11.6,1788442636165,0.0,9.183098793029783,-0.0023452481254935,-0.0019410508684813,0.2123739570379257,0.977183759212494,0.142132423447034,-0.009972435791923,8.220581621058382e-05,-0.0220378097146749,-0.0105502177029848,1.3687095642089844,0.000674027018249,-0.0029687630012631,0.967881202697754,0.2513895034790039,-0.0173449543041593,-0.0150046422446034,1.3964262175556312,0.5551875829696655,0.1000187993049621,-0.1931514739990234,5,238,0,22618
11.7,1788442636265,2.2253520488739014,8.929577827453613,-0.0025019224267452,-0.0017350022681057,0.2351699769496917,0.9719494581222534,0.158019804398398,-0.0150888038810787,-3.4179817743231696e-05,-0.0044120061211287,0.0097514502704143,1.333754062652588,-0.0006419941782951,-0.0019103670492768,0.9834240078926086,0.1813095360994339,0.0330076982672055,0.0131274967270056,1.021649134729358,-0.0819366574287414,0.5615256428718567,-0.0503425598144531,62,67,6829,23319
11.8,1788442636365,1.8591549396514893,8.338027954101562,-0.0013041741913184,-0.0004393165290821,0.3111546337604522,0.950358271598816,0.1678094136371715,-0.0073783096708435,8.111606752341672e-05,0.0144420424476265,-0.0165003221482038,0.9449788331985474,-0.0002152081578969,-0.0013532601296901,0.9888669848442078,0.1487956494092941,0.006390659201486,-0.0089247394187644,0.9404548761785332,0.1480849385261535,0.0610362887382507,-0.1256570816040039,92,157,6653,22540
11.9,1788442636465,1.94366192817688,8.197182655334473,-0.000608964532148,-0.0014587201876565,0.3510569036006927,0.9363527297973632,0.1751270781469117,-0.0047371687601251,4.750761634728993e-05,0.0049610720016062,-0.0218781027942895,0.972257673740387,0.0006902143359184,-0.0012127496302127,0.9920804500579834,0.1255964189767837,0.0095420290282927,-0.0345964943905277,0.8877766865778859,-0.1924938559532165,0.2454921007156372,0.7385959625244141,66,135,5853,23266
12.0,1788442636565,1.6901408433914185,7.718309879302978,-0.0003615678870119,-0.0017072304617613,0.3740324378013611,0.9274140000343324,0.1673771630235297,-0.0042797355627866,5.860795848651672e-05,0.0069075375795364,-0.0138796512037515,0.9872149229049684,0.0005676941946148,-0.0008893776684999,0.9988791942596436,0.0473222248256206,0.01088070007616,0.019594276742011,0.8961720508186589,-0.3663511276245117,-0.2955511808395386,0.7721500396728516,125,161,6703,21854
12.1,1788442636665,0.5633803009986877,7.323943614959717,-0.0005610952503047,-0.0006883645546622,0.4189503788948059,0.9080087542533876,0.1720165710042318,-0.0072168423287459,-7.941271254655716e-05,0.0076538086868822,0.0227531287819147,0.9494189023971558,0.0017884848639369,0.0004478711634874,-0.9999939203262328,0.0029874211177229,0.0168012446210557,0.0546468438808524,0.9452683611065454,0.3786441683769226,0.825846254825592,-1.4567766189575195,125,161,6703,21854
12.2,1788442636765,-3.014084577560425,2.563380241394043,-0.0015319649828597,0.0016685806913301,0.4552352726459503,0.8903683423995972,0.0932940724095118,-0.0063825966748153,-4.4692626792219166e-05,0.0065083703957498,0.0683432146906852,0.9391090273857116,0.0014237910509109,0.0005019465461373,-0.9991011023521424,0.0423648096621036,0.0007673550508789,0.0373062539550542,0.8595282901017046,-0.7720668315887451,-0.2944954037666321,-0.2126312255859375,125,161,6703,21854
12.3,1788442636865,-3.126760482788086,2.281690120697021,-0.0009744653943926,0.0007282344158738,0.5133075714111328,0.8582038283348083,-0.0097340587178162,-0.0111360235864943,1.0617672550918436e-06,-0.0034235604107379,-5.363094169297256e-05,0.8945114612579346,0.0014237910509109,0.0005019465461373,-0.9991011023521424,0.0423648096621036,0.0007673550508789,0.0373062539550542,0.8595282901017046,-0.7720668315887451,-0.2944954037666321,-0.2126312255859375,116,182,-11074,10482
12.4,1788442636965,-1.8028168678283687,2.11267614364624,-0.0012289329897612,0.000979704898782,0.5314596891403198,0.8470821380615234,0.0004344432776525,-0.0064448425645823,-2.039760293884385e-07,-0.004545098170638,0.0135055286809802,0.8534930348396301,0.00137809664011,0.0006552869454026,-0.993215799331665,0.1162759438157081,-0.0007938864815613,-0.0032331432765508,0.7021757075913281,0.2152445912361145,-0.2449584603309631,0.2217006683349609,44,69,-6409,5527
12.5,1788442637065,0.2816901504993438,5.521126747131348,-0.001287150545977,0.0009281452512368,0.5587015151977539,0.8293672204017639,0.0098085372548187,-0.0079201705657767,-3.186498281185005e-06,-0.0034989472478628,0.0005580928409472,0.540030837059021,0.001480053178966,0.0008864579722285,-0.9881049394607544,0.1537718474864959,-0.0033760425235835,0.0018967077392101,0.7026035203934888,0.5002846717834473,-0.0459752678871154,0.1923208236694336,167,188,6518,16257
12.6,1788442637165,3.521126747131348,7.577464580535889,-0.0013857268495485,0.0007417825981974,0.5870743989944458,0.8095313906669617,0.0884735278198619,-0.0042626743173901,1.1732898595714974e-05,-0.0042105079628527,-0.004568061325699,0.7044064402580261,0.0007873978465795,0.0010615075007081,-0.9833595156669616,0.181665614247322,-0.0085286516758053,-0.0140601409887022,0.5333019874737491,0.4584961533546448,-0.2604104876518249,0.7104625701904297,110,273,8345,19050
12.7,1788442637265,3.7183098793029785,6.563380241394043,-0.0011387196136638,0.0002764800447039,0.6105051636695862,0.7920113801956177,0.176224451355076,-0.0013631619603753,4.293658927209101e-05,0.0039895349182188,-0.0126784918829798,0.5740426778793335,0.0001737587153911,0.0007769037038087,-0.9767129421234132,0.2145490795373916,-0.0048019487625556,-0.0139395784605973,0.5399812182788967,-0.1204870343208313,-0.2843779325485229,-0.0195913314819335,120,123,10126,21380
12.8,1788442637365,3.549295663833618,6.394366264343262,-0.0009790861513465,-0.0005375160835683,0.6399111747741699,0.7684480547904968,0.1706779311422274,-0.0005388994054155,6.504470894430072e-06,-0.0156847815960645,-0.0066514438949525,0.4695203304290771,-0.0003567412495613,0.001167113892734,-0.9715709686279296,0.2367455661296844,-0.0011222531342423,-0.0123995666998671,0.4644247111426041,0.1390544772148132,-0.0971499681472778,0.0622987747192382,63,75,10932,19112
12.9,1788442637465,3.323943614959717,6.11267614364624,-0.0009098066948354,-0.0008294912986457,0.6485986113548279,0.7611296772956848,0.1611048428863378,0.0018156301741383,2.980679729757374e-05,-0.005449263844639,-0.0112567888572812,0.4547968506813049,-0.0009782565757632,0.0010235477238893,-0.96801096200943,0.2509041428565979,-0.002307131178783,-0.0100049741927371,0.3518918378024984,-0.038553237915039,-0.2447468638420105,0.2303428649902343,111,131,11532,20330
13.0,1788442637565,3.633802890777588,6.3380279541015625,0.0009470769437029,-0.001677343272604,0.6714459657669067,0.7410509586334229,0.1648383789573342,0.0038140135210787,6.780648699034677e-05,0.0222575608640909,-0.0267035793513059,0.3556007742881775,-0.0009782565757632,0.0010235477238893,-0.96801096200943,0.2509041428565979,-0.002307131178783,-0.0100049741927371,0.3518918378024984,-0.038553237915039,-0.2447468638420105,0.2303428649902343,105,140,13203,16719
13.1,1788442637665,4.788732528686523,5.126760482788086,0.0019418519223108,-0.0019121877849102,0.6795480847358704,0.7336259484291077,0.1746228509256676,0.0031112385063209,-1.5496326034370314e-05,-0.0250771101564168,0.0213025175034999,0.1132954433560371,-0.002869613468647,-0.0007383031770586,-0.961164891719818,0.2759587466716766,-0.018291108094713,-0.0013031187270317,0.0355107393234205,-0.4026858806610107,-0.4089542031288147,0.1540660858154297,67,52,13208,16416
13.2,1788442637765,4.957746505737305,4.8450703620910645,0.0017818846972659,-0.0026944642886519,0.6804425716400146,0.7327942848205566,0.160076926326229,-0.0022060586849517,9.115753556101864e-05,-0.0257977526634931,-0.0185822248458862,0.0488778166472911,-0.0032241428270936,0.0006372621282935,-0.9600417017936708,0.2798377275466919,-0.0198538207281882,0.001118909001576,0.1018134888146113,0.0081232786178588,-0.3041689991950989,-0.1701555252075195,71,184,14022,14282
13.3,1788442637865,4.901408672332764,4.957746505737305,0.0015500156441703,-0.0048366328701376,0.6830430626869202,0.7303604483604431,0.1645677195514693,-0.0039442692045734,0.0001278418238452,-0.0362827815115451,-0.0597651191055774,0.0305277463048696,-0.0062550846487283,0.002139545045793,-0.9595811367034912,0.2813544571399688,-0.0488229189696633,-0.075667683360479,0.034255480985447,0.319102942943573,-0.0441651940345764,0.8843250274658203,71,184,14022,14282
13.4,1788442637965,4.8450703620910645,4.676056385040283,0.0007329750806093,-0.0054588806815445,0.6846099495887756,0.7288888096809387,0.1709535605467183,-0.0039716733342331,6.723160289215817e-05,0.006113976240158,0.020309243351221,0.0623813830316066,-0.0039826966822147,0.0013924287632107,-0.9583733081817628,0.2854871153831482,0.0245747106393562,0.0504341763676184,0.0586125600041851,-0.3552001714706421,-0.4172280430793762,-0.4440069198608398,131,92,14566,17049
13.5,1788442638065,4.8450703620910645,4.676056385040283,0.0003145505907014,-0.0038937826175242,0.6884238123893738,0.7252981066703796,0.1687064164528252,-0.00246333025406,-9.2385351213772e-05,0.0110868168994784,0.0364719666540622,0.0663037076592445,-0.0039826966822147,0.0013924287632107,-0.9583733081817628,0.2854871153831482,0.0245747106393562,0.0504341763676184,0.0586125600041851,-0.3552001714706421,-0.4172280430793762,-0.4440069198608398,131,92,14566,17049
13.6,1788442638165,4.704225540161133,5.77464771270752,0.000149006024003,-0.0034683293197304,0.6907442212104797,0.7230908870697021,0.1677040294755445,0.0029895916520008,-1.2158751056218904e-05,0.0010074498131871,0.0066458596847951,0.0629504770040512,-0.0030583553016185,0.0013655889779329,-0.9567338228225708,0.2909455597400665,0.0064401774578294,0.0113591449700036,0.0555540105923536,-0.0597466230392456,-0.016131579875946,-0.1350307464599609,103,79,15103,16773
13.7,1788442638265,4.985915660858154,5.6619720458984375,0.0002100286073982,-0.0034109428524971,0.6916950345039368,0.7221815586090088,0.1660221974076856,-0.0002436185612753,-1.154413847874072e-05,0.0028738135006278,-0.0001208798275911,0.0433537289500236,-0.0028090011328458,0.0015076268464326,-0.9559836983680724,0.2934023737907409,-0.0027435487646312,0.0082997122405529,0.0345975838792096,-0.1017445921897888,0.0436514616012573,-0.8281764984130859,109,74,14683,14332
13.8,1788442638365,4.901408672332764,4.901408672332764,-0.0001026530517265,-0.0033575971610844,0.6943227648735046,0.7196559309959412,0.1676997822066024,0.002658869393567,6.299699290047015e-05,-0.0026952202897518,0.0008775931200943,0.0590751804411411,-0.0029491810128092,0.0016567297279834,-0.9553571343421936,0.2954341471195221,-0.0029937439873181,0.0213884829584989,0.0668027022578086,-0.2048101425170898,-0.1473386883735656,-0.1968259811401367,101,73,14331,16392
13.9,1788442638465,4.985915660858154,4.873239517211914,0.0001813776325434,-0.0034067737869918,0.6955833435058594,0.7184373140335083,0.1626028512723455,-0.0001224980957814,5.2005321598920814e-05,0.006973173469305,-0.0094707533717155,0.0700785964727401,-0.0033287666738033,0.0013484321534633,-0.9550572633743286,0.2963996529579162,0.0123208015791992,-0.0305136337080874,0.0674836388880452,0.0703769922256469,0.0173216462135314,0.5585670471191406,101,73,14331,16392
14.0,1788442638565,4.901408672332764,5.183098793029785,0.0001691065263003,-0.0034830351360142,0.6961826682090759,0.7178561687469482,0.1712315998917762,-0.0054237885752998,-1.1775102077529905e-06,0.0,-3.252318636626228e-09,0.0,-0.0033786157146096,0.0011451197788119,-0.9546889662742616,0.2975841760635376,0.0088920213342674,-0.0082593164534614,0.0157102997343718,-0.152245283126831,0.0854938626289367,0.3623638153076172,83,74,14088,15724
14.1,1788442638665,4.873239517211914,5.126760482788086,0.0008118627592921,-0.0037788629997521,0.6975154876708984,0.7165592908859253,0.1612779755834947,-0.0004026734295203,-0.0001503934455301,0.0067051793448626,-0.0042760758660733,0.0632524937391281,-0.0034375889226794,0.000955238007009,-0.9539485573768616,0.2999493181705475,0.0084232664100866,-0.0346740058209417,0.0619264499433668,0.7493033409118652,0.0044934749603271,0.5538625717163086,105,167,14192,15477
14.2,1788442638765,4.760563373565674,4.957746505737305,0.0005987676559016,-0.0035074858460575,0.6989494562149048,0.7151621580123901,0.1730891759457013,0.0007444494139436,-0.0002073400525345,0.0017583466833457,0.0138140264898538,0.0816094204783439,-0.0027661910280585,0.001195509918034,-0.953079879283905,0.3027041256427765,0.0002207208103096,0.0006688671791283,0.0312020969513275,0.06997811794281,-0.3487116694450378,0.228851318359375,105,167,14192,15477
14.3,1788442638865,4.732394218444824,5.746479034423828,0.0001968207070603,-0.0029805065132677,0.7002887725830078,0.7138533592224121,0.1620992960344743,-0.0009686668075822,6.7559657559771615e-06,0.0019156840862706,0.0080010127276182,0.0459506548941135,-0.0024368362501263,0.0010781567543745,-0.9517946243286132,0.3067245185375213,0.0111711196863549,0.0091056581946279,0.1848833398742366,-0.2635744214057922,-0.0947464108467102,0.3887958526611328,107,161,14491,14488
14.4,1788442638965,4.985915660858154,4.873239517211914,6.231677252799273e-05,-0.0028365689795464,0.704180121421814,0.7100156545639038,0.1693445665630463,-0.0005137168693276,-4.951438221281826e-05,0.0001791068498278,0.0053143934346735,0.1737187802791595,-0.0022686468437314,0.0015749866142868,-0.9502505660057068,0.3114743232727051,-0.0107902036510429,0.0067573000952513,0.0301464564180369,-0.1751489043235778,-0.0484508275985717,0.8021669387817383,107,161,14491,14488
14.5,1788442639065,4.985915660858154,4.873239517211914,-0.0002790405414998,-0.0027073598466813,0.7065792679786682,0.7076286673545837,0.1668614504402751,0.0030573261587866,-4.37242753161679e-05,-0.005836711730808,0.013154124841094,0.1368062794208526,-0.0023567788302898,0.0011181533336639,-0.9504809975624084,0.310771644115448,0.0204242981321471,-0.011285477617095,-0.0373028515114721,-0.2337323427200317,-0.0175641775131225,-0.3975629806518554,107,161,14491,14488
14.6,1788442639165,5.014084339141846,4.873239517211914,-0.0002790405414998,-0.0027073598466813,0.7065792679786682,0.7076286673545837,0.1668614504402751,0.0030573261587866,-4.37242753161679e-05,-0.005836711730808,0.013154124841094,0.1368062794208526,-0.0026412857696413,0.0001859162002801,-0.9507264494895936,0.3100195825099945,0.0078861549763527,-0.0204208291673235,0.0014200231253614,0.4780188202857971,0.2868666648864746,-0.9503498077392578,105,50,15174,15252
14.7,1788442639265,5.126760482788086,5.042253494262695,-0.0002790405414998,-0.0027073598466813,0.7065792679786682,0.7076286673545837,0.1668614504402751,0.0030573261587866,-4.37242753161679e-05,-0.005836711730808,0.013154124841094,0.1368062794208526,-0.0026412857696413,0.0001859162002801,-0.9507264494895936,0.3100195825099945,0.0078861549763527,-0.0204208291673235,0.0014200231253614,0.4780188202857971,0.2868666648864746,-0.9503498077392578,106,173,14653,15415
14.8,1788442639365,5.126760482788086,5.042253494262695,-0.0002790405414998,-0.0027073598466813,0.7065792679786682,0.7076286673545837,0.1668614504402751,0.0030573261587866,-4.37242753161679e-05,-0.005836711730808,0.013154124841094,0.1368062794208526,-0.0009655402973294,0.001066705211997,-0.9505224227905272,0.3106527030467987,0.005133070592691,0.0147043014960924,0.0226180027766172,-0.0692905187606811,-0.0434183478355407,0.5723552703857422,116,79,15232,15965
14.9,1788442639465,5.014084339141846,5.577464580535889,-0.0005607812199741,-0.0012182645732536,0.706153392791748,0.7080575823783875,0.168460023368211,-0.0048495197664842,-9.10051482534139e-05,0.0071759768761694,0.0313684418797493,0.0385727211833,-0.0003932304680347,0.0013027330860495,-0.9504825472831726,0.3107748627662658,-0.0223564297236688,-0.0041667651648754,-0.0103046175954672,-0.1134313941001892,-0.263239324092865,-0.3805322647094726,116,79,15232,15965
15.0,1788442639565,4.985915660858154,4.704225540161133,-0.0009036865667439,-0.0008628881769254,0.7062408924102783,0.7079704999923706,0.1663463240007975,-0.0028214979116363,4.5359306600950427e-07,-0.0092121232300996,0.0003225722175557,-0.0037534104194492,0.0008694613352417,0.0015905881300568,-0.9503982663154602,0.3110305368900299,-0.0104314833153636,0.0411541547431354,-0.0065188080486664,-0.0570265054702758,0.2318254113197326,0.5554819107055664,124,77,15329,16108
15.1,1788442639665,4.957746505737305,4.676056385040283,-0.0017103604041039,-3.083347110077739e-05,0.7063708305358887,0.707839846611023,0.1669383795775056,-0.0013010551005342,-8.907557616962068e-05,-0.0017819895874708,0.0268914680927991,0.0079372134059667,0.0014387806877493,0.0011843107640743,-0.9504722952842712,0.3108038902282715,0.010421980150415,0.0217757811941062,-0.0029768396572108,0.2376081943511963,-0.1140121817588806,-0.16571044921875,135,116,15406,16084
15.2,1788442639765,4.957746505737305,4.676056385040283,-0.0023279574234038,0.0011396261397749,0.706358790397644,0.7078492641448975,0.160058956563805,-0.002044880366489,-7.613455972290958e-05,0.0144472792744636,0.0468965359032154,-0.0004884286317974,0.003446789458394,0.0017657903954386,-0.9502984285354614,0.311316430568695,0.0163049766429312,0.067397950778048,0.0162313202143877,0.1561405658721923,-0.1984474062919616,0.0269689559936523,135,116,15406,16084
15.3,1788442639865,5.126760482788086,5.436619758605957,-0.0033962330780923,0.0022285671439021,0.706296443939209,0.7079045176506042,0.1640935140595814,-0.0101551501430674,-0.0001916354606781,-0.0066445101983845,0.0244635548442602,-0.013807495124638,0.0028194934129714,0.0018987050279974,-0.9507593512535096,0.3099115490913391,-0.0020087434728448,-0.0248764048522878,-0.020630430812538,-0.0198851823806762,-0.3031951785087585,-0.0483303070068359,84,144,15065,16800
15.4,1788442639965,4.957746505737305,5.492957592010498,-0.002992286812514,0.0017931719776242,0.7057214379310608,0.7084808349609375,0.1648506581834583,-0.0043956171959824,6.31346637010013e-05,-0.0007334353867918,-0.0237296037375926,-0.0326093696057796,0.002029001712799,0.0021568657830357,-0.9504808783531188,0.3107690513134002,-0.0125376968614161,-0.0135664777491187,0.0211233924436628,-0.0415064096450805,0.2299554944038391,0.3757190704345703,106,56,14163,14256
15.5,1788442640065,5.183098793029785,5.154929637908936,-0.002605031710118,0.000478008412756,0.7065210342407227,0.7076870203018188,0.1547879581307627,-0.0062920196630824,8.276450583211111e-05,-0.0033917296677827,-0.0161553844809532,0.0171816628426313,0.0003316169604659,0.0016879672184586,-0.9502529501914978,0.3114747703075409,0.0059380221379726,-0.0349532604243614,0.0137538362887612,0.2912344336509704,-0.1484782099723816,0.3604297637939453,74,100,14866,13217
15.6,1788442640165,4.535211086273193,5.183098793029785,-0.0020351442508399,0.0001275963149964,0.7070210576057434,0.7071895003318787,0.1631321958191675,-0.0052366660199979,-6.707915797644508e-05,0.0118430806323885,0.0361677296459674,0.0291326697915792,0.0003316169604659,0.0016879672184586,-0.9502529501914978,0.3114747703075409,0.0059380221379726,-0.0349532604243614,0.0137538362887612,0.2912344336509704,-0.1484782099723816,0.3604297637939453,132,66,14436,16083
15.7,1788442640265,4.535211086273193,5.183098793029785,-0.0023517007939517,0.0003181787906214,0.708296537399292,0.7059110999107361,0.1456333855307146,0.0004633276369442,-7.852172320115177e-06,-0.0034010491799563,0.0131830079481005,0.0668556913733482,0.0003316169604659,0.0016879672184586,-0.9502529501914978,0.3114747703075409,0.0059380221379726,-0.0349532604243614,0.0137538362887612,0.2912344336509704,-0.1484782099723816,0.3604297637939453,132,66,14436,16083
15.8,1788442640365,-0.2535211145877838,4.056337833404541,-0.0023517007939517,0.0003181787906214,0.708296537399292,0.7059110999107361,0.1456333855307146,0.0004633276369442,-7.852172320115177e-06,-0.0034010491799563,0.0131830079481005,0.0668556913733482,0.00108471699059,0.0021122740581631,-0.9378151297569276,0.3471270799636841,-0.0021065216490768,0.0084516216213175,0.6100238133917383,-0.234798789024353,0.089925467967987,0.0877094268798828,132,66,14436,16083
15.9,1788442640465,-3.3521127700805664,3.126760482788086,-0.0023517007939517,0.0003181787906214,0.708296537399292,0.7059110999107361,0.1456333855307146,0.0004633276369442,-7.852172320115177e-06,-0.0034010491799563,0.0131830079481005,0.0668556913733482,0.0011566281318664,0.0018051657825708,-0.9298890829086304,0.3678337037563324,0.0090411281362998,-0.002670516609802,0.7368548843572854,-0.5041572451591492,0.4143469929695129,-0.1196918487548828,252,58,-13549,11185
16.0,1788442640565,-3.3521127700805664,3.126760482788086,-0.0018729111179709,-9.16197313927114e-05,0.7872750163078308,0.6165991425514221,0.0044158836784361,-0.0112384905068828,-1.4806148733882218e-06,-0.0056850751861929,-0.008879511617124,1.0187922716140747,0.0011566281318664,0.0018051657825708,-0.9298890829086304,0.3678337037563324,0.0090411281362998,-0.002670516609802,0.7368548843572854,-0.5041572451591492,0.4143469929695129,-0.1196918487548828,252,58,-13549,11185
16.1,1788442640665,-3.380281686782837,2.873239517211914,-0.0015633326256647,-0.0006371262134052,0.8017370700836182,0.5976746082305908,0.0023887115262573,-0.0100988327015149,1.3474255355684993e-06,-0.0110687799751758,-0.0247153844684362,0.9666550755500792,-9.157508611679076e-05,0.0017154570668935,-0.8774620890617371,0.4796428382396698,-0.0051174721019525,-0.0004607947466352,0.8774155717087848,-0.1898112297058105,-0.072540283203125,0.0206460952758789,134,164,-10788,12085
16.2,1788442640765,-3.1549296379089355,3.2676055431365967,-0.0012398319086059,-0.0009322395781055,0.8332558274269104,0.5528854131698608,0.0063933004162784,-0.0099846881028615,1.5184289561615249e-06,0.003657896304503,-0.0172898136079311,1.0023647546768188,-0.0005532596260309,0.0014283191412687,-0.8473398685455322,0.5310487747192383,-0.0046865326633177,-0.0169554463831497,1.0503758022438812,0.1153493523597717,-0.2610795497894287,0.2376232147216797,132,48,-11555,10596
16.3,1788442640865,-3.521126747131348,2.929577350616455,-0.0012398319086059,-0.0009322395781055,0.8332558274269104,0.5528854131698608,0.0063933004162784,-0.0099846881028615,1.5184289561615249e-06,0.003657896304503,-0.0172898136079311,1.0023647546768188,-0.0005018040537834,0.0014473078772425,-0.8286355137825012,0.5597864985466003,-0.0128449716129965,-0.0002665397364423,1.0254824709300925,-0.4211864471435547,0.0373373627662658,0.0531129837036132,91,104,-10074,11798
16.4,1788442640965,-3.2957746982574463,3.521126747131348,-0.0012961088214069,-0.0010950223077088,0.8933649063110352,0.4493288099765777,0.008324403877279,-0.0110665743676108,-2.266182180458148e-06,-0.0033506823237985,0.0063253697007894,0.963853359222412,-0.0004450622946023,0.0014059739187359,-0.8116259574890137,0.5841756463050842,0.0071637850967815,-0.0010361542181629,0.992196435239961,0.1104311943054199,0.0875566601753234,-0.3195886611938476,137,62,-10883,9839
16.5,1788442641065,-3.0985915660858154,3.1549296379089355,-0.0016081680078059,-0.0010969976428896,0.9144355654716492,0.404726892709732,0.007883100336953,-0.0118420797231237,-2.621561636569892e-06,-0.0040039732120931,0.0078524658456444,0.9568103551864624,-0.0003456259146332,0.0018486166372895,-0.7637017965316772,0.645566463470459,-0.0020356197422001,-0.012959676169801,0.9894439522577536,0.0402794480323791,-0.3901989459991455,-0.0719194412231445,131,78,-11588,10789
16.6,1788442641165,-3.239436626434326,3.4084506034851074,-0.0018250154098495,-0.001276311231777,0.9346171021461488,0.3556487262248993,0.0071407197252801,-0.0070420081195483,-5.169120618031448e-06,-0.0093869529664516,0.0049743028357625,0.9633632898330688,-0.000395237468183,0.0021898001432418,-0.7347937822341919,0.6782869696617126,-0.0095635295974289,-0.0221321998591037,0.9557099086678358,-0.092549443244934,0.0877363681793212,-0.2767457962036133,98,40,-10977,10187
16.7,1788442641265,-3.0985915660858154,3.8309860229492183,-0.0018250154098495,-0.001276311231777,0.9346171021461488,0.3556487262248993,0.0071407197252801,-0.0070420081195483,-5.169120618031448e-06,-0.0093869529664516,0.0049743028357625,0.9633632898330688,-0.0005915062502026,0.0025674309581518,-0.7006559371948242,0.7134945392608643,-0.0172529955400253,0.0110017024398362,0.9995549198073662,-0.1571578383445739,-0.1087682843208313,-1.1109952926635742,104,102,-11447,8916
16.8,1788442641365,-3.239436626434326,3.1549296379089355,-0.0018367124721407,-0.0020554256625473,0.9636752605438232,0.2670625746250152,0.0025795986673987,-0.0073740519396806,2.006216539013248e-06,-0.0106424679979681,-0.0095179211348295,0.9397625923156738,-0.0005915062502026,0.0025674309581518,-0.7006559371948242,0.7134945392608643,-0.0172529955400253,0.0110017024398362,0.9995549198073662,-0.1571578383445739,-0.1087682843208313,-1.1109952926635742,101,131,-11045,10371
16.9,1788442641465,-3.070422649383545,3.380281686782837,-0.0014089616015553,-0.0019973320886492,0.9701433181762696,0.2425199449062347,0.0091510823577861,-0.0097840760842989,2.514317042324474e-06,0.0055208704434335,-0.0183059200644493,1.0120664834976196,-0.0020383698865771,0.0006622541695833,-0.6184353232383728,0.7858327031135559,0.0094366660787478,-0.0462022659988198,1.048758520924584,0.1571527123451233,-0.149524450302124,-0.4749011993408203,101,131,-11045,10371
17.0,1788442641565,-3.380281686782837,2.8450703620910645,0.0004326687776483,-0.002036789432168,0.9820021390914916,0.1888586282730102,0.0070832762188585,-0.0100060013174863,8.061630507512333e-06,0.0112695917487144,-0.0334180928766727,1.0056519508361816,-0.0034378226846456,-0.0007478315383195,-0.5786625146865845,0.8155596256256104,-0.0044900096518571,-0.0397661137326797,0.9984308630492694,0.720864474773407,-0.5872403383255005,0.7150774002075195,101,131,-11045,10371
17.1,1788442641665,-3.380281686782837,2.8450703620910645,0.0027076746337115,-0.0016243322752416,0.992602288722992,0.1213697418570518,0.0065037912487503,-0.0096687593069852,-8.411109658004917e-06,0.0381923578679561,-0.0144050093367695,0.9195449948310852,-0.0027549359947443,-0.0015781875699758,-0.559588611125946,0.8287644982337952,0.0427892813946141,-0.0142673658884077,0.9114319970931988,-0.3567298650741577,0.4863663911819458,-0.3435182571411133,101,131,-11045,10371
17.2,1788442641765,-3.549295663833618,3.492957830429077,0.0034357497934252,-0.0006363571155816,0.9953029751777648,0.096745379269123,0.0067046426256984,-0.0051160536324388,-7.905842875199266e-06,0.0466629713773727,-0.0260089412331581,1.0136537551879885,-0.0021957578137516,-0.0022313212975859,-0.5054541230201721,0.8628477454185486,-0.0074230073182282,0.0012438569612135,1.0016481903636851,-0.0286668539047241,-0.377358078956604,0.0989656448364257,101,131,-11045,10371
17.3,1788442641865,-3.070422649383545,3.0985915660858154,0.0028488815296441,-0.0009886148618534,0.998856008052826,0.0477238111197948,0.0057830673209554,-0.0126643038945401,1.7143252417891548e-06,-0.0037788320332765,0.0061259511858224,1.0074386596679688,-0.0021774759516119,-0.0021456601098179,-0.4882368147373199,0.8727058172225952,0.001693516481362,0.0033343809836596,0.9920337448174128,-0.2009257078170776,0.2098832726478576,0.092071533203125,88,65,-9107,8878
17.4,1788442641965,-2.985915422439575,2.619718313217163,-0.0034622575622051,0.0008993676165118,-0.9999914765357972,0.002066277898848,0.0051352074983088,-0.012359457524239,-3.659420695772252e-06,0.0074038240127265,-0.0142029551789164,0.8476230502128601,-0.0022943271324038,-0.0025863358750939,-0.4252205193042755,0.905083179473877,0.0050519182948447,-0.0091126996848274,0.8760870962042402,-0.1681458950042724,-0.3009215593338012,-0.4738378524780273,128,155,-9064,10250
17.5,1788442642065,-2.5352113246917725,2.169013977050781,-0.0037359688431024,0.0007049127016216,-0.998197078704834,0.0599009208381176,0.0046301609273785,-0.0064113672280066,-3.947782114751451e-06,0.0011309249093756,-0.0029136254452168,0.7072144150733948,-0.0022171325981616,-0.0028830887749791,-0.3752596080303192,0.9269126653671264,0.0038091621645835,-0.002729861873022,0.7558190054164905,0.0446959733963012,0.2784772515296936,0.1484212875366211,86,114,-8667,9750
17.6,1788442642165,-2.5915493965148926,2.7323944568634038,-0.0036626821383833,0.0007860955083742,-0.9951861500740052,0.0979316085577011,0.0034788203831414,-0.0057761092678015,-1.8192066744357935e-06,-0.0019389248918741,-0.0072410176508128,0.766353964805603,-0.0024030394852161,-0.0030977493152022,-0.3398515582084656,0.9404709339141846,0.0034614778844755,-0.0073169607101247,0.7511511855803382,0.1015609502792358,-0.1724624037742614,-0.0238943099975585,120,84,-8965,8625
17.7,1788442642265,-2.169013977050781,2.309859037399292,-0.00385193224065,0.0007509473944082,-0.9927369356155396,0.1202412247657775,0.002321823772033,-0.0091431485423776,-1.4392018246229692e-06,0.003228543093428,-0.0073234396986663,0.7529049515724182,-0.0025883363559842,-0.0028950357809662,-0.324307233095169,0.9459438920021056,-0.0072095715757909,0.0044145572810083,0.659879964150908,-0.1289106011390686,-0.2472379207611084,-0.0550565719604492,106,86,-7951,7782
17.8,1788442642365,-2.11267614364624,2.309859037399292,-0.00385193224065,0.0007509473944082,-0.9927369356155396,0.1202412247657775,0.002321823772033,-0.0091431485423776,-1.4392018246229692e-06,0.003228543093428,-0.0073234396986663,0.7529049515724182,-0.0028665559366345,-0.0029704170301556,-0.2899732589721679,0.9570258259773254,-0.0008425107523393,-0.0076396326147765,0.7090403980058401,-0.0180481076240539,-0.1388152837753296,0.2616443634033203,119,79,-7957,7789
17.9,1788442642465,-2.11267614364624,2.3943662643432617,-0.00385193224065,0.0007509473944082,-0.9927369356155396,0.1202412247657775,0.002321823772033,-0.0091431485423776,-1.4392018246229692e-06,0.003228543093428,-0.0073234396986663,0.7529049515724182,-0.0030350619927048,-0.0029379967600107,-0.2706508338451385,0.9626683592796326,-0.0031348303892146,-0.0017395026776146,0.6425354701224123,-0.2051960825920105,5.614757537841797e-05,-0.4852313995361328,119,79,-7957,7789
18.0,1788442642565,-1.7464789152145386,1.5774648189544678,-0.0041663739830255,0.0009366736048832,-0.97359961271286,0.2282225042581558,0.0075896498350204,-0.0088068131875651,3.7404985794726665e-06,0.0099647417664527,-0.0076308287680149,0.5525972247123718,-0.0026786355301737,-0.0033945459872484,-0.230350911617279,0.9730980396270752,0.0079107668709218,-0.0090532564253899,0.4884556737798677,-0.2507782578468323,0.1695986986160278,0.1081438064575195,118,84,-7611,7751
18.1,1788442642665,-1.94366192817688,1.887323975563049,-0.0041663739830255,0.0009366736048832,-0.97359961271286,0.2282225042581558,0.0075896498350204,-0.0088068131875651,3.7404985794726665e-06,0.0099647417664527,-0.0076308287680149,0.5525972247123718,-0.0025414275005459,-0.0035293968394398,-0.2118154019117355,0.9773001074790956,0.0070833131936479,0.0035009640539752,0.5215245683914493,-0.0402688980102539,-0.198870837688446,0.1913833618164062,100,101,-7416,7658
18.2,1788442642765,-1.5211267471313477,1.6619718074798584,-0.0043805390596389,0.0005215605488047,-0.9663836359977722,0.2570664584636688,-0.0015046598904374,-0.0006710595477023,1.824988204885132e-07,0.0106864171102643,-0.0039559439755976,0.56353360414505,-0.002084064297378,-0.0033922931179404,-0.1751029342412948,0.9845421314239502,0.0002264999987377,0.0119700873308611,0.4970274759513286,-0.1475123167037964,-0.2642660737037658,-0.0928430557250976,111,80,-6356,5776
18.3,1788442642865,-1.4929577112197876,1.5492957830429075,-0.0040752864442765,0.000261389883235,-0.9531149864196776,0.3025812208652496,-0.0015753316233195,-0.0041112487026909,-7.454171816548332e-08,0.0029689278453588,-0.0008509100298397,0.4633278846740722,-0.0020935265347361,-0.0036216033622622,-0.1528579890727996,0.988239288330078,0.0016046942516515,-0.0074793860349329,0.4437955159270205,0.0479115843772888,-0.2258363366127014,0.0117702484130859,111,80,-6356,5776
18.4,1788442642965,-1.6056338548660278,1.4647886753082275,-0.0042602149769663,0.0001664705341681,-0.9459073543548584,0.3244086802005768,0.0044432156711973,-0.0051097636534552,-2.624433718424501e-06,0.0016050460981205,-0.0010839372407644,0.4613603055477142,-0.0020713731646537,-0.0037254532799124,-0.1370765417814254,0.9905513525009156,-0.0002223213318022,0.0013245012966687,0.4510037170279252,0.0016151070594787,0.1862133145332336,-0.0477123260498046,104,104,-6361,7148
18.5,1788442643065,-1.6901408433914185,1.5774648189544678,-0.004206309095025,0.0001222944119945,-0.9413091540336608,0.3375194072723388,0.0022190010489075,-0.0031508038799402,9.985868348379276e-08,0.0037614298053085,0.000489643018227,0.4569450914859772,-0.001899154856801,-0.0035919789224863,-0.1089528352022171,0.9940385818481444,0.0049949647438657,-0.0030117924680147,0.4784291882029901,-0.0558612942695617,-0.2106102705001831,0.1553630828857422,50,51,-4611,4669
18.6,1788442643165,-0.9014084339141846,1.042253494262695,-0.003993006888777,-5.430169403553009e-05,-0.930458128452301,0.3663763403892517,0.0028092269181623,-0.0033166657755448,2.518856037725721e-06,0.0016333056846633,0.0007126041455194,0.2964966297149658,-0.0017325859516859,-0.0035765776410698,-0.0911180824041366,0.9958321452140808,0.0043143240664898,0.0001500173543168,0.3030524060399013,0.1124429702758789,0.1219636797904968,0.054513931274414,170,139,-6586,6374
18.7,1788442643265,-1.3521126508712769,1.183098554611206,-0.0038795652799308,-1.1789379641413689e-06,-0.924558162689209,0.3810213804244995,-0.002383830030028,-0.0022485874244633,-7.044295671754925e-06,-0.0002372677554376,0.0002966682659462,0.3647919595241546,-0.0017393641173839,-0.0034393984824419,-0.0732907503843307,0.9973031878471376,0.0021739406842,0.0019738529109086,0.3853755715231999,0.0130982995033264,-0.0672250986099243,0.1631679534912109,74,166,-5060,6288
18.8,1788442643365,-1.0704225301742554,1.3239436149597168,-0.003748188028112,1.560896635055542e-05,-0.9172177910804749,0.398368626832962,0.0019389297169699,-0.0032001377714152,-3.55558422605499e-06,0.0015563822817057,0.0005862362449988,0.3748698532581329,-0.0017126919701695,-0.0033033266663551,-0.05464369058609,0.9984989762306212,0.0009327136446944,0.0012902690667206,0.3731130218859562,-0.0535236597061157,-0.0513860583305358,0.0248165130615234,68,130,-5821,5603
18.9,1788442643465,-1.1267606019973757,1.154929518699646,-0.0037366184405982,2.3165717720985413e-05,-0.913690447807312,0.4063936471939087,0.0017723029987902,-0.0023847864865004,3.838606385851114e-08,0.0011266027577221,1.121122022595955e-05,0.3564986288547516,-0.0016756365075707,-0.0033289706334471,-0.0458145700395107,0.9989429712295532,0.0027183133377133,-0.0015126983526671,0.3534089747169764,0.143803060054779,0.0435147285461425,0.0577812194824218,68,130,-5821,5603
19.0,1788442643565,-0.6197183132171631,0.6760563254356384,-0.0035622799769043,4.722538869827986e-05,-0.9049620032310486,0.4254775941371918,0.0026456261160558,-1.3900373728056908e-05,-3.260381940599679e-06,0.0002334421733394,0.0018925307085737,0.2458683997392654,-0.0016352115198969,-0.0031744567677378,-0.0259925387799739,0.9996558427810668,0.0007612369528265,0.0026293226391942,0.2593391898810649,0.0666478872299194,-0.124662697315216,0.0444097518920898,74,128,-5193,5745
19.1,1788442643665,0.1690140813589096,0.1408450752496719,-0.0035702411551028,1.7958576790988445e-05,-0.902051031589508,0.4316145181655884,0.0017777889460401,-0.0015117987405254,-4.022779032508599e-06,-5.24561146448832e-05,-0.0030142038594931,0.0467922054231166,-0.001645054668188,-0.0031998045742511,-0.0220768079161643,0.9997498989105223,-0.0008018782602544,-0.0038215826842487,0.0061835204521931,0.0699795484542846,0.0719085335731506,-0.048201560974121,98,265,4377,10831
19.2,1788442643765,2.0,3.859154939651489,-0.0037395758554339,0.0001158964587375,-0.8985682129859924,0.4388178586959839,0.0749000292668738,0.00188028906389,8.998838676542444e-06,-0.0049504996277391,-0.0006479861913248,0.2364677786827087,-0.0020347712561488,-0.0031336853280663,-0.0078761037439107,0.9999620914459229,-0.0131697379216522,0.004129754914046,0.3309982537386678,0.6963244676589966,0.0236258506774902,0.2415742874145507,86,294,7262,14763
19.3,1788442643865,1.5211267471313477,4.619718074798584,-0.0036586662754416,0.0005934338551014,-0.8943634033203125,0.4473257660865783,0.1063825867450618,-0.0003871791973588,-2.190704538645262e-05,-0.0121480384841561,0.0089046135544776,0.318294495344162,-0.0022652950137853,-0.0029252348467707,-0.0022409884259104,0.9999906420707704,-0.0144311966143421,0.0132893056545731,0.3812667448244842,0.5358055830001831,0.511146068572998,-0.0836191177368164,14,70,2585,14247
19.4,1788442643965,3.0985915660858154,7.915493011474609,-0.0033580181188881,0.0013523624511435,-0.8839344382286072,0.4675968587398529,0.107281259427802,-0.0048523918421754,-5.397482731720261e-06,-0.0091795390471816,0.0085276570171117,0.4811756014823913,-0.0031080050393939,-0.0028425762429833,0.0437149554491043,0.9990351796150208,-0.0161459113613054,-0.0005358355411784,0.6242905152050967,0.7324413061141968,-0.2833972573280334,-0.1008872985839843,192,257,11014,20887
19.5,1788442644065,3.0422534942626958,8.112675666809082,-0.0037036323919892,0.0012994435383006,-0.8763071298599243,0.481736809015274,0.1310405597716353,0.0010596725977071,7.907361374057367e-05,-0.0031009649392217,-0.0149721484631299,0.6414271593093872,-0.0030908538028597,-0.0021517844870686,0.0566371381282806,0.9983877539634703,0.0045148797425641,0.0322680977021278,0.6461306493876194,-0.6793282628059387,0.0843906998634338,-0.1031370162963867,192,257,11014,20887
19.6,1788442644165,3.014084577560425,7.014084339141846,-0.003132221288979,0.0019678296521306,-0.8438652753829956,0.5365423560142517,0.1698497337748538,-0.0031517910587016,-7.753421538646766e-05,0.0051520667038857,0.0495343096554279,0.7480871081352234,-0.0034241508692502,-0.0019237622618675,0.1050040647387504,0.9944639801979064,-0.0109194753769854,0.0217473789747973,0.7230850057496572,-0.6109174489974976,-0.0506998300552368,1.9673099517822263,89,132,9666,17656
19.7,1788442644265,3.436619758605957,7.577464580535889,-0.0030133896507322,0.0025044116191565,-0.8288128972053528,0.5595121383666992,0.1642185567816733,-0.0006133302866208,2.506231477481732e-05,-0.0015142268966883,0.0016283502336591,0.4400133490562439,-0.0035763755440711,-0.0017579719424247,0.1334428489208221,0.9910484552383424,0.0004122406593374,-0.0221836089275575,0.3998624908023017,-0.168294608592987,0.5345038175582886,0.1812696456909179,100,141,11786,17887
19.8,1788442644365,3.211267709732056,6.788732528686523,-0.0031151475850492,0.0027598468586802,-0.8215571641921997,0.5701109766960144,0.1665475792671724,0.0023112320030074,1.9147668786269215e-05,-0.0085272612050175,0.0003403404552955,0.4297380447387695,-0.0041570086032152,-0.0007540863007307,0.1607648134231567,0.9869837760925292,-0.0027988840879499,0.0098038108859334,0.584504325936989,0.0027424097061157,0.2141398787498474,-0.170048713684082,103,138,9607,20358
19.9,1788442644465,2.9577465057373047,7.352112770080566,-0.0024538547731935,0.0035863355733454,-0.8049413561820984,0.5933384895324707,0.1611373975062173,-0.0023356358978843,-8.01138538131886e-05,-0.009404657408595,0.0252052340656518,0.5771727561950684,-0.0041570086032152,-0.0007540863007307,0.1607648134231567,0.9869837760925292,-0.0027988840879499,0.0098038108859334,0.584504325936989,0.0027424097061157,0.2141398787498474,-0.170048713684082,150,87,12124,16951
20.0,1788442644565,4.084506988525391,6.929577350616455,-0.0018849748885259,0.0045620454475283,-0.7930921316146851,0.6090815663337708,0.1646144782206662,0.0004534670763433,-1.0766340246033334e-05,-0.0071528386324644,0.0150789590552449,0.3472523391246795,-0.0053269760683178,0.0010277377441525,0.1978413313627243,0.980219066143036,-0.0131657741538311,0.020294300174252,0.3081732207513008,-0.2602670788764953,-0.0869850516319274,0.881047248840332,60,131,11757,17627
20.1,1788442644665,3.690140962600708,6.591549396514893,-0.001435637124814,0.005203248001635,-0.7831563949584961,0.6218014359474182,0.167190121666547,0.0042597428473423,-3.8483461476476346e-05,-0.005872759502381,0.0094601083546876,0.3521599471569061,-0.0043293545022606,0.0007817074656486,0.2179008275270462,0.9759610295295716,0.0296557746114962,-0.01274204632059,0.404875892437763,0.2763499617576599,-0.2370269894599914,-0.0134286880493164,101,78,12187,16718
20.2,1788442644765,3.8309860229492183,5.85915470123291,-0.0007704105228185,0.0042257187888026,-0.7645532488822937,0.6445461511611938,0.1595744634434207,0.0029736808455974,-8.705847955578335e-05,-0.0200551096349954,0.0391052737832069,0.3474481999874115,-0.0040833922103047,0.0010071042925119,0.2319637835025787,0.9727153778076172,-0.0092494075716736,0.008589691761086,0.3241288681959164,0.1372619271278381,-0.3357794284820556,-0.2277507781982422,87,64,11309,16035
20.3,1788442644865,3.859154939651489,6.253520965576172,-0.0005158850690349,0.0040757935494184,-0.753494143486023,0.6574417948722839,0.1573066620820727,0.0037217780994905,5.159863164595343e-05,0.0284677371382713,0.005129599943757,0.3798940479755401,-0.0042954320088028,0.0009495774284005,0.2411003559827804,0.9704902768135072,-0.009912492554583,-0.0016474582199205,0.3911905428499451,-0.3256499171257019,0.2048400640487671,-0.1363840103149414,138,63,14025,15662
20.4,1788442644965,4.366197109222412,6.507042407989502,0.001491006463766,0.0055063925683498,-0.7451944351196289,0.6668229103088379,0.1650119531897421,-0.0014991442780915,-0.0001854449661423,-0.003320817137137,0.0820064842700958,0.2299573421478271,-0.0041736615821719,0.0039042197167873,0.2621499896049499,0.9650102257728576,0.0047910934827747,0.0038315901292468,0.2279504385486406,-0.3610324263572693,-0.0239032506942749,-0.9758577346801758,97,110,12802,15360
20.5,1788442645065,4.084506988525391,5.7183098793029785,0.001491006463766,0.0055063925683498,-0.7451944351196289,0.6668229103088379,0.1650119531897421,-0.0014991442780915,-0.0001854449661423,-0.003320817137137,0.0820064842700958,0.2299573421478271,-0.0040641985833644,0.0039055403321981,0.2686191201210022,0.9632300734519958,0.0029269641967038,-0.0019237713476794,0.2691384667089482,-0.3914195895195007,-0.1138103604316711,0.1768379211425781,111,176,12907,17971
20.6,1788442645165,4.478873252868652,6.0,0.0012555216671898,0.0048296600580215,-0.7330176830291748,0.6801912784576416,0.1650252945462776,0.0011666088279027,3.524422594129266e-05,-0.0010056889150291,-0.008493261411786,0.2706177234649658,-0.0039266068488359,0.0031052595004439,0.2842554450035095,0.9587355256080629,-0.007686331582283,0.0008804978480912,0.2531776771028056,0.0756094455718994,-0.0326862931251525,-0.2713737487792969,94,70,11600,16791
20.7,1788442645265,4.197183132171631,6.253520965576172,0.0007715497631579,0.0047765695489943,-0.7194417715072632,0.6945358514785767,0.1619340739794289,0.0005053057098563,8.426681888569359e-06,-0.0052048158831894,-0.010288493707776,0.2564414441585541,-0.0038903960958123,0.0026783617213368,0.2974795997142792,0.9547165036201476,-0.0064696464675433,-0.0141331877128409,0.2481906606252721,-0.0600313544273376,0.2317079305648803,0.2646913528442383,97,170,12594,15757
20.8,1788442645365,4.366197109222412,5.464788913726807,0.000783983618021,0.0047347098588943,-0.7151145935058594,0.6989906430244446,0.1614974272289784,0.0042275026236834,2.493095692343076e-05,0.0005885764840058,-0.0015298932557925,0.2495904862880706,-0.0043155802413821,0.0025680214166641,0.3090204894542694,0.9510421752929688,-0.0154485656992011,0.0040008649161512,0.1786876034739332,-0.1968341469764709,-0.2176922559738159,0.0382423400878906,37,174,12213,18356
20.9,1788442645465,4.366197109222412,5.830986022949219,0.0001580594107508,0.0048953937366604,-0.7084016799926758,0.7057924270629883,0.1678796725841461,-0.0052519460366102,1.6537999923870095e-05,-0.0075066140852868,-0.012804009951651,0.1405239403247833,-0.0043132128193974,0.0026693549007177,0.3174708485603332,0.9482545256614684,-0.0081204017045902,0.0066197350937529,0.2132542063582297,0.3089874386787414,-0.1367537975311279,-0.3271760940551758,37,174,12213,18356
21.0,1788442645565,4.647887229919434,5.633802890777588,0.0005451466422528,0.004585884977132,-0.6985576748847961,0.7155388593673706,0.1641622064957315,0.0022176566932407,1.6120981730189734e-05,0.0071559604257345,-0.0128747103735804,0.1469083875417709,-0.0039700055494904,0.0030833454802632,0.3256710767745971,0.9454697370529176,0.0046090410802795,0.0113650720022267,0.1555865540271336,0.053379476070404,-0.2523674368858337,-0.7859477996826172,37,174,12213,18356
21.1,1788442645665,4.422535419464111,5.211267471313477,0.0005912210326641,0.0046895346604287,-0.6936923265457153,0.720255970954895,0.1572528307570705,0.001915477451279,-7.45783396593097e-05,-0.0028682621195912,-0.011351584456861,0.1432936042547226,-0.00290472432971,-7.927697151899338e-05,0.3317952156066894,0.943346917629242,0.004971295733701,-0.2205941405064434,0.1405155706195224,1.0352513790130615,0.5141767263412476,0.7555818557739258,101,80,14164,17833
21.2,1788442645765,4.507042407989502,5.6619720458984375,-0.0023054659832268,0.0017925148131325,-0.6878982782363892,0.7258011698722839,0.1681555966218752,-0.0004012213383721,-1.9955559136727693e-05,-0.0013679435942322,-0.0279082525521516,0.1615611016750335,-0.0023993290960788,-0.0021820664405822,0.3418406248092651,0.9397522807121276,-0.0086609455565289,-0.0428958101460355,0.1387712830764214,-0.3782566785812378,-0.0155892968177795,-0.8252525329589844,82,137,13763,15925
21.3,1788442645865,4.957746505737305,5.380281925201416,-0.0030656103044748,0.0010956113692373,-0.6828603744506836,0.7305416464805603,0.1657086742901507,0.0016615735788559,3.773947523464865e-05,-0.00021977002325,-0.0132304523140192,0.1395255923271179,-0.0022776713594794,-0.0020060958340764,0.3449014723300934,0.9386339783668518,0.0098782164977663,0.0143806420808319,0.0236516742201289,-0.1184488534927368,0.0395200848579406,0.2852783203125,104,186,14356,14619
21.4,1788442645965,4.901408672332764,5.436619758605957,-0.0026035744231194,0.0008636007551103,-0.680979311466217,0.7322975397109985,0.1773411222766523,-0.0026576473856873,1.0494201785568845e-05,0.0115308808162808,0.0002380017394898,0.0576312467455863,-0.0015751235187053,-0.0020522223785519,0.3471362292766571,0.9378111362457277,0.0233344317703015,-0.0261638047829059,0.0535163313364405,-0.1604843139648437,-0.31976979970932,0.7615718841552734,106,118,14301,14382
21.5,1788442646065,4.8450703620910645,5.633802890777588,-0.0026284828782081,0.0002974751405417,-0.6794499158859253,0.733717143535614,0.1648947681540647,0.0010602354876028,2.2520471838375825e-07,-0.0009353443165309,-0.0004253659863024,0.0385559611022472,-0.0007687667384743,-0.0028326073661446,0.3505365252494812,0.9365444779396056,0.0289461275717375,-0.021062354330974,0.073852196662531,-0.1868370175361633,-0.4422826170921325,-1.045731544494629,96,82,14312,13703
21.6,1788442646165,4.985915660858154,5.633802890777588,-0.0030912766233086,-0.0009034554241225,-0.6772510409355164,0.7357449531555176,0.1628067726281531,-0.0008206065957437,0.0001064307578642,0.014115447178483,-0.0259183347225189,0.0455291159451007,-0.0011137844994664,-0.0033823074772953,0.3525009155273437,0.9358046650886536,-0.0056483805624597,-0.0194448142353629,0.056467078098865,0.4925121068954468,0.279940664768219,-0.3270883560180664,107,97,13908,13858
21.7,1788442646265,4.8450703620910645,5.577464580535889,-0.0036899629049003,-0.0003699617227539,-0.6755168437957764,0.7373353242874146,0.165903708877394,0.0002247538779146,4.492909120157754e-06,-0.0116477394476532,-0.0030945683829486,0.0384708307683467,-0.00162242539227,-0.0039701052010059,0.3538525402545929,0.9352914094924928,-0.0160987434964878,-0.0280047347216292,0.0287142256432696,0.0460371971130371,-0.2665668725967407,0.4784812927246094,77,89,14336,14014
21.8,1788442646365,4.760563373565674,5.633802890777588,-0.004736706148833,-0.0004823326598852,-0.6740804314613342,0.738642692565918,0.1704008756024865,-0.0003411191840809,1.9736775884237645e-05,-0.0091354958713054,-0.0253686923533678,0.0398702174425125,-0.0016811713576316,-0.0045299213379621,0.3557481169700622,0.9345694184303284,-0.0002367531905637,-0.0060864739527133,0.0520321953675269,0.0551849007606506,0.1113353967666626,-0.2275848388671875,101,96,14624,13803
21.9,1788442646465,4.957746505737305,4.732394218444824,-0.0044179232791066,-0.0002466146834194,-0.6725224256515503,0.7400636672973633,0.1647254378872978,-0.0029399173838003,-0.0001105336673577,0.0024268231354653,0.0352067612111568,0.0360626727342605,-0.0022928975522518,-0.0040759583935141,0.3567568063735962,0.9341855645179749,-0.0172358368098497,0.0191909842507965,-0.0206720061225945,-0.0940709710121154,0.0503765344619751,-0.0233392715454101,68,180,14548,15293
22.0,1788442646565,4.563380241394043,4.366197109222412,-0.0046720379032194,0.0002070749178528,-0.6727060675621033,0.7398951053619385,0.1562336999841349,-0.0038588942604078,-5.810078955984401e-05,-0.0107000190764665,0.0119215287268161,-0.0128310536965727,-0.0023988839238882,-0.0048827324062585,0.3565497994422912,0.9342604875564576,-0.0187849092022685,-0.0447109443682752,-0.0102372382789007,-0.5829015970230103,0.0147470831871032,0.4519939422607422,62,41,13358,14009
22.1,1788442646665,5.070422649383545,5.577464580535889,-0.0041986927390098,0.0001004468649625,-0.6724786758422852,0.7401045560836792,0.1424575563340059,0.0031440169745258,-7.598970803314236e-05,0.0344918966293334,0.0348500683903694,0.0177746918052434,-0.0017051137983798,-0.0033738827332854,0.357071965932846,0.934069275856018,0.0134249900924037,0.0407665279562138,0.0021689942630195,-0.1464328169822693,-0.1001614928245544,0.0207996368408203,88,110,15287,13503
22.2,1788442646765,5.070422649383545,5.436619758605957,-0.0033205300569534,-0.0003859738353639,-0.6721627116203308,0.7403959631919861,0.1684305246853878,-0.0049133202046357,-8.504388738655248e-05,0.029184129089117,0.0129772713407874,0.0179592575877904,-0.0010482212528586,-0.0026586940512061,0.3571609556674957,0.9340384602546692,0.007142234539392,0.0119140472215667,-0.0160813966884633,-0.03915536403656,-0.0992501974105835,0.0262670516967773,110,137,14993,13451
22.3,1788442646865,5.323943614959717,5.352112770080566,-0.0027615739963948,-6.252562161535025e-05,-0.6725928783416748,0.7400075197219849,0.1648827641431871,-0.0054110596645266,-2.0244662258461295e-05,-0.0037309324834495,0.0112001886591315,-0.0171212386339902,-0.0018539428710937,-0.0023813983425498,0.3546527326107025,0.9349932074546814,-0.020859100072438,-0.0002559163070506,-0.0801568664531193,-0.2786067724227905,0.0955236554145813,0.3176546096801758,93,134,15212,13023
22.4,1788442646965,5.154929637908936,4.647887229919434,-0.0031928673852235,0.0007234811782836,-0.6749355792999268,0.7378694415092468,0.1666452873201505,-0.0034855288283216,5.585035443856384e-05,-0.0139953047037124,-0.0036349417641758,-0.0438626408576965,-0.0019022775813937,-0.0028957342728972,0.3532454967498779,0.9355242252349854,0.0079737998179187,-0.0247762124921126,-0.0262890050531359,0.0337370038032531,-0.2251167893409729,0.3042640686035156,105,166,15364,15344
22.5,1788442647065,5.211267471313477,4.563380241394043,-0.0040933969430625,-1.6632722690701485e-05,-0.6761685013771057,0.7367355823516846,0.1601348663468821,-0.0022284232001322,0.0001038632539222,-0.0082188919186592,-0.0293633807450532,-0.0370760262012481,-0.001884326338768,-0.0039415629580616,0.3514700531959533,0.9361889958381652,-0.0114154121636015,-0.0139633522107139,-0.0480362533768113,0.2517001032829284,0.2477765083312988,0.0766553878784179,104,57,15459,15611
22.6,1788442647165,5.352112770080566,5.070422649383545,-0.0040517821907997,-0.0001564237754791,-0.6780784130096436,0.7349783778190613,0.1658491104221366,-0.0018133399419018,-3.987263459713213e-05,0.0061373761855065,0.0084323352202773,-0.0350774750113487,-0.0011478001251816,-0.0038108061999082,0.3497870862483978,0.9368208050727844,0.0311235892849488,-0.0205293300750643,-0.0114884504939262,-0.0110392570495605,-0.2772414684295654,-0.2760086059570312,101,80,15546,12741
22.7,1788442647265,5.267605781555176,4.422535419464111,-0.0033893641084432,-0.0001033913576975,-0.6788613796234131,0.734258770942688,0.159944385739677,-0.0070570366977469,-0.0001149910267638,0.0021273293532431,0.0290935933589935,-0.0321048237383365,-0.0025307089090347,-0.0023443335667252,0.3463572263717651,0.9380964040756226,-0.0325828526406577,0.0376801514794062,-0.0972403918989937,0.2652275562286377,-0.1038314700126648,-1.209123611450195,67,135,15180,16087
22.8,1788442647365,5.183098793029785,4.929577350616455,-0.0028345421887934,0.0017425967380404,-0.681509256362915,0.7318019866943359,0.163843328022839,-0.004355803929197,-3.9307624251835006e-05,-0.0104670878499746,0.0337226428091526,-0.0656767934560775,-0.0033175256103277,-0.0009825117886066,0.344746470451355,0.9386895298957824,0.0084225959068501,0.0018658590158374,-0.0068553141201597,0.2349482774734497,-0.0378466844558715,-0.2246932983398437,93,66,13939,15589
22.9,1788442647465,5.408450603485107,5.492957592010498,-0.0006323838606476,0.0041918810456991,-0.6814401149749756,0.7318617105484009,0.1612764392818676,-0.0045761773958612,-0.0002081228383943,0.0110625606030225,0.1344313472509384,0.0606487318873405,-0.0032773129642009,-0.0012273620814085,0.3451110422611236,0.9385554194450378,-0.0166059919003614,-0.0728533967894787,-0.0353190789706251,0.595748245716095,-0.6451225280761719,4.101054191589356,109,98,15090,12365
23.0,1788442647565,5.098591327667236,4.901408672332764,-0.0023774281144142,0.0032938318327069,-0.6833689212799072,0.7300620079040527,0.1648825249794236,-0.002264588933507,-5.801272250315205e-05,-0.0178484134376049,0.0001349398517049,-0.0669214203953743,-0.004235123284161,2.099480479955673e-05,0.3419153094291687,0.9397212862968444,0.0050943050015854,-0.0094918246788799,-0.0357394412143226,-0.2037380933761596,-0.2455008625984192,1.6731634140014648,98,161,15722,14418
23.1,1788442647665,5.154929637908936,4.732394218444824,-0.0018033048836514,0.0038922689855098,-0.6850429773330688,0.7284900546073914,0.1627257374653171,-0.0050806750242046,-1.2813025886450633e-05,0.0007873270660638,0.008344367146492,-0.0533173121511936,-0.0043066916987299,0.0002323854714632,0.3410912752151489,0.9400202631950378,0.0003900185672299,0.0144682231510634,-0.0559095817745047,-0.320209264755249,0.1979290246963501,0.8323497772216797,115,140,15596,13047
23.2,1788442647765,5.7183098793029785,4.647887229919434,-0.0020214796531945,0.0034346571192145,-0.6874781250953674,0.7261941432952881,0.1750187057855442,-0.0052076021886566,2.4935438554418804e-05,0.0015314725460484,-0.0116993365809321,-0.0829952880740165,-0.003783450461924,-0.0004431344568729,0.3343041241168976,0.9424576163291932,0.0008923733933891,-0.0001658830941422,-0.1712424911466807,-0.2822402715682983,0.201966106891632,-0.5279397964477539,121,59,15902,12565
23.3,1788442647865,5.88732385635376,4.14084529876709,-0.0021116146817803,0.0030648992396891,-0.6933706998825073,0.7205713987350464,0.1611498050932373,-0.0025916501537315,7.059113919677438e-05,0.0029989171307533,-0.0028599849902093,-0.1765266805887222,-0.003043352626264,-0.0011780755594372,0.3247991800308227,0.945777416229248,0.0243745016700013,0.0077758196376647,-0.1636457928416869,0.0488512516021728,0.0114485621452331,-0.4690113067626953,98,81,14990,14653
23.4,1788442647965,5.577464580535889,4.11267614364624,-0.0023891720920801,0.0006517336005344,-0.6996036171913147,0.7145268321037292,0.1648146451444141,-0.0039656070213266,0.0001217207277337,0.0493841804563999,-0.0450401678681373,-0.15131676197052,-0.0027470458298921,-0.0009688902646303,0.3175985813140869,0.9482207298278807,-0.0313268993054929,0.0581035557681897,-0.2145870980901581,-0.2015338540077209,-0.3309528827667236,-0.0917310714721679,60,138,14470,16968
23.5,1788442648065,5.126760482788086,5.267605781555176,-0.00204668357037,0.0019272677600383,-0.7048389315605164,0.7093617916107178,0.158320103112324,-0.006866296183422,3.4235237699104635e-05,0.0047503421083092,-0.0006320846150629,-0.1272141933441162,-0.0027676783502101,-0.0009327195584774,0.3141437768936157,0.9493709802627563,-0.0084936263353166,-0.0051568847644228,-0.0258514543054181,0.0018723011016845,0.0405495166778564,0.0213632583618164,117,128,15358,13541
23.6,1788442648165,5.239436626434326,4.901408672332764,-0.0020503916312009,0.0021587086375802,-0.7057015895843506,0.708503007888794,0.1703278797669988,-0.0089841000685166,-2.719814935115364e-05,-0.0041023804806172,0.0046225050464272,-0.0189341604709625,-0.0032084695994853,-0.001193887554109,0.3118419349193573,0.9501277804374696,-0.0210554358562823,-0.0264617879811651,-0.0547739666423527,0.046813428401947,-0.0612297654151916,0.9837579727172852,104,162,15107,14544
23.7,1788442648265,5.267605781555176,4.507042407989502,-0.0027644918300211,0.0022678105160593,-0.7076177000999451,0.706586480140686,0.1614014500409732,-0.0055253361876408,5.552711185296373e-05,-0.015456473454833,-0.0179614927619695,-0.0462648719549179,-0.0039385799318552,-0.0031304415315389,0.3094067275524139,0.9509165287017822,-0.0492931911489903,-0.0717645777558069,-0.0774608109846389,-0.0080803632736206,-0.1678972244262695,0.7571592330932617,91,88,14751,15733
23.8,1788442648365,5.577464580535889,5.098591327667236,-0.0035719804000109,0.0022198441438376,-0.7092799544334412,0.7049144506454468,0.1519162110851664,-0.0017922596080104,-2.5355106314702813e-05,0.0273964367806911,0.0420112572610378,-0.0247476380318403,-0.0033272905275225,-0.0019982503727078,0.3079825341701507,0.9513841271400452,-0.0008180795817015,0.0102065555360151,-0.0617469044431584,0.1789250373840332,0.4092507362365722,0.0716323852539062,153,113,16491,11434
23.9,1788442648465,5.6619720458984375,4.169013977050781,-0.0032796852756291,0.0022255643270909,-0.7128129601478577,0.7013429999351501,0.1589163538749266,-0.0132094820807748,1.6390524461150453e-05,-0.0033339823130518,0.0019460009643808,-0.1613926291465759,-0.0036381771788001,-0.0021450137719511,0.2988271415233612,0.95429790019989,-0.0091780457412227,0.0115297352144529,-0.1558800225850135,-0.0527513623237609,0.2464922070503235,0.1802806854248047,87,137,15821,14826
24.0,1788442648565,5.464788913726807,4.873239517211914,-0.0036557465791702,0.0022772082593292,-0.7185612916946411,0.6954503655433655,0.1566929681766943,-0.0093133000275829,-2.1144782621909888e-05,-0.0063632586970925,0.0023536954540759,-0.1563996821641922,-0.0037220437079668,-0.0022146236151456,0.2922313213348388,0.9563379287719728,-0.0093405091766043,0.0164681035679173,-0.1777999904146408,0.0883281826972961,0.0129937529563903,-0.260498046875,88,106,16488,12301
24.1,1788442648665,5.464788913726807,4.563380241394043,-0.0040231277234852,0.0022765977773815,-0.7238125801086426,0.6899811029434204,0.1571561176642066,-0.0075492444120205,2.5637991454159503e-05,-0.0127047933638095,-0.0144348796457052,-0.1592858433723449,-0.0041068410500884,-0.0025928020477294,0.2854769825935364,0.958373248577118,-0.0086659364366739,-0.0127107155640433,-0.1465017504260145,-0.3416285514831543,-0.1644816398620605,0.1621885299682617,81,35,16389,13564
24.2,1788442648765,4.647887229919434,4.873239517211914,-0.004608039278537,0.0023975300136953,-0.7294219732284546,0.684044361114502,0.1563334213656506,-0.002811923143905,-6.425358521602332e-06,-0.0038179121911525,-0.0019919762853533,-0.1345817744731903,-0.0039644408971071,-0.0033363420516252,0.279930055141449,0.9600064158439636,0.0090360940460469,-0.0410002675906474,-0.1109735627528356,0.1079851388931274,-0.0078092813491821,0.3736162185668945,54,179,12225,18977
24.3,1788442648865,4.394366264343262,5.943662166595459,-0.0045520411804318,0.0021323051769286,-0.7302331328392029,0.6831795573234558,0.1636228886284045,-0.0039945639269048,3.316043082867916e-05,-0.002887277631089,-0.0160855036228895,0.0661453902721405,-0.003810622729361,-0.0027194926515221,0.2850279510021209,0.958507776260376,0.0127409003965572,-0.0449015066276568,0.2154296472676043,-0.0219390988349914,-0.2271769046783447,-0.2022638320922851,95,167,13615,15106
24.4,1788442648965,4.676056385040283,5.6619720458984375,-0.0038992683403193,0.0022185295820236,-0.7230528593063354,0.6907781362533569,0.1680551387942391,-0.0004780995029236,-5.218859743400365e-05,0.0086671188473701,0.0094169713556766,0.1996536552906036,-0.0035474859178066,-0.0020427722483873,0.2940752506256103,0.9557734727859496,0.0045195556155945,0.0155994871756123,0.1670608566053436,0.0006195902824401,-0.0603260993957519,-0.0471887588500976,150,52,15641,13083
24.5,1788442649065,4.535211086273193,5.295774459838867,-0.001124158152379,0.0038597164675593,-0.7195752859115601,0.6944027543067932,0.1695634851332453,-0.0035087893920459,-0.0001490111942038,0.0242376029491424,0.1741096079349517,0.0532994717359542,-0.0034923199564218,-0.0006709657609462,0.2996498644351959,0.9540425539016724,-0.0175988515401464,-0.1668277496189682,0.1366874294050813,0.7209897637367249,0.0084176063537597,-2.4366774559021,116,73,13635,16901
24.6,1788442649165,4.394366264343262,5.014084339141846,-0.0016355486586689,0.0035700867883861,-0.7141442894935608,0.699987530708313,0.1546000359085638,0.0065960965599791,-5.431845045122106e-05,-0.0066027943976223,0.0147136459127068,0.1319188475608825,-0.0034428611397743,-0.0009890887886285,0.3048630952835083,0.9523894190788268,0.0062398541804856,-0.0797660372104429,0.1465314788143166,0.7025001645088196,0.4705126881599426,0.3904104232788086,109,150,14252,18094
24.7,1788442649265,5.126760482788086,5.436619758605957,-0.0026575727388262,0.0025700961705297,-0.7097250819206238,0.7044690251350403,0.1635448688141724,0.0034958012096534,4.803766574411013e-05,-0.0022781097795814,-0.0271761249750852,0.1412345916032791,-0.0033137239515781,-0.0012648859992623,0.3117419481277466,0.9501601457595824,0.0075049838187115,-0.0151042536528951,0.0583012580875312,0.6724806427955627,-0.2667440772056579,-0.0328359603881835,166,43,15239,12956
24.8,1788442649365,4.8450703620910645,5.323943614959717,-0.0025584928225725,0.002625768771395,-0.707611620426178,0.7065920233726501,0.1702778193198561,-0.0052899060302017,-3.1625246170380267e-05,-0.0032566809095442,0.0088781621307134,-0.0078974515199661,-0.0039490014314651,-0.0006809923797845,0.3142735064029693,0.9493240118026732,-0.0074751352057888,0.0293310946824062,0.1415585512072379,0.4627604484558105,-0.2195241451263427,0.1000089645385742,113,44,15514,13784
24.9,1788442649465,4.8450703620910645,5.6619720458984375,-0.0021499276626855,0.0034731850028038,-0.7051700949668884,0.7090263962745667,0.1649476300624964,-0.0015669415880886,-2.8785999148665093e-07,-0.0025317023973912,0.0235791075974702,0.0345211066305637,-0.004128897562623,-0.0004025055095553,0.3161436319351196,0.9487022757530212,0.0006045210587255,0.0064551916627064,0.0571523349891136,-0.2042358517646789,0.012251079082489,0.0300235748291015,114,116,14595,13886
25.0,1788442649565,4.676056385040283,5.492957592010498,-0.0020876105409115,0.0025980581995099,-0.703210711479187,0.7109737992286682,0.1701016077363749,-5.240631971327408e-05,2.177585920815399e-05,0.0302254669368267,-0.0191003158688545,0.0460261926054954,-0.0015294104814529,-0.0015699779614806,0.318762868642807,0.9478319883346558,0.0264824454425761,-0.0474757624925754,0.0702887859582159,0.4596123695373535,0.8761565685272217,-0.80450439453125,113,157,15310,13604
25.1,1788442649665,4.929577350616455,5.464788913726807,-0.0016646920703351,0.0015362338162958,-0.702227771282196,0.7119487524032593,0.1611822755601432,0.0034084342753604,-0.000206234744583,-0.0142903430387377,0.0421387441456317,-0.012752516195178,-0.003020972944796,-3.634672611951828e-05,0.3191936910152435,0.9476847648620604,-0.0076022709455985,0.049968761399767,0.0461758325436706,-0.0421756505966186,0.1411942243576049,-1.580430030822754,124,194,14293,14850
25.2,1788442649765,5.042253494262695,5.690140724182129,-0.0014696841826662,0.003057796973735,-0.7009052634239197,0.7132463455200195,0.1720025999757254,-0.0003256972391844,9.09188219176614e-05,-0.0120514379814267,0.0050747483037412,0.0545785464346408,-0.0032845437526702,-0.0001886989921331,0.3214249312877655,0.946929395198822,0.0041502681195263,-0.0286094166074314,0.053875456625674,0.8077828884124756,0.3379769921302795,0.0828590393066406,113,140,13983,13828
25.3,1788442649865,4.901408672332764,5.492957592010498,-0.0014134375378489,0.0031857022549957,-0.6992212533950806,0.7148967981338501,0.1734524057293623,-0.0015492021966346,-4.150085867103595e-05,-0.0015277076745405,0.0017842205706983,0.0611615739762783,-0.0035853302106261,0.000565311871469,0.3237339854240417,0.946141242980957,0.0035129648929714,0.03730169105314,0.0761950366757779,-0.0764951705932617,-0.212340772151947,0.4513483047485351,116,160,14305,14364
25.4,1788442649965,4.901408672332764,5.690140724182129,-0.0046906359493732,0.0026114850770682,-0.6969685554504395,0.7170816659927368,0.1731969009435523,-0.0007838542866619,0.0001921765205345,-0.0762330964207649,-0.101629689335823,0.0280693210661411,-0.0045131845399737,-0.0022595608606934,0.3264400959014892,0.9452044367790222,0.0167045357154425,0.0763349302082706,0.0815518770699044,-1.1603494882583618,-0.3247031569480896,0.0617036819458007,60,152,13653,13621
25.5,1788442650065,5.014084339141846,5.605633735656738,-0.0040473998524248,0.002748857717961,-0.694819986820221,0.7191669940948486,0.1587409209545201,-0.0037531855255799,0.0001252127531883,0.0080717764794826,-0.0083449305966496,0.0845437869429588,-0.004143132828176,-0.0018423618748784,0.3293834328651428,0.944185435771942,0.0152944551744997,0.0104225426156817,0.0629296617654667,-0.0448437929153442,-0.1998535990715026,0.1515846252441406,108,81,14130,13993
25.6,1788442650165,5.098591327667236,5.126760482788086,-0.0031248698942363,0.0028853563126176,-0.6927682161331177,0.7211477160453796,0.1700420535245278,-0.0012474724439762,-3.3631215021461783e-06,0.0107701178640127,0.0056076012551784,0.0584220774471759,-0.0038176551461219,-0.0017030900344252,0.3320361971855163,0.9432573914527892,0.0106501262903844,-0.005373704488611,0.0061561849100576,0.1059499382972717,-0.3724827766418457,-0.6320390701293945,100,42,16007,13106
25.7,1788442650265,5.464788913726807,5.126760482788086,-0.0034130914136767,0.0025660158134996,-0.6927358508110046,0.7211787700653076,0.1712380585227095,-0.0097732215498283,-1.0791413895580855e-06,0.004566797055304,-0.0177047718316316,-0.0513841249048709,-0.0037099793553352,-0.0019057486206293,0.329092800617218,0.944288432598114,-0.0175499845978831,-0.0044759863532923,-0.0668707578610611,0.2643501162528991,0.2256444692611694,-0.3636331558227539,112,136,14633,13452
25.8,1788442650365,5.183098793029785,5.295774459838867,-0.0031943917274475,0.0024958041030913,-0.6953845620155334,0.7186264395713806,0.1613726359620843,-0.0053764557141163,-6.959546141605865e-05,0.0014834544854238,0.0061088097281754,-0.06012799218297,-0.003663738258183,-0.0018037091940641,0.3274064064025879,0.9448748230934144,-0.0079544190582931,-0.020190692397255,-0.0621487400641571,0.0578686594963073,0.1893491148948669,0.7028331756591797,103,103,15404,12971
25.9,1788442650465,5.126760482788086,4.535211086273193,-0.0030189913231879,0.002425261773169,-0.6962190866470337,0.7178189158439636,0.1625312965475133,-0.00601730220504,3.8032665526119394e-05,0.0078674713149666,0.0034225988201797,-0.0523135587573051,-0.0032589640468358,-0.0019571920856833,0.3250158727169037,0.945701003074646,0.0125343219593704,0.0025608175052304,-0.0668971867938851,0.0406496524810791,-0.3781695961952209,-0.0556116104125976,119,94,15695,15773
26.0,1788442650565,5.267605781555176,5.464788913726807,-0.0028985692188143,0.0021109513472765,-0.6988804936408997,0.7152295708656311,0.1605975868991394,-0.0026235184337682,-4.290010602603418e-05,0.0073577598668634,0.0141068454831838,-0.0591128207743167,-0.0033653602004051,-0.0011837799102067,0.3224672079086303,0.9465739130973816,-0.0035116914171165,0.0374317618726553,-0.0583317361040463,-0.1152691841125488,0.0332936644554138,1.4239740371704102,124,143,14847,12472
26.1,1788442650665,5.323943614959717,4.619718074798584,-0.0019702927675098,0.0032802366185933,-0.6999000310897827,0.7142305374145508,0.1644013873640578,-0.0035537276018126,-0.0001662933882441,-0.0061522009782493,0.059528212994337,-0.0568085946142673,-0.0037504490464925,-0.0010945610702037,0.3183340728282928,0.9479705095291138,-0.0015851639321501,-0.008444491905994,-0.0620223698040371,0.0858927369117736,-0.0089868903160095,0.1614236831665039,124,143,14847,12472
26.2,1788442650765,5.323943614959717,4.619718074798584,-0.0019702927675098,0.0032802366185933,-0.6999000310897827,0.7142305374145508,0.1644013873640578,-0.0035537276018126,-0.0001662933882441,-0.0061522009782493,0.059528212994337,-0.0568085946142673,-0.0040081152692437,-0.0005396893247961,0.3172645270824432,0.94832843542099,0.0021573471362311,0.028299246919786,-0.037454417737683,0.0053756237030029,-0.1265572905540466,-0.6509857177734375,103,78,14469,15388
26.3,1788442650865,5.436619758605957,4.957746505737305,-0.0023726006038486,0.003254065522924,-0.7029749155044556,0.7112031579017639,0.1734515338501785,-0.0031711612888546,6.964626871654627e-07,0.0003953898558393,0.0150515045970678,-0.0312474593520164,-0.003203073516488,-0.0011297417804598,0.3154372274875641,0.9489403963088988,0.0080704740612812,-0.0056840757683112,-0.0459396154435327,-0.735698938369751,0.0417048335075378,1.6261539459228516,171,181,15989,16275
26.4,1788442650965,5.014084339141846,4.563380241394043,-0.0028984495438635,0.0023625490721315,-0.7054575681686401,0.7087423205375671,0.1617300332620727,-0.0035090301842282,0.0001585852117441,-0.0062330379150807,-0.0109318103641271,-0.0461895577609539,-0.0032983040437102,-0.0026512099429965,0.313447892665863,0.9495959877967834,-0.0083221668082192,-0.0580767577109119,-0.0228265483624957,0.5195351839065552,-0.0399747490882873,-0.1378841400146484,123,61,15049,15739
26.5,1788442651065,4.8450703620910645,5.098591327667236,-0.0037657641805708,0.0017887222347781,-0.7059432864189148,0.7082561254501343,0.1640360740275207,-0.0026039073423502,8.45373840435658e-05,-0.0082781380042433,-0.040020827203989,-0.0272166077047586,-0.0032139969989657,-0.0032255658879876,0.3144469261169433,0.9492641687393188,-0.0029886124257596,-0.0171446670252195,0.0654670321356013,-0.0499168038368225,0.2571119666099548,0.8898744583129883,93,181,14030,16098
26.6,1788442651165,4.985915660858154,5.408450603485107,-0.0047360761091113,0.0009947259677574,-0.7037359476089478,0.7104451060295105,0.1653043580002265,-0.0003190160866819,0.0001192893953989,-0.0007095669861882,-0.0244892444461584,0.0777205675840377,-0.0028173504397273,-0.0037497542798519,0.3174241483211517,0.9482721090316772,0.0130950761061388,-0.0137478785300331,0.0528088965942473,-0.0084825754165649,0.0954905152320861,-0.1218633651733398,114,134,13919,14735
26.7,1788442651265,4.732394218444824,5.239436626434326,-0.004754614084959,-0.000125405145809,-0.7018933892250061,0.712266206741333,0.1662411600825274,0.0003842491017271,3.7530797763885633e-05,0.0217982213944196,-0.02852632291615,0.0618559308350086,-0.0010225558653473,-0.0045322701334953,0.3204541504383087,0.9472525715827942,0.0412855834499383,-0.0258813658011959,0.0705536461162221,-0.3553136587142944,-0.14578378200531,-0.2991485595703125,110,142,14095,14538
26.8,1788442651365,2.507042169570923,3.6619718074798575,-0.00439074030146,-0.0012852316722273,-0.7005671262741089,0.7135717868804932,0.1639384718553531,0.0001269969485188,6.425898032440299e-05,0.0431697256863117,-0.0230657402426004,0.0741923600435257,-0.001458128914237,-0.0036385701969265,0.3225921988487243,0.9465299248695374,-0.0354646647197798,0.0879170778193726,0.0539252177692601,-1.1983084678649902,0.1971186995506286,-0.0565624237060546,4,18,5412,7158
26.9,1788442651465,1.5211267471313477,2.11267614364624,-0.00439074030146,-0.0012852316722273,-0.7005671262741089,0.7135717868804932,0.1639384718553531,0.0001269969485188,6.425898032440299e-05,0.0431697256863117,-0.0230657402426004,0.0741923600435257,-0.001582414843142,-0.0034505231305956,0.3244186639785766,0.9459059834480286,0.0043403180725653,0.0282411030080649,0.1107387399881141,-1.460668921470642,-0.2732343673706054,0.6470718383789062,15,32,0,4966
27.0,1788442651565,-1.042253494262695,1.0140844583511353,-0.0043175546452403,-0.0009696598863229,-0.6869463920593262,0.726694643497467,-0.0117361067294718,-0.0002072549327909,-2.0480719796514903e-06,0.0009618127369321,-0.0181314833462238,0.2121879905462265,-0.0010828524827957,-0.0043090777471661,0.3389545083045959,0.9407922625541688,0.0007769325012502,-0.0208931965746672,0.2163063653762598,0.7582730054855347,0.2736539244651794,-0.249394416809082,0,122,-4067,3556
27.1,1788442651665,0.0,0.0,-0.0041970508173108,-0.0008383787935599,-0.6789107322692871,0.7342082858085632,-0.0017101976477892,-0.0023167328172312,-1.3913723558954204e-07,0.000907473731786,-0.0074607864953577,0.2397440671920776,-0.0012340508401393,-0.0040171304717659,0.3502260446548462,0.9366557598114014,-0.0045375166349631,0.0216064994187076,0.1980813293478141,-0.1994467973709106,-0.1204758882522583,-0.0923986434936523,30,112,-3416,4255
27.2,1788442651765,0.0,0.0,-0.0043543418869376,-0.0009497584542259,-0.6736874580383301,0.7390028834342957,3.850975024835168e-05,-0.0028836437911208,-7.310756039363657e-07,0.0007666171295568,-0.0049505610950291,0.0756353661417961,-0.0011392459273338,-0.0042969901114702,0.3552245497703552,0.9347704648971558,-0.0008585395141867,0.003086275971519,-0.0105072167744043,-0.0415999293327331,-0.0088027715682983,-0.0306386947631835,0,0,0,0
27.3,1788442651865,-1.2394366264343262,1.0704225301742554,-0.0043543418869376,-0.0009497584542259,-0.6736874580383301,0.7390028834342957,0.0008039269234572,0.0004179058359059,1.1167208542193952e-06,0.0,0.0,0.0,-0.0012292172759771,-0.0042370874434709,0.3559767007827759,0.9344844818115234,-0.0048457481490687,0.0056791609222893,0.0331912517410636,-0.573783278465271,-0.0916998386383056,0.3634729385375976,0,0,0,0
27.4,1788442651965,1.211267590522766,1.380281686782837,-0.004245183430612,-0.000876932637766,-0.6696102619171143,0.7427000403404236,0.000309123956973,0.0026933856851659,-2.750381613095582e-06,-0.0003968437085859,-0.0027345046401023,0.0816725641489029,-0.0010874113067984,-0.0042180698364973,0.3605426251888275,0.9327325224876404,0.0062403366383445,-0.0018574293043581,0.1952900055283767,0.2436022758483886,0.3476756811141968,-0.0701780319213867,283,286,7817,6467
