time_s,timestamp_ms,wheel_vels__velocity_left,wheel_vels__velocity_right,odom__orient_x,odom__orient_y,odom__orient_z,odom__orient_w,odom__lin_x,odom__lin_y,odom__lin_z,odom__ang_x,odom__ang_y,odom__ang_z,imu__orient_x,imu__orient_y,imu__orient_z,imu__orient_w,imu__angvel_x,imu__angvel_y,imu__angvel_z,imu__acc_x,imu__acc_y,imu__acc_z,wheel_status__current_ma_left,wheel_status__current_ma_right,wheel_status__pwm_left,wheel_status__pwm_right
0.0,1788439345798,0.0,0.0,-0.0022398571018129,-0.0006542782066389,0.1077674999833107,0.9941734075546264,0.0,0.0,0.0,0.0,0.0,0.0,-0.0024780221283435,-0.0005521597340703,0.1077640950679779,0.994173228740692,0.0003279724717406,-0.0013032034197374,-0.0008473577923139,0.0154663324356079,0.0070432424545288,0.0093889236450195,0,0,0,0
0.1,1788439345898,0.0,0.0,-0.0022398571018129,-0.0006542782066389,0.1077674999833107,0.9941734075546264,0.0,0.0,0.0,0.0,0.0,0.0,-0.0024780221283435,-0.0005521597340703,0.1077640950679779,0.994173228740692,0.0003279724717406,-0.0013032034197374,-0.0008473577923139,0.0154663324356079,0.0070432424545288,0.0093889236450195,0,0,0,0
0.2,1788439345998,0.0,0.0,-0.0022398571018129,-0.0006542782066389,0.1077674999833107,0.9941734075546264,0.0,0.0,0.0,0.0,0.0,0.0,-0.0024780221283435,-0.0005521597340703,0.1077640950679779,0.994173228740692,0.0003279724717406,-0.0013032034197374,-0.0008473577923139,0.0154663324356079,0.0070432424545288,0.0093889236450195,0,0,0,0
0.3,1788439346098,0.0,0.0,-0.0022398571018129,-0.0006542782066389,0.1077674999833107,0.9941734075546264,0.0,0.0,0.0,0.0,0.0,0.0,-0.0024780221283435,-0.0005521597340703,0.1077640950679779,0.994173228740692,0.0003279724717406,-0.0013032034197374,-0.0008473577923139,0.0154663324356079,0.0070432424545288,0.0093889236450195,0,0,0,0
0.4,1788439346198,0.0,0.0,-0.0022398571018129,-0.0006542782066389,0.1077674999833107,0.9941734075546264,0.0,0.0,0.0,0.0,0.0,0.0,-0.0024780221283435,-0.0005521597340703,0.1077640950679779,0.994173228740692,0.0003279724717406,-0.0013032034197374,-0.0008473577923139,0.0154663324356079,0.0070432424545288,0.0093889236450195,0,0,0,0
0.5,1788439346298,0.0,0.0,-0.0022398571018129,-0.0006542782066389,0.1077674999833107,0.9941734075546264,0.0,0.0,0.0,0.0,0.0,0.0,-0.0024780221283435,-0.0005521597340703,0.1077640950679779,0.994173228740692,0.0003279724717406,-0.0013032034197374,-0.0008473577923139,0.0154663324356079,0.0070432424545288,0.0093889236450195,0,0,0,0
0.6,1788439346398,0.0,0.0,-0.0022398571018129,-0.0006542782066389,0.1077674999833107,0.9941734075546264,0.0,0.0,0.0,0.0,0.0,0.0,-0.0024780221283435,-0.0005521597340703,0.1077640950679779,0.994173228740692,0.0003279724717406,-0.0013032034197374,-0.0008473577923139,0.0154663324356079,0.0070432424545288,0.0093889236450195,0,0,0,0
0.7,1788439346498,0.0,0.0,-0.0022398571018129,-0.0006542782066389,0.1077674999833107,0.9941734075546264,0.0,0.0,0.0,0.0,0.0,0.0,-0.0024780221283435,-0.0005521597340703,0.1077640950679779,0.994173228740692,0.0003279724717406,-0.0013032034197374,-0.0008473577923139,0.0154663324356079,0.0070432424545288,0.0093889236450195,0,0,0,0
0.8,1788439346598,0.0,0.0,-0.0022398571018129,-0.0006542782066389,0.1077674999833107,0.9941734075546264,0.0,0.0,0.0,0.0,0.0,0.0,-0.0024780221283435,-0.0005521597340703,0.1077640950679779,0.994173228740692,0.0003279724717406,-0.0013032034197374,-0.0008473577923139,0.0154663324356079,0.0070432424545288,0.0093889236450195,0,0,0,0
0.9,1788439346698,0.0,0.0,-0.0022398571018129,-0.0006542782066389,0.1077674999833107,0.9941734075546264,0.0,0.0,0.0,0.0,0.0,0.0,-0.0024780221283435,-0.0005521597340703,0.1077640950679779,0.994173228740692,0.0003279724717406,-0.0013032034197374,-0.0008473577923139,0.0154663324356079,0.0070432424545288,0.0093889236450195,0,0,0,0
1.0,1788439346798,0.0,0.0,-0.0022398571018129,-0.0006542782066389,0.1077674999833107,0.9941734075546264,0.0,0.0,0.0,0.0,0.0,0.0,-0.0024780221283435,-0.0005521597340703,0.1077640950679779,0.994173228740692,0.0003279724717406,-0.0013032034197374,-0.0008473577923139,0.0154663324356079,0.0070432424545288,0.0093889236450195,0,0,0,0
1.1,1788439346898,0.0,0.0,-0.0022398571018129,-0.0006542782066389,0.1077674999833107,0.9941734075546264,0.0,0.0,0.0,0.0,0.0,0.0,-0.0024780221283435,-0.0005521597340703,0.1077640950679779,0.994173228740692,0.0003279724717406,-0.0013032034197374,-0.0008473577923139,0.0154663324356079,0.0070432424545288,0.0093889236450195,0,0,0,0
1.2,1788439346998,0.0,0.0,-0.0022398571018129,-0.0006542782066389,0.1077674999833107,0.9941734075546264,0.0,0.0,0.0,0.0,0.0,0.0,-0.0024780221283435,-0.0005521597340703,0.1077640950679779,0.994173228740692,0.0003279724717406,-0.0013032034197374,-0.0008473577923139,0.0154663324356079,0.0070432424545288,0.0093889236450195,0,0,0,0
1.3,1788439347098,0.0,0.0,-0.0022398571018129,-0.0006542782066389,0.1077674999833107,0.9941734075546264,0.0,0.0,0.0,0.0,0.0,0.0,-0.0024780221283435,-0.0005521597340703,0.1077640950679779,0.994173228740692,0.0003279724717406,-0.0013032034197374,-0.0008473577923139,0.0154663324356079,0.0070432424545288,0.0093889236450195,0,0,0,0
1.4,1788439347198,0.0,0.0,-0.0022398571018129,-0.0006542782066389,0.1077674999833107,0.9941734075546264,0.0,0.0,0.0,0.0,0.0,0.0,-0.0024780221283435,-0.0005521597340703,0.1077640950679779,0.994173228740692,0.0003279724717406,-0.0013032034197374,-0.0008473577923139,0.0154663324356079,0.0070432424545288,0.0093889236450195,0,0,0,0
1.5,1788439347298,0.0,0.0,-0.0022398571018129,-0.0006542782066389,0.1077674999833107,0.9941734075546264,0.0,0.0,0.0,0.0,0.0,0.0,-0.0024780221283435,-0.0005521597340703,0.1077640950679779,0.994173228740692,0.0003279724717406,-0.0013032034197374,-0.0008473577923139,0.0154663324356079,0.0070432424545288,0.0093889236450195,0,0,0,0
1.6,1788439347398,0.0,0.0,-0.0022398571018129,-0.0006542782066389,0.1077674999833107,0.9941734075546264,0.0,0.0,0.0,0.0,0.0,0.0,-0.0024780221283435,-0.0005521597340703,0.1077640950679779,0.994173228740692,0.0003279724717406,-0.0013032034197374,-0.0008473577923139,0.0154663324356079,0.0070432424545288,0.0093889236450195,0,0,0,0
1.7,1788439347498,0.0,0.0,-0.0022398571018129,-0.0006542782066389,0.1077674999833107,0.9941734075546264,0.0,0.0,0.0,0.0,0.0,0.0,-0.0024780221283435,-0.0005521597340703,0.1077640950679779,0.994173228740692,0.0003279724717406,-0.0013032034197374,-0.0008473577923139,0.0154663324356079,0.0070432424545288,0.0093889236450195,0,0,0,0
1.8,1788439347598,0.0,0.0,-0.0022398571018129,-0.0006542782066389,0.1077674999833107,0.9941734075546264,0.0,0.0,0.0,0.0,0.0,0.0,-0.0024780221283435,-0.0005521597340703,0.1077640950679779,0.994173228740692,0.0003279724717406,-0.0013032034197374,-0.0008473577923139,0.0154663324356079,0.0070432424545288,0.0093889236450195,0,0,0,0
1.9,1788439347698,0.0,0.0,-0.0022398571018129,-0.0006542782066389,0.1077674999833107,0.9941734075546264,0.0,0.0,0.0,0.0,0.0,0.0,-0.0024780221283435,-0.0005521597340703,0.1077640950679779,0.994173228740692,0.0003279724717406,-0.0013032034197374,-0.0008473577923139,0.0154663324356079,0.0070432424545288,0.0093889236450195,0,0,0,0
2.0,1788439347798,0.0,0.0,-0.0022398571018129,-0.0006542782066389,0.1077674999833107,0.9941734075546264,0.0,0.0,0.0,0.0,0.0,0.0,-0.0024780221283435,-0.0005521597340703,0.1077640950679779,0.994173228740692,0.0003279724717406,-0.0013032034197374,-0.0008473577923139,0.0154663324356079,0.0070432424545288,0.0093889236450195,0,0,0,0
2.1,1788439347898,0.0,0.0,-0.0022398571018129,-0.0006542782066389,0.1077674999833107,0.9941734075546264,0.0,0.0,0.0,0.0,0.0,0.0,-0.0024780221283435,-0.0005521597340703,0.1077640950679779,0.994173228740692,0.0003279724717406,-0.0013032034197374,-0.0008473577923139,0.0154663324356079,0.0070432424545288,0.0093889236450195,0,0,0,0
2.2,1788439347998,0.0,0.0,-0.0022398571018129,-0.0006542782066389,0.1077674999833107,0.9941734075546264,0.0,0.0,0.0,0.0,0.0,0.0,-0.0024780221283435,-0.0005521597340703,0.1077640950679779,0.994173228740692,0.0003279724717406,-0.0013032034197374,-0.0008473577923139,0.0154663324356079,0.0070432424545288,0.0093889236450195,0,0,0,0
2.3,1788439348098,0.0,0.0,-0.0022398571018129,-0.0006542782066389,0.1077674999833107,0.9941734075546264,0.0,0.0,0.0,0.0,0.0,0.0,-0.0024780221283435,-0.0005521597340703,0.1077640950679779,0.994173228740692,0.0003279724717406,-0.0013032034197374,-0.0008473577923139,0.0154663324356079,0.0070432424545288,0.0093889236450195,0,0,0,0
2.4,1788439348198,0.0,0.0,-0.0022398571018129,-0.0006542782066389,0.1077674999833107,0.9941734075546264,0.0,0.0,0.0,0.0,0.0,0.0,-0.0024780221283435,-0.0005521597340703,0.1077640950679779,0.994173228740692,0.0003279724717406,-0.0013032034197374,-0.0008473577923139,0.0154663324356079,0.0070432424545288,0.0093889236450195,0,0,0,0
2.5,1788439348298,0.0,0.0,-0.0022398571018129,-0.0006542782066389,0.1077674999833107,0.9941734075546264,0.0,0.0,0.0,0.0,0.0,0.0,-0.0024780221283435,-0.0005521597340703,0.1077640950679779,0.994173228740692,0.0003279724717406,-0.0013032034197374,-0.0008473577923139,0.0154663324356079,0.0070432424545288,0.0093889236450195,0,0,0,0
2.6,1788439348398,0.0,0.0,-0.0022398571018129,-0.0006542782066389,0.1077674999833107,0.9941734075546264,0.0,0.0,0.0,0.0,0.0,0.0,-0.0024780221283435,-0.0005521597340703,0.1077640950679779,0.994173228740692,0.0003279724717406,-0.0013032034197374,-0.0008473577923139,0.0154663324356079,0.0070432424545288,0.0093889236450195,0,0,0,0
2.7,1788439348498,0.0,0.0,-0.0022398571018129,-0.0006542782066389,0.1077674999833107,0.9941734075546264,0.0,0.0,0.0,0.0,0.0,0.0,-0.0024780221283435,-0.0005521597340703,0.1077640950679779,0.994173228740692,0.0003279724717406,-0.0013032034197374,-0.0008473577923139,0.0154663324356079,0.0070432424545288,0.0093889236450195,0,0,0,0
2.8,1788439348598,0.0,0.0,-0.0022398571018129,-0.0006542782066389,0.1077674999833107,0.9941734075546264,0.0,0.0,0.0,0.0,0.0,0.0,-0.0024780221283435,-0.0005521597340703,0.1077640950679779,0.994173228740692,0.0003279724717406,-0.0013032034197374,-0.0008473577923139,0.0154663324356079,0.0070432424545288,0.0093889236450195,0,0,0,0
2.9,1788439348698,0.0,0.0,-0.0022398571018129,-0.0006542782066389,0.1077674999833107,0.9941734075546264,0.0,0.0,0.0,0.0,0.0,0.0,-0.0024780221283435,-0.0005521597340703,0.1077640950679779,0.994173228740692,0.0003279724717406,-0.0013032034197374,-0.0008473577923139,0.0154663324356079,0.0070432424545288,0.0093889236450195,0,0,0,0
3.0,1788439348798,0.0,0.0,-0.0022398571018129,-0.0006542782066389,0.1077674999833107,0.9941734075546264,0.0,0.0,0.0,0.0,0.0,0.0,-0.0024780221283435,-0.0005521597340703,0.1077640950679779,0.994173228740692,0.0003279724717406,-0.0013032034197374,-0.0008473577923139,0.0154663324356079,0.0070432424545288,0.0093889236450195,0,0,0,0
3.1,1788439348898,0.0,0.0,-0.0022398571018129,-0.0006542782066389,0.1077674999833107,0.9941734075546264,0.0,0.0,0.0,0.0,0.0,0.0,-0.0024780221283435,-0.0005521597340703,0.1077640950679779,0.994173228740692,0.0003279724717406,-0.0013032034197374,-0.0008473577923139,0.0154663324356079,0.0070432424545288,0.0093889236450195,0,0,0,0
3.2,1788439348998,0.0,0.0,-0.0022398571018129,-0.0006542782066389,0.1077674999833107,0.9941734075546264,0.0,0.0,0.0,0.0,0.0,0.0,-0.0024780221283435,-0.0005521597340703,0.1077640950679779,0.994173228740692,0.0003279724717406,-0.0013032034197374,-0.0008473577923139,0.0154663324356079,0.0070432424545288,0.0093889236450195,0,0,0,0
3.3,1788439349098,0.0,0.0,-0.0022398571018129,-0.0006542782066389,0.1077674999833107,0.9941734075546264,0.0,0.0,0.0,0.0,0.0,0.0,-0.0024780221283435,-0.0005521597340703,0.1077640950679779,0.994173228740692,0.0003279724717406,-0.0013032034197374,-0.0008473577923139,0.0154663324356079,0.0070432424545288,0.0093889236450195,0,0,0,0
3.4,1788439349198,0.0,0.0,-0.0022398571018129,-0.0006542782066389,0.1077674999833107,0.9941734075546264,0.0,0.0,0.0,0.0,0.0,0.0,-0.002464042045176,-0.00055090803653,0.1077817007899284,0.9941714406013488,0.0008550818155793,-0.0014922024245262,0.0008126960385457,0.0010393261909484,0.0083774328231811,0.0239896774291992,0,0,0,0
3.5,1788439349298,0.0,0.0,-0.0022398571018129,-0.0006542782066389,0.1077674999833107,0.9941734075546264,0.0,0.0,0.0,0.0,0.0,0.0,-0.0024041794240474,-0.0005998257547616,0.1078104376792907,0.9941684007644652,0.0018987198255528,-0.0001850148129944,0.0011071559689583,-0.0039989352226257,-0.0038157701492309,-0.0195283889770507,0,0,0,0
3.6,1788439349398,0.0,0.0,-0.0022398571018129,-0.0006542782066389,0.1077674999833107,0.9941734075546264,0.0,0.0,0.0,0.0,0.0,0.0,-0.0024031503126025,-0.0005687233060598,0.1077668741345405,0.9941731691360474,-0.0004278525550197,0.001810353427667,-0.0009732887442656,-0.0163357853889465,-0.044488251209259,0.0126638412475585,0,0,0,0
3.7,1788439349498,0.0,0.0,-0.0022398571018129,-0.0006542782066389,0.1077674999833107,0.9941734075546264,0.0,0.0,0.0,0.0,0.0,0.0,-0.0024012569338083,-0.0005727801471948,0.1077764332294464,0.9941720366477966,-0.0004183107941964,0.0017521609749821,-0.0017417137249655,0.0179082751274108,0.0164380073547363,-0.0283212661743164,0,0,0,0
3.8,1788439349598,0.0,0.0,-0.0022398571018129,-0.0006542782066389,0.1077674999833107,0.9941734075546264,0.0,0.0,0.0,0.0,0.0,0.0,-0.0023587783798575,-0.000599886290729,0.1077833548188209,0.9941714406013488,0.0013282517774952,-0.0015664700954869,0.0016364117060456,-0.0055505037307739,0.0103580951690673,0.0062007904052734,0,0,0,0
3.9,1788439349698,0.0,0.0,-0.0022398571018129,-0.0006542782066389,0.1077674999833107,0.9941734075546264,0.0,0.0,0.0,0.0,0.0,0.0,-0.0024101249873638,-0.0005949884653091,0.1077529415488243,0.994174599647522,-0.001517054376353,0.0010273583242598,-0.0007369546128025,7.200241088867188e-05,-0.0689836740493774,0.0367355346679687,0,0,0,0
4.0,1788439349798,0.0,0.0,-0.0022398571018129,-0.0006542782066389,0.1077674999833107,0.9941734075546264,0.0,0.0,0.0,0.0,0.0,0.0,-0.00239775236696,-0.0006165318191051,0.1077683717012405,0.994172990322113,-0.0002884845365003,-0.0002810246285965,-0.0005744567819259,-0.0127367377281188,-0.0228133797645568,0.0259714126586914,0,0,0,0
4.1,1788439349898,0.0,0.0,-0.0022398571018129,-0.0006542782066389,0.1077674999833107,0.9941734075546264,0.0,0.0,0.0,0.0,0.0,0.0,-0.0024268040433526,-0.0006085354834794,0.1077653467655181,0.994173228740692,-0.0005881172225947,0.0002837822968167,-3.440490480967442e-05,0.0093478560447692,0.0322569608688354,-0.0079507827758789,0,0,0,0
4.2,1788439349998,0.0,0.0,-0.0022398571018129,-0.0006542782066389,0.1077674999833107,0.9941734075546264,0.0,0.0,0.0,0.0,0.0,0.0,-0.0024228477850556,-0.0006265705451369,0.1077882274985313,0.9941707849502563,0.0006239348990331,0.0009145094397369,0.0007516459374689,-0.0123140811920166,-0.0114854574203491,0.0011110305786132,0,0,0,0
4.3,1788439350098,0.0,0.0,-0.0022398571018129,-0.0006542782066389,0.1077674999833107,0.9941734075546264,0.0,0.0,0.0,0.0,0.0,0.0,-0.0024158712476491,-0.0006706314161419,0.1077810525894165,0.9941715002059937,-0.0001954999170205,0.0002435921065873,-0.0012036407913286,-0.0034700036048889,-0.0019910335540771,0.0231275558471679,0,0,0,0
4.4,1788439350198,0.0,0.0,-0.0022398571018129,-0.0006542782066389,0.1077674999833107,0.9941734075546264,0.0,0.0,0.0,0.0,0.0,0.0,-0.0024158712476491,-0.0006706314161419,0.1077810525894165,0.9941715002059937,-0.0001954999170205,0.0002435921065873,-0.0012036407913286,-0.0034700036048889,-0.0019910335540771,0.0231275558471679,0,0,0,0
4.5,1788439350298,0.0,0.0,-0.0022398571018129,-0.0006542782066389,0.1077674999833107,0.9941734075546264,0.0,0.0,0.0,0.0,0.0,0.0,-0.0023889439180493,-0.0006690360605716,0.1077934578061103,0.9941701889038086,0.0003269654148807,-0.0002615527029905,0.0009208667432266,0.0045409798622131,-0.0036640763282775,-0.0123329162597656,0,0,0,0
4.6,1788439350398,0.0,0.0,-0.0022398571018129,-0.0006542782066389,0.1077674999833107,0.9941734075546264,0.0,0.0,0.0,0.0,0.0,0.0,-0.002341947518289,-0.0006624879315495,0.1077876910567283,0.9941709637641908,0.0018606428743754,-3.7764249078995866e-05,0.0017646112573408,0.0079271793365478,-0.0100995898246765,0.0073146820068359,0,0,0,0
4.7,1788439350498,0.0,0.0,-0.0022398571018129,-0.0006542782066389,0.1077674999833107,0.9941734075546264,0.0,0.0,0.0,0.0,0.0,0.0,-0.0023289816454052,-0.0006782338023185,0.1078027486801147,0.9941693544387816,0.0004479751941472,-0.0006835486018453,0.0006038088346541,-0.0015637874603271,0.0092261433601379,0.00555419921875,0,0,0,0
4.8,1788439350598,0.0,0.0,-0.0022398571018129,-0.0006542782066389,0.1077674999833107,0.9941734075546264,0.0,0.0,0.0,0.0,0.0,0.0,-0.0022494820877909,-0.0006675347685813,0.1078154668211937,0.9941681027412416,0.0020109615708178,-0.0002364184076036,0.0006095257977031,-0.0021026730537414,-0.0198327302932739,0.0058422088623046,0,0,0,0
4.9,1788439350698,0.0,0.0,-0.0022398571018129,-0.0006542782066389,0.1077674999833107,0.9941734075546264,0.0,0.0,0.0,0.0,0.0,0.0,-0.0022494820877909,-0.0006675347685813,0.1078154668211937,0.9941681027412416,0.0020109615708178,-0.0002364184076036,0.0006095257977031,-0.0021026730537414,-0.0198327302932739,0.0058422088623046,0,0,0,0
5.0,1788439350798,0.0,0.0,-0.0022398571018129,-0.0006542782066389,0.1077674999833107,0.9941734075546264,0.0,0.0,0.0,0.0,0.0,0.0,-0.0022204350680112,-0.0006639650091528,0.1078087463974952,0.9941688776016236,0.0004591727243563,-0.0002106096276169,3.30892022972994e-05,-0.0243505239486694,0.0098019838333129,-0.0251350402832031,0,0,0,0
5.1,1788439350898,0.0,0.0,-0.0022398571018129,-0.0006542782066389,0.1077674999833107,0.9941734075546264,0.0,0.0,0.0,0.0,0.0,0.0,-0.0021957429125905,-0.0007173577323555,0.1078574284911155,0.9941636323928832,0.0005356856728697,-0.0014056060041859,-0.0005520780953012,-0.0145785212516784,-0.0114855170249938,0.0191869735717773,0,0,0,0
5.2,1788439350998,0.0,0.0,-0.0022398571018129,-0.0006542782066389,0.1077674999833107,0.9941734075546264,0.0,0.0,0.0,0.0,0.0,0.0,-0.0021424246951937,-0.0006359703838825,0.1078165397047996,0.9941682815551758,-0.0001377110321676,0.0001728530255985,-0.0008501343397505,-0.0182955861091613,-0.0183641910552978,0.003981590270996,0,0,0,0
5.3,1788439351098,0.0,0.0,-0.0022398571018129,-0.0006542782066389,0.1077674999833107,0.9941734075546264,0.0,0.0,0.0,0.0,0.0,0.0,-0.0021694079041481,-0.0005948552861809,0.1078302562236785,0.9941667914390564,-0.0008476420563469,0.0012616086705615,0.0010659162749388,-0.0175573825836181,-0.01121187210083,-0.0178375244140625,0,0,0,0
5.4,1788439351198,0.0,0.0,-0.0022398571018129,-0.0006542782066389,0.1077674999833107,0.9941734075546264,0.0,0.0,0.0,0.0,0.0,0.0,-0.0021916702389717,-0.0006355065852403,0.1078177243471145,0.9941680431365968,-0.0005726801817378,0.0003913720171852,-6.905100051294428e-06,-0.0006693601608276,-0.0150789022445678,-0.0036439895629882,0,0,0,0
5.5,1788439351298,0.0,0.0,-0.0022398571018129,-0.0006542782066389,0.1077674999833107,0.9941734075546264,0.0,0.0,0.0,0.0,0.0,0.0,-0.0021903160959482,-0.0006178775802254,0.1078080236911773,0.9941691160202026,0.0007226047281418,0.000831015261348,-0.0008513694431131,-0.0038702487945556,0.0016278028488159,-0.0125370025634765,0,0,0,0
5.6,1788439351398,0.0,0.0,-0.0022398571018129,-0.0006542782066389,0.1077674999833107,0.9941734075546264,0.0,0.0,0.0,0.0,0.0,0.0,-0.0022122673690319,-0.000658044591546,0.1078440099954605,0.9941651225090028,0.0005342354970363,-0.0005086607896331,0.0009289534893428,-0.0202662348747253,0.0095511078834533,-0.0063734054565429,0,0,0,0
5.7,1788439351498,0.0,0.0,-0.0022398571018129,-0.0006542782066389,0.1077674999833107,0.9941734075546264,0.0,0.0,0.0,0.0,0.0,0.0,-0.0022149281576275,-0.0006533619016408,0.1078310906887054,0.9941664934158324,0.000477021208591,0.0007244023954406,-0.000317019439665,-0.0201098322868347,0.000849425792694,0.0009279251098632,0,0,0,0
5.8,1788439351598,0.0,0.0,-0.0022398571018129,-0.0006542782066389,0.1077674999833107,0.9941734075546264,0.0,0.0,0.0,0.0,0.0,0.0,-0.0022237570956349,-0.0006572287529706,0.1078438758850097,0.9941651225090028,-0.0005799653018729,0.0019937094954444,-0.0008432124711661,-0.0198416113853454,-0.0600110292434692,-0.0133142471313476,0,0,0,0
5.9,1788439351698,0.0,0.0,-0.0022398571018129,-0.0006542782066389,0.1077674999833107,0.9941734075546264,0.0,0.0,0.0,0.0,0.0,0.0,-0.0022186022251844,-0.0006580092012882,0.1078914403915405,0.9941600561141968,-0.0008131518979474,-0.0011519695270898,0.0009202097820741,-0.0034111738204956,0.0049422979354858,0.0038356781005859,0,0,0,0
6.0,1788439351798,0.0,0.0,-0.0022398571018129,-0.0006542782066389,0.1077674999833107,0.9941734075546264,0.0,0.0,0.0,0.0,0.0,0.0,-0.0022395122796297,-0.0005998536944389,0.1078578531742096,0.9941636323928832,-0.0004929263054443,0.0011627107822289,-0.0003176407114087,0.0300226211547851,0.0017765164375305,0.036778450012207,0,0,0,0
6.1,1788439351898,0.0,0.0,-0.0022398571018129,-0.0006542782066389,0.1077674999833107,0.9941734075546264,0.0,0.0,0.0,0.0,0.0,0.0,-0.002265696413815,-0.0005692271515727,0.1078502759337425,0.9941644072532654,-0.0011964330655499,-0.0003395003197835,-0.000567951463533,0.0160273313522338,0.016863465309143,-0.0046977996826171,0,0,0,0
6.2,1788439351998,0.0,0.0,-0.0022398571018129,-0.0006542782066389,0.1077674999833107,0.9941734075546264,0.0,0.0,0.0,0.0,0.0,0.0,-0.0022747972980141,-0.000562259927392,0.1078829765319824,0.9941608309745787,-0.0009994450637336,0.0005394069520459,-7.065663942522471e-06,0.0285282731056213,0.001480221748352,0.0048236846923828,0,0,0,0
6.3,1788439352098,0.0,0.0,-0.0022398571018129,-0.0006542782066389,0.1077674999833107,0.9941734075546264,0.0,0.0,0.0,0.0,0.0,0.0,-0.0022817617282271,-0.0005176570266485,0.1078767254948616,0.9941615462303162,0.000396517732657,0.0012288049048834,0.0009324869753492,-0.0067030787467956,-0.0157601833343505,0.003976821899414,0,0,0,0
6.4,1788439352198,0.0,0.0,-0.0022398571018129,-0.0006542782066389,0.1077674999833107,0.9941734075546264,0.0,0.0,0.0,0.0,0.0,0.0,-0.0023019248619675,-0.000518599525094,0.1078982353210449,0.9941591620445251,0.0006564695715711,-0.0001554967904591,0.0017559053546236,0.0023878216743469,-0.0292263627052307,0.0187044143676757,0,0,0,0
6.5,1788439352298,0.0,0.0,-0.0022398571018129,-0.0006542782066389,0.1077674999833107,0.9941734075546264,0.0,0.0,0.0,0.0,0.0,0.0,-0.0023154076188802,-0.0005394034087657,0.1078918427228927,0.9941598773002625,-0.0014994397370587,0.0001999808788962,-0.0008146057400715,0.0393813252449035,0.0014081001281738,0.0123481750488281,0,0,0,0
6.6,1788439352398,0.0,0.0,-0.0022398571018129,-0.0006542782066389,0.1077674999833107,0.9941734075546264,0.0,0.0,0.0,0.0,0.0,0.0,-0.0023439079523086,-0.0005492400377988,0.1079200431704521,0.9941566586494446,-0.000342595931232,-0.0001129506686098,0.0003935965971153,-0.0242055058479309,0.0411589741706848,0.0163002014160156,0,0,0,0
6.7,1788439352498,0.0,0.0,-0.0022398571018129,-0.0006542782066389,0.1077674999833107,0.9941734075546264,0.0,0.0,0.0,0.0,0.0,0.0,-0.0023653963580727,-0.0005302485078573,0.1078803762793541,0.9941609501838684,0.0006508954932976,0.0001101035215165,-0.0001415418794202,0.008573293685913,0.0103164315223693,-0.0087385177612304,0,0,0,0
6.8,1788439352598,0.0,0.0,-0.0022398571018129,-0.0006542782066389,0.1077674999833107,0.9941734075546264,0.0,0.0,0.0,0.0,0.0,0.0,-0.0023653963580727,-0.0005302485078573,0.1078803762793541,0.9941609501838684,0.0006508954932976,0.0001101035215165,-0.0001415418794202,0.008573293685913,0.0103164315223693,-0.0087385177612304,0,0,0,0
6.9,1788439352698,0.0,0.0,-0.0022398571018129,-0.0006542782066389,0.1077674999833107,0.9941734075546264,0.0,0.0,0.0,0.0,0.0,0.0,-0.0023693274706602,-0.0005919653922319,0.1078876033425331,0.9941601157188416,-0.0003677470032293,-0.0012244429767378,3.0340020985061427e-05,-0.0058645606040954,-0.0110458135604858,-0.0044937133789062,0,0,0,0
7.0,1788439352798,0.0,0.0,-0.0022398571018129,-0.0006542782066389,0.1077674999833107,0.9941734075546264,0.0,0.0,0.0,0.0,0.0,0.0,-0.0023693274706602,-0.0005919653922319,0.1078876033425331,0.9941601157188416,-0.0003677470032293,-0.0012244429767378,3.0340020985061427e-05,-0.0058645606040954,-0.0110458135604858,-0.0044937133789062,0,0,0,0
7.1,1788439352898,0.0,0.0,-0.0022398571018129,-0.0006542782066389,0.1077674999833107,0.9941734075546264,0.0,0.0,0.0,0.0,0.0,0.0,-0.0023693274706602,-0.0005919653922319,0.1078876033425331,0.9941601157188416,-0.0003677470032293,-0.0012244429767378,3.0340020985061427e-05,-0.0058645606040954,-0.0110458135604858,-0.0044937133789062,0,0,0,0
7.2,1788439352998,0.0,0.0,-0.0022398571018129,-0.0006542782066389,0.1077674999833107,0.9941734075546264,0.0,0.0,0.0,0.0,0.0,0.0,-0.0023693274706602,-0.0005919653922319,0.1078876033425331,0.9941601157188416,-0.0003677470032293,-0.0012244429767378,3.0340020985061427e-05,-0.0058645606040954,-0.0110458135604858,-0.0044937133789062,0,0,0,0
7.3,1788439353098,0.0,0.0,-0.0022398571018129,-0.0006542782066389,0.1077674999833107,0.9941734075546264,0.0,0.0,0.0,0.0,0.0,0.0,-0.0023848982527852,-0.0005881721153855,0.1079275384545326,0.9941557049751282,0.0001606411955588,0.0001520602489398,0.0003267072257528,-0.0048933625221252,-0.0022490620613098,0.0195636749267578,0,0,0,0
7.4,1788439353198,0.0,0.0,-0.0022398571018129,-0.0006542782066389,0.1077674999833107,0.9941734075546264,0.0,0.0,0.0,0.0,0.0,0.0,-0.0023987153545022,-0.000570491887629,0.1079257726669311,0.9941558241844176,0.0005027564670769,0.0014953017252546,0.0004003142033476,0.0030112266540527,0.0118704438209533,0.0238704681396484,0,0,0,0
7.5,1788439353298,0.0,0.0,-0.0022398571018129,-0.0006542782066389,0.1077674999833107,0.9941734075546264,0.0,0.0,0.0,0.0,0.0,0.0,-0.0023535229265689,-0.0005894312635064,0.1079234108328819,0.994156301021576,0.0006055129692637,-0.0018932248248121,-0.000148592243533,-0.0169503688812255,0.0144083499908447,0.0150794982910156,0,0,0,0
7.6,1788439353398,0.0,0.0,-0.0022398571018129,-0.0006542782066389,0.1077674999833107,0.9941734075546264,0.0,0.0,0.0,0.0,0.0,0.0,-0.0023494493216276,-0.0006057256832718,0.1078996136784553,0.9941588044166564,-8.548374439668696e-05,0.0008059902991085,-0.0012084987680779,0.0332158803939819,-0.0195840001106262,-0.0120344161987304,0,0,0,0
7.7,1788439353498,0.0,0.0,-0.0022398571018129,-0.0006542782066389,0.1077674999833107,0.9941734075546264,0.0,0.0,0.0,0.0,0.0,0.0,-0.0023391162976622,-0.0005811648443341,0.1079002246260643,0.9941588044166564,0.0008268305893991,0.0014908026412718,4.1967985953455936e-05,0.0102548003196716,-0.0394229888916015,0.0273056030273437,0,0,0,0
7.8,1788439353598,0.0,0.0,-0.0022398571018129,-0.0006542782066389,0.1077674999833107,0.9941734075546264,0.0,0.0,0.0,0.0,0.0,0.0,-0.0023342762142419,-0.0005409158766269,0.1079190075397491,0.9941568374633788,0.0014467321500631,0.0004146237018924,0.0007531121646328,-0.023135483264923,-0.0220369696617126,-0.0076618194580078,0,0,735,1035
7.9,1788439353698,1.183098554611206,2.2253520488739014,-0.0022398571018129,-0.0006542782066389,0.1077674999833107,0.9941734075546264,0.0,0.0,0.0,0.0,0.0,0.0,-0.0022690137848258,-0.0009974725544452,0.1090453490614891,0.9940337538719176,0.0064597628653909,-0.0356467412668567,0.0954908301343066,2.247252941131592,0.0122005939483642,-0.108743667602539,328,244,10604,11706
8.0,1788439353798,4.309859275817871,6.394366264343262,-0.002240706468001,-0.0006130724214017,0.1127237677574157,0.993623673915863,0.0826692544916584,0.0046207138803145,-2.394742739618225e-05,0.0016759340651333,0.0084960656240582,0.1318556517362594,-0.0011794408783316,-0.0008332058787345,0.1221548393368721,0.9925100803375244,0.0119868450993727,-0.0200870504272254,0.2462238540363254,1.1454758644104004,0.275833249092102,0.0291805267333984,176,207,12695,15687
8.1,1788439353898,4.957746505737305,5.577464580535889,-0.0018627111567184,-0.0001429027033736,0.1289143711328506,0.9916539788246156,0.1890408435230516,0.0065656183900163,7.233691386043913e-06,-0.013214492239058,0.0097683081403374,0.2482630610466003,-0.0019062059000134,-0.0002491632476449,0.1318191587924957,0.99127197265625,-0.0030870647451194,0.0125435573363838,0.2836484923286311,0.2228477001190185,0.1134519577026367,-1.1024417877197266,197,293,13863,18114
8.2,1788439353998,4.704225540161133,5.605633735656738,-0.0018627111567184,-0.0001429027033736,0.1289143711328506,0.9916539788246156,0.1890408435230516,0.0065656183900163,7.233691386043913e-06,-0.013214492239058,0.0097683081403374,0.2482630610466003,-0.0018606958910822,-0.0007195370271801,0.1342623978853225,0.9909438490867616,-0.0018026683315884,-0.0475461385886254,0.2456515306810746,-0.8289584517478943,0.0228849053382873,0.9901132583618164,73,25,11861,14139
8.3,1788439354098,4.704225540161133,5.605633735656738,-0.0018579751485958,-0.0006153925787657,0.1332116425037384,0.9910857081413268,0.1971772816740425,0.0051710990851705,4.50498862311174e-05,-0.0034417882561683,-0.0289905983954668,0.2632598578929901,-0.0018606958910822,-0.0007195370271801,0.1342623978853225,0.9909438490867616,-0.0018026683315884,-0.0475461385886254,0.2456515306810746,-0.8289584517478943,0.0228849053382873,0.9901132583618164,73,25,11861,14139
8.4,1788439354198,4.704225540161133,5.605633735656738,-0.0018579751485958,-0.0006153925787657,0.1332116425037384,0.9910857081413268,0.1971772816740425,0.0051710990851705,4.50498862311174e-05,-0.0034417882561683,-0.0289905983954668,0.2632598578929901,-0.0018606958910822,-0.0007195370271801,0.1342623978853225,0.9909438490867616,-0.0018026683315884,-0.0475461385886254,0.2456515306810746,-0.8289584517478943,0.0228849053382873,0.9901132583618164,73,25,11861,14139
8.5,1788439354298,0.5352112650871277,0.6760563254356384,-0.0018579751485958,-0.0006153925787657,0.1332116425037384,0.9910857081413268,0.1971772816740425,0.0051710990851705,4.50498862311174e-05,-0.0034417882561683,-0.0289905983954668,0.2632598578929901,-0.0024192733690142,-0.0012185322120785,0.1543833464384079,0.9880073666572572,-0.001549990087231,-0.008760510009915,0.0055527665332767,0.4513644576072693,-0.0210186839103698,-0.1848297119140625,220,284,10110,12131
8.6,1788439354398,2.985915422439575,4.02816915512085,-0.0022834474220871,-0.0022769188508391,0.1557401716709137,0.9877927899360656,0.0693987469904987,0.0005168954020451,4.054081319878326e-05,-0.0013663930585607,-0.0530115813016891,0.0761754438281059,-0.0022991793230175,-0.0015015304088592,0.1613762229681015,0.9868891835212708,0.0012577981066653,-0.0516809266060983,0.1307922258546126,-1.3444814682006836,-0.1705662012100219,2.319634437561035,7,91,4481,3468
8.7,1788439354498,0.4507042169570923,0.9295774698257446,-0.0022923478391021,-0.0013618902303278,0.1619950979948043,0.986787974834442,0.1380030504508012,0.0016279432857837,3.9194582924012646e-05,0.0022447013761848,-0.0130554512143135,0.1137852594256401,-0.0023686354979872,-0.0014142487198114,0.1638215035200119,0.9864861965179444,-0.0066241512567174,0.0131060415699004,0.0135142782806616,-0.765805184841156,-0.1708238124847412,0.8547554016113281,28,1,0,0
8.8,1788439354598,0.0,0.0,-0.0022866860963404,-0.0016690692864358,0.1637828946113586,0.9864923357963562,0.0048992912075418,-0.0001137114266358,2.5245299716558365e-07,-0.0029546625446528,-0.003464562119916,0.0164176765829324,-0.0023126192390918,-0.0015848847106099,0.1630835533142089,0.9866083264350892,0.0014490372212825,0.0033287312733741,-0.0171541481733538,0.0864897966384887,0.0144975185394287,0.1812677383422851,0,0,0,0
8.9,1788439354698,0.0,0.0,-0.0023268503136932,-0.0015852199867367,0.162938043475151,0.986632227897644,-0.0002717767556345,-0.0005180280377187,-7.883610326780213e-09,-0.0003477626596577,0.0014214346883818,-0.0008953613578341,-0.0023111319169402,-0.0016021560877561,0.1630738377571106,0.9866098761558532,0.0001447947553166,-0.0012583256815366,0.0034076537745879,0.005603015422821,-0.0007928013801574,-0.0326318740844726,0,0,0,0
9.0,1788439354798,0.0,0.0,-0.0022916907910257,-0.00166171498131,0.162905067205429,0.9866377115249634,-0.0001123076597403,0.0001304828463488,1.3100928266567438e-10,7.91838247096166e-05,-0.0021587568335235,-0.0013026635861024,-0.0023111319169402,-0.0016021560877561,0.1630738377571106,0.9866098761558532,0.0001447947553166,-0.0012583256815366,0.0034076537745879,0.005603015422821,-0.0007928013801574,-0.0326318740844726,0,0,0,0
9.1,1788439354898,0.0,0.0,-0.0022767886985093,-0.0016728667542338,0.1629029661417007,0.986638069152832,-7.2843316249195324e-06,8.477980233491638e-06,-1.3485689185553743e-10,0.0005042410921305,-0.0005254313000477,-8.514812361681834e-05,-0.0023006536066532,-0.0017163818702101,0.163009911775589,0.986620306968689,-0.0007928116572362,-0.0001069798557886,-0.0011483622124573,0.0032691359519958,0.006281554698944,0.0356531143188476,0,0,0,0
9.2,1788439354998,0.0,0.0,-0.0023009427823126,-0.0017159935086965,0.1628432869911193,0.9866477251052856,-0.0001534926482258,0.0001782886095527,1.8193744483450394e-10,-0.0009893466485664,0.0003548493259586,-0.0017635148251429,-0.0023006536066532,-0.0017163818702101,0.163009911775589,0.986620306968689,-0.0007928116572362,-0.0001069798557886,-0.0011483622124573,0.0032691359519958,0.006281554698944,0.0356531143188476,0,0,0,0
9.3,1788439355098,0.0,0.0,-0.0022700040135532,-0.0016721077263355,0.1628507077693939,0.9866467118263244,-4.055985748002293e-05,4.710781919025291e-05,-6.299580520510705e-11,0.0008294161525554,0.0009916421258822,-0.0004625728470273,-0.0022860504686832,-0.0017001228407025,0.1630287170410156,0.9866172075271606,-0.0002062536097708,-0.0003667273732889,3.505049609596125e-05,0.0106920003890991,-0.0246782302856445,0.0588893890380859,0,0,0,0
9.4,1788439355198,0.0,0.0,-0.0022568902932107,-0.001672814367339,0.1628750711679458,0.9866427183151244,0.0001000245889132,-0.0001162328788396,-9.58246720703938e-11,0.0005988749326206,-0.0001348638324998,0.0011488827876746,-0.0022473204880952,-0.0017196200788021,0.1630307883024215,0.9866169691085817,-0.0005573479866764,-0.0015991635875692,-0.0013990559013459,0.0119757652282714,-0.045157253742218,0.0677909851074218,0,0,0,0
9.5,1788439355298,0.0,0.0,-0.0022476101294159,-0.0017192409140989,0.1628642082214355,0.986644446849823,-7.138123482105449e-05,8.286913309954143e-05,5.359349363046142e-11,-0.0003282746183685,-0.0009419152629561,-0.0008228864171542,-0.0022473204880952,-0.0017196200788021,0.1630307883024215,0.9866169691085817,-0.0005573479866764,-0.0015991635875692,-0.0013990559013459,0.0119757652282714,-0.045157253742218,0.0677909851074218,0,0,0,0
9.6,1788439355398,2.676056385040283,3.802816867828369,-0.0022054500877857,-0.0017730336403474,0.1628419160842895,0.9866480827331544,-0.0001236597309989,0.0001436126835893,-4.5846674870544044e-10,0.0005855245399288,-0.0002326902904314,-0.0014239397132769,-0.0022060712799429,-0.001783400774002,0.1630144566297531,0.9866195917129515,0.0011507305484067,-0.0005889979477531,-0.0025281885830469,0.0034695863723754,0.0136542916297912,0.0338926315307617,170,178,11241,11200
9.7,1788439355498,2.676056385040283,3.802816867828369,-0.0022054500877857,-0.0017730336403474,0.1628419160842895,0.9866480827331544,-0.0001236597309989,0.0001436126835893,-4.5846674870544044e-10,0.0005855245399288,-0.0002326902904314,-0.0014239397132769,-0.0019671656191349,-0.0017268080264329,0.1701017320156097,0.9854230284690856,-0.0068751641405131,0.0002680082416771,0.1075966155229176,0.8218036890029907,-0.1475724577903747,-0.3285074234008789,170,178,11241,11200
9.8,1788439355598,4.760563373565674,6.2816901206970215,-0.0019593692850321,-0.0014703146880492,0.1724416017532348,0.9850167632102966,0.1755772463283712,0.0029177922542798,-5.567540346967924e-05,0.0009328416781499,0.0161026809364557,0.1491219252347946,-0.0022984826937317,-0.0011093560606241,0.1780087649822235,0.9840255975723268,-0.002520670627228,0.0070107052451714,0.160080249593387,-0.2134068012237548,0.0212087035179138,-0.551936149597168,170,178,11241,11200
9.9,1788439355698,5.014084339141846,5.605633735656738,-0.0022741886787116,-0.0011390903964638,0.1763600409030914,0.984322428703308,0.185038675396491,0.0016023131197156,-3.906772372813715e-05,-0.010116871446371,0.0151335531845688,0.1620005071163177,-0.0021105939522385,-0.0022512599825859,0.1823566406965255,0.9832276105880736,-0.0039306653958459,-0.033929587977974,0.0408063724358154,-0.3260303735733032,0.002558946609497,1.1111230850219729,92,102,12867,11516
10.0,1788439355798,4.8450703620910645,5.633802890777588,-0.0018150275573134,-0.0024698132183402,0.1825386732816696,0.983193814754486,0.1671230383088285,0.0017517796591935,3.2723764643758696e-05,0.0086587844416499,-0.0171132516115903,0.0188437588512897,-0.0013591861352324,-0.0026875585317611,0.1835488677024841,0.9830060601234436,0.0125138861718053,0.0118891747055571,0.0345217597767973,0.0036923885345458,-0.0996779203414917,0.0963993072509765,92,102,12867,11516
10.1,1788439355898,5.211267471313477,5.549295902252197,-0.001289201201871,-0.0029611927457153,0.1838257312774658,0.9829534888267516,0.1835919581482054,0.0030336966177679,3.4954613187961283e-06,0.0016889254329726,-0.0101613979786634,0.0189320594072341,-0.0016991663724184,-0.0026300363242626,0.183017611503601,0.983104646205902,-0.0104093636209588,0.0079706232179003,-0.0233607519117434,0.2821223735809326,-0.1127811670303344,0.4648981094360351,107,79,13905,10029
10.2,1788439355998,5.098591327667236,4.873239517211914,-0.001826349296607,-0.0019909255206584,0.1818335652351379,0.9833256602287292,0.1698183023049878,-0.0021377444118073,-9.737366323534756e-05,-0.0004098015488125,0.0263958945870399,-0.0417698584496974,-0.0018400968983769,-0.0016203522682189,0.1817090958356857,0.9833492040634156,0.0012551708977662,0.0227765177620173,-0.0320603550951111,0.0811235308647155,0.0497664809226989,0.454411506652832,69,165,13083,13740
10.3,1788439356098,5.154929637908936,4.366197109222412,-0.0018997711595147,-0.0009501160820946,0.1815971881151199,0.9833707213401794,0.1655709509548353,-0.0007820185706184,-0.0001057756513987,0.0045759277418255,0.040685761719942,-0.0093576218932867,-0.0029354225844144,0.0032832762226462,0.1805327832698822,0.9835590720176696,-0.0093968523082525,0.1326923164903346,-0.0426341075477861,0.0697157382965087,-0.2052789330482483,-4.94379186630249,122,41,13533,13124
10.4,1788439356198,5.154929637908936,5.267605781555176,-0.0028100060299038,0.0028790675569325,0.1801469177007675,0.9836314916610718,0.1834049936211597,0.001649624037102,-0.0005889649213103,-0.0057915402576327,0.0798779278993606,-0.0460462532937526,-0.0024327877908945,0.0006652828305959,0.1799955815076828,0.9836642146110536,0.001682799873915,-0.1773312885363945,-0.0368348586270432,0.0807377099990844,-0.0878675580024719,-2.4990010261535645,75,123,13771,12642
10.5,1788439356298,5.211267471313477,5.211267471313477,-0.002396072493866,0.0007509316783398,0.1779114007949829,0.984043300151825,0.1681337790576497,0.0021582040123124,2.0785569891827805e-05,-0.0005514241056516,-0.0123555716127157,-0.0693770349025726,-0.0021649803966283,8.266139775514603e-05,0.1775847375392913,0.9841032028198242,0.007324597171153,-0.0466252069021271,-0.0336118079400371,-0.0416854619979858,0.0328662991523742,-0.6594734191894531,83,24,13825,11219
10.6,1788439356398,5.295774459838867,4.619718074798584,-0.0020308564417064,-0.000257131003309,0.1762473732233047,0.9843437671661376,0.172950161742739,0.0021033440363947,7.15298490094661e-05,0.0051986034959554,-0.0238180849701166,-0.0393178984522819,-0.0018851971253752,-0.0008523594588041,0.1742794066667556,0.9846940636634828,-0.0091964379286004,-0.0166987422790315,-0.0475751729557679,-0.2098363041877746,0.0401423573493957,-0.9857196807861328,93,23,13493,13267
10.7,1788439356498,5.154929637908936,5.042253494262695,-0.0018481068545952,-0.0008076834492385,0.1751178801059723,0.9845454692840576,0.1798865594412639,0.0026729947051565,7.84651246691066e-05,0.0033174185082316,-0.0228611882776021,-0.0459194555878639,-0.0018851971253752,-0.0008523594588041,0.1742794066667556,0.9846940636634828,-0.0091964379286004,-0.0166987422790315,-0.0475751729557679,-0.2098363041877746,0.0401423573493957,-0.9857196807861328,90,100,13943,11841
10.8,1788439356598,5.267605781555176,4.563380241394043,-0.0004200302355457,-0.0015475745312869,0.1721558719873428,0.985068380832672,0.1690501597824722,-0.0008751483552556,1.0747264858214336e-05,0.0330258570611476,-0.00576659059152,-0.0408252365887165,-0.0018851971253752,-0.0008523594588041,0.1742794066667556,0.9846940636634828,-0.0091964379286004,-0.0166987422790315,-0.0475751729557679,-0.2098363041877746,0.0401423573493957,-0.9857196807861328,78,101,13407,13364
10.9,1788439356698,5.183098793029785,4.507042407989502,0.0002753223234321,-0.0019918826874345,0.1715477108955383,0.985173761844635,0.1807890069430628,-0.0014853084236125,0.000185802940804,0.0197911243885755,-0.0181423127651214,-0.0201463382691144,-0.0007218355312943,-0.001936100423336,0.1658488661050796,0.9861490726470948,-0.0181452844086069,0.0129957963198924,-0.1011537210485411,0.0282824039459228,-0.0079613924026489,-1.3002357482910156,73,73,13985,14068
11.0,1788439356798,5.239436626434326,5.408450603485107,-0.0009062811732292,-0.0022113732993602,0.164943978190422,0.9863000512123108,0.1705284292340631,-0.0010467926287791,-6.772394797799789e-05,-0.0111134545877575,0.0071152918972074,-0.0800390020012855,-0.002603062428534,-0.0012233862653374,0.1619141995906829,0.9868006110191344,-0.0290243186757022,0.0030605299434427,-0.0751924323110082,0.3443706035614013,0.1012974381446838,-0.9044103622436525,99,133,13646,11440
11.1,1788439356898,5.267605781555176,4.450704097747803,-0.0027989605441689,-0.0011624584440141,0.1614072769880294,0.986883282661438,0.173969097168581,-0.0036264669562884,1.404374540589076e-05,-0.0322670489549636,0.0233612731099128,-0.0690268874168396,-0.0035707531496882,-0.0018488457426428,0.1577930003404617,0.9874640107154846,-0.0113687354576546,-0.0034882460856884,-0.0763551732092593,-0.0501565337181091,0.0206666588783264,0.4323616027832031,99,133,13646,11440
11.2,1788439356998,5.323943614959717,4.394366264343262,-0.0027989605441689,-0.0011624584440141,0.1614072769880294,0.986883282661438,0.173969097168581,-0.0036264669562884,1.404374540589076e-05,-0.0322670489549636,0.0233612731099128,-0.0690268874168396,-0.004734419286251,-0.0039189029484987,0.1550606787204742,0.9878857731819152,-0.0483726537075241,-0.0702628698729325,-0.0974919824441798,-0.5196777582168579,-0.180669367313385,-1.728302001953125,43,93,12866,14263
11.3,1788439357098,5.211267471313477,5.464788913726807,-0.0040701511316001,-0.0036534413229674,0.155113860964775,0.9878814816474916,0.1592997945553994,-0.0005580870402866,-2.164327786104936e-05,0.0246179774403572,-0.0025090866256505,-0.0071511166170239,-0.0037666298449039,-0.0033511957153677,0.153922289609909,0.9880701303482056,-8.045332502454874e-05,0.0061583364419174,-0.055626464257491,0.267245352268219,-0.0245229005813598,0.1062345504760742,98,96,13965,11009
11.4,1788439357198,5.183098793029785,5.239436626434326,-0.0037713130004704,-0.0032411126885563,0.1537187546491623,0.9881020784378052,0.1613347612595929,0.0014388565708596,6.62845643404195e-06,0.0005240677855908,0.0111109176650643,-0.0562142357230186,-0.0039850389584898,-0.0032983534038066,0.1524116545915603,0.9883036017417908,-0.0102622248187921,-0.0077301362613891,-0.0509654820406622,0.0529190897941589,-0.0069229006767272,0.5872964859008789,61,106,13947,11641
11.5,1788439357298,5.239436626434326,4.591549396514893,-0.0040617096237838,-0.0033967811614274,0.1518668234348297,0.9883868098258972,0.1650906236196149,-0.0002776723029637,-1.125042931428654e-05,-0.0096109714359045,-0.0078534483909606,-0.0449303239583969,-0.0045547578483819,-0.0034960741177201,0.1499837189912796,0.9886718392372132,-0.0099332723610964,0.0014167973482792,-0.0628238626854161,-0.256190538406372,-0.1307569742202758,-0.8177003860473633,103,38,14722,11677
11.6,1788439357398,5.239436626434326,5.267605781555176,-0.0046956064179539,-0.0040272600017488,0.1490216702222824,0.9888145923614502,0.1784066413480051,-6.354771473282055e-06,7.022396179059616e-05,-0.0097533082589507,-0.0181497335433959,-0.0428640879690647,-0.0052425917237997,-0.004040552303195,0.147516131401062,0.9890375137329102,-0.0238272893991352,0.0042882325444964,-0.0579320352063094,-0.0828025937080383,-0.2135871648788452,0.9443960189819336,103,78,13872,11413
11.7,1788439357498,5.267605781555176,4.929577350616455,-0.005243272986263,-0.0040396694093942,0.1473495215177536,0.9890623688697816,0.172181733133408,0.0012749554108738,-2.650834476562873e-05,-0.0125619582831859,0.0128752877935767,-0.0343300588428974,-0.0056770602241158,-0.0049992706626653,0.1450813263654709,0.9893908500671388,-0.0104091788492544,-0.0197349876265781,-0.0442657245366731,0.0046803951263427,0.011562705039978,0.6799039840698242,120,132,13716,12416
11.8,1788439357598,5.239436626434326,4.732394218444824,-0.0056195207871496,-0.0049304254353046,0.1448434889316558,0.98942631483078,0.1656511485198661,-0.0004078724302557,1.5251401112981888e-05,-0.0037532167043536,-0.008849867619574,-0.03638356924057,-0.0056770602241158,-0.0049992706626653,0.1450813263654709,0.9893908500671388,-0.0104091788492544,-0.0197349876265781,-0.0442657245366731,0.0046803951263427,0.011562705039978,0.6799039840698242,107,28,13865,12963
11.9,1788439357698,5.323943614959717,4.535211086273193,-0.0056558465585112,-0.0050799241289496,0.1422016322612762,0.9898084998130798,0.1685783605295828,-0.0019723313780037,-1.0597055806578527e-05,-0.0028309065382927,-0.0109849777072668,-0.0467074066400527,-0.0056897951290011,-0.0049036554992198,0.1405698657035827,0.9900422692298888,-0.0043680495516851,-0.0025708661300886,-0.0417973965838522,-0.0121788382530212,-0.1968361139297485,1.0593280792236328,79,63,13022,14239
12.0,1788439357798,4.929577350616455,5.154929637908936,-0.0057208277285099,-0.0043291011825203,0.1403377652168274,0.9900776147842408,0.1816743124147794,0.00148025933664,-3.45278948820369e-05,0.0019550176803022,0.0323036052286624,-0.0285595301538705,-0.0059780096635222,-0.0022616703063249,0.1452831178903579,0.9893695116043092,-0.0111020008469388,0.0294839302062383,0.0815763727385856,0.0716312527656555,-0.0597088932991027,-2.2075014114379883,88,118,12709,13836
12.1,1788439357898,4.873239517211914,4.760563373565674,-0.0058086910285055,-0.0032748677767813,0.1454130858182907,0.989348530769348,0.1663209082191751,0.003126878860994,-0.0002510420187134,-0.0053511043079197,0.0037637064233422,0.0857888981699943,-0.0059700813144445,-0.002683650702238,0.1468090116977691,0.9891432523727416,-0.0045507913246085,0.089804822173224,0.0394792265004462,-0.4054450988769531,-0.2339303493499755,0.7871389389038086,136,206,13277,15136
12.2,1788439357998,4.816901206970215,5.154929637908936,-0.0060164388269186,-0.0022414913401007,0.1486077159643173,0.9888753890991212,0.1693257131392753,0.0005594288936708,-7.098166780464706e-05,0.0001927427365444,0.0218344032764434,0.06387210637331,-0.0059232655912637,-0.0027076713740825,0.1473948210477829,0.9890563488006592,0.0032084971673229,-0.0025183568138985,0.043347390055755,-0.5430057048797607,0.0295662879943847,-0.1908760070800781,90,151,13289,13480
12.3,1788439358098,5.154929637908936,4.676056385040283,-0.0062159304507076,-0.0013207250740379,0.1496427655220031,0.9887197017669678,0.1705985904841938,0.001099979171139,-0.0001314839442396,-0.0023050515446811,0.0364395380020141,0.04108702018857,-0.0067478660494089,-0.0011092880740761,0.1495241522789001,0.988734483718872,-0.0198708116563835,0.0084228151948506,-0.0199105421344989,-0.1470367312431335,-0.0629649758338928,0.1936321258544922,83,73,13309,14104
12.4,1788439358198,5.042253494262695,5.577464580535889,-0.0068575697951018,-0.0013270827475935,0.1491568386554718,0.9887888431549072,0.1805921334482449,0.0022934242299776,3.413548802981119e-05,-0.02003307454288,-0.01266894582659,-0.0212029293179512,-0.0068549318239092,-0.0018636714667081,0.1493062973022461,0.9887655377388,-0.0093269929545769,-0.044335447138028,0.0051139540787031,-0.0241801142692565,-0.0601601600646972,-0.3395671844482422,115,103,13539,10828
12.5,1788439358298,4.901408672332764,4.901408672332764,-0.006255789194256,-0.0018431700300425,0.149675041437149,0.9887136816978456,0.1670459096694735,0.0007951891411954,-0.0001088542529019,0.0203461684286594,-0.0072557176463305,0.019056037068367,-0.0048542050644755,-0.0017373720183968,0.1505915820598602,0.9885826110839844,0.0519079331139941,-0.0006177535502713,0.0267028700268337,0.1077913045883178,0.1628201603889465,-0.7591085433959961,115,103,13539,10828
12.6,1788439358398,4.929577350616455,4.704225540161133,-0.0041208979673683,-0.0025449004024267,0.1509847342967987,0.9885241985321044,0.1833472865681821,-0.0050086756171668,3.877953916987218e-05,0.0536310449242591,-0.0380037128925323,0.0410310104489326,-0.0044454839080572,-0.0009081894531846,0.1501932442188263,0.9886462688446044,0.0060349369958049,0.0287999566099996,-0.0694489349922231,-0.1668868064880371,-0.2257413268089294,-0.5042572021484375,83,35,13876,13757
12.7,1788439358498,5.295774459838867,4.591549396514893,-0.0042617265135049,-0.0006370585178956,0.1503141373395919,0.9886289238929749,0.1707575422999546,-0.0043739379191565,0.0001584380420303,0.008056242018938,0.0048038749955594,0.0020299220923334,-0.0042707994580268,-0.0002323314547538,0.1500639915466308,0.9886670112609864,-0.0136361691947008,0.0014729560488454,-0.0376038130050116,-0.0554001331329345,0.2074075937271118,0.7853727340698242,80,36,13828,13435
12.8,1788439358598,5.154929637908936,5.211267471313477,-0.0041555361822247,-0.0007865093648433,0.1488103121519088,0.9888567328453064,0.1888073472544115,-0.0063730356960088,0.0001229523420702,-0.0050205537118017,-0.0264978278428316,-0.0554837025701999,-0.0040653636679053,-0.0004888977855443,0.1474797129631042,0.9890567064285278,0.0120644933340538,0.0063548987322344,-0.041603853397998,-0.0763192176818847,0.0349274277687072,-0.0128211975097656,33,27,10912,7115
12.9,1788439358698,5.239436626434326,5.267605781555176,-0.0043006045743823,-0.0003946572251152,0.146698772907257,0.9891718029975892,0.1740624926457614,-0.004077437818017,-3.5013188356928286e-05,-0.0055910679511725,0.0108396345749497,-0.0399968065321445,-0.0047348821535706,-0.0008771596476435,0.1435314863920211,0.9896340370178224,-0.0223413827016124,-0.0356607336368653,-0.115286694282918,-0.574100911617279,0.0732090473175048,1.1326818466186523,33,27,10912,7115
13.0,1788439358798,4.676056385040283,4.084506988525391,-0.0045734662562608,-0.000120120414067,0.1452097743749618,0.9893903732299804,0.158071035684978,-0.0061886850242097,-4.005032726839346e-05,-0.0099761504679918,0.0138399926945567,-0.0654247254133224,-0.0039774319157004,0.0008497787639498,0.1431375443935394,0.9896944761276244,0.0174885786315957,0.039309740698005,-0.0002781761326886,0.1240878701210022,0.0445545315742492,-0.6447668075561523,175,183,15087,16569
13.1,1788439358898,4.676056385040283,4.084506988525391,-0.0038612936623394,0.0002788535202853,0.1446864753961563,0.9894699454307556,0.1946142191421364,0.0033309247034897,-0.0001284623279813,0.0090702259913086,0.0086615653708577,0.0751927122473716,-0.0038489028811454,0.0003424836322665,0.1460174471139907,0.9892745018005372,0.0019573892517284,-0.0212714522853156,0.1163540456216007,-0.4441215991973877,-0.1064482927322387,0.4638776779174804,175,183,15087,16569
13.2,1788439358998,4.507042407989502,5.690140724182129,-0.0038341956678777,-1.4264776837080715e-05,0.1492125988006591,0.988797664642334,0.1809269388278775,0.004167954844838,-2.457144582890644e-06,-0.0007767685456201,-0.0124263446778059,0.1826410591602325,-0.0038489028811454,0.0003424836322665,0.1460174471139907,0.9892745018005372,0.0019573892517284,-0.0212714522853156,0.1163540456216007,-0.4441215991973877,-0.1064482927322387,0.4638776779174804,175,183,15087,16569
13.3,1788439359098,4.873239517211914,5.549295902252197,-0.0039470950141549,-0.0001509755384176,0.164425179362297,0.9863816499710084,0.1786114026529723,0.0062564558997745,-8.03352016598424e-06,-0.0004260235000401,-0.0043075866997241,0.1700712442398071,-0.0038928734138607,4.96692955493927e-05,0.1625000536441803,0.9867008924484252,0.0029829546418677,-0.0114705937526101,0.1670064200967279,0.1579249501228332,-0.069388210773468,-0.3560123443603515,94,83,13288,11639
13.4,1788439359198,4.873239517211914,5.549295902252197,-0.003958249464631,0.0001160856336355,0.1694768071174621,0.9855262637138368,0.1823702740783213,0.0077663983168131,-3.451386549299381e-05,-0.0034555462189018,0.0074284002184867,0.064929261803627,-0.0040150163695216,0.0001702206209301,0.1694787442684173,0.9855256676673888,-0.0073477134803841,0.0076892252126636,0.0996592585322583,-0.2818270325660705,0.2647236585617065,0.5571727752685547,94,83,13288,11639
13.5,1788439359298,4.619718074798584,5.436619758605957,-0.0037197093479335,0.000365967862308,0.1728192269802093,0.9849465489387512,0.1832115318813325,-0.0030839106556072,7.822711415312667e-07,0.0134411854669451,0.0216273516416549,0.0554490685462951,-0.0034965723752975,0.0009156195446848,0.1742530912160873,0.9846943616867064,0.007284633053774,0.019526642253813,0.0624469092912258,-0.3059152960777282,0.3097352385520935,0.0615673065185546,62,22,11597,14104
13.6,1788439359398,4.422535419464111,5.690140724182129,-0.0035228466149419,0.0008334751473739,0.1738577485084533,0.9847641587257384,0.1820285299090477,0.0023363887679998,-4.0917927533859975e-05,0.0109419785439968,0.0169007889926433,0.0422351658344268,-0.0034820679575204,0.0020063314586877,0.1811005622148513,0.9834563732147216,0.0047311016638505,0.0271539214101936,0.1367274810500708,0.0507169961929321,0.0611326694488525,-2.2091822624206543,60,203,12346,13682
13.7,1788439359498,4.422535419464111,5.690140724182129,-0.0035228466149419,0.0008334751473739,0.1738577485084533,0.9847641587257384,0.1820285299090477,0.0023363887679998,-4.0917927533859975e-05,0.0109419785439968,0.0169007889926433,0.0422351658344268,-0.003210162743926,0.0026548812165856,0.1843796819448471,0.9828462600708008,0.015329328908652,-0.030096266713463,0.044727122770733,-0.900242269039154,0.1156291961669921,6.096828460693359,60,203,12346,13682
13.8,1788439359598,2.7887322902679443,3.492957830429077,-0.0024414509534835,0.0008832981111481,0.1873913407325744,0.9822819232940674,0.1523986073105834,0.0013615422613952,0.0002440424460864,0.0087527325376868,-0.0876236408948898,0.0896765813231468,-0.0021833609789609,0.0005284389480948,0.1882974803447723,0.9821094870567322,0.0091543594952819,-0.0625795853229612,0.0995207534178343,-1.5382612943649292,-0.1608430743217468,2.543872833251953,8,37,6406,6067
13.9,1788439359698,0.4225352108478546,1.154929518699646,-0.0024414509534835,0.0008832981111481,0.1873913407325744,0.9822819232940674,0.1523986073105834,0.0013615422613952,0.0002440424460864,0.0087527325376868,-0.0876236408948898,0.0896765813231468,-0.001670703291893,-0.0003444412723183,0.1918612569570541,0.9814205765724182,0.0071927039105921,-0.011503805720775,0.081983662021473,-0.2915804982185364,0.0973298549652099,0.5330839157104492,6,36,0,3703
14.0,1788439359798,0.0,1.5211267471313477,-0.0017755583394318,-0.0004954473115503,0.192615196108818,0.9812726974487304,0.0051201023495302,0.0009902785518532,5.463235835975989e-07,-0.0024130649399012,-0.0077529628761112,0.0622934401035308,-0.0018190694972872,-0.0007844138890504,0.1990619897842407,0.9799848198890686,-0.0013673644745343,-0.0131537304850458,0.2384883869986589,0.7702481150627136,0.2803084850311279,-0.0700922012329101,19,280,2796,9597
14.1,1788439359898,2.366197109222412,4.591549396514893,-0.00154061592184,-0.0008837022469379,0.2147872745990753,0.9766592979431152,0.1044391690291555,0.0010853501062646,6.344183105955175e-06,0.0061768293380737,-0.0031787396874278,0.3635435104370117,-0.0014776159077882,-0.0009924918413162,0.2170909941196441,0.9761497378349304,0.0051728862879017,-0.0082775429019197,0.3496034786578857,0.8092678189277649,0.2552287578582763,-0.5694456100463867,210,174,13184,14266
14.2,1788439359998,4.2253522872924805,5.267605781555176,-0.0015835368540138,-0.0010799160227179,0.2204430997371673,0.9753980040550232,0.155060557672603,0.0039280495230659,2.647398636315894e-05,-0.0041597294621169,-0.009871550835669,0.2975408434867859,-0.0010892124846577,-0.0015137856826186,0.2281121611595153,0.973633110523224,0.0075201273241462,-0.0150668521940011,0.2031354272524914,-0.1192055940628051,0.1048702597618103,0.3196640014648437,294,165,15588,17499
14.3,1788439360098,4.8450703620910645,6.3380279541015625,-0.0010991238523274,-0.0015304422704502,0.2308161109685897,0.9729955792427064,0.1931054185963752,0.0074519015776493,5.392690068370309e-05,0.0031514973379671,-0.0091285314410924,0.1799098551273346,-0.0004131328314542,-0.0011262446641921,0.2364718616008758,0.9716376662254332,0.0289665356924218,-0.0026886476409261,0.1667659295720376,0.0275229811668396,-0.0468115210533142,0.0462551116943359,145,78,12613,11451
14.4,1788439360198,4.394366264343262,5.915493011474609,-0.0007671492057852,-0.0010953460587188,0.2350824475288391,0.9719744324684144,0.1831981152874854,0.0069997477223737,-9.179152793801956e-05,0.0168438367545604,0.0133727230131626,0.172301560640335,-0.0023682313039898,-0.0016434527933597,0.2428801506757736,0.9700520634651184,-0.0102124011263566,-0.0180764245431148,0.1452545120918758,0.4317582845687866,0.0718833208084106,-0.3820419311523437,141,177,13270,13538
14.5,1788439360298,4.647887229919434,5.7183098793029785,-0.0029073453042656,-0.0028298636898398,0.244892343878746,0.9695417881011964,0.1826273618717888,0.0026651974307588,0.0001648187516595,-0.0304456707090139,-0.0460043139755725,0.133456289768219,-0.0032363589853048,-0.0023796819150447,0.2464832812547683,0.9691386818885804,-0.0155469325173267,0.0367658282806556,0.1082217051776646,-0.2555022239685058,-0.1431422233581543,0.0347967147827148,94,99,13389,12136
14.6,1788439360398,4.985915660858154,4.704225540161133,-0.0030133083928376,-0.0032062765676528,0.2512459456920624,0.9679133296012878,0.1897301323779116,0.004187985272296,2.0876142361642587e-05,-0.005162248853594,-0.023084731772542,0.1428559720516204,-0.0030667968094348,-0.0031693549826741,0.2519951164722442,0.9677184820175172,-0.0044392445072105,-0.0220355128904508,0.1072523941211145,0.0798910856246948,-0.1622617244720459,0.994354248046875,70,104,12537,14443
14.7,1788439360498,4.929577350616455,4.760563373565674,-0.0032425997778773,-0.0035142092965543,0.2521149218082428,0.9676854610443116,0.178080943693043,0.0001637633946605,8.3718014378681e-05,-0.0106664011254906,-0.0163445137441158,0.0089293755590915,-0.0035697482526302,-0.003842769190669,0.2527246475219726,0.9675241112709044,-0.0080133108888693,0.0264355808767593,0.0245319295996331,0.2997141480445862,0.1652875542640686,2.271291732788086,70,104,12537,14443
14.8,1788439360598,4.8450703620910645,4.8450703620910645,-0.003647121367976,-0.003949737176299,0.2531554102897644,0.9674107432365416,0.1800299848400216,0.0017310975915173,2.1061602923379908e-09,-0.0078658908605575,0.0046444735489785,0.0312404390424489,-0.0036093229427933,-0.0044259773567318,0.254354178905487,0.9670943021774292,-0.0022159286493158,-0.0180908411961954,0.0467885363228177,-0.0735052227973938,-0.014911413192749,0.6483116149902344,76,65,13029,14332
14.9,1788439360698,4.901408672332764,4.873239517211914,-0.0033999811857938,-0.0051776897162199,0.2554886639118194,0.9667922258377076,0.1755563963437691,-0.0003692026606649,6.120780606498648e-06,-0.0001800691970856,-0.0269216373562812,0.0418960191309452,-0.0038660103455185,-0.0049338899552822,0.2570958435535431,0.96636563539505,-0.0154667583169897,0.0117425402668174,0.0473713397091634,0.1301754117012024,0.0693492889404296,0.7945041656494141,85,89,12876,14627
15.0,1788439360798,4.704225540161133,4.732394218444824,-0.0039301607757806,-0.0049694324843585,0.257138580083847,0.966353714466095,0.1826090541786053,0.0037619173388476,1.153407877883073e-05,-0.0119306379929184,-0.0068008233793079,0.0274006929248571,-0.0037423111498355,-0.0038950648158788,0.2598876059055328,0.9656237959861756,0.0676316158718722,0.1165274237137547,0.0960990307891356,0.6186703443527222,-0.5924071669578552,0.4815921783447265,161,107,13721,15127
15.1,1788439360898,5.239436626434326,5.380281925201416,-0.0034233229234814,-0.0036411129403859,0.2603175342082977,0.965510070323944,0.1760529875630732,0.0081784018805348,-0.0002913680190245,0.0546840764582157,0.076372742652893,0.0950656533241272,-0.0032496703788638,-0.0034012496471405,0.2609195411205292,0.9653491377830504,0.0405450265786878,0.0229110669379471,0.0712905580642498,0.1101138591766357,0.3782607913017273,0.4846830368041992,105,59,14371,10609
15.2,1788439360998,5.295774459838867,5.408450603485107,-0.0034233229234814,-0.0036411129403859,0.2603175342082977,0.965510070323944,0.1760529875630732,0.0081784018805348,-0.0002913680190245,0.0546840764582157,0.076372742652893,0.0950656533241272,-0.0030308095738291,-0.0020170267671346,0.2569800913333893,0.9664098620414734,-0.004442599948897,0.0073458157915504,-0.0697817979707749,0.1419375538825988,0.0504800081253051,-0.7847871780395508,116,93,13807,10873
15.3,1788439361098,5.380281925201416,5.267605781555176,-0.0032014707103371,-0.0017969065811485,0.2554822862148285,0.9668067693710328,0.1828634207117971,-0.0031332720945394,-1.4704553406706628e-06,-0.0037677939981222,0.0004711867950391,-0.0265518557280302,-0.0030308095738291,-0.0020170267671346,0.2569800913333893,0.9664098620414734,-0.004442599948897,0.0073458157915504,-0.0697817979707749,0.1419375538825988,0.0504800081253051,-0.7847871780395508,82,130,13200,11407
15.4,1788439361198,5.380281925201416,4.507042407989502,-0.0033572150859981,-0.0017568205948919,0.2546691298484802,0.9670208096504213,0.1793302339121315,-0.0049858921709763,-6.900169072879751e-06,-0.0070507861673831,0.0040739569813013,-0.0419940873980522,-0.0032442798838019,-0.0030586207285523,0.2521401643753052,0.9676804542541504,-0.0045844364412763,-0.0343818962132799,-0.0609842282333201,-0.2508049607276916,-0.1528564095497131,0.6940088272094727,94,63,13080,13839
15.5,1788439361298,5.239436626434326,5.436619758605957,-0.0033831859473139,-0.0028401487506926,0.2509822845458984,0.9679816365242004,0.182544968680019,-0.0030246573746107,1.8236400511351792e-08,-0.0004585322458297,0.0095566911622881,-0.0312047880142927,-0.0031805336475372,-0.0028547411784529,0.2504958510398865,0.9681082367897034,0.0136082530985042,-0.0203843808233144,-0.0251232598751694,-0.0434181094169616,0.036526083946228,-0.0809173583984375,106,82,13508,11044
15.6,1788439361398,5.211267471313477,5.239436626434326,-0.0031565479002892,-0.0026326649822294,0.2493231445550918,0.9684115648269652,0.1807974386324962,-0.0030527514741102,-2.024183994809507e-05,0.0022808748763054,0.0119368359446525,-0.0366651117801666,-0.0032270094379782,-0.0021996246650815,0.2488811910152435,0.9685261249542236,0.0048973132616359,0.0386797680589103,-0.0563970778802676,-0.0477739572525024,0.0607672333717346,-0.905303955078125,92,174,12749,12647
15.7,1788439361498,5.154929637908936,4.535211086273193,-0.0033055860549211,-0.0020914543420076,0.2486007660627365,0.9685981869697572,0.1790073679036672,-0.0028686362686564,1.1069861780699509e-08,0.0,4.570781531043622e-09,0.0,-0.0026936782523989,-0.0019943127408623,0.2487394511699676,0.9685646891593932,0.0294956051987424,-0.0367813184128348,0.0063032989274218,0.0419328808784484,-0.1593609452247619,0.1643800735473632,95,75,13867,13501
15.8,1788439361598,5.380281925201416,5.098591327667236,-0.0042355600744485,-0.0005890694446861,0.2467449456453323,0.9690710306167604,0.1790512853953919,-0.0099936136424569,-9.730165961162232e-05,-0.0424744933843612,0.0674910694360733,-0.0761648416519165,-0.0050733461976051,0.0011391621083021,0.2450724393129348,0.969490885734558,-0.0103611188326409,0.1007460188458435,-0.0691881811874806,0.0238151550292968,0.0548895001411438,0.8244752883911133,117,78,15487,9685
15.9,1788439361698,5.7183098793029785,4.169013977050781,-0.0048557939007878,-0.0009384462609887,0.2413466721773147,0.9704263210296632,0.1830636540220085,-0.0052965819529838,0.0003814677330704,-0.0107788629829883,-0.0900578275322914,-0.1342280805110931,-0.0053353663533926,-0.0002784272655844,0.2363733202219009,0.9716476798057556,-0.0085950688474545,-0.0059019803163444,-0.1984630022962701,-0.1849575638771057,0.3318768143653869,4.196610450744629,81,72,14397,12923
16.0,1788439361798,5.352112770080566,5.014084339141846,-0.0054229088127613,-0.0005337409093044,0.2321690171957016,0.9726601839065552,0.1837557222039254,-0.0055334251910606,-1.8009217921510816e-05,-0.0054784868843853,-0.0074586630798876,-0.1488145440816879,-0.0053755035623908,-0.0005166111513972,0.2298322319984436,0.9732152223587036,0.0049727185888139,0.0045388674799363,-0.153426465843448,0.172658085823059,-0.0899780988693237,-1.2521734237670898,110,74,15165,9956
16.1,1788439361898,5.183098793029785,4.450704097747803,-0.0048980535939335,-0.0002526946482248,0.2254410833120346,0.9742444157600404,0.179475383159201,-0.0072686187711037,-4.4822039733011605e-05,0.0181730613112449,0.0025313259102404,-0.1199008524417877,-0.0043851044028997,-0.0008705118671059,0.2249867022037506,0.9743515849113464,0.0169279930979632,-0.0341370443633429,-0.0268380785155714,0.0969367623329162,-0.1720385551452636,-0.3169240951538086,95,116,13550,14221
16.2,1788439361998,5.295774459838867,4.985915660858154,-0.0040325289592146,-0.0015747376019135,0.2234944105148315,0.97469562292099,0.1857201985599079,-0.0025966719991064,0.0001260221519122,0.0129352314397692,-0.0412460379302501,-0.0629006028175354,-0.0038331467658281,-0.0016364743933081,0.2232727855443954,0.9747470617294312,0.0147612787305793,-0.0266920488905903,-0.059809960028702,0.0314602851867675,-0.4139544367790222,0.8997907638549805,67,158,13244,12215
16.3,1788439362098,5.183098793029785,5.211267471313477,-0.0040552974678575,-0.0015502332244068,0.2200274765491485,0.975484013557434,0.1781205960542471,0.0011992213514173,-9.441434192050224e-05,-0.0239956583827734,0.0145452637225389,-0.0863485783338546,-0.0040766121819615,-0.0015712538734078,0.2200925797224044,0.9754692912101746,-0.0169389043365909,-0.0070012270048878,-0.0733164821626533,-0.1012111902236938,-0.1797303557395935,0.9005603790283203,75,103,13601,14458
16.4,1788439362198,5.352112770080566,4.563380241394043,-0.004229974001646,-0.0011792432051151,0.2171948999166488,0.9761184453964232,0.1858658401978142,-0.0003595608466479,-0.0001433140123098,-0.0013221126282587,0.015596049837768,-0.0775235071778297,-0.0041216583922505,-0.0011697858572006,0.2165765464305877,0.976256251335144,0.0118141540718502,-0.0079804618867599,-0.0881952353513254,0.0261645913124084,0.2740788459777832,-0.0763721466064453,88,52,13193,13641
16.5,1788439362298,5.577464580535889,4.647887229919434,-0.0037957231979817,-0.0010691814823076,0.2118771076202392,0.9772883653640748,0.1729829576232755,-0.0059532175415793,-8.587411911802321e-06,0.0096266884356737,0.0094470316544175,-0.0975414291024208,-0.0037608481943607,-0.0004991935566067,0.2093261033296585,0.9778385758399964,0.0078226744208455,0.0328191373920449,-0.1603222269052408,-0.0445853471755981,-0.1759410500526428,0.4443645477294922,137,119,15021,11180
16.6,1788439362398,5.633802890777588,4.788732528686523,-0.0035099086817353,-0.0004954199539497,0.2042427957057953,0.9789138436317444,0.1822855041249934,-0.0057729988154219,-2.5020100822063857e-05,0.007921471260488,0.0023990832269191,-0.1646499186754226,-0.0035685906186699,-0.0007626479491591,0.2021071910858154,0.9793566465377808,-0.0073791489746713,-0.0160281733769435,-0.1563503921301835,-0.0249230861663818,-0.0572986602783203,-0.2376613616943359,98,48,14372,10945
16.7,1788439362498,5.492957592010498,4.169013977050781,-0.0038241925649344,-0.0010683343280106,0.1970230937004089,0.9803907871246338,0.1772437500027395,-0.0064165836479971,5.47570237212835e-05,-0.0091497339308261,-0.0047062137164175,-0.1506510227918625,-0.0040592709556221,-0.0016483217477798,0.192948892712593,0.9811990857124328,-0.0126976123897267,-0.0243947369670342,-0.1693083650512015,-0.2018722295761108,-0.2531123161315918,0.729517936706543,106,108,14666,13114
16.8,1788439362598,5.549295902252197,4.197183132171631,-0.0046709352172911,-0.002273415448144,0.1880609840154647,0.9821435809135436,0.1779482863792874,-0.0019287766417769,0.0002079907412405,-0.0248582605272531,-0.0168145410716533,-0.1688438206911087,-0.0046225236728787,-0.0020154491066932,0.1864812225103378,0.9824455976486206,0.0051634112590009,0.0110058520899839,-0.1030553505170781,-0.0301342606544494,0.1562519669532776,-0.2635965347290039,104,48,14548,13042
16.9,1788439362698,5.464788913726807,4.647887229919434,-0.0049800463020801,-0.0027134495321661,0.1814049333333969,0.9833921194076538,0.1843284701929674,-0.0058622012753252,-9.381657751502231e-06,-0.0144244916737079,-0.0204959046095609,-0.1495209634304046,-0.0050347596406936,-0.0026833852753043,0.1797675192356109,0.9836926460266112,-0.0087229645935438,-0.0057483526448791,-0.1493919317543914,0.105812668800354,-0.0541303753852844,0.5441055297851562,119,137,14874,11568
17.0,1788439362798,5.295774459838867,4.647887229919434,-0.0045136013068258,-0.0017578774131834,0.1752421706914901,0.9845134615898132,0.1864785627272817,-0.0099130522833341,-0.0001057838758966,0.0150709077715873,0.0222382899373769,-0.1310116499662399,-0.0042987521737813,-0.001430170610547,0.1719979345798492,0.9850868582725524,-0.0158820870664351,-0.0098505013102934,-0.111617618124927,0.0969606637954711,0.1523486375808715,-0.0785207748413086,66,57,13223,13722
17.1,1788439362898,5.070422649383545,4.676056385040283,-0.0041566616855561,-0.0015421793796122,0.1713032275438308,0.9852083921432496,0.1837240255299822,-0.0037138062242262,3.316070064145802e-05,0.0041910908184945,-0.0061816526576876,-0.0262972097843885,-0.0042489524930715,-0.0020089661702513,0.1713050156831741,0.9852068424224854,-0.0110487642657822,-0.0344071927412966,0.0007659226115033,-0.0289039015769958,0.4313018918037414,0.9318742752075196,80,125,12780,14678
17.2,1788439362998,4.957746505737305,4.704225540161133,-0.0042943484149873,-0.0022620628587901,0.1718247383832931,0.9851155877113342,0.183282057000481,-0.0026391727337522,0.0001230408245642,-0.0085867037996649,-0.0228478275239467,0.0174995344132184,-0.0045185415074229,-0.002663985826075,0.1722460091114044,0.9850399494171144,-0.0123476983608822,-0.0172115273969068,0.0126894494681162,-0.0360379219055175,-0.0362980365753173,1.6036434173583984,75,46,13261,14055
17.3,1788439363098,5.267605781555176,4.985915660858154,-0.0046325484290719,-0.0025901547633111,0.1721896827220916,0.9850494861602784,0.1780790400715889,0.0050026531432843,-4.769509200302301e-05,-0.0029362549539655,0.0132874278351664,0.0065892315469682,-0.0047678789123892,-0.002422927878797,0.1725881099700927,0.9849796295166016,-0.0042400486511331,0.0055563587090006,0.020406535405224,0.150188148021698,0.1471796631813049,-0.624359130859375,112,24,14538,11978
17.4,1788439363198,5.267605781555176,4.478873252868652,-0.0046908883377909,-0.0030386359430849,0.1711141616106033,0.985235333442688,0.1883316022130643,0.0032411091773402,0.0001249820305513,0.0017041958635672,-0.0250969026237726,-0.0590383298695087,-0.0045509794726967,-0.0026941774412989,0.1700554490089416,0.9854203462600708,0.0076823690480522,0.0163283383611253,-0.0653853535284293,-0.0975434184074401,0.1394559741020202,0.0218973159790039,138,49,13866,13557
17.5,1788439363298,5.352112770080566,5.352112770080566,-0.0049391225911676,0.0012856101384386,0.1682811081409454,0.9857257604599,0.1789900764680387,-0.0067217868948709,-0.0004603550190504,0.011053854599595,0.1575743556022644,-0.0558513663709163,-0.0048978934064507,-3.343820571899414e-05,0.1679582297801971,0.985782027244568,-0.0127145736267313,-0.0961980825151942,-0.0292354126201299,0.1370918750762939,-0.1959502100944519,0.7248048782348633,86,52,13337,10688
17.6,1788439363398,5.183098793029785,5.323943614959717,-0.00459810718894,-0.0015468138735741,0.1652535945177078,0.9862391352653505,0.1796977100380424,-0.0067465467782059,-0.0001527215120704,-0.0002582992310635,-0.0038703074678778,-0.0777153894305229,-0.004609347321093,-0.0015462767332792,0.1649792194366455,0.9862850904464722,0.0054254936313403,-0.0572669127512255,-0.0680549678599727,0.1091576814651489,0.175652801990509,0.1587095260620117,95,132,13998,11008
17.7,1788439363498,5.267605781555176,4.704225540161133,-0.0048103942535817,-0.001942912582308,0.1624403446912765,0.9867047071456908,0.1804271302904536,-0.0025991648661413,0.0001988670753112,-0.0073342467658221,-0.0211779922246933,-0.0594322606921196,-0.0045187966898083,-0.0017910385504364,0.1612400710582733,0.9869032502174376,0.0156790077967425,-0.0060128593923811,-0.050027551615998,0.1518840789794922,0.1807231307029724,-0.9278459548950196,71,116,13532,13340
17.8,1788439363598,5.126760482788086,4.450704097747803,-0.0044913040474057,-0.0018898975104093,0.15946064889431,0.9871923327445984,0.1840719392400844,-0.0049704383083211,5.362154455598705e-06,-0.0002836502098944,-0.0076482552103698,-0.0554645247757434,-0.0047140335664153,-0.0015127239748835,0.1583349257707595,0.9873730540275574,-0.0075934898821607,0.0356388896253534,-0.0579646642889264,0.2510784864425659,0.0736510157585144,0.9375762939453124,79,51,13784,14316
17.9,1788439363698,5.154929637908936,5.408450603485107,-0.0048660808242857,-0.0004317919083405,0.1572495102882385,0.9875468015670776,0.1818087594685455,-0.0066720740259915,-0.0001870329562146,0.0009511652751825,0.0396897941827774,-0.0227192882448434,-0.00489435903728,-0.0001921504735946,0.1564589291810989,0.9876723885536194,0.0037887219037591,-0.0112321881449369,-0.0546477612906259,-0.0548036098480224,-0.084205150604248,-1.3712434768676758,68,87,13720,10935
18.0,1788439363798,5.239436626434326,4.2253522872924805,-0.0027927476912736,-0.0019116316689178,0.1555450707674026,0.9878230094909668,0.1841083352038063,-0.0044557474965047,0.0003814038878037,0.0583421252667903,-0.0669742375612258,-0.0205432120710611,-0.0034442814067006,-0.0013084011152386,0.1536073833703994,0.9881250858306884,-0.025498037504817,0.0312318131582445,-0.1200423062338155,0.0234084725379943,-0.2887909412384033,1.864521026611328,70,107,13478,14575
18.1,1788439363898,5.154929637908936,5.323943614959717,-0.0040178559720516,-0.00082868890604,0.1518214493989944,0.9883994460105896,0.1747942181444744,-0.0048213828679387,-8.17181658809843e-05,-0.0154396500438451,0.0225324090570211,-0.0401705205440521,-0.0042582666501402,-0.000339338555932,0.1515736132860183,0.9884368181228638,-0.0139988266083929,0.0386485368362064,-0.0321686429927984,0.2343277931213379,-0.0340777039527893,-0.010624885559082,105,57,13960,11477
18.2,1788439363998,4.929577350616455,5.746479034423828,-0.0045385397970676,-0.0001102979294955,0.150723323225975,0.9885655045509338,0.1855187732563273,-0.0023265639503064,-4.549215510833816e-05,-0.0050619854591786,0.0083008846268057,-0.0225671045482158,-0.0046852398663759,0.0003723232075572,0.1518099755048751,0.988398551940918,0.0086610961831189,0.0004391979473471,0.0559317247522088,-0.0126746296882629,-0.0547235608100891,-1.2954702377319336,62,80,12393,11820
18.3,1788439364098,4.619718074798584,5.380281925201416,-0.0047556129284203,0.0017168964259326,0.1535835564136505,0.9881227612495422,0.1801388177748868,0.0022560655480892,-5.55897107859459e-05,0.0058314981870353,0.0531098209321498,0.0819872915744781,-0.0052192844450473,0.0028063617646694,0.1571139097213745,0.9875627160072328,-0.020755098587491,0.0439834463035147,0.1619924367628105,-0.2087764739990234,0.5032920837402344,-0.4635276794433594,65,35,11398,15171
18.4,1788439364198,4.2253522872924805,6.084506988525391,-0.0067807361483573,-0.0012863242300227,0.1623982936143875,0.9867011308670044,0.1781227027339047,0.014185496996002,0.00042139547582,-0.0569980926811695,-0.0898577719926834,0.1675920039415359,-0.0060650380328297,-0.0013689259067177,0.1682229936122894,0.9857293367385864,0.0218942576818196,-0.0068432388443016,0.2332133199090342,0.5212796926498413,0.3792929053306579,1.961719512939453,92,79,12208,11932
18.5,1788439364298,4.591549396514893,5.436619758605957,-0.0059402640908956,-0.0009549114038236,0.1722464710474014,0.9850355386734008,0.1702075811929579,0.0122850552246709,1.1389109544270536e-05,0.0081412326544523,0.0145430201664567,0.1746042966842651,-0.0056846411898732,-0.0009055035188794,0.176141619682312,0.9843480587005616,0.0120367215050638,-0.0215553033948841,0.1882147531792122,0.0102043747901916,0.4513877630233764,-0.343144416809082,106,21,12446,14500
18.6,1788439364398,4.873239517211914,4.873239517211914,-0.0055389339104294,-0.0005552824586629,0.1797012984752655,0.9837054014205932,0.1803313530172624,0.0070885203634513,-7.497719237781654e-06,0.008292912505567,0.0094531085342168,0.1563573479652404,-0.0054549789056181,-0.0005253786221146,0.1815808415412902,0.983360767364502,0.0071219933477987,-0.0082036848433968,0.0857834858511995,-0.3124225735664367,-0.3174416422843933,0.4849395751953125,91,86,13713,13981
18.7,1788439364498,4.985915660858154,4.676056385040283,-0.0052286582067608,-7.100426591932774e-05,0.1824973970651626,0.9831923842430116,0.1807125342037726,0.0058866638542706,-7.977273787684377e-05,0.0079180598258972,0.0153804905712604,0.0298158135265111,-0.0049686897546052,0.0001324387267231,0.1837717443704605,0.9829564094543456,0.006983625438899,0.0217088458102298,0.0247606453439753,0.0811907052993774,0.0763615369796752,0.5749473571777344,169,56,14031,13325
18.8,1788439364598,5.070422649383545,5.408450603485107,-0.004850398749113,-0.0001912135048769,0.1818475276231765,0.9833147525787354,0.1774510610897579,-0.0041723718935996,-9.776568617538286e-06,0.006903117056936,-0.0047502224333584,-0.0384889766573905,-0.0045419009402394,-0.001051751896739,0.181280717253685,0.9834203124046326,0.005847772963028,-0.0319985326630022,-0.0313369232990756,0.0217938423156738,0.1709846258163452,-0.2815065383911133,90,70,13462,11195
18.9,1788439364698,5.295774459838867,5.014084339141846,-0.0043001673184335,-0.0019512937869876,0.1797889322042465,0.9836938977241516,0.1757974098649621,-0.003356341637781,4.110180171673642e-05,0.0034172458108514,-0.0310482289642095,-0.047204490751028,-0.0041183345019817,-0.0018950765952467,0.1790855824947357,0.98382306098938,0.0122702497278967,0.0039406765699078,-0.0557473621541787,-0.1309899687767028,0.097014307975769,1.2034025192260742,76,161,12541,13227
19.0,1788439364798,5.295774459838867,4.450704097747803,-0.0034237350337207,-0.0018924435134977,0.1790965646505355,0.9838237166404724,0.1809880274667539,-0.0042475741741087,9.60949592553866e-06,0.0218648668378591,-0.0056351390667259,0.0090063270181417,-0.0034207860007882,-0.0019921483471989,0.1779722571372985,0.984027624130249,-0.0067298963200262,-0.0104472886554024,-0.077391285660828,0.0709244608879089,-0.2058885097503662,-0.0063562393188476,87,72,13802,14016
19.1,1788439364898,4.985915660858154,5.352112770080566,-0.003884088480845,-0.0014983983710408,0.1756335198879242,0.9844468235969543,0.1848409845619342,-0.0068659496396748,-4.738179485050986e-05,-0.0114830676466226,0.0099246501922607,-0.049885306507349,-0.004138640128076,-0.0007923804223537,0.1754387617111206,0.9844813346862792,0.004042838120348,0.0189220971603574,0.0178161685581847,-0.1100391745567321,-0.0752969980239868,-1.5148305892944336,59,49,13265,12230
19.2,1788439364998,5.323943614959717,5.042253494262695,-0.0043271239846944,0.0004179755924269,0.1753934025764465,0.984488844871521,0.1809162999612683,0.0025328367718986,-8.54166566868286e-05,0.0008302257629111,0.0417837910354137,0.0041701337322592,-0.0042417664080858,1.2723729014396667e-05,0.1747893989086151,0.9845966696739196,0.0008897963404632,-0.0295104560216944,-0.051389161055973,0.1013281941413879,0.2735456228256225,-2.7147789001464844,107,50,13424,12089
19.3,1788439365098,5.352112770080566,5.295774459838867,-0.0037774082738906,-0.0024336646310985,0.1727077811956405,0.9849628806114196,0.1757339131163457,-0.005095167766054,8.931304726956327e-05,-0.0027541338931769,0.0053990762680768,-0.0556811317801475,-0.0039948308840394,-0.0027515282854437,0.1719865053892135,0.9850873351097108,-0.0181620981902193,0.0316065140861224,-0.0276402444283692,0.3442602753639221,0.4299606084823608,0.6683816909790039,69,136,13554,11613
19.4,1788439365198,5.239436626434326,4.788732528686523,-0.0039924173615872,-0.0028254883363842,0.1712052077054977,0.9852232336997986,0.1802582267511391,-0.0030391303308393,2.788604546532397e-05,-0.0060101351700723,-0.0003686491691041,-0.0377472229301929,-0.0042170397937297,-0.0032934034243226,0.1703864932060241,0.9853628277778624,-0.0128261690171273,-0.0396174525851319,-0.0528469085314169,-0.0473672747611999,-0.3249850869178772,0.1975164413452148,100,115,13748,13034
19.5,1788439365298,5.267605781555176,4.563380241394043,-0.004249935504049,-0.0034718955866992,0.1689594089984893,0.9856078028678894,0.1786568108855756,-0.0041110662867637,5.054545851728777e-05,-0.0099097536876797,-0.0149697642773389,-0.0774942860007286,-0.004415719769895,-0.0031340774148702,0.1683112978935241,0.9857190251350404,-0.0040750414642629,-0.0030024554831423,-0.0321286153109017,-0.1001971960067749,0.0679125189781189,0.3689117431640625,88,49,13550,13700
19.6,1788439365398,5.070422649383545,5.267605781555176,-0.0043416107073426,-0.0030171354301273,0.1674512475728988,0.9858661890029908,0.1832144137594525,-0.0010786226469046,-7.991754892356502e-05,-0.0016520569333806,0.0065319240093231,-0.064871609210968,-0.0042645381763577,-0.0034338003024458,0.1670841574668884,0.9859274625778198,0.0040504262555093,-0.0017037487688416,-0.0254332007224924,0.4694432616233825,-0.0490903854370117,0.6580801010131836,74,47,14170,11064
19.7,1788439365498,5.521126747131348,4.14084529876709,-0.0026919171214103,-0.004409946501255,0.1658574938774109,0.9861361980438232,0.1909114653530098,-0.0060098564576949,5.063396675089527e-05,0.0375658012926578,-0.0317504182457923,-0.0282315481454134,-0.0035791816189885,-0.0033413190394639,0.1627326160669326,0.9866580963134766,-0.0405208788506106,0.0867822748553245,-0.1891304942798323,-0.2002372145652771,-0.4060510396957397,0.1345624923706054,105,31,15101,12499
19.8,1788439365598,5.690140724182129,4.084506988525391,-0.0034535564482212,-0.0038119461387395,0.1574435830116272,0.9875146150588988,0.1598015487849537,-0.0091411651600425,5.731625550087188e-05,7.383879710687324e-05,-0.0087344320490956,-0.2071148455142974,-0.0036386176943778,-0.0036894427612423,0.1533168405294418,0.9881634712219238,-0.0162407736389397,-0.0024580449424695,-0.2294034856423919,-0.0953660011291503,0.149475872516632,0.8787527084350586,78,163,14491,13412
19.9,1788439365698,5.464788913726807,4.957746505737305,-0.0036183719057589,-0.0031998981721699,0.1478472203016281,0.9889983534812928,0.1810695789540674,-0.008397470526464,-8.300885826044752e-05,0.0045210281386971,0.012128840200603,-0.1743444353342056,-0.0036376481875777,-0.0031662667170166,0.1454860121011734,0.989348530769348,-0.0013732581763674,0.0030239292176016,-0.1640963872421509,-0.114921748638153,-0.3185502290725708,-0.2673234939575195,75,116,14729,10433
20.0,1788439365798,5.830986022949219,4.14084529876709,-0.004124242812395,-0.0031718537211418,0.1389535665512085,0.9902852177619934,0.178976442986676,-0.0065855820490094,-7.225446533054012e-05,-0.0141522707417607,0.0057291388511657,-0.1602681428194046,-0.0047562168911099,-0.0038439910858869,0.1354879885911941,0.990760087966919,-0.0419758258675937,-0.0327374272270277,-0.2030028274548219,0.2399739027023315,-0.0833993554115295,0.133005142211914,86,110,13216,13327
20.1,1788439365898,5.126760482788086,5.267605781555176,-0.0044486741535365,-0.0026656687259674,0.131221204996109,0.9913395643234252,0.1697692400421319,0.0026044813690763,4.151306920741941e-05,0.0288616809993982,0.0490223132073879,-0.1279118359088897,-0.0039767911657691,-0.0015777582302689,0.1291539818048477,0.9916154146194458,0.0103972761402605,0.0406367766679386,-0.0970345101313935,-0.2324892878532409,0.4335303902626037,0.2885627746582031,103,182,14023,12103
20.2,1788439365998,5.070422649383545,5.211267471313477,-0.0039254482835531,-0.001803693245165,0.1283909827470779,0.9917141199111938,0.1824766157899616,8.859452731163111e-05,-7.37955884017957e-05,0.0028798044659197,0.001450644689612,-0.0416234582662582,-0.003919567912817,-0.0016294382512569,0.1288553029298782,0.991654336452484,0.0019654151742719,0.0118448876104343,0.0207920677170463,-0.0240524411201477,-0.0576225519180297,0.6981945037841797,84,199,11739,14238
20.3,1788439366098,4.169013977050781,6.2253522872924805,-0.0034785033203661,-0.0020743433851748,0.1324039250612259,0.991187572479248,0.1819989336889645,0.0035563589756935,2.6033110359722103e-05,0.0108036426827311,-0.0087969508022069,0.10362159460783,-0.003434375859797,-0.0015082908794283,0.1371852606534958,0.9905382990837096,0.0037516557065245,0.0397055049993488,0.2423773392366702,-0.337372362613678,-0.0459483861923217,-0.1284151077270507,131,99,12779,12650
20.4,1788439366198,4.422535419464111,5.239436626434326,-0.0035393813159316,-0.001725124195218,0.1425913274288177,0.9897738099098206,0.1725499603549274,0.0044677582628071,5.5352855253252965e-05,-0.0054283156059682,-0.0069845095276832,0.2171102464199066,-0.0037861345335841,-0.0009551625698804,0.1488701552152633,0.9888490438461304,-0.0046355571952857,0.0248020406124497,0.1806797561335138,-0.1982354521751403,0.2690327763557434,0.6219758987426758,83,52,12591,15591
20.5,1788439366298,4.563380241394043,5.690140724182129,-0.0037944735959172,-0.0011838811915367,0.1527873277664184,0.9882510900497437,0.1807328538630376,0.0059532591703323,3.085258709454911e-05,-0.0016245314618572,-0.0096561554819345,0.1650443077087402,-0.0035476982593536,-0.0011686701327562,0.1563043892383575,0.987701952457428,0.0175747583318503,-0.0032685227166664,0.1650887860760064,0.360812783241272,-0.1119582056999206,-1.6670560836791992,94,137,12166,13673
20.6,1788439366398,4.788732528686523,5.7183098793029785,-0.0036854373756796,-0.0008890071185305,0.160277634859085,0.9870647192001344,0.1811893324876809,0.0063698930404901,-5.587763810871852e-05,-0.0033525268081575,0.0048847920261323,0.167555496096611,-0.003783319145441,-0.0004065809771418,0.1635280102491378,0.9865314364433287,-0.0002914526407902,0.039200611106929,0.1537764814757086,0.1022948622703552,-0.0068151354789733,0.9068260192871094,136,41,13854,11113
20.7,1788439366498,4.8450703620910645,5.690140724182129,-0.0040900749154388,-0.0010937700280919,0.1660550832748413,0.9861074090003968,0.1864070165456878,0.0069762745965774,0.0001084258879578,-0.0199070814996957,-0.0119477864354848,0.0829687714576721,-0.0038593467324972,-0.0020424081012606,0.1671090573072433,0.98592871427536,0.0046204138355039,-0.0651868070822964,0.0597806475791724,-0.1383082866668701,0.1045479178428649,-2.3582568168640137,88,49,13322,11174
20.8,1788439366598,5.070422649383545,5.126760482788086,-0.0041782651096582,-0.001491462229751,0.1671887189149856,0.9859148859977722,0.1829532201373916,-0.0006571354780474,1.9919475986583173e-05,-0.0016485310625284,-0.0101293316110968,-0.0009100634488277,-0.0037948209792375,-0.0019376026466488,0.1668760031461715,0.9859686493873596,0.0201562929595263,-0.0641640510659598,-0.019905468919912,-0.13959801197052,-0.0466025471687316,0.0263557434082031,88,31,13444,12030
20.9,1788439366698,5.098591327667236,5.380281925201416,-0.0032445462420582,-0.0020711729303002,0.1664294749498367,0.9860458970069884,0.1836413280512675,0.0040540528201287,-0.0001619361684126,0.0195760447531938,-0.0091675398871302,-0.011798083782196,-0.0031647831201553,-0.0019427016377449,0.1668768227100372,0.9859708547592164,0.0066849335884483,0.0075310168933472,0.0190066080657609,0.0316618084907531,0.0375643372535705,0.6465291976928711,71,92,13218,11361
21.0,1788439366798,5.352112770080566,4.056337833404541,-0.0027430290356278,-0.0002643644984345,0.1661235392093658,0.9861011505126952,0.1813618686030813,-0.00358092648392,-0.0002191594825139,0.0279318951070308,0.0637353360652923,-0.0237593930214643,-0.0032767439261078,-0.0012801093980669,0.164725199341774,0.9863332509994508,-0.0400617324821685,-0.0550085485535154,-0.1059667116099428,0.7486878037452698,-0.3706192374229431,3.472865104675293,141,81,16097,12640
21.1,1788439366898,5.408450603485107,4.704225540161133,-0.0035685806069523,-0.0019907385576516,0.1572414487600326,0.9875516891479492,0.1758320204517011,-0.0040940368980679,-9.108157150173876e-05,-0.0230354815721511,-0.0096606612205505,-0.2141459584236145,-0.0034452397376298,-0.0010899566113948,0.152423620223999,0.9883086681365968,0.0092286526720669,0.0233716851580439,-0.1948402235818526,0.2128614783287048,0.0315980315208435,0.9646072387695312,115,143,15221,10997
21.2,1788439366998,5.183098793029785,5.436619758605957,-0.0034598039928823,-0.0007433358696289,0.147690549492836,0.9890272617340088,0.1785948455129539,-0.0063939021848306,-1.2217462057108498e-05,0.0011948373867198,0.012008816935122,-0.1537435948848724,-0.0033269701525568,-0.0006751948967576,0.147205039858818,0.989100217819214,0.0094157611867672,0.0033845959925721,-0.0439418992027952,-0.1120200753211975,0.0193898677825927,-0.4745674133300781,83,70,12584,14533
21.3,1788439367098,5.352112770080566,5.126760482788086,-0.0033965401817113,-0.000704058795236,0.1458444148302078,0.9893014430999756,0.1780562117553116,0.0027841274979459,2.26919230407575e-05,-0.0062253717333078,0.00304990215227,-0.0402598157525062,-0.0030651064589619,-0.0005949921905994,0.1451235264539718,0.9894086122512816,0.0128332460294602,0.004950270038662,-0.0355596130597804,0.0029748678207397,-0.0649534463882446,-1.3800029754638672,107,114,12915,11829
21.4,1788439367198,5.098591327667236,4.535211086273193,-0.0028916932642459,-0.0006762637058272,0.1444179266691208,0.9895123243331908,0.1755245655149065,-0.0032999693149403,-1.169118632849434e-05,0.0104323644191026,-0.0007687468314543,-0.0346177257597446,-0.0026606898754835,-0.0007520327344536,0.1429994106292724,0.9897189736366272,0.0044247470162496,0.0169100477656943,-0.0547513366369523,0.152356207370758,0.2539513707160949,-0.7822465896606445,109,144,14129,13923
21.5,1788439367298,5.408450603485107,4.901408672332764,-0.0019609171431511,-0.0014276901492848,0.1419841647148132,0.9898659586906432,0.1876041822402822,-0.0073624543919491,8.24710695594993e-05,0.0238689687103033,-0.0307170618325471,-0.0344489216804504,-0.0031795697286725,-0.001052925363183,0.1403211504220962,0.9901004433631896,-0.0522507181098846,0.0135613885156418,-0.0948919586335312,-0.0090276002883911,-0.5774719715118408,-0.3474702835083008,107,61,12812,12705
21.6,1788439367398,5.352112770080566,5.239436626434326,-0.0036202205810695,-0.0013070713030174,0.1386695951223373,0.99033123254776,0.1804892852092697,-0.0067726748454468,-0.0001134587242577,-0.0140990037471055,0.0033749944996088,-0.049039177596569,-0.0038260547444224,-0.000656109303236,0.1383783519268036,0.990371823310852,-0.01184418065298,0.0360058003713903,-0.046045130231661,0.1628348231315612,0.1174035668373107,-1.0287885665893557,123,92,13255,12049
21.7,1788439367498,5.183098793029785,5.352112770080566,-0.0040866117924451,-0.0007289118948392,0.1368386000394821,0.990584671497345,0.184396041083388,-0.0078267129935338,-9.583703635409856e-06,-0.0096640903502702,-0.0099435755982995,-0.0362875275313854,-0.0042123924940824,-0.0005661426112055,0.1360181868076324,0.9906972050666808,-0.0058508224344204,0.0258572181472957,-0.0484108435799352,0.1602327227592468,-0.0471795201301574,-1.1766986846923828,64,104,13751,11165
21.8,1788439367598,5.521126747131348,4.619718074798584,-0.0042456486262381,-6.93785841576755e-05,0.1354513019323349,0.9907748699188232,0.1769635391346032,-0.0065817363414508,-0.0001388152149363,0.0008398095960728,0.0315196402370929,-0.0248950403183698,-0.005669318139553,-0.0015072375535964,0.133878156542778,0.9909804463386536,-0.0857718483468427,-0.0836388099250588,-0.0907879577979545,0.2386087775230407,0.0863400101661682,1.8990812301635744,90,133,12420,13566
21.9,1788439367698,5.295774459838867,5.352112770080566,-0.0052838488481938,-0.0007748128846287,0.133121371269226,0.9910853505134584,0.1768977962558221,-0.0037780771154843,-0.0002004310270662,0.0182148274034261,0.0312245041131973,-0.0011951032793149,-0.0052968440577387,0.0002149222418665,0.1332789212465286,0.9910643696784972,0.0079324663125877,0.0655485243272369,-0.000220604444216,0.4921997189521789,0.6090729832649231,-1.0783748626708984,123,36,14568,13114
22.0,1788439367798,5.183098793029785,5.183098793029785,-0.0048619834706187,-0.0001673188817221,0.1315700560808181,0.9912949204444884,0.1776086513686229,-0.0051485675837876,2.7887887592485342e-05,0.0092560881748795,-0.0084876092150807,-0.0364257879555225,-0.0047583095729351,-0.0004843883216381,0.1305069029331207,0.9914358854293824,-0.0026788336775717,-0.0253513134388402,-0.0533360002613127,-0.0284828543663024,0.072930634021759,-1.5939950942993164,71,142,13725,11278
22.1,1788439367898,5.267605781555176,4.450704097747803,-0.0050907107070088,-0.0004365817003417,0.1289089471101761,0.9916433095932008,0.179849263246668,-0.0050856332321663,-9.42875609413682e-06,-0.012940339744091,0.0038771035615354,-0.0577918291091918,-0.0052688885480165,-0.0008164336904883,0.1278831660747528,0.9917749166488647,-0.0106993961454988,-0.0310458858363424,-0.0523901771028882,-0.0662966966629028,-0.1742019653320312,0.5020637512207031,96,74,13325,13672
22.2,1788439367998,4.901408672332764,5.267605781555176,-0.005273999646306,-0.0009412956424057,0.1272232979536056,0.9918596148490906,0.1728683341994962,-0.0042207381094533,6.057270968780532e-05,-0.0015469240024685,-0.013311892747879,-0.0277913473546504,-0.0052085854113101,-0.0007241768762469,0.1273221224546432,0.9918475151062012,-0.0002083834550535,0.0192736884310365,0.0034987000059687,0.1369434595108032,0.2643347382545471,-0.2463178634643554,98,25,12456,13255
22.3,1788439368098,4.873239517211914,5.464788913726807,-0.0055960291065275,-0.0010141970124095,0.1274297386407852,0.9918312430381776,0.1859721676535108,-0.0042275142818311,4.002802730500836e-05,-0.0177122987806797,-0.0027476388495415,0.0123610384762287,-0.0055743008852005,-0.0013909041881561,0.1273262053728103,0.9918442964553832,-0.001769618398336,-0.0249296437895423,-0.0182640388944134,0.0256896615028381,-0.2552962899208069,0.0128812789916992,61,89,12611,12689
22.4,1788439368198,5.183098793029785,4.760563373565674,-0.00568208983168,-0.0006225990364328,0.1291032433509826,0.9916146993637084,0.1830022096486634,0.0061398337563918,-8.377421601658639e-05,-0.0014682484325021,0.0208081472665071,0.0696795880794525,-0.0055509405210614,-0.0009461836889386,0.1302578300237655,0.9914642572402954,0.0071873490195076,-0.0265078959130188,0.0477112607586787,0.030072271823883,-0.1569492816925048,0.6477670669555664,63,36,12740,13735
22.5,1788439368298,4.929577350616455,5.042253494262695,-0.0055333599448204,-0.0013490502024069,0.1300743818283081,0.9914878606796264,0.1796791634833864,0.0043514260429449,-1.0425608912508309e-08,0.0007406783988699,-0.0107356663793325,-0.0069453087635338,-0.0056263916194438,-0.0015312517061829,0.1301084011793136,0.9914826154708862,-0.0077354997120169,-0.0111129871167421,-0.0089364836237556,0.0081254839897155,0.1096079349517822,-1.456171989440918,72,22,13578,12495
22.6,1788439368398,5.183098793029785,5.7183098793029785,-0.0058890674263238,-0.0019082748331129,0.1297844797372818,0.9915229082107544,0.1785932408401169,0.0032036259803988,5.589994861918492e-05,-0.0143639557063579,-0.0277622770518064,0.0001051934668794,-0.0056595802307128,-0.0012321658432483,0.1303375512361526,0.9914527535438538,0.0183581943526747,0.0425446277186391,0.0198514913040704,0.1327291131019592,-0.2087499499320984,-0.4515876770019531,124,124,12843,10283
22.7,1788439368498,5.492957592010498,4.647887229919434,-0.0061107967048883,0.0007219439139589,0.1300735473632812,0.9914852976799012,0.179202768049703,0.0020214905417625,-0.0001702208865297,-0.0006804026197642,0.1116454452276229,-0.0094700213521718,-0.0056396778672933,-0.0008676052093505,0.1293099522590637,0.9915878772735596,-2.822881435149957e-05,-0.1051319951025935,-0.0396845069602755,-0.3729792833328247,0.7732663154602051,2.921602249145508,117,122,13225,13145
22.8,1788439368598,5.154929637908936,5.352112770080566,-0.0052515771239995,-0.0009371446212753,0.1267404705286026,0.9919215440750122,0.1691095026621685,-0.0015119711518983,-1.8366185299675452e-05,0.0093079013749957,0.0422592237591743,-0.0791331529617309,-0.00498609803617,-0.0003690375015139,0.1261366009712219,0.9920002222061156,0.0253061408223095,0.0287120527522615,-0.0603814741558296,-0.33157479763031,-0.3675236105918884,-1.1443748474121094,94,86,13972,10900
22.9,1788439368698,5.436619758605957,4.647887229919434,-0.0049199829809367,0.0005921444389969,0.1245499327778816,0.9922009706497192,0.1804768879508022,-0.0044174031672526,1.078155243615108e-05,0.0108363758772611,0.0235765725374221,-0.0450001284480094,-0.0048282444477081,0.0004178462550044,0.1230451464653015,0.9923893213272096,0.0106634963100983,0.012552367661369,-0.0779121083913707,0.0348356962203979,-0.1894066929817199,0.1104249954223632,111,153,13006,13446
23.0,1788439368798,5.183098793029785,4.704225540161133,-0.0048771859146654,0.0003359232796356,0.1220352798700332,0.9925137162208556,0.1822006030559927,-0.0046238354300349,6.417129545835603e-06,-0.000414081470808,0.0023052201140671,-0.0462580993771553,-0.0047620879486203,6.513949483633041e-05,0.1211291179060936,0.9926254153251648,-0.0095470559896641,-0.0574079306166575,-0.0421086160460162,-0.0456866025924682,0.0327658653259277,0.7929973602294922,78,32,13723,13378
23.1,1788439368898,5.380281925201416,5.267605781555176,-0.0045503857545554,0.0005380990332923,0.1201203539967536,0.9927487373352052,0.1782566857828777,-0.0069815085648385,-5.735856590569017e-05,0.0051461802795529,0.0127327498048543,-0.0365662612020969,-0.0047322316095232,0.0008252272382378,0.1193505749106407,0.9928405284881592,-0.0002846182894084,0.0572816668191329,-0.0525922955200615,-0.0081787705421447,-0.2038001418113708,1.089216232299805,112,85,12951,11518
23.2,1788439368998,5.239436626434326,5.605633735656738,-0.0045873285271227,0.000799587520305,0.1184858679771423,0.9929447770118712,0.1849247678329395,-0.0039816794658544,6.670005303267776e-05,0.0040197498165071,-0.0079901050776243,-0.0179736744612455,-0.0038434751331806,0.0001754974946379,0.118419274687767,0.992956280708313,0.0374799333093011,-0.0326591831511833,0.0015671008635201,-0.4412078261375427,-0.1719777584075927,2.337874412536621,87,54,12345,11181
23.3,1788439369098,5.211267471313477,5.408450603485107,-0.0049568102695047,0.0010926525574177,0.1174696236848831,0.9930634498596193,0.1757526649338689,0.006403137665471,-0.0001150574372137,-0.0355873741209507,0.0240226481109857,-0.0306645669043064,-0.004917643032968,0.0011602565646171,0.1179424375295639,0.9930076003074646,0.0022852704065371,0.0125940000090357,0.0220094819254911,0.1408563256263733,-0.4099708795547485,0.0165719985961914,126,108,13782,10814
23.4,1788439369198,5.323943614959717,4.478873252868652,-0.0049731377512216,0.0002723419456742,0.116817757487297,0.9931408762931824,0.183373312802298,-1.8548407401654007e-05,-4.423131455327522e-05,-0.0027811673935502,-0.004813642706722,-0.0417856127023696,-0.0049126530066132,0.0006891293451189,0.1163341477513313,0.993197739124298,0.0092109193489494,0.0595971148245896,-0.0179581734527729,0.481605052947998,0.1668108105659485,-2.409707546234131,110,115,13223,13716
23.5,1788439369298,5.070422649383545,5.154929637908936,-0.0050997408106923,-0.0001009352563414,0.1153971627354621,0.9933063387870787,0.1847831250312365,-0.0029017901506109,5.811363085200433e-05,-0.0066173560917377,-0.0174439996480941,-0.0322667360305786,-0.0057065077126026,-0.0013502221554517,0.1152016371488571,0.9933248162269592,-0.0559615321258336,-0.0864649814566715,-0.0209812307307,-0.0934049487113952,-0.0615224838256835,3.2013168334960938,105,57,13498,10716
23.6,1788439369398,4.901408672332764,5.408450603485107,-0.0052055874839425,0.0005285273073241,0.1138937100768089,0.9934791922569276,0.1761750173000683,-0.0022482516590561,-0.0001557129824817,0.0168942082673311,0.0331367887556552,-0.0367402993142604,-0.0051497621461749,0.0005857041105628,0.113830529153347,0.9934867024421692,0.0162331062260625,0.021409697764286,-0.0509818761958273,0.2093950510025024,-0.269933819770813,-0.8397712707519531,64,101,12301,9407
23.7,1788439369498,4.0,4.169013977050781,-0.0045325276441872,0.0006048353388905,0.1134459152817726,0.9935336709022522,0.1613917031601864,-0.0040788212148959,4.342442732837236e-09,0.0161752235144376,0.000985189108178,0.0187617372721433,-0.0044509395956993,0.0007767621427774,0.1131152734160423,0.9935716986656188,0.0067390508811723,0.0109515838764077,-0.0332128266551172,0.1202533841133117,-0.0980933308601379,1.660898208618164,87,114,11512,10432
23.8,1788439369598,4.394366264343262,4.084506988525391,-0.0044797444716095,0.0005977878463454,0.1116214469075203,0.9937405586242676,0.154458040717718,-0.0045880482186108,1.648853132603293e-05,-0.001903090509586,-0.0068128937855362,-0.0537431538105011,-0.0043119927868247,0.0003124298527836,0.1115880385041236,0.99374520778656,0.0067752883944866,-0.018200084463367,-0.0013993454133319,-0.1924346089363098,-0.2063785791397094,0.0166149139404296,62,116,11312,9998
23.9,1788439369698,3.746478796005249,3.4084506034851074,-0.0044340505264699,-3.402461879886687e-05,0.1102494820952415,0.9938940405845642,0.1382981977541071,-0.0011899913593074,9.912130443899352e-06,-0.0056226165033876,-0.0163737256079912,-0.047022208571434,-0.0043864818289875,0.0002841055393218,0.1100629195570945,0.9939149022102356,0.0034063926279344,0.0131198332954289,-0.0477377645220257,-0.2225458025932312,-0.1302328109741211,0.6778526306152344,83,116,10280,11326
24.0,1788439369798,4.422535419464111,4.2816901206970215,-0.0041056894697248,0.0006921362364664,0.109983779489994,0.9939246773719788,0.1365160023806889,-0.0062415943671648,-3.1764404663162885e-05,0.0107812602072954,0.0121727501973509,-0.0137160187587141,-0.0041080825030803,0.0007505882531404,0.1085967719554901,0.9940770864486694,-0.0031280464322387,0.0051305663678777,-0.0716161036547228,0.0848777294158935,0.3707132339477539,1.3717155456542969,140,110,14637,12634
24.1,1788439369898,4.732394218444824,4.056337833404541,-0.0042515341192483,0.0012881346046924,0.1066928580403328,0.9942821264266968,0.1746138116673335,-0.003407097576893,-5.564674869999563e-05,0.0007014932925812,0.0351512171328067,-0.0467549785971641,-0.0040548993274569,0.0013635465875267,0.1064280197024345,0.9943112134933472,0.0106157474753159,0.0072042840938752,-0.0124425039980847,-0.3306424021720886,-0.2537922859191894,-0.2405986785888672,27,25,10517,10507
24.2,1788439369998,4.2253522872924805,3.549295663833618,-0.0040599200874567,0.0009955796413123,0.1052081286907196,0.9944413900375366,0.1612654126931068,7.664051662132598e-06,1.5539781931013653e-05,0.0006337468512356,-0.0123755857348442,-0.0445072054862976,-0.0042633926495909,0.0010971305891871,0.103455863893032,0.9946243762969972,-0.0065676371074749,0.0118633130019811,-0.0796425230137985,-0.3766371607780456,0.3229121565818786,0.9075517654418944,22,16,8604,9329
24.3,1788439370098,3.859154939651489,3.2957746982574463,-0.0044741304591298,0.0016056796303018,0.1023461371660232,0.9947375059127808,0.1171747447339007,-0.0049289948344111,-1.635928932894569e-05,-0.005291290115565,0.0246063321828842,-0.0361854434013366,-0.0045430706813931,0.0013829004019498,0.1022726073861122,0.9947450757026672,-0.0070231634048298,-0.0115185950587722,-0.0172131179591306,-0.2139261960983276,0.1011190414428711,-0.8029727935791016,112,131,10641,11557
24.4,1788439370198,4.478873252868652,4.563380241394043,-0.0044856704771518,0.0014807211700826,0.1024424582719802,0.9947277307510376,0.1538416105969584,-0.003355215790118,5.353140564713594e-05,0.0027014685329049,-0.0006215280154719,0.0162752773612737,-0.0045212572440505,0.0018542353063821,0.1025473996996879,0.9947161674499512,-0.0024538853063507,0.0309983408399944,-0.0135017548673626,-0.4990292191505432,-0.1455667614936828,0.3631658554077148,13,46,8348,9948
24.5,1788439370298,2.760563373565674,4.056337833404541,-0.0045283865183591,0.0025269459001719,0.1031583696603775,0.9946513772010804,0.1578111301640202,-0.0012090363201638,-4.108551905739858e-05,-0.0006005073664709,0.0309700649231672,0.0416781082749366,-0.0046186437830328,0.0025312034413218,0.1048382818698883,0.9944753050804138,-0.0047328363846536,0.0087161468223028,0.0490893181238933,-0.0305554270744323,0.3430232405662536,-0.0006370544433593,102,68,9008,6991
24.6,1788439370398,5.154929637908936,5.267605781555176,-0.0050431764684617,0.0012862330768257,0.1050690710544586,0.9944512844085692,0.0992155180107585,0.0037758315837284,-9.08984520447299e-05,-0.024675291031599,-0.0407499186694622,0.0287310648709535,-0.0045576225966215,-0.0007498441264033,0.1056909039616584,0.9943883419036864,-0.0017057655257383,-0.2530551510707821,0.0475366566444626,2.2560577392578125,-0.216823935508728,0.3592538833618164,189,249,14968,14743
24.7,1788439370498,5.352112770080566,5.746479034423828,-0.0045534968376159,-0.0011369357816874,0.107425533235073,0.9942020773887634,0.2023410710848479,0.0027545891574694,-0.000214471551236,-0.0008499874384142,0.0312824063003063,0.0557383894920349,-0.0045652389526367,-0.0011433288455009,0.1088323891162872,0.9940490126609802,0.0045495988535185,0.0290509468077085,0.055374087940782,-0.4177260398864746,0.0326207876205444,-0.2395000457763672,70,89,12346,10814
24.8,1788439370598,4.619718074798584,5.380281925201416,-0.0045835468918085,-0.0017401068471372,0.1089881286025047,0.9940309524536132,0.1817890759494355,0.0010773163185562,0.0001481756562039,-0.0026387237012386,-0.0189288947731256,0.0102393990382552,-0.0047982241958379,-0.0015759095549583,0.1092752739787101,0.993998646736145,-0.0049107574243942,-0.0006815221965557,-0.0004833914783276,0.2416406273841858,0.1145058274269104,-0.9387474060058594,23,46,9585,8741
24.9,1788439370698,5.126760482788086,4.704225540161133,-0.0045550041832029,-0.0018774897325783,0.1104296520352363,0.9938716888427734,0.1640309915954072,0.0022291900912456,8.19037060001038e-06,0.0063771968707442,-0.0084195621311664,0.0382510274648666,-0.0041683446615934,-0.0024761389940977,0.1109420210123062,0.993815004825592,0.0106396784979772,-0.0340173969765014,-0.0090211243815511,0.8558298945426941,-0.1433752179145813,-0.0983724594116211,123,91,14191,12738
25.0,1788439370798,5.380281925201416,4.8450703620910645,-0.0041422066278755,-0.0025226785801351,0.1085915267467498,0.994074523448944,0.1801038222656981,-0.0015716481568574,0.0001177234600905,0.0035383373033255,-0.0154576981440186,-0.0944816917181015,-0.0041121374815702,-0.0019851615652441,0.1074829176068306,0.9941964149475098,0.0012132846560233,0.0063590275490172,-0.0486939442201424,-0.0189321637153625,0.0566000342369079,0.0826406478881836,104,23,13423,12505
25.1,1788439370898,5.239436626434326,4.704225540161133,-0.0041167507879436,-0.0018412643112242,0.105981521308422,0.9943579435348512,0.1777583698527833,-0.0059516754821946,1.9785198756504583e-05,0.000679783988744,0.0102594727650284,-0.0528478883206844,-0.0041500627994537,-0.0008168406784534,0.1048525497317314,0.9944787621498108,0.0058584032473197,0.0621800998283908,-0.0700940613116822,-0.0211780071258544,-0.2622131109237671,-0.1288518905639648,74,121,13601,12927
25.2,1788439370998,5.239436626434326,4.873239517211914,-0.0051073236390948,0.0009930098894983,0.1017427071928978,0.9947971105575562,0.1782762698122978,-0.0034113781229108,-0.0001610530168587,-0.0275602117180824,0.0607264377176761,-0.0844022631645202,-0.0052000526338815,0.0014793053269386,0.1004814654588699,0.9949243068695068,0.0115363010031627,0.0132399546719909,-0.0314873173233263,-0.0071007013320922,-0.269870400428772,-0.0712909698486328,84,25,13391,12770
25.3,1788439371098,4.957746505737305,5.633802890777588,-0.0055582276545464,0.002260822802782,0.0989341363310813,0.995075821876526,0.1821168756784921,0.0005904671556642,-0.000135788848974,-0.0044628879986703,0.0444024801254272,-0.0809329897165298,-0.0056249052286148,0.0021042507141828,0.0983331650495529,0.9951354265213012,-0.0035586918539956,-0.0076011185624571,-0.038008130809093,-0.2486966252326965,0.1379088759422302,0.8137874603271484,69,115,13162,11053
25.4,1788439371198,4.704225540161133,4.816901206970215,-0.0056421123445034,0.0016801585443317,0.0980640649795532,0.9951626658439636,0.1800388276544429,-0.0030571627033245,4.2688128874176245e-05,-0.0030468837358057,-0.018009128049016,-0.0110486894845962,-0.0043966425582766,0.0025904383510351,0.0982784628868103,0.995145857334137,0.0844048728873095,0.076592709606936,0.0188122449923209,0.7407048940658569,-0.4800927639007568,-0.4447641372680664,165,182,14759,13884
25.5,1788439371298,5.070422649383545,4.507042407989502,-0.0038891693111509,0.0027506039477884,0.0978913456201553,0.9951856732368468,0.1795890934995819,-0.0060852364562624,-1.0186210256549078e-05,0.0094306739047169,0.0014859943185001,-0.0057087456807494,-0.0034169210121035,0.0022004712373018,0.0980599150061607,0.9951722025871276,0.0064473279798544,-0.0462331546099253,0.0048729505289807,-0.1384059190750122,0.1149106621742248,-0.2137403488159179,94,118,13137,14771
25.6,1788439371398,5.126760482788086,4.788732528686523,-0.0036173404660075,0.002148289931938,0.0975453555583953,0.9952222108840942,0.1841179858099648,-0.0030799113966345,1.9643819286644455e-08,-0.0089916819706559,0.0015679926145821,-0.0140552092343568,-0.0037584835663437,0.0020963745191693,0.097525767982006,0.9952237010002136,-0.0104970570079998,-0.0026598973389903,-0.0229330319984804,-0.1034842729568481,-0.2792614102363586,-0.5331573486328125,47,162,12878,14049
25.7,1788439371498,5.239436626434326,4.450704097747803,-0.0040828767232596,0.0013608777662739,0.096928171813488,0.9952820539474488,0.1868839071171948,-0.002695882829709,8.598799733006866e-10,-0.0176246017217636,-0.0313046760857105,-0.019564526155591,-0.0041857715696096,0.0021015405654907,0.0957533046603202,0.9953940510749816,-0.0013142343596902,0.0507089335496496,-0.0582352957299352,0.0220149159431457,-0.08536297082901,-0.7440958023071289,97,63,13640,13906
25.8,1788439371598,5.154929637908936,5.267605781555176,-0.0042788707651197,0.0013105573598295,0.0948236435651779,0.9954840540885924,0.1870046339037692,-0.0046373789481273,0.0001274754281063,-0.0079089663922786,-0.0284078959375619,-0.0379673950374126,-0.00434379465878,0.0009934054687619,0.0937332734465599,0.9955874085426332,0.0015775671700667,-0.01560743077656,-0.0418642043088778,-0.03621107339859,-0.0530269742012023,-0.5139398574829102,114,51,13902,11251
25.9,1788439371698,5.295774459838867,4.507042407989502,-0.0044701653532683,0.0007933208253234,0.0926772579550743,0.995685875415802,0.1830909963666065,-0.001296433782983,-1.771145639168798e-05,-0.0075585483573377,-0.0152937900274991,-0.0355425663292408,-0.0045606708154082,0.0009000413119792,0.0920588001608848,0.9957427978515624,-0.0022732388410446,0.0150843373980441,-0.0428515495900303,-0.0287004113197326,0.0628864765167236,-0.7142143249511719,90,158,13592,11684
26.0,1788439371798,5.239436626434326,4.676056385040283,-0.0044558201916515,0.0001402708003297,0.0903592258691787,0.9958993196487428,0.1815008820117503,-0.0040656699767706,1.8191486117014263e-05,0.0009511855896562,-0.0119813699275255,-0.0428301729261875,-0.004560736939311,0.0002358695492148,0.0894094482064247,0.9959844946861268,-0.007424576736969,0.0111576823066689,-0.0454164287143145,0.099891722202301,0.2601444125175476,-0.793828010559082,91,26,13597,12989
26.1,1788439371898,5.239436626434326,5.352112770080566,-0.0042338715866208,0.0004926032852381,0.0883526653051376,0.996080219745636,0.1795914913233079,-0.0033118803934564,-2.3106464790328484e-05,0.0135259227827191,0.0161340273916721,-0.0367380306124687,-0.0041608875617384,0.0001181103289127,0.0877800360321998,0.996131181716919,0.0085534469892778,-0.0247668969654239,-0.0444227591969986,0.05816650390625,-0.1349226236343383,-0.7521486282348633,83,102,13527,10745
26.2,1788439371998,5.239436626434326,4.591549396514893,-0.0042215511202812,0.0006887872004881,0.0865475907921791,0.9962385892868042,0.1810675406508666,0.0004527045201097,-9.194309141140584e-05,-1.997883191506844e-05,0.019633175805211,-0.0495891347527504,-0.0038439510390162,0.0014384370297193,0.0857394188642501,0.9963091611862184,0.0182066067933429,0.0442170057565423,-0.0366194668865947,-0.1119118928909301,0.1482962369918823,1.5913476943969729,96,131,13526,13124
26.3,1788439372098,4.619718074798584,4.788732528686523,-0.0036574199330061,0.0015691886655986,0.0838108658790588,0.9964737296104432,0.1763580593955417,-0.005454142269418,-0.0001976840746066,0.0059958412311971,0.0080888923257589,-0.0553327947854995,-0.0032566301524639,-0.0016232458874583,0.0837314128875732,0.996481716632843,0.0092767417461679,-0.2772841227893793,-0.0156201977234832,0.2054869532585144,-0.3183542490005493,-4.078941822052002,155,36,14872,13761
26.4,1788439372198,5.042253494262695,4.732394218444824,-0.0034079567994922,-0.0013545935507863,0.0825420618057251,0.9965807795524596,0.1873968078030518,0.0002991070195434,-0.0001983757198674,-0.0014583904994651,0.0144144110381603,-0.0186176672577857,-0.0033718226477503,-0.0017216810956597,0.0822272300720214,0.996606469154358,-0.0040550804968326,-0.0464086953887189,-0.0136265497667255,-0.1650676727294922,0.1664989590644836,-1.4896106719970703,83,40,13051,13796
26.5,1788439372298,5.126760482788086,4.929577350616455,-0.0030822101980447,-0.0014720816398039,0.0821643695235252,0.9966129064559937,0.1756269139760731,-0.0014580490840002,-9.725968610277426e-05,0.0081525230780243,0.0166029073297977,0.005975920241326,-0.0029769958928227,-0.0012275446206331,0.0824912339448928,0.9965866208076476,0.0083232755668047,0.0156475197064272,0.010800731560253,0.118728756904602,-0.4625324606895447,0.9188127517700196,105,30,12800,13213
26.6,1788439372398,5.070422649383545,5.605633735656738,-0.0030109316576272,-0.0013052388094365,0.082057736814022,0.9966222047805786,0.1833630421133389,-0.0051094526756904,-1.7119507134437014e-05,0.0033906651660799,0.0064418893307447,-0.0042725377716124,-0.0029099965468049,-0.0009406683966517,0.0820506140589714,0.9966235160827636,0.0047470334103899,0.020810360964592,-0.0082537831583578,0.1915727257728576,0.3261979818344116,-0.9746417999267578,92,103,13158,10884
26.7,1788439372498,4.929577350616455,5.464788913726807,-0.0026258754078298,-0.0006955373100936,0.0817762538790702,0.9966470003128052,0.17588572488734,0.0008148249548433,-2.671937900546077e-05,0.0056819920428097,0.0044289249926805,-0.0019270156044512,-0.0020007332786917,-0.0002602050080895,0.0826695561408996,0.9965749979019164,0.0185075169301843,0.0173415886151598,0.0390306186672182,0.2144225239753723,0.2085556387901306,-0.531834602355957,100,129,13656,11502
26.8,1788439372598,5.211267471313477,4.507042407989502,-0.0016149962320923,-0.0002110378700308,0.0827863365411758,0.9965659976005554,0.1799279690754781,-0.0039637091379216,2.1806779663223262e-05,0.0143818594515323,-0.0064768600277602,0.0061819050461053,-0.0013446426019072,0.000286822207272,0.0822633728384971,0.9966096878051758,0.0027079022600321,0.0264626892911695,-0.044573742460449,-0.0055513381958007,-0.2050105929374694,-2.05859375,79,57,13959,13471
26.9,1788439372698,5.352112770080566,5.295774459838867,-0.0008370350697077,-0.0002385537954978,0.0806634277105331,0.996740996837616,0.1721700209219845,-0.0048923756758587,8.332919836475614e-05,0.0187030378729105,-0.0180879235267639,-0.0498443990945816,-0.0020015528425574,0.0007707634940743,0.0790944620966911,0.9968647956848145,-0.0696327334224438,0.0694488649251603,-0.1077678031180563,0.1165827512741088,0.3060386180877685,-0.9516534805297852,69,91,13388,11277
27.0,1788439372798,5.154929637908936,4.873239517211914,-0.0025559784844517,0.0006399556295946,0.0773112475872039,0.9970034956932068,0.1884224385175745,-0.012840254340908,2.459716293121057e-05,-0.0220703985542058,0.001859311829321,-0.0550307370722293,-0.0036938721314072,-0.0002612471580505,0.0751481652259826,0.9971655607223512,-0.0483391217942142,-0.0204438977654736,-0.079687574696123,0.0816091299057006,0.1923097968101501,-0.5438156127929688,47,146,13480,12415
27.1,1788439372898,5.014084339141846,4.478873252868652,-0.0032886681146919,0.0010379079030826,0.0741177797317504,0.9972435235977172,0.1700677367355076,0.0050296844827746,4.9027503171588525e-06,0.0149698443710803,0.0482841618359088,-0.0427273772656917,-0.0028425473719835,0.0012780679389834,0.0739072933793068,0.9972602725028992,0.0079321043396018,-0.0085785413646816,-0.0389006001534982,0.5033342242240906,0.3747709393501282,0.3999805450439453,131,68,14544,13965
27.2,1788439372998,5.267605781555176,4.591549396514893,-0.0034219929948449,0.0010573293548077,0.0710502192378044,0.9974663257598876,0.1902106434905602,-0.0050596033567169,1.4568836118804304e-05,-0.0136728612706065,-0.010686470195651,-0.0801255106925964,-0.0033671222627162,0.0005830880254507,0.0707856491208076,0.9974856972694396,0.0035425419928171,-0.0473618538525153,-0.0363767899548552,0.1589275002479553,0.1351315379142761,-0.5693035125732422,96,32,13267,13624
27.3,1788439373098,5.239436626434326,5.408450603485107,-0.0035469187423586,0.0012424564920365,0.0693938210606575,0.997582197189331,0.1796871049407495,-0.0005980144259565,1.7561958087732131e-09,0.0012443935265764,0.009761257097125,-0.0338900983333587,-0.0036107348278164,0.0011058496311306,0.0687989965081214,0.9976233839988708,-0.0056579116566997,-0.0119317026779078,-0.0324451589987472,0.0774483680725097,0.0585466027259826,-0.1009254455566406,98,68,13306,10728
27.4,1788439373198,5.577464580535889,4.197183132171631,-0.0037664356641471,0.0019445188809186,0.0678710713982582,0.9976851344108582,0.1856991804831645,-0.0051631393435612,-0.0001023387670948,-0.0045745591633021,0.0305511560291051,-0.042691558599472,-0.0038284212350845,0.0024424344301223,0.0654580146074295,0.9978449940681458,0.0032735385803981,0.0271620458818302,-0.1086920092135102,-0.3704869747161865,0.0199863910675048,1.1632347106933594,104,103,14639,12694
27.5,1788439373298,5.521126747131348,4.14084529876709,-0.0035642720758914,0.0023179887793958,0.0620195344090461,0.9980658292770386,0.1806975745355821,-0.0034046645266279,6.482227509295742e-05,0.0102561023086309,-0.0038955912459641,-0.1185218915343284,-0.0035198284313082,0.0024136779829859,0.0597153455018997,0.998206377029419,0.0017598289328381,0.0030518108079614,-0.1453834205195939,-0.0433934926986694,0.1733570098876953,1.3600177764892578,100,57,14589,9451
27.6,1788439373398,5.6619720458984375,4.169013977050781,-0.003846714971587,0.0025461856275796,0.0530380308628082,0.998581886291504,0.1782158328175897,-0.0069040625080074,-3.971169985808538e-05,-0.0090400986373424,0.0010439250618219,-0.1786229312419891,-0.0039342753589153,0.002678501419723,0.0517505817115306,0.9986487030982972,-0.0116386379880233,0.0057050863017345,-0.1973457462471859,-0.0225998163223266,-0.3979777097702026,0.3142900466918945,81,26,14096,12513
27.7,1788439373498,5.239436626434326,4.563380241394043,-0.0042553450912237,0.003022123593837,0.0435240045189857,0.9990387558937072,0.1718529063886281,-0.0046598340949397,-1.8822256418169345e-05,-0.0061677983030676,0.0090492060407996,-0.1754302084445953,-0.0042340671643614,0.0030593713745474,0.0410273745656013,0.999144434928894,0.0023053771297463,0.0022248485705234,-0.1567780673424759,0.014858603477478,0.218813419342041,1.6854734420776367,84,40,13043,13981
27.8,1788439373598,5.239436626434326,5.521126747131348,-0.0040778880938887,0.0027515867259353,0.0389247126877307,0.9992300271987916,0.1820062662702253,-0.0070285068135846,4.890443409595923e-05,0.0052728969603776,-0.0052407155744731,-0.0657025948166847,-0.0040907422080636,0.0027932114899158,0.0379428975284099,0.9992676377296448,0.0021593371330824,0.0010756263447886,-0.0507703322617576,-0.1716549396514892,-0.2741952538490295,-0.0607786178588867,89,83,13142,10446
27.9,1788439373698,5.211267471313477,4.901408672332764,-0.0041925264522433,0.0030099113937467,0.0365870669484138,0.9993171095848083,0.1779915375354985,-0.0059226144896562,-4.4767611608338736e-05,-0.0034424043260514,0.009765519760549,-0.0531216077506542,-0.0041416129097342,0.0034154644235968,0.0352384373545646,0.9993644952774048,0.0041966016288244,0.0142487238546158,-0.0568162511073394,0.1207419037818908,-0.1579269766807556,-0.2107448577880859,109,159,13402,12581
28.0,1788439373798,5.267605781555176,4.704225540161133,-0.0040016556158661,0.0041625560261309,0.0341107733547687,0.9994013905525208,0.181259189420531,-0.0043918739244608,-0.000339988390853,0.0058757970109581,0.0265070218592882,-0.0365651100873947,-0.0040711620822548,0.0033056428655982,0.0334879420697689,0.9994254112243652,-0.0053827691372672,-0.0473262110852797,-0.0446074527198989,0.2646894454956054,-0.0934374928474426,-4.995147705078125,78,125,13414,13016
