time_s,timestamp_ms,wheel_vels__velocity_left,wheel_vels__velocity_right,odom__orient_x,odom__orient_y,odom__orient_z,odom__orient_w,odom__lin_x,odom__lin_y,odom__lin_z,odom__ang_x,odom__ang_y,odom__ang_z,imu__orient_x,imu__orient_y,imu__orient_z,imu__orient_w,imu__angvel_x,imu__angvel_y,imu__angvel_z,imu__acc_x,imu__acc_y,imu__acc_z,wheel_status__current_ma_left,wheel_status__current_ma_right,wheel_status__pwm_left,wheel_status__pwm_right
0.0,1788437321320,0.0,0.0,-0.0015894337557256,0.0010874865110963,-0.996462106704712,0.0840218216180801,0.0,0.0,0.0,0.0,0.0,0.0,-0.0016502356156706,0.000964899547398,-0.9959462881088256,0.0899300202727317,-0.0001073766945619,-0.0020354942995327,-0.0005913758681144,0.0054823756217956,-0.0125775337219238,0.0105228424072265,0,0,0,0
0.1,1788437321420,0.0,0.0,-0.0015894337557256,0.0010874865110963,-0.996462106704712,0.0840218216180801,0.0,0.0,0.0,0.0,0.0,0.0,-0.0016502356156706,0.000964899547398,-0.9959462881088256,0.0899300202727317,-0.0001073766945619,-0.0020354942995327,-0.0005913758681144,0.0054823756217956,-0.0125775337219238,0.0105228424072265,0,0,0,0
0.2,1788437321520,0.0,0.0,-0.0015894337557256,0.0010874865110963,-0.996462106704712,0.0840218216180801,0.0,0.0,0.0,0.0,0.0,0.0,-0.0016502356156706,0.000964899547398,-0.9959462881088256,0.0899300202727317,-0.0001073766945619,-0.0020354942995327,-0.0005913758681144,0.0054823756217956,-0.0125775337219238,0.0105228424072265,0,0,0,0
0.3,1788437321620,0.0,0.0,-0.0015894337557256,0.0010874865110963,-0.996462106704712,0.0840218216180801,0.0,0.0,0.0,0.0,0.0,0.0,-0.0016502356156706,0.000964899547398,-0.9959462881088256,0.0899300202727317,-0.0001073766945619,-0.0020354942995327,-0.0005913758681144,0.0054823756217956,-0.0125775337219238,0.0105228424072265,0,0,0,0
0.4,1788437321720,0.0,0.0,-0.0015894337557256,0.0010874865110963,-0.996462106704712,0.0840218216180801,0.0,0.0,0.0,0.0,0.0,0.0,-0.0016502356156706,0.000964899547398,-0.9959462881088256,0.0899300202727317,-0.0001073766945619,-0.0020354942995327,-0.0005913758681144,0.0054823756217956,-0.0125775337219238,0.0105228424072265,0,0,0,0
0.5,1788437321820,0.0,0.0,-0.0015894337557256,0.0010874865110963,-0.996462106704712,0.0840218216180801,0.0,0.0,0.0,0.0,0.0,0.0,-0.0016502356156706,0.000964899547398,-0.9959462881088256,0.0899300202727317,-0.0001073766945619,-0.0020354942995327,-0.0005913758681144,0.0054823756217956,-0.0125775337219238,0.0105228424072265,0,0,0,0
0.6,1788437321920,0.0,0.0,-0.0015894337557256,0.0010874865110963,-0.996462106704712,0.0840218216180801,0.0,0.0,0.0,0.0,0.0,0.0,-0.0016502356156706,0.000964899547398,-0.9959462881088256,0.0899300202727317,-0.0001073766945619,-0.0020354942995327,-0.0005913758681144,0.0054823756217956,-0.0125775337219238,0.0105228424072265,0,0,0,0
0.7,1788437322020,0.0,0.0,-0.0015894337557256,0.0010874865110963,-0.996462106704712,0.0840218216180801,0.0,0.0,0.0,0.0,0.0,0.0,-0.0016502356156706,0.000964899547398,-0.9959462881088256,0.0899300202727317,-0.0001073766945619,-0.0020354942995327,-0.0005913758681144,0.0054823756217956,-0.0125775337219238,0.0105228424072265,0,0,0,0
0.8,1788437322120,0.0,0.0,-0.0015894337557256,0.0010874865110963,-0.996462106704712,0.0840218216180801,0.0,0.0,0.0,0.0,0.0,0.0,-0.0016502356156706,0.000964899547398,-0.9959462881088256,0.0899300202727317,-0.0001073766945619,-0.0020354942995327,-0.0005913758681144,0.0054823756217956,-0.0125775337219238,0.0105228424072265,0,0,0,0
0.9,1788437322220,0.0,0.0,-0.0015894337557256,0.0010874865110963,-0.996462106704712,0.0840218216180801,0.0,0.0,0.0,0.0,0.0,0.0,-0.0016502356156706,0.000964899547398,-0.9959462881088256,0.0899300202727317,-0.0001073766945619,-0.0020354942995327,-0.0005913758681144,0.0054823756217956,-0.0125775337219238,0.0105228424072265,0,0,0,0
1.0,1788437322320,0.0,0.0,-0.0015894337557256,0.0010874865110963,-0.996462106704712,0.0840218216180801,0.0,0.0,0.0,0.0,0.0,0.0,-0.0016502356156706,0.000964899547398,-0.9959462881088256,0.0899300202727317,-0.0001073766945619,-0.0020354942995327,-0.0005913758681144,0.0054823756217956,-0.0125775337219238,0.0105228424072265,0,0,0,0
1.1,1788437322420,0.0,0.0,-0.0015894337557256,0.0010874865110963,-0.996462106704712,0.0840218216180801,0.0,0.0,0.0,0.0,0.0,0.0,-0.0016502356156706,0.000964899547398,-0.9959462881088256,0.0899300202727317,-0.0001073766945619,-0.0020354942995327,-0.0005913758681144,0.0054823756217956,-0.0125775337219238,0.0105228424072265,0,0,0,0
1.2,1788437322520,0.0,0.0,-0.0015894337557256,0.0010874865110963,-0.996462106704712,0.0840218216180801,0.0,0.0,0.0,0.0,0.0,0.0,-0.0016502356156706,0.000964899547398,-0.9959462881088256,0.0899300202727317,-0.0001073766945619,-0.0020354942995327,-0.0005913758681144,0.0054823756217956,-0.0125775337219238,0.0105228424072265,0,0,0,0
1.3,1788437322620,0.0,0.0,-0.0015894337557256,0.0010874865110963,-0.996462106704712,0.0840218216180801,0.0,0.0,0.0,0.0,0.0,0.0,-0.0016502356156706,0.000964899547398,-0.9959462881088256,0.0899300202727317,-0.0001073766945619,-0.0020354942995327,-0.0005913758681144,0.0054823756217956,-0.0125775337219238,0.0105228424072265,0,0,0,0
1.4,1788437322720,0.0,0.0,-0.0015894337557256,0.0010874865110963,-0.996462106704712,0.0840218216180801,0.0,0.0,0.0,0.0,0.0,0.0,-0.0016502356156706,0.000964899547398,-0.9959462881088256,0.0899300202727317,-0.0001073766945619,-0.0020354942995327,-0.0005913758681144,0.0054823756217956,-0.0125775337219238,0.0105228424072265,0,0,0,0
1.5,1788437322820,0.0,0.0,-0.0015894337557256,0.0010874865110963,-0.996462106704712,0.0840218216180801,0.0,0.0,0.0,0.0,0.0,0.0,-0.0016502356156706,0.000964899547398,-0.9959462881088256,0.0899300202727317,-0.0001073766945619,-0.0020354942995327,-0.0005913758681144,0.0054823756217956,-0.0125775337219238,0.0105228424072265,0,0,0,0
1.6,1788437322920,0.0,0.0,-0.0015894337557256,0.0010874865110963,-0.996462106704712,0.0840218216180801,0.0,0.0,0.0,0.0,0.0,0.0,-0.0016502356156706,0.000964899547398,-0.9959462881088256,0.0899300202727317,-0.0001073766945619,-0.0020354942995327,-0.0005913758681144,0.0054823756217956,-0.0125775337219238,0.0105228424072265,0,0,0,0
1.7,1788437323020,0.0,0.0,-0.0015894337557256,0.0010874865110963,-0.996462106704712,0.0840218216180801,0.0,0.0,0.0,0.0,0.0,0.0,-0.0016502356156706,0.000964899547398,-0.9959462881088256,0.0899300202727317,-0.0001073766945619,-0.0020354942995327,-0.0005913758681144,0.0054823756217956,-0.0125775337219238,0.0105228424072265,0,0,0,0
1.8,1788437323120,0.0,0.0,-0.0015894337557256,0.0010874865110963,-0.996462106704712,0.0840218216180801,0.0,0.0,0.0,0.0,0.0,0.0,-0.0016502356156706,0.000964899547398,-0.9959462881088256,0.0899300202727317,-0.0001073766945619,-0.0020354942995327,-0.0005913758681144,0.0054823756217956,-0.0125775337219238,0.0105228424072265,0,0,0,0
1.9,1788437323220,0.0,0.0,-0.0015894337557256,0.0010874865110963,-0.996462106704712,0.0840218216180801,0.0,0.0,0.0,0.0,0.0,0.0,-0.0016502356156706,0.000964899547398,-0.9959462881088256,0.0899300202727317,-0.0001073766945619,-0.0020354942995327,-0.0005913758681144,0.0054823756217956,-0.0125775337219238,0.0105228424072265,0,0,0,0
2.0,1788437323320,0.0,0.0,-0.0015894337557256,0.0010874865110963,-0.996462106704712,0.0840218216180801,0.0,0.0,0.0,0.0,0.0,0.0,-0.0016502356156706,0.000964899547398,-0.9959462881088256,0.0899300202727317,-0.0001073766945619,-0.0020354942995327,-0.0005913758681144,0.0054823756217956,-0.0125775337219238,0.0105228424072265,0,0,0,0
2.1,1788437323420,0.0,0.0,-0.0015894337557256,0.0010874865110963,-0.996462106704712,0.0840218216180801,0.0,0.0,0.0,0.0,0.0,0.0,-0.0016502356156706,0.000964899547398,-0.9959462881088256,0.0899300202727317,-0.0001073766945619,-0.0020354942995327,-0.0005913758681144,0.0054823756217956,-0.0125775337219238,0.0105228424072265,0,0,0,0
2.2,1788437323520,0.0,0.0,-0.0015894337557256,0.0010874865110963,-0.996462106704712,0.0840218216180801,0.0,0.0,0.0,0.0,0.0,0.0,-0.0016502356156706,0.000964899547398,-0.9959462881088256,0.0899300202727317,-0.0001073766945619,-0.0020354942995327,-0.0005913758681144,0.0054823756217956,-0.0125775337219238,0.0105228424072265,0,0,0,0
2.3,1788437323620,0.0,0.0,-0.0015894337557256,0.0010874865110963,-0.996462106704712,0.0840218216180801,0.0,0.0,0.0,0.0,0.0,0.0,-0.0016502356156706,0.000964899547398,-0.9959462881088256,0.0899300202727317,-0.0001073766945619,-0.0020354942995327,-0.0005913758681144,0.0054823756217956,-0.0125775337219238,0.0105228424072265,0,0,0,0
2.4,1788437323720,0.0,0.0,-0.0015894337557256,0.0010874865110963,-0.996462106704712,0.0840218216180801,0.0,0.0,0.0,0.0,0.0,0.0,-0.0016502356156706,0.000964899547398,-0.9959462881088256,0.0899300202727317,-0.0001073766945619,-0.0020354942995327,-0.0005913758681144,0.0054823756217956,-0.0125775337219238,0.0105228424072265,0,0,0,0
2.5,1788437323820,0.0,0.0,-0.0015894337557256,0.0010874865110963,-0.996462106704712,0.0840218216180801,0.0,0.0,0.0,0.0,0.0,0.0,-0.0016502356156706,0.000964899547398,-0.9959462881088256,0.0899300202727317,-0.0001073766945619,-0.0020354942995327,-0.0005913758681144,0.0054823756217956,-0.0125775337219238,0.0105228424072265,0,0,0,0
2.6,1788437323920,0.0,0.0,-0.0015894337557256,0.0010874865110963,-0.996462106704712,0.0840218216180801,0.0,0.0,0.0,0.0,0.0,0.0,-0.0016502356156706,0.000964899547398,-0.9959462881088256,0.0899300202727317,-0.0001073766945619,-0.0020354942995327,-0.0005913758681144,0.0054823756217956,-0.0125775337219238,0.0105228424072265,0,0,0,0
2.7,1788437324020,0.0,0.0,-0.0015894337557256,0.0010874865110963,-0.996462106704712,0.0840218216180801,0.0,0.0,0.0,0.0,0.0,0.0,-0.0016502356156706,0.000964899547398,-0.9959462881088256,0.0899300202727317,-0.0001073766945619,-0.0020354942995327,-0.0005913758681144,0.0054823756217956,-0.0125775337219238,0.0105228424072265,0,0,0,0
2.8,1788437324120,0.0,0.0,-0.0015894337557256,0.0010874865110963,-0.996462106704712,0.0840218216180801,0.0,0.0,0.0,0.0,0.0,0.0,-0.0016502356156706,0.000964899547398,-0.9959462881088256,0.0899300202727317,-0.0001073766945619,-0.0020354942995327,-0.0005913758681144,0.0054823756217956,-0.0125775337219238,0.0105228424072265,0,0,0,0
2.9,1788437324220,0.0,0.0,-0.0015894337557256,0.0010874865110963,-0.996462106704712,0.0840218216180801,0.0,0.0,0.0,0.0,0.0,0.0,-0.0016502356156706,0.000964899547398,-0.9959462881088256,0.0899300202727317,-0.0001073766945619,-0.0020354942995327,-0.0005913758681144,0.0054823756217956,-0.0125775337219238,0.0105228424072265,0,0,0,0
3.0,1788437324320,0.0,0.0,-0.0015894337557256,0.0010874865110963,-0.996462106704712,0.0840218216180801,0.0,0.0,0.0,0.0,0.0,0.0,-0.0016502356156706,0.000964899547398,-0.9959462881088256,0.0899300202727317,-0.0001073766945619,-0.0020354942995327,-0.0005913758681144,0.0054823756217956,-0.0125775337219238,0.0105228424072265,0,0,0,0
3.1,1788437324420,0.0,0.0,-0.0015894337557256,0.0010874865110963,-0.996462106704712,0.0840218216180801,0.0,0.0,0.0,0.0,0.0,0.0,-0.0016502356156706,0.000964899547398,-0.9959462881088256,0.0899300202727317,-0.0001073766945619,-0.0020354942995327,-0.0005913758681144,0.0054823756217956,-0.0125775337219238,0.0105228424072265,0,0,0,0
3.2,1788437324520,0.0,0.0,-0.0015894337557256,0.0010874865110963,-0.996462106704712,0.0840218216180801,0.0,0.0,0.0,0.0,0.0,0.0,-0.0016502356156706,0.000964899547398,-0.9959462881088256,0.0899300202727317,-0.0001073766945619,-0.0020354942995327,-0.0005913758681144,0.0054823756217956,-0.0125775337219238,0.0105228424072265,0,0,0,0
3.3,1788437324620,0.0,0.0,-0.0015894337557256,0.0010874865110963,-0.996462106704712,0.0840218216180801,0.0,0.0,0.0,0.0,0.0,0.0,-0.0016502356156706,0.000964899547398,-0.9959462881088256,0.0899300202727317,-0.0001073766945619,-0.0020354942995327,-0.0005913758681144,0.0054823756217956,-0.0125775337219238,0.0105228424072265,0,0,0,0
3.4,1788437324720,0.0,0.0,-0.0015894337557256,0.0010874865110963,-0.996462106704712,0.0840218216180801,0.0,0.0,0.0,0.0,0.0,0.0,-0.0016502356156706,0.000964899547398,-0.9959462881088256,0.0899300202727317,-0.0001073766945619,-0.0020354942995327,-0.0005913758681144,0.0054823756217956,-0.0125775337219238,0.0105228424072265,0,0,0,0
3.5,1788437324820,0.0,0.0,-0.0015894337557256,0.0010874865110963,-0.996462106704712,0.0840218216180801,0.0,0.0,0.0,0.0,0.0,0.0,-0.0016502356156706,0.000964899547398,-0.9959462881088256,0.0899300202727317,-0.0001073766945619,-0.0020354942995327,-0.0005913758681144,0.0054823756217956,-0.0125775337219238,0.0105228424072265,0,0,0,0
3.6,1788437324920,0.0,0.0,-0.0015894337557256,0.0010874865110963,-0.996462106704712,0.0840218216180801,0.0,0.0,0.0,0.0,0.0,0.0,-0.0016502356156706,0.000964899547398,-0.9959462881088256,0.0899300202727317,-0.0001073766945619,-0.0020354942995327,-0.0005913758681144,0.0054823756217956,-0.0125775337219238,0.0105228424072265,0,0,0,0
3.7,1788437325020,0.0,0.0,-0.0015894337557256,0.0010874865110963,-0.996462106704712,0.0840218216180801,0.0,0.0,0.0,0.0,0.0,0.0,-0.0016502356156706,0.000964899547398,-0.9959462881088256,0.0899300202727317,-0.0001073766945619,-0.0020354942995327,-0.0005913758681144,0.0054823756217956,-0.0125775337219238,0.0105228424072265,0,0,0,0
3.8,1788437325120,0.0,0.0,-0.0015894337557256,0.0010874865110963,-0.996462106704712,0.0840218216180801,0.0,0.0,0.0,0.0,0.0,0.0,-0.0016502356156706,0.000964899547398,-0.9959462881088256,0.0899300202727317,-0.0001073766945619,-0.0020354942995327,-0.0005913758681144,0.0054823756217956,-0.0125775337219238,0.0105228424072265,0,0,0,0
3.9,1788437325220,0.0,0.0,-0.0015894337557256,0.0010874865110963,-0.996462106704712,0.0840218216180801,0.0,0.0,0.0,0.0,0.0,0.0,-0.0016502356156706,0.000964899547398,-0.9959462881088256,0.0899300202727317,-0.0001073766945619,-0.0020354942995327,-0.0005913758681144,0.0054823756217956,-0.0125775337219238,0.0105228424072265,0,0,0,0
4.0,1788437325320,0.0,0.0,-0.0015894337557256,0.0010874865110963,-0.996462106704712,0.0840218216180801,0.0,0.0,0.0,0.0,0.0,0.0,-0.0016502356156706,0.000964899547398,-0.9959462881088256,0.0899300202727317,-0.0001073766945619,-0.0020354942995327,-0.0005913758681144,0.0054823756217956,-0.0125775337219238,0.0105228424072265,0,0,0,0
4.1,1788437325420,0.0,0.0,-0.0015894337557256,0.0010874865110963,-0.996462106704712,0.0840218216180801,0.0,0.0,0.0,0.0,0.0,0.0,-0.0016502356156706,0.000964899547398,-0.9959462881088256,0.0899300202727317,-0.0001073766945619,-0.0020354942995327,-0.0005913758681144,0.0054823756217956,-0.0125775337219238,0.0105228424072265,0,0,0,0
4.2,1788437325520,0.0,0.0,-0.0015894337557256,0.0010874865110963,-0.996462106704712,0.0840218216180801,0.0,0.0,0.0,0.0,0.0,0.0,-0.0016087284311652,0.0010177958756685,-0.995951771736145,0.0898690670728683,-0.0004506313270332,0.0001918982570402,0.0002195119070282,0.0117965340614318,-0.0277719497680664,0.0069513320922851,0,0,0,0
4.3,1788437325620,0.0,0.0,-0.0015894337557256,0.0010874865110963,-0.996462106704712,0.0840218216180801,0.0,0.0,0.0,0.0,0.0,0.0,-0.0015996852889657,0.0010161194950342,-0.9959498643875122,0.0898900479078292,-0.0004772049816754,0.0005539012216987,-0.0010147498986732,0.0137708783149719,0.0189030766487121,-0.0018949508666992,0,0,0,0
4.4,1788437325720,0.0,0.0,-0.0015894337557256,0.0010874865110963,-0.996462106704712,0.0840218216180801,0.0,0.0,0.0,0.0,0.0,0.0,-0.0016144653782248,0.0010022083297371,-0.9959498643875122,0.0898900032043457,0.0010464989866052,-0.0019789989884185,4.455738898298109e-05,0.0403987169265747,0.0330007076263427,0.008946418762207,0,0,0,0
4.5,1788437325820,0.0,0.0,-0.0015894337557256,0.0010874865110963,-0.996462106704712,0.0840218216180801,0.0,0.0,0.0,0.0,0.0,0.0,-0.0016196612268686,0.0010369075462222,-0.9959505796432496,0.0898815989494323,-0.000488081489129,-0.0001756633708942,0.0014719054234766,0.017023742198944,-0.0093591213226318,-0.0162954330444335,0,0,0,0
4.6,1788437325920,0.0,0.0,-0.0015894337557256,0.0010874865110963,-0.996462106704712,0.0840218216180801,0.0,0.0,0.0,0.0,0.0,0.0,-0.0016403049230575,0.0010223370045423,-0.9959483742713928,0.0899065434932708,0.0009465377594471,-0.0005751102944292,0.0018051264746849,0.0022164583206176,0.0226269960403442,0.0215263366699218,0,0,0,0
4.7,1788437326020,0.0,0.0,-0.0015894337557256,0.0010874865110963,-0.996462106704712,0.0840218216180801,0.0,0.0,0.0,0.0,0.0,0.0,-0.0016453685238957,0.001025560311973,-0.9959504008293152,0.0898841172456741,-0.0006424833459409,1.8015796081374327e-05,-0.0008206218154498,-0.0050466060638427,0.0048549175262451,-0.0252084732055664,0,0,0,0
4.8,1788437326120,0.0,0.0,-0.0015894337557256,0.0010874865110963,-0.996462106704712,0.0840218216180801,0.0,0.0,0.0,0.0,0.0,0.0,-0.0016480004414916,0.0009941812604665,-0.9959456324577332,0.0899373143911361,5.840952002930192e-05,-0.0011910324612288,0.0007425798909624,-0.0195260047912597,0.0006026029586791,-0.0054473876953125,0,0,0,0
4.9,1788437326220,0.0,0.0,-0.0015894337557256,0.0010874865110963,-0.996462106704712,0.0840218216180801,0.0,0.0,0.0,0.0,0.0,0.0,-0.0016466742381453,0.0010104551911354,-0.995944321155548,0.0899512618780136,0.0004124047997671,0.0001972044385983,-0.0003047332076316,-0.0302401185035705,0.0027323365211486,-0.0144014358520507,0,0,0,0
5.0,1788437326320,0.0,0.0,-0.0015894337557256,0.0010874865110963,-0.996462106704712,0.0840218216180801,0.0,0.0,0.0,0.0,0.0,0.0,-0.0016423976048827,0.0010004388168454,-0.9959448575973512,0.0899456366896629,4.398333923272743e-05,0.0012445598636503,0.001300313926862,-0.0050286054611206,0.0150673389434814,-0.0017719268798828,0,0,0,0
5.1,1788437326420,0.0,0.0,-0.0015894337557256,0.0010874865110963,-0.996462106704712,0.0840218216180801,0.0,0.0,0.0,0.0,0.0,0.0,-0.0016547627747058,0.0010388866066932,-0.9959450960159302,0.0899423211812973,-0.001839289772134,0.0006482278669928,-0.0016741624106695,0.0235352516174316,-0.0039125680923461,-0.0035915374755859,0,0,0,0
5.2,1788437326520,0.0,0.0,-0.0015894337557256,0.0010874865110963,-0.996462106704712,0.0840218216180801,0.0,0.0,0.0,0.0,0.0,0.0,-0.0015887022018432,0.0010408600792288,-0.9959446787834167,0.0899479687213897,-0.0007985075279738,0.0012242361606218,-0.0016624163927632,-0.0003191828727722,-0.0094078183174133,0.0071802139282226,0,0,0,0
5.3,1788437326620,0.0,0.0,-0.0015894337557256,0.0010874865110963,-0.996462106704712,0.0840218216180801,0.0,0.0,0.0,0.0,0.0,0.0,-0.0015916945412755,0.0010196669027209,-0.995945155620575,0.0899426713585853,0.0009486925153995,-0.001560869490029,0.0005831221254685,-0.0076054334640502,0.0368655920028686,0.0144996643066406,0,0,0,0
5.4,1788437326720,0.0,0.0,-0.0015894337557256,0.0010874865110963,-0.996462106704712,0.0840218216180801,0.0,0.0,0.0,0.0,0.0,0.0,-0.001598423346877,0.0010439595207571,-0.9959459900856018,0.0899335145950317,-0.0011374540486609,-0.0004895477545862,0.000390673314919,-0.0023013949394226,-0.030843436717987,-0.0072145462036132,0,0,0,0
5.5,1788437326820,0.0,0.0,-0.0015894337557256,0.0010874865110963,-0.996462106704712,0.0840218216180801,0.0,0.0,0.0,0.0,0.0,0.0,-0.0016119936481118,0.0009954255074262,-0.995945155620575,0.0899431332945823,0.0022341350802065,-0.000965325239677,0.000650026481434,-0.0080431699752807,0.0274935364723205,-0.0016727447509765,0,0,0,0
5.6,1788437326920,0.0,0.0,-0.0015894337557256,0.0010874865110963,-0.996462106704712,0.0840218216180801,0.0,0.0,0.0,0.0,0.0,0.0,-0.0016311835497617,0.0009693540632724,-0.9959425926208496,0.0899715200066566,0.0010408871894076,-0.0014905454727288,0.00064100898381,0.0112949609756469,0.0179979801177978,0.0126962661743164,0,0,0,0
5.7,1788437327020,0.0,0.0,-0.0015894337557256,0.0010874865110963,-0.996462106704712,0.0840218216180801,0.0,0.0,0.0,0.0,0.0,0.0,-0.001627080142498,0.0009544687345623,-0.9959416389465332,0.089982122182846,0.0008029334395489,-0.0001660846322911,0.0012480097397751,-0.0155816078186035,-0.0019859075546264,-0.016092300415039,0,0,0,0
5.8,1788437327120,0.0,0.0,-0.0015894337557256,0.0010874865110963,-0.996462106704712,0.0840218216180801,0.0,0.0,0.0,0.0,0.0,0.0,-0.0015834057703614,0.0009871553629636,-0.9959447383880616,0.0899479985237121,0.0002403498887828,0.0005602656155483,0.0007662190974133,-0.0056931376457214,0.0039083957672119,0.0036907196044921,0,0,0,0
5.9,1788437327220,0.0,0.0,-0.0015894337557256,0.0010874865110963,-0.996462106704712,0.0840218216180801,0.0,0.0,0.0,0.0,0.0,0.0,-0.0015965988859534,0.0010041669011116,-0.9959485530853271,0.0899047702550888,-0.0006611236370226,-0.0004833579234019,-0.0010199098996095,-0.0113105773925781,-0.022703468799591,0.0126104354858398,0,0,0,0
6.0,1788437327320,0.0,0.0,-0.0015894337557256,0.0010874865110963,-0.996462106704712,0.0840218216180801,0.0,0.0,0.0,0.0,0.0,0.0,-0.0016661128029227,0.0009871125221252,-0.9959464073181152,0.0899282842874527,5.60519711113074e-05,-0.0022965702060099,-0.0003121004882269,0.0106524229049682,0.014836311340332,0.0019502639770507,0,0,0,0
6.1,1788437327420,0.0,0.0,-0.0015894337557256,0.0010874865110963,-0.996462106704712,0.0840218216180801,0.0,0.0,0.0,0.0,0.0,0.0,-0.0016723070293664,0.0009835539385676,-0.9959459900856018,0.0899330154061317,0.0005813867552071,-0.0008722684006698,0.0019966520790608,0.0123260617256164,-0.0139803290367126,0.0090703964233398,0,0,0,0
6.2,1788437327520,0.0,0.0,-0.0015894337557256,0.0010874865110963,-0.996462106704712,0.0840218216180801,0.0,0.0,0.0,0.0,0.0,0.0,-0.001747315749526,0.0010314574465155,-0.99594247341156,0.0899686217308044,-0.000334492949096,-0.0025009770600669,0.0023911758565571,-0.0159820318222045,0.0302285552024841,-0.0051765441894531,0,0,0,0
6.3,1788437327620,0.0,0.0,-0.0015894337557256,0.0010874865110963,-0.996462106704712,0.0840218216180801,0.0,0.0,0.0,0.0,0.0,0.0,-0.0017598019912838,0.0010255593806505,-0.9959444403648376,0.0899472534656524,-0.0004092039425321,0.0001147543147086,0.0007606212349934,-0.0090507268905639,-0.0255504846572875,-0.0035104751586914,0,0,0,0
6.4,1788437327720,0.0,0.0,-0.0015894337557256,0.0010874865110963,-0.996462106704712,0.0840218216180801,0.0,0.0,0.0,0.0,0.0,0.0,-0.0017358595505356,0.0010410472750663,-0.9959436058998108,0.0899575799703598,-0.0006553152947735,0.0016298905995099,-0.0011946950335348,0.0094064474105834,0.0339877009391784,-0.0051422119140625,0,0,0,0
6.5,1788437327820,0.0,0.0,-0.0015894337557256,0.0010874865110963,-0.996462106704712,0.0840218216180801,0.0,0.0,0.0,0.0,0.0,0.0,-0.0017117746174335,0.0009994814172387,-0.995944321155548,0.0899501591920852,-0.0001127153526303,-0.00156576553492,-0.0012020971870754,0.0259737968444824,0.0080048441886901,-0.0123777389526367,0,0,0,0
6.6,1788437327920,0.0,0.0,-0.0015894337557256,0.0010874865110963,-0.996462106704712,0.0840218216180801,0.0,0.0,0.0,0.0,0.0,0.0,-0.0016934378072619,0.0010027242824435,-0.9959429502487184,0.0899652987718582,0.0005413304311794,0.0007260444513407,0.0009458797577586,-0.000603437423706,0.0241623520851135,0.002028465270996,0,0,0,0
6.7,1788437328020,0.0,0.0,-0.0015894337557256,0.0010874865110963,-0.996462106704712,0.0840218216180801,0.0,0.0,0.0,0.0,0.0,0.0,-0.0017016092315316,0.0010104989632964,-0.9959436655044556,0.0899572223424911,-0.0006714431978541,2.80556759665533e-05,0.0004208853985389,-0.0079352855682373,-0.0098333954811096,0.0163173675537109,0,0,0,0
6.8,1788437328120,0.0,0.0,-0.0015894337557256,0.0010874865110963,-0.996462106704712,0.0840218216180801,0.0,0.0,0.0,0.0,0.0,0.0,-0.001703355461359,0.0009735971689224,-0.9959437847137452,0.0899572372436523,1.092642657999749e-05,0.0011924962741248,-0.0012950999783549,0.0009611845016479,-0.0141071677207946,0.0001554489135742,0,0,0,0
6.9,1788437328220,0.0,0.0,-0.0015894337557256,0.0010874865110963,-0.996462106704712,0.0840218216180801,0.0,0.0,0.0,0.0,0.0,0.0,-0.0017033331096172,0.0009645195677876,-0.995942234992981,0.0899736657738685,-0.0001183343333059,-0.0006684495611102,-0.0002973621395653,-0.0080230832099914,-0.001657485961914,-0.0213565826416015,0,0,0,0
7.0,1788437328320,0.0,0.0,-0.0015894337557256,0.0010874865110963,-0.996462106704712,0.0840218216180801,0.0,0.0,0.0,0.0,0.0,0.0,-0.0016881413757801,0.0009459350258111,-0.9959421157836914,0.089975506067276,0.0012873055007402,-0.000578688983936,0.0010412074848687,-0.0113518834114074,0.0015023350715637,-0.0051736831665039,0,0,0,0
7.1,1788437328420,0.0,0.0,-0.0015894337557256,0.0010874865110963,-0.996462106704712,0.0840218216180801,0.0,0.0,0.0,0.0,0.0,0.0,-0.0017034141346812,0.000923529267311,-0.9959434270858764,0.0899608433246612,0.0008332241060549,-0.0006855550375828,-0.0005885418172581,-0.0080999135971069,-0.0115675926208496,0.027130126953125,0,0,0,0
7.2,1788437328520,0.0,0.0,-0.0015894337557256,0.0010874865110963,-0.996462106704712,0.0840218216180801,0.0,0.0,0.0,0.0,0.0,0.0,-0.0017146132886409,0.0008719582110643,-0.9959453344345092,0.0899405553936958,0.0009929596484971,-0.0002935819313768,0.000147556645542,-0.0084004998207092,-0.0179821848869323,0.0415067672729492,0,0,0,0
7.3,1788437328620,0.0,0.0,-0.0015894337557256,0.0010874865110963,-0.996462106704712,0.0840218216180801,0.0,0.0,0.0,0.0,0.0,0.0,-0.0016823299229145,0.0008655413985252,-0.9959415197372437,0.0899834111332893,0.0003490917333449,-9.043945475508364e-05,0.0014709983732946,0.0227730870246887,0.0142191648483276,0.0200576782226562,0,0,0,0
7.4,1788437328720,0.0,0.0,-0.0015894337557256,0.0010874865110963,-0.996462106704712,0.0840218216180801,0.0,0.0,0.0,0.0,0.0,0.0,-0.0016292184591293,0.0008688950911164,-0.9959384202957152,0.0900183171033859,0.0007655044108196,-0.0006769882975093,0.0019966006389668,0.0058683156967163,0.012458324432373,-0.0032939910888671,0,0,0,0
7.5,1788437328820,0.0,0.0,-0.0015894337557256,0.0010874865110963,-0.996462106704712,0.0840218216180801,0.0,0.0,0.0,0.0,0.0,0.0,-0.0016253730282187,0.0008718557655811,-0.9959423542022704,0.0899754166603088,-0.0001188840040064,0.0012376335821456,-0.000585991059237,-0.0193768739700317,-0.0305757522583007,0.0071706771850585,72,145,3032,4903
7.6,1788437328920,1.380281686782837,2.929577350616455,-0.0015894337557256,0.0010874865110963,-0.996462106704712,0.0840218216180801,0.0,0.0,0.0,0.0,0.0,0.0,-0.0019010854884982,0.0008220188319683,-0.9955307841300964,0.0944156572222709,0.0024553582082961,-0.0079446386581087,0.1976657184474644,1.733665943145752,0.2371497154235839,-0.1640033721923828,251,212,11207,14068
7.7,1788437329020,3.239436626434326,5.408450603485107,-0.0021589011885225,0.0012426369357854,-0.9951139092445374,0.0987022072076797,0.1194275508048667,-0.0011477492397411,2.360892670671968e-05,-0.0057491678744554,-0.0101286908611655,0.2401795834302902,-0.0017603663727641,0.0009539192542433,-0.994933545589447,0.1005148366093635,0.0131022452737715,0.0054184868674528,0.2729068080829137,0.5153591632843018,-0.1831467747688293,0.1219091415405273,100,196,13478,19667
7.8,1788437329120,4.478873252868652,6.788732528686523,-0.0009284037514589,0.0021644078660756,-0.9935483932495116,0.1133840382099151,0.1787021575210348,-0.0014175850283029,-0.0003030924233757,-0.0154462587088346,0.066466599702835,0.3402843475341797,-0.0029725134372711,8.618272840976715e-05,-0.9918392896652222,0.1274593621492386,0.1123148831524928,-0.1529013021363265,0.4325517783750843,0.0112271308898925,0.0507605075836181,-1.6107501983642578,56,92,11673,19107
7.9,1788437329220,4.056337833404541,5.85915470123291,-0.0020804014056921,0.0002250895486213,-0.9911541938781738,0.1326983720064163,0.1732465786193153,0.0071493069103125,-7.066489420922609e-05,0.0060507836751639,0.0166854467242956,0.3953012228012085,-0.0015464220196008,0.0001969756558537,-0.9894692301750184,0.1447351276874542,0.0059277256218423,0.051038509047766,0.3409962999307752,-0.0976473093032836,-0.0727967023849487,0.0106420516967773,87,43,13543,16343
8.0,1788437329320,3.7183098793029785,5.605633735656738,-0.0018251419533044,0.0003663146635517,-0.9889903664588928,0.1479683667421341,0.1682308307630292,0.008594378202477,-7.443038781571104e-06,0.0009121093899011,0.001099111395888,0.2678176462650299,-0.0014981729909777,0.0004110466688871,-0.98830246925354,0.1524989604949951,-0.0077071077316771,0.0030796718342884,0.3144107842003091,-0.1788361072540283,0.0752353072166442,0.6737394332885742,79,31,12353,14411
8.1,1788437329420,1.5492957830429075,2.169013977050781,-0.0022564809769392,0.0006515636341646,-0.9878568649291992,0.1553492397069931,0.0844063142669496,0.0013140325021039,2.71929911176952e-05,-0.009207653813064,-0.0107172252610325,0.1096252277493476,-0.0022319527342915,0.000669764354825,-0.9868546724319458,0.1615939438343048,-0.0062539158786918,0.0083358684225218,0.1075137300648015,-0.8509440422058105,-0.0170150995254516,-0.3270883560180664,8,43,2620,3397
8.2,1788437329520,-0.1690140813589096,0.0,-0.0023285886272788,0.0007026685634627,-0.98759663105011,0.15699402987957,0.0042818471984795,0.0005657352300861,7.142597818638725e-10,0.0,0.0,0.0,-0.0023425854742527,0.0006999559700489,-0.9865705370903016,0.1633178740739822,5.025917500283129e-05,0.0010513038565665,0.0089344698041418,-0.127354621887207,-0.0808521509170532,-0.2533740997314453,0,0,0,0
8.3,1788437329620,0.0,0.0,-0.0023285886272788,0.0007026685634627,-0.98759663105011,0.15699402987957,-0.007113423682838,-0.0010663103124936,-1.1015157911082911e-09,0.0,0.0,0.0,-0.0024293391034007,0.0007223207503557,-0.986689567565918,0.162595123052597,-0.0004931186421821,0.0024111626376193,-0.014312510874735,0.0416164398193359,0.0003613829612731,-0.1399507522583007,0,0,0,0
8.4,1788437329720,0.0,0.0,-0.0023285886272788,0.0007026685634627,-0.98759663105011,0.15699402987957,0.0005623314712289,0.0018842170663742,-2.4884306218586615e-10,0.0,0.0,0.0,-0.0024850843474268,0.0007094424217939,-0.9865914583206176,0.163188949227333,-0.0002842574009651,0.0020467315047648,-0.006860998553434,-0.087037444114685,0.0072965621948242,-0.0591449737548828,0,0,0,0
8.5,1788437329820,0.0,0.0,-0.0023285886272788,0.0007026685634627,-0.98759663105011,0.15699402987957,0.0004034191151061,0.0004296561298734,-1.1165599183085023e-09,0.0,0.0,0.0,-0.0025772079825401,0.0006745290011167,-0.9865778684616088,0.1632697284221649,0.0004249119957917,-0.0018556404497697,0.0049299167265966,-0.0081307291984558,0.0641846656799316,0.0236549377441406,0,0,0,0
8.6,1788437329920,0.0,0.0,-0.0024452900979667,0.0007075266912579,-0.987566351890564,0.1571820676326751,0.0006943214859043,-0.0007944359384318,-2.8859336387989605e-10,-0.0009491426171734,-0.0047950600273907,0.007959802635014,-0.0025516021996736,0.0006965762004256,-0.9865841269493104,0.1632319688796997,0.0010748703485491,0.001690222221004,0.0038003194788828,-0.0003764033317565,0.0322388410568237,0.0074100494384765,0,0,0,0
8.7,1788437330020,0.0,0.0,-0.0024452900979667,0.0007075266912579,-0.987566351890564,0.1571820676326751,0.0,0.0,0.0,0.0,-9.717491700200752e-09,0.0,-0.0024892417713999,0.0007163463160395,-0.9865849614143372,0.1632279306650161,9.09118841848042e-05,0.0016848911710852,0.0010440792501151,0.011673092842102,0.0324533581733703,-0.0051660537719726,0,0,0,0
8.8,1788437330120,0.0,0.0,-0.0024452900979667,0.0007075266912579,-0.987566351890564,0.1571820676326751,0.0,0.0,0.0,0.0,-9.900355202319132e-09,0.0,-0.0025037480518221,0.0006715236231684,-0.9865906834602356,0.1631936877965927,0.0014654597488627,0.0018557164350383,-8.214719406672811e-05,-0.0085068345069885,0.0136842727661132,-0.0106067657470703,0,0,0,0
8.9,1788437330220,0.0,0.0,-0.0024452900979667,0.0007075266912579,-0.987566351890564,0.1571820676326751,0.0,0.0,0.0,0.0,-4.144001142236675e-09,0.0,-0.0024887910112738,0.0006985403597354,-0.9865933060646056,0.1631775498390197,-0.000912110380536,-7.307776920115872e-05,-0.0016203347709816,0.0080236792564392,0.0068961977958679,0.0199136734008789,0,0,0,0
9.0,1788437330320,0.0,0.0,-0.0024452900979667,0.0007075266912579,-0.987566351890564,0.1571820676326751,0.0,0.0,0.0,0.0,-9.705344083954516e-09,0.0,-0.0025125043466687,0.000676579773426,-0.9865946173667908,0.1631696671247482,5.387729883870022e-05,-0.0040634060761597,-0.0026233254244764,0.4367539286613464,0.0765437483787536,0.0399837493896484,59,78,2677,3276
9.1,1788437330420,3.7183098793029785,4.901408672332764,-0.002306064357981,0.0008527877507731,-0.9871273040771484,0.1599180847406387,0.0961512280351448,0.0020997455852814,-2.004508558346448e-05,-0.0051974561065435,0.0137191582471132,0.0865917801856994,-0.0022731330245733,0.0009095920249819,-0.9857799410820008,0.1680238246917724,-0.0024631361446481,-0.0006654673595054,0.1281012000593798,0.4942728877067566,-0.2666787505149841,0.2438583374023437,119,178,13952,15598
9.2,1788437330520,4.591549396514893,5.77464771270752,-0.0028739792760461,0.0008299170294776,-0.9861347675323486,0.1659194827079773,0.1633906637529956,0.0034414329396077,5.455788184129124e-05,1.000999691314064e-05,-0.0244850385934114,0.1277965456247329,-0.0029242234304547,0.0006767259910702,-0.984728753566742,0.1740700602531433,0.0157763372856076,0.0057175992666058,0.1632374057386017,0.0937688946723938,-0.1897488236427307,-1.8466591835021973,74,109,15520,18219
9.3,1788437330620,4.760563373565674,5.267605781555176,-0.0043668830767273,0.0005186545313335,-0.9845834374427797,0.1748604029417038,0.1813849812936653,0.004065053742344,0.0001535495536873,-0.001090744161047,-0.0404037237167358,0.1569453328847885,-0.0039169257506728,0.0005014017224311,-0.9832352995872498,0.1822989135980606,0.0076974793759619,0.0372294072389653,0.1662206701094347,-0.164990484714508,-0.1234378814697265,-0.8388290405273438,55,68,15584,15653
9.4,1788437330720,4.788732528686523,5.211267471313477,-0.0043854406103491,5.184358451515436e-05,-0.983439326286316,0.1811846643686294,0.1729253344429543,0.0018923478628247,-3.116978252431992e-05,0.0086382739245891,-0.0168494209647178,0.0990348532795906,-0.0046835085377097,-6.365496665239334e-05,-0.9822565913200378,0.187483549118042,0.0047013721319941,-0.0783870813370265,0.063030999602502,0.5309178233146667,-0.369876503944397,0.5295381546020508,112,45,15629,14993
9.5,1788437330820,5.183098793029785,5.014084339141846,-0.0036066391039639,0.000382340629585,-0.983447790145874,0.1811555027961731,0.1711029964482434,0.0007012091870655,-3.2312669516064054e-05,-0.0044298693537712,0.0058169746771454,-0.0122310267761349,-0.0034643895924091,0.0005951272323727,-0.9824012517929076,0.1867497563362121,-0.0068073193176991,0.0217007629182083,-0.0107016635101735,0.2330778241157531,-0.1208222508430481,1.8553791046142576,66,87,15028,15416
9.6,1788437330920,4.929577350616455,4.985915660858154,-0.0018242915393784,0.000862515065819,-0.9836039543151855,0.1803305447101593,0.1718343731731149,0.000678452746025,-0.0001519823584184,0.0061826799064874,0.0535417236387729,-0.0089336475357413,-0.0007735770195722,0.0011606346815824,-0.9825366139411926,0.1860644817352295,-0.0045432986376538,0.0618545258057009,-0.0058285721023761,0.0957327485084533,-0.0239266157150268,-1.235722541809082,104,111,15741,15825
9.7,1788437331020,4.704225540161133,5.183098793029785,0.0010992382885888,0.0013619069941341,-0.9834272265434264,0.1812943667173385,0.1787064986968023,0.0002602949996557,-0.0002197869779366,-0.0010663098655641,0.007819602265954,0.0336433127522468,0.0006135525181889,0.0013157576322555,-0.982274889945984,0.1874404698610305,-0.0050480814545255,-0.1092412007353954,0.0401625531551945,-0.1522077322006225,-0.0045089721679687,0.1939411163330078,65,83,14063,15402
9.8,1788437331120,4.366197109222412,5.436619758605957,-4.923764208797365e-05,0.0010391953401267,-0.9832735657691956,0.182131826877594,0.1652302134745807,-0.0006871961452143,9.072250968597732e-05,0.002244442468509,-0.0168614070862531,0.008214789442718,-0.0005890745669603,0.0012163138017058,-0.9819138050079346,0.1893235146999359,-0.0194902895795754,-0.0412046580017528,0.0529741068309223,-0.155824601650238,-0.0676713585853576,-0.1115598678588867,35,126,14298,17724
9.9,1788437331220,4.366197109222412,5.6619720458984375,0.0009044880280271,0.0024743857793509,-0.9822547435760498,0.1875331103801727,0.1644631051215439,0.000247908641455,-9.060771141800383e-05,-0.0420739129185676,0.0643647313117981,0.1554478853940963,0.0012914314866065,0.0029225330799818,-0.9807185530662536,0.1953996121883392,-0.0466597338467658,0.0781961087036594,0.1494833221674271,0.114975094795227,-0.2461561560630798,0.3461599349975586,85,131,14473,17600
10.0,1788437331320,5.126760482788086,5.408450603485107,-0.0004201541887596,0.0002953285293187,-0.9803640842437744,0.1971953362226486,0.1865502464028393,0.0006313806271914,0.0002530296204885,0.0599300004541873,-0.0453913323581218,0.2437525689601898,-5.713198333978653e-05,0.0014033801853656,-0.9801181554794312,0.1984098553657531,0.0815167061172631,-0.1093732449850563,0.2055534212409276,0.2395057082176208,-0.2564214468002319,0.5759830474853516,59,33,14354,14459
10.1,1788437331420,5.098591327667236,5.126760482788086,-0.0015574798453599,-0.0013885169755667,-0.979647696018219,0.2007142007350921,0.1751595196830421,-0.0022594183830036,9.420170118569024e-05,0.0398111529648304,-0.0351153761148452,0.0683026909828186,-0.001719657331705,-0.0015843855217099,-0.9784327745437622,0.2065524756908416,0.0628580944355408,-0.0765965954416767,0.0809395073520942,0.1024463176727294,0.1481096744537353,0.2915992736816406,155,35,15230,14858
10.2,1788437331520,5.070422649383545,5.070422649383545,-0.0017123230500146,-0.0015342122642323,-0.9795586466789246,0.2011457681655883,0.1667412095662873,-9.746890105279928e-05,2.8517556343157605e-10,-0.0011264322092756,-0.0104481074959039,-0.0237926803529262,-0.0017476808279752,-0.0015482492744922,-0.9785022139549256,0.2062232792377472,0.0142865265458914,-0.0098973030898427,-0.0521408080446911,0.0069649815559387,0.0508849620819091,-0.0104236602783203,157,42,16600,13888
10.3,1788437331620,5.6619720458984375,4.816901206970215,-0.0019412863766774,-0.001206561573781,-0.980553925037384,0.1962367445230484,0.1659837238991686,-0.0008730346812036,3.114139239185301e-05,-0.0064566386863589,-0.0139351077377796,-0.1171022206544876,-0.0020355591550469,-0.0011250078678131,-0.9795053601264954,0.201404795050621,-0.0150261558340349,-0.0244961601332669,-0.0741095999624943,0.2721115946769714,0.1922317147254943,1.6513853073120115,80,136,14600,15462
10.4,1788437331720,5.014084339141846,4.957746505737305,-0.0024775164201855,-0.0008183611789718,-0.981145679950714,0.1932521015405655,0.1667573283670714,0.0010712060246431,4.659343062940871e-05,-0.0107932249084115,-0.0227479059249162,-0.0674082860350608,-0.0032973913475871,-0.0008927872404456,-0.9803977012634276,0.1969992816448211,-0.006590917394589,-0.010261608428537,-0.0707224660120478,0.0947901010513305,0.296453595161438,0.2812795639038086,103,78,15952,15004
10.5,1788437331820,5.408450603485107,4.901408672332764,-0.003269558539614,-0.0008814734173938,-0.981560468673706,0.1911217719316482,0.1743313382026802,-0.0003562367315224,0.0001300263020089,-0.0030354186892509,-0.0247837249189615,-0.0680697634816169,-0.0037207016721367,-0.0003561787307262,-0.9809135794639589,0.1944086849689483,-0.0251023463834885,-0.0192276325090872,-0.0955022078408237,-0.0551201701164245,0.1615831851959228,0.7299299240112305,56,86,15013,15216
10.6,1788437331920,5.126760482788086,4.929577350616455,-0.0060121887363493,0.0019379758741706,-0.9827533960342408,0.1848134845495224,0.1691712713647485,-0.0039259635709601,5.70291221168327e-05,-0.0909083038568496,-0.0393385738134384,-0.0945781990885734,-0.0050361827015876,0.0008210679516196,-0.9813907146453856,0.1919539123773574,-0.0856935303621882,-0.0122038711321363,-0.0756495283433301,-0.2459594011306762,0.0669772624969482,-1.4362878799438477,121,93,15244,15287
10.7,1788437332020,5.070422649383545,5.267605781555176,-0.0044367280788719,0.0025859498418867,-0.9826104640960692,0.1856081336736679,0.1720515061339342,0.0030399780652416,-0.0001418178262865,-0.0143711976706981,0.036634162068367,0.0120570324361324,-0.0036655776202678,0.0029841996729373,-0.9814023971557616,0.1919038146734237,-0.0170160268978136,0.0752965742571585,0.0397781200662449,-0.2942109704017639,0.1885884404182434,-1.0230674743652344,100,121,14429,16921
10.8,1788437332120,4.760563373565674,5.323943614959717,-0.0036259551998227,0.0032865267712622,-0.9822360277175904,0.1875856965780258,0.167450941243642,0.0040916487435464,8.50545335227415e-08,-0.0127145238220691,0.0200694724917411,0.0550495535135269,-0.0037222253158688,0.003237422555685,-0.9807900190353394,0.1950040459632873,0.0045664360557225,-0.02693035719775,0.0765328076728622,-0.0909475088119506,0.2475708127021789,-1.6622371673583984,99,92,15159,16272
10.9,1788437332220,4.901408672332764,5.042253494262695,-0.0041951364837586,0.0034098925534635,-0.9815426468849182,0.1911670714616775,0.1767413862692479,0.0027198777077496,7.522324908176791e-05,-0.0078482590615749,-0.0176658648997545,0.0607139579951763,-0.0040471637621521,0.0037508262321352,-0.9800424575805664,0.1987115293741226,-0.0178244733048419,0.007646986515062,0.0732656065330712,0.0749224424362182,0.0871683955192565,0.9005289077758789,109,105,14952,17010
11.0,1788437332320,4.704225540161133,5.211267471313477,-0.0042553967796266,0.0036830336321145,-0.9810453057289124,0.1936967223882675,0.1728550860207116,0.0029369230606309,3.439169897106155e-05,-0.002815093146637,-0.0060837250202894,0.0457722432911396,-0.0040471637621521,0.0037508262321352,-0.9800424575805664,0.1987115293741226,-0.0178244733048419,0.007646986515062,0.0732656065330712,0.0749224424362182,0.0871683955192565,0.9005289077758789,120,49,16393,15046
11.1,1788437332420,4.985915660858154,4.901408672332764,-0.005042100790888,0.0039431727491319,-0.9807898998260498,0.194962203502655,0.1771023391507832,-0.0018766466434247,5.320563115852378e-05,-0.0138130476698279,-0.0189331099390983,0.0124860256910324,-0.0050860866904258,0.0045843720436096,-0.9796468019485474,0.2006122022867202,-0.034721588808495,0.0206006388053908,-0.0214631177808994,-0.2389852404594421,-0.3392308354377746,-1.462244987487793,71,142,15810,16570
11.2,1788437332520,4.957746505737305,5.267605781555176,-0.0049659451469779,0.0046868892386555,-0.9809359312057496,0.1942110955715179,0.1790066350000275,0.0060224711602778,-2.8987010485516236e-09,0.0416454188525676,-0.0540654323995113,0.0181639119982719,-0.0055755386129021,0.0034519899636507,-0.9794582724571228,0.2015401870012283,0.0672112879498241,-0.0650702534014396,0.1169853497484089,-0.165522038936615,0.2957132458686828,1.012594223022461,95,44,15761,15264
11.3,1788437332620,4.985915660858154,5.042253494262695,-0.0049861315637826,0.0036340099759399,-0.9805386066436768,0.1962292492389679,0.17099325245204,0.0016127348825566,7.994539923671501e-05,-0.0013082970399409,-0.0099177658557891,0.0054088123142719,-0.0048550143837928,0.0035870382562279,-0.9793902039527892,0.2018869221210479,0.0050356411587782,0.0243605717080581,-0.0205166835199523,-0.4329732060432434,0.0541349649429321,0.571721076965332,123,69,14636,16366
11.4,1788437332720,5.323943614959717,5.126760482788086,-0.0034132893197238,0.0037946593947708,-0.980540096759796,0.1962525397539138,0.1688693613250902,0.0035682510210643,-5.940156482160684e-05,0.0005526458262465,0.0426022484898567,0.0057364301756024,-0.0031553348526358,0.0038265846669673,-0.9793067574501038,0.2023206353187561,-0.0037600823235482,0.0327275292257892,0.0240513291739298,-0.19259774684906,-0.0935346484184265,-0.1041479110717773,56,96,13469,16479
11.5,1788437332820,4.704225540161133,5.098591327667236,-0.0034309246111661,0.0038012966979295,-0.9800190925598145,0.1988372504711151,0.173609720411012,0.0013771236713142,0.0002488549130381,-0.0050898599438369,-0.0654319375753402,0.06572987139225,-0.0035870149731636,0.0041078403592109,-0.9785265922546388,0.206048384308815,-0.0157934960812169,-0.0337576624516624,0.0392632983673854,0.1051495671272277,0.0192869305610656,2.0227537155151367,143,119,15490,16635
11.6,1788437332920,5.126760482788086,5.239436626434326,-0.0026569371111691,0.0045269913971424,-0.9795873165130616,0.2009505033493042,0.1768023338481382,-0.0001401003387475,-0.0001530845342712,-0.0149014964699745,0.0393295921385288,0.0547604598104953,-0.0019022254273295,0.0049423575401306,-0.97821706533432,0.2075170129537582,-0.0148734376280805,0.0529734885656966,0.0401051565173798,-0.0984059572219848,-0.1545377373695373,-0.3607807159423828,55,86,13952,16162
11.7,1788437333020,5.211267471313477,4.985915660858154,-0.0013135799672454,0.0052816933020949,-0.9789844155311584,0.2038625031709671,0.1724673646880209,0.0012485014912036,-9.730840649729065e-05,-0.0041077812202274,0.0251305289566516,0.0614495165646076,-0.0011238884180784,0.0053033819422125,-0.9775921702384948,0.2104381918907165,0.0007635986668318,0.0208319964153017,0.0657071005551906,-0.0483978986740112,0.0750806927680969,0.8985738754272461,185,43,15947,14791
11.8,1788437333120,5.492957592010498,4.985915660858154,-0.001456455560401,0.0049887280911207,-0.978695034980774,0.2052536755800247,0.1860375994962665,-0.000467027041541,3.2611620529324434e-05,0.0063971932977437,-0.005512180738151,0.0200156662613153,-0.0020014271140098,0.0048445556312799,-0.9774569272994996,0.2110701948404312,-0.0095607006082259,-0.0234262785788707,-0.0222053181322787,-0.0327933430671691,-0.0745900273323059,0.5156106948852539,110,41,14963,14315
11.9,1788437333220,4.816901206970215,4.8450703620910645,-0.0032837311737239,0.0036201733164489,-0.9790345430374146,0.2036358565092086,0.1729849869821915,0.0016438325396662,0.0002367748109429,0.0280546266585588,-0.0522607043385505,-0.0360722579061985,-0.0024575758725404,0.0039624748751521,-0.9779107570648192,0.2089710235595703,-0.0215449349388729,0.1010862276537914,-0.040791781497335,-0.1258072853088379,0.2043923139572143,-0.7015314102172852,100,106,17360,14830
12.0,1788437333320,5.605633735656738,4.873239517211914,-0.0026557510718703,0.0039371699094772,-0.9796996116638184,0.2004148364067077,0.17441274139298,0.0002322614909545,-2.594165706358964e-05,0.0147588774561882,0.0106458123773336,-0.0713969990611076,-0.0031215855851769,0.0042021255940198,-0.9781593680381776,0.2077905088663101,-0.0249051005073512,-0.0395502936065779,-0.0803880735670247,0.1313871145248413,-0.5671712756156921,0.4443902969360351,84,91,14737,15090
12.1,1788437333420,4.8450703620910645,5.070422649383545,-0.0012501368764787,0.003190949326381,-0.9802547097206116,0.197709247469902,0.1652010580776559,0.0020542450791669,-3.147856937398066e-05,0.0232648644596338,0.0239623486995697,-0.0550279505550861,-0.0008592261001467,0.0031155440956354,-0.979206383228302,0.2028411030769348,0.0043539153249176,0.0288172840444739,-0.0381755075552667,0.2873361110687256,-0.0322166681289672,-1.381098747253418,80,121,16311,15614
12.2,1788437333520,5.295774459838867,4.957746505737305,-0.0008178793359547,0.0031173194292932,-0.980333685874939,0.1973209083080291,0.1749434334953168,-0.0024883666390389,-9.811544091879834e-05,0.0065234727226197,0.0170129686594009,-0.0163698401302099,-0.0004875622689723,0.0028553884476423,-0.9793091416358948,0.2023492753505706,0.0100673198476494,0.0328445274355969,-0.0243110143402091,-0.0116947889328002,-0.112231969833374,-2.12500524520874,111,74,14887,14749
12.3,1788437333620,4.929577350616455,5.239436626434326,9.603507351130249e-06,0.0026565403677523,-0.9808443784713744,0.1947749704122543,0.1687728481904558,-0.0008967105980938,-1.4091616005064096e-05,0.0158993434160947,0.0144061800092458,-0.0609459839761257,-0.0008883569389581,0.0027125347405672,-0.9799157977104188,0.1993916779756546,-0.0217393809395849,-0.0675830774980096,-0.0603751554910009,0.3420454263687134,0.0412580966949462,-0.0823431015014648,35,167,13082,16581
12.4,1788437333720,5.211267471313477,5.267605781555176,0.0010563698597252,0.0039488235488533,-0.9811509847640992,0.1931996196508407,0.1604391750416061,0.000507271051761,-0.0001944079785128,-0.0250129606574773,0.0519762709736824,-0.0121441055089235,0.0014202957972884,0.0035052169114351,-0.9799448251724244,0.1992335319519043,0.0563173692252786,0.0432557983437909,0.0159751098789571,0.1844684481620788,-0.6173191070556641,0.7152853012084961,54,70,16038,15689
12.5,1788437333820,5.239436626434326,4.929577350616455,0.0004060047212988,0.0016073227161541,-0.9806548357009888,0.1957376450300216,0.1738168137157301,0.0032534559887218,-3.753519123185148e-05,0.0169120356440544,0.0142358932644128,0.0496128387749195,0.0007221875712275,0.0016086883842945,-0.9795891642570496,0.2010022550821304,0.0031167577050884,0.0047536397355741,-0.0440048621230187,-0.5188912153244019,-0.2422099709510803,0.9763259887695312,51,60,14512,15090
12.6,1788437333920,5.323943614959717,5.126760482788086,0.0005843261023983,0.0015232340665534,-0.9808289408683776,0.1948637515306472,0.1648823559866844,0.0029629942316801,2.7873728797846825e-05,0.0026221931912004,-0.0049238558858633,-0.0186332929879426,0.0012896787375211,0.0018637618049979,-0.9797259569168092,0.2003297954797744,-0.011261769855926,0.0414199577883944,-0.0032230782904662,-0.0880181789398193,0.0770677328109741,-0.626612663269043,41,72,15265,15370
12.7,1788437334020,4.619718074798584,5.464788913726807,0.0005861768731847,0.0016907779499888,-0.980924427509308,0.1943810880184173,0.1573405539137272,-0.0016000347405601,-2.93566628200948e-09,0.0,0.0,0.0,0.0005228370428085,0.0015806406736373,-0.9798603057861328,0.1996771395206451,0.0019294508557881,-0.0035030415076751,-0.0184935740016838,0.1366979479789734,-0.0734659433364868,-0.2964754104614258,44,116,12535,17471
12.8,1788437334120,4.676056385040283,5.267605781555176,0.0003011435619555,0.0017388018313795,-0.9807737469673156,0.1951403170824051,0.1750339359428016,0.0034874929388383,1.6573500993711962e-05,-0.0105488123372197,-0.0139253493398427,0.0710906982421875,0.0004303278401494,0.0019169403240084,-0.9792572259902954,0.2026118040084839,-0.0070075424175654,0.009459340922663,0.0538954755877915,-0.1167421340942382,-0.1210473775863647,-0.8175420761108398,85,78,15219,15833
12.9,1788437334220,5.154929637908936,5.183098793029785,0.0009087201906368,0.0020834091119468,-0.9801783561706544,0.1981041878461837,0.1738285410437179,0.0016892078374909,9.647991084529682e-06,-0.0026258460711687,0.0255576260387897,0.0455373860895633,0.0016879895702004,0.0021563814952969,-0.9787580966949464,0.205000415444374,0.0062684574673415,0.0382234242841595,0.0638074500668005,0.1845054626464843,0.0017399787902832,0.849705696105957,34,73,15206,16061
13.0,1788437334320,5.239436626434326,5.098591327667236,0.002551875077188,0.0024242121726274,-0.979563295841217,0.2011052668094635,0.1803227019812678,0.0038056289332276,-2.6608447290516468e-05,0.0004365602217148,-0.0253188703209161,0.0639354661107063,0.0023236088454723,0.0023943148553371,-0.9783474206924438,0.2069426625967025,0.0048995846178418,-0.1025428515428229,0.0601942112954517,0.1912375092506408,-0.2368113398551941,-1.358236312866211,66,82,14891,15285
13.1,1788437334420,5.323943614959717,5.183098793029785,0.003509774338454,0.0027745361439883,-0.9791617393493652,0.2030325680971145,0.1749349714870818,0.0015305223265207,-8.143479076307103e-06,-0.0072690960951149,-0.0042841881513595,0.0453014336526393,0.0037669474259018,0.0029616216197609,-0.9779810309410096,0.2086389809846878,-0.0128435105973579,0.0008653957124674,0.0323125726481868,-0.0902101993560791,0.01865816116333,1.101388931274414,191,90,17451,15423
13.2,1788437334520,4.929577350616455,4.985915660858154,-0.0013465827796608,0.0018986947834491,-0.9793204069137572,0.2023023664951324,0.1727945540778106,0.0006658701415391,0.0001422039267254,-0.0019596100319176,-0.0427158251404762,-0.0535642020404338,-0.0015774322673678,0.0018627187237143,-0.9781195521354676,0.2080295383930206,-0.0060592661146912,-0.0659570801878233,-0.0460531699324304,0.3034605979919433,0.0516632199287414,-3.099772453308105,77,106,15897,15504
13.3,1788437334620,4.366197109222412,5.577464580535889,-0.0029474557377398,0.001722436863929,-0.9793128371238708,0.2023232132196426,0.1711444619583201,0.000795330513682,4.371964326693585e-05,-0.0050338641740381,-0.0264009218662977,0.0117209265008568,-0.0038433503359556,0.0014395788311958,-0.9776859283447266,0.2100320160388946,0.0075611985162794,-0.0513200355335918,0.1188965129177041,-0.2323267459869384,0.3641858100891113,-1.8955388069152832,32,108,12422,17044
13.4,1788437334720,5.098591327667236,5.126760482788086,-0.0036291554570198,0.0011192043311893,-0.97784161567688,0.2093119174242019,0.1674123322429577,0.0018133368940133,2.1920783159228945e-05,0.0115820821374654,-0.0021336583886295,0.1780059486627578,-0.0035677542909979,0.0011156508699059,-0.9763756394386292,0.2160476297140121,-0.0017714538484516,0.0066279678855517,0.1729229546578233,0.3568533658981323,0.1680718064308166,-0.2560548782348633,181,60,15370,14943
13.5,1788437334820,4.873239517211914,5.408450603485107,-0.0030101998709142,0.0005880242097191,-0.9773045778274536,0.2118167877197265,0.1716775340806393,0.0013784013760447,-6.913010141257343e-10,0.0126712042838335,0.0078039714135229,0.0254671312868595,-0.0031958762556314,9.380746632814407e-05,-0.9756801128387452,0.2191759645938873,0.0277286359809141,-0.0330369390175257,0.0873726555887819,-0.0753952860832214,0.2531929612159729,1.1234045028686523,66,54,15518,15381
13.6,1788437334920,4.760563373565674,5.295774459838867,-0.0024272319860756,0.0024772230535745,-0.9769131541252136,0.2136088460683822,0.1554667147899824,0.0002849831724648,-0.0001812695810561,-0.0574795342981815,0.0373425148427486,-0.0014987277099862,-0.0022040707990527,0.0031085070222616,-0.975667119026184,0.2192243486642837,-0.0672268807421071,0.0224996519373723,-0.0240604014704664,0.4003816843032837,0.398182213306427,0.4179944992065429,66,54,15518,15381
13.7,1788437335020,4.619718074798584,5.77464771270752,-0.0025847877841442,0.0020772942807525,-0.976612627506256,0.2149808704853058,0.1667052012694699,0.003824814521893,-4.666578783500898e-05,0.0149504551663994,-0.0101218000054359,0.0583327747881412,-0.0034084524959325,0.0012758253142237,-0.9739288687705994,0.2268244326114654,-0.0117815304508086,0.0403197156533952,0.1858684226107638,-0.1487734317779541,-0.0940484404563903,-1.2196111679077148,104,73,13412,16587
13.8,1788437335120,4.619718074798584,5.549295902252197,-0.0049310363829135,0.0010194687638431,-0.9738084077835084,0.2273147106170654,0.1605374535300795,-0.0008756936131203,2.047395664945548e-05,-0.0001399749453412,-0.0277158841490745,0.1629005223512649,-0.0046633211895823,0.0010301060974597,-0.9733587503433228,0.2292375713586807,-0.0027622459649897,-0.0864213572847762,0.1668834506722011,-0.2815788984298706,0.1667189598083496,-0.918848991394043,131,63,13673,16918
13.9,1788437335220,4.507042407989502,5.492957592010498,-0.0045284931547939,0.0013216577935963,-0.9721553921699524,0.2342896610498428,0.1684904730016215,-0.0001795920122558,-3.91660549377019e-05,-0.0006401441060006,0.0163505505770444,0.1543284803628921,-0.0051928330212831,0.0012363800778985,-0.9702816009521484,0.2419197261333465,-0.0071710718614042,-0.0388037374052076,0.1474599767947997,0.3352383971214294,-0.1122320890426635,-1.9771695137023928,75,76,14726,15798
14.0,1788437335320,5.154929637908936,4.985915660858154,-0.0046434188261628,0.0018489904468879,-0.9709967374801636,0.239040344953537,0.1748181740074501,0.0007967033505255,6.298876132872615e-05,-0.0088050402700901,-0.0136011037975549,0.0571432709693908,-0.0046746144071221,0.001835380680859,-0.9695199131965636,0.2449609339237213,-0.0031572280030624,-0.0036890193417038,0.0550609386432545,0.1536958217620849,0.0334972143173217,-0.579585075378418,143,53,15293,15481
14.1,1788437335420,5.014084339141846,5.126760482788086,-0.0046434188261628,0.0018489904468879,-0.9709967374801636,0.239040344953537,0.1660713825252864,0.0023264661642921,1.893221876015681e-09,0.0,0.0,0.0,-0.0048682121559977,0.0022068154066801,-0.969593346118927,0.2446634620428085,-0.0151198487841188,0.0007594512578575,-0.032895882884124,-0.1663980484008789,0.0213128924369812,0.2806577682495117,90,78,15584,15063
14.2,1788437335520,4.985915660858154,4.873239517211914,-0.0036640150938183,0.0016404732596129,-0.9711094498634338,0.2386007905006408,0.1640086911571974,-0.0026823716389153,-1.1634508437360364e-08,0.0088658174499869,0.0150538980960845,-0.0255315173417329,-0.0034232940524816,0.001461086794734,-0.9700207710266112,0.24299356341362,0.003202767259442,-0.0047712002522539,-0.0665225706764296,-0.0205069780349731,0.0320400595664978,0.4385461807250976,94,95,16818,14946
14.3,1788437335620,5.098591327667236,4.957746505737305,-0.0030547252390533,0.0015111935790628,-0.9718324542045592,0.2356485277414322,0.1704675877541712,0.0005585794577465,-2.178292368881073e-05,0.0029964863788336,0.0175040327012538,-0.0608512759208679,-0.0025656726211309,0.0014521898701786,-0.9706189632415771,0.2406040132045745,0.0084225285064577,0.025169339457818,-0.0376603427731026,0.1445158720016479,0.1372830867767334,1.130265235900879,117,100,16971,15492
14.4,1788437335720,5.464788913726807,4.8450703620910645,-0.0019837550353258,0.0021235193125903,-0.9723782539367676,0.2333925813436508,0.1725705843183606,0.0047506323023994,-8.526131379328152e-06,-0.0180350728332996,0.0317280739545822,-0.0660184621810913,-0.0021090377122163,0.0021056942641735,-0.9709877967834472,0.2391103506088256,-0.0111455503892281,0.0349416700044496,-0.0506139932546425,0.1893907189369201,-0.0162206292152404,-1.5822391510009766,87,64,16533,14493
14.5,1788437335820,4.985915660858154,4.929577350616455,-0.0022798578720539,0.0023299255408346,-0.972934901714325,0.2310562878847122,0.1654821927913699,-0.0002280354719856,4.806745873464202e-05,-0.0054986244067549,-0.0143450209870934,-0.0522579587996006,-0.0023626647889614,0.0023957192897796,-0.9717565178871156,0.2359620779752731,-0.0084712534389724,-0.0044021942808302,-0.0648701499633151,0.1183740496635437,-0.083429992198944,1.3111076354980469,118,71,14750,14722
14.6,1788437335920,4.788732528686523,4.901408672332764,-0.0036321799270808,0.0023874032776802,-0.9736040830612184,0.2282022535800933,0.1674363679126083,-0.0009503932921234,0.0001113368696395,-0.0070194653235375,-0.0408121272921562,-0.061289295554161,-0.0038912063464522,0.0022141486406326,-0.97236305475235,0.233431339263916,0.0114660234387217,-0.0296880844639624,-0.0523732665924139,0.0815840363502502,-0.0202404260635375,-0.2888927459716797,95,95,16024,16384
14.7,1788437336020,5.126760482788086,5.070422649383545,-0.0037843419704586,0.0020410264842212,-0.9737505316734314,0.2275772541761398,0.1674068459578079,-0.0013881897204266,-1.0572867570177004e-08,0.0,0.0,0.0,-0.0037648081779479,0.0014354363083839,-0.972421407699585,0.2331960499286651,0.0128294634879057,0.0117719551934326,0.0016819761611688,0.2157319188117981,0.1984308958053589,-0.6020879745483398,114,84,14969,15530
14.8,1788437336120,4.985915660858154,4.8450703620910645,-0.0029611377976834,0.0018491267692297,-0.9738760590553284,0.2270533591508865,0.16383683954675,0.0029055374439109,-0.0001322023551183,0.0160295981913805,0.0326836444437503,-0.0231421776115894,-0.0026628607884049,0.0020310655236244,-0.9725027680397034,0.2328672856092453,-0.015374840263764,0.0105675297261386,0.0099583554271844,-0.1432636976242065,0.2322058081626892,-1.266620635986328,53,98,15477,16719
14.9,1788437336220,5.605633735656738,5.042253494262695,-0.0012575737200677,0.0021656076423823,-0.973957359790802,0.2267172634601593,0.1740559888408206,0.0027812108379957,-0.0001303736862941,0.0253532025963068,-0.0040549519471824,-0.0031741790007799,-0.0009178919717669,0.0016414187848567,-0.972408652305603,0.2332763075828552,0.0454529504408223,0.0254253793788084,0.0682735970184813,-0.4861002564430237,0.258578896522522,2.090806007385254,69,51,14332,14363
15.0,1788437336320,5.352112770080566,4.873239517211914,0.0002968671324197,0.0019745843019336,-0.9738149642944336,0.2273333072662353,0.1762809455966261,0.0032637240956864,-5.933156417634131e-05,0.0225799921900033,0.0615532621741294,0.0266217179596424,-0.0025844871997833,0.0013992581516504,-0.972875475883484,0.2313108742237091,-0.0175151836182531,-0.1262162963287662,-0.0843640777184022,0.6210843920707703,-0.0319237112998962,-1.9858784675598145,132,63,15236,14513
15.1,1788437336420,5.464788913726807,5.070422649383545,-0.0003175037854816,0.0028392749372869,-0.9752956032752992,0.2208853065967559,0.1687644211330806,0.0012292168693265,-1.7171642531101586e-05,-0.0119766080752015,0.0195041261613369,-0.1034689918160438,0.0001595625653862,0.003077033907175,-0.9740636348724364,0.2262536436319351,-0.016847171746573,0.0770239115861306,-0.0405364426627087,-0.361028790473938,0.4248313307762146,-0.2813291549682617,66,91,16598,15508
15.2,1788437336520,4.873239517211914,4.8450703620910645,-0.0004913450102321,0.0028515495359897,-0.9754763841629028,0.2200852036476135,0.1738227703342827,0.001093237235464,1.889822708543725e-05,-0.0015516199637204,-0.0050936928018927,-0.0254139639437198,-0.0002024276182055,0.0028288392350077,-0.9745178818702698,0.2242916822433471,0.0011261823614437,0.0122039997179835,-0.0414141051079041,0.0011238455772399,-0.0293925404548645,-0.4043140411376953,74,79,16868,15108
15.3,1788437336620,5.154929637908936,4.957746505737305,-0.000261160545051,0.0025388123467564,-0.9761692881584167,0.2169951200485229,0.1752120036190793,0.0025799354408092,4.481419263276487e-05,0.0103667732328176,-0.0035866440739482,-0.0693323463201522,-7.658544927835464e-05,0.0025790696963667,-0.9748599529266356,0.2228036522865295,-0.0003300058747065,0.045646254499027,-0.050457071386283,-0.0555687546730041,0.0458050370216369,-0.3488321304321289,45,85,16034,14725
15.4,1788437336720,4.957746505737305,4.760563373565674,-0.0011486733565106,0.0018736141500994,-0.9763408303260804,0.2162263095378875,0.1802917857268504,-0.0008826958974231,8.63845541177615e-05,0.0188373923301696,-0.0415791980922222,-0.0325694344937801,-0.0017980709671974,0.0019395127892494,-0.9752798676490784,0.2209576815366745,-0.0234557985565836,-0.0058583487775787,-0.0422663127664403,-0.2335816025733947,0.1646491289138794,0.1446437835693359,39,66,16475,15123
15.5,1788437336820,5.352112770080566,4.450704097747803,-0.0015503528993576,0.0029147807508707,-0.9776042699813844,0.2104254364967346,0.1600565617081581,-0.0033293382072705,2.6755395768413183e-05,-0.0090633202344179,-0.0039222189225256,-0.0895053967833519,-0.0015665963292121,0.0029521724209189,-0.9764137864112854,0.2158817499876022,-0.0121865211807351,0.0089271428680886,-0.0894955115641548,0.2213709354400634,-0.0183246731758117,0.1869268417358398,119,65,17844,14355
15.6,1788437336920,5.830986022949219,4.478873252868652,-0.0017674705013632,0.0031077049206942,-0.9790464043617249,0.203605979681015,0.1664406247007891,-0.0021266452237897,3.7495651456877713e-05,-0.0033963762689381,-0.0151349203661084,-0.1486304998397827,-0.0020363200455904,0.0029574614018201,-0.978304386138916,0.207141563296318,0.0082087350623547,-0.0161204730415409,-0.1351698457554741,-0.0340780615806579,-0.2181043028831482,-0.3362932205200195,74,104,15917,14048
15.7,1788437337020,5.943662166595459,4.450704097747803,-0.0013200736138969,0.0028465043287724,-0.9807990193367004,0.1949957460165023,0.1696411166348209,0.0007190602683871,-1.4156150384711851e-05,0.0076786950230598,0.0032759530004113,-0.1458621770143509,-0.0015157088637351,0.0027193147689104,-0.9798945784568788,0.1994917094707489,0.0059854603082905,-0.0197623345556081,-0.1296840744056453,0.0856707692146301,0.0089908242225646,0.2031021118164062,50,109,17852,13614
15.8,1788437337120,4.535211086273193,5.098591327667236,-0.0014290038961917,0.0031445110216736,-0.9821531772613524,0.1880510300397873,0.1728675688719886,0.0031260305871618,4.1662589178719696e-05,-0.0145856710150837,-0.0169736500829458,-0.1557691544294357,-0.0020016748458147,0.003209781832993,-0.9813994765281676,0.1919394731521606,-0.0163543465181472,-0.050157228457576,-0.1624761740049085,0.1220518946647644,-0.011446475982666,2.018979072570801,49,158,15338,16863
15.9,1788437337220,4.619718074798584,5.436619758605957,-0.0017848638817667,0.003237007651478,-0.9827650785446168,0.1848223954439163,0.1787827660187519,-0.0023588080189013,8.392038029321909e-05,-0.0066858679056167,-0.0133791528642177,-0.1369665116071701,-0.0025167819112539,0.00368935149163,-0.9817289113998412,0.1902326345443725,-0.0394640558378649,-0.0421572053373622,-0.0043225548751858,-0.4946950674057007,0.6851666569709778,0.8406038284301758,48,79,14737,15776
16.0,1788437337320,4.563380241394043,5.295774459838867,-0.0017848638817667,0.003237007651478,-0.9827650785446168,0.1848223954439163,0.1787827660187519,-0.0023588080189013,8.392038029321909e-05,-0.0066858679056167,-0.0133791528642177,-0.1369665116071701,-0.0026533138006925,0.0028969449922442,-0.980251133441925,0.1977175623178482,0.0111304800607222,-0.0483917769981986,0.0719888191432252,0.188716173171997,0.0001615285873413,-1.032501220703125,102,58,15487,16069
16.1,1788437337420,4.929577350616455,5.014084339141846,-0.0017848638817667,0.003237007651478,-0.9827650785446168,0.1848223954439163,0.1787827660187519,-0.0023588080189013,8.392038029321909e-05,-0.0066858679056167,-0.0133791528642177,-0.1369665116071701,-0.002473609521985,0.0030356105417013,-0.9800626635551452,0.1986499428749084,-0.0066386481721146,0.0135413844684941,0.0643147513766656,0.1780969500541687,0.0086790919303894,-0.062601089477539,51,81,14898,15976
16.2,1788437337520,4.647887229919434,5.464788913726807,-0.0017281187465414,0.0048085483722388,-0.9812265038490297,0.1927911788225174,0.157697394362145,0.0016190944986214,-0.0001762715782168,-0.037502359598875,0.0401800833642482,-0.0133953550830483,-0.0029430240392684,0.0030632372945547,-0.979730784893036,0.2002740055322647,0.0561354910994982,-0.044643271178039,0.1064754822123795,-0.2120827436447143,0.4587496519088745,1.896212577819824,16,149,13581,17367
16.3,1788437337620,5.154929637908936,5.352112770080566,-0.0033786322455853,0.0032852008007466,-0.9806693196296692,0.1956158131361007,0.174842769285761,0.0081510740933543,-2.2956517762208536e-05,-0.0019061965867877,-0.017781838774681,0.0823201909661293,-0.0028444239869713,0.0026416601613163,-0.978586196899414,0.2058008164167404,0.0247382900526842,-0.0173018726520672,0.1584877950196725,0.0060546398162841,0.3463406562805176,1.190093994140625,125,41,13837,15233
16.4,1788437337720,4.8450703620910645,5.267605781555176,-0.0026962866540998,0.0026236034464091,-0.9791738390922546,0.2029886394739151,0.1699155278470947,0.001811945239904,-4.537732814071574e-05,0.0089391143992543,0.0004201936535537,0.0556466020643711,-0.0026146592572331,0.0025534592568874,-0.9779163002967834,0.2089648842811584,0.0149952008167594,0.0021104672205176,0.0439103136703721,0.0625630617141723,-0.1809641122817993,0.6229734420776367,99,90,16496,15433
16.5,1788437337820,4.985915660858154,5.352112770080566,-0.0031910177785903,0.0025215782225131,-0.9786698818206788,0.2053989917039871,0.1703766619540856,0.0018316748433313,3.859060591070807e-05,-0.000887575559318,-0.0132141439244151,0.0528103224933147,-0.0031794374808669,0.0025096256285905,-0.9774749875068665,0.2110125869512558,-0.0016399511539703,-0.0151634062991,0.0514476100814742,-0.2828285098075866,-0.0662132501602172,2.0295562744140625,127,81,14604,15506
16.6,1788437337920,5.380281925201416,5.042253494262695,-0.0031981661450117,0.0026340475305914,-0.978289008140564,0.2072038799524307,0.1729970937876892,0.0027401569298163,-2.7040657216264183e-06,-0.0003618698683567,0.0010178950615227,0.0237016938626766,-0.0022672126069664,0.0029540071263909,-0.9769341349601746,0.2135082185268402,-0.0056991448920822,0.0692482852195824,0.0140974726627931,0.5134881138801575,-0.2299563288688659,-0.9036998748779296,79,82,15496,14764
16.7,1788437338020,5.380281925201416,4.8450703620910645,-0.0009720421512611,0.0035088418517261,-0.9786263704299928,0.2056142538785934,0.1746712572891722,-0.0005546910089768,0.000251804631476,-0.021914092823863,-0.069981075823307,-0.0515291988849639,-0.0005550347268581,0.0035282615572214,-0.9775360226631165,0.2107381969690323,0.0020052346529392,0.0580358639884016,-0.0721601690371844,-0.0639684200286865,0.0829770565032959,-0.9677886962890624,67,64,14763,14225
16.8,1788437338120,5.549295902252197,4.873239517211914,-0.0015960503369569,0.0036104584578424,-0.9793612360954284,0.2020792514085769,0.1585404868728222,-0.0052029145194324,-1.4323873604699125e-05,-0.0062886509113013,-0.0060127046890556,-0.0788187161087989,-0.0018678484484553,0.003770095296204,-0.9783465266227722,0.2069312036037445,-0.0207048874870337,-0.032260053361955,-0.0860183323149794,-0.0260885953903198,-0.3207388520240783,0.6782951354980469,108,83,14770,15137
16.9,1788437338220,4.704225540161133,5.295774459838867,-0.0025135311298072,0.0036116044502705,-0.9799389243125916,0.1992497891187667,0.1853100203523867,-0.0053147666722495,1.050323604975755e-05,-0.0014896433567628,-0.0014723192434757,-0.0262617655098438,-0.0026603369042277,0.0036323508247733,-0.9786583185195924,0.2054447829723358,-0.0015543229199501,-0.0165809766384474,0.0365676362569098,0.0512760281562805,-0.1059419512748718,1.171051025390625,79,89,15901,15440
17.0,1788437338320,4.647887229919434,5.183098793029785,-0.002072715666145,0.0037839855067431,-0.9795435667037964,0.2011858522891998,0.1853249467831969,0.0047600587322149,1.7708659235701256e-05,-0.0009764243150129,0.0181431695818901,0.0549381263554096,-0.0017648506909608,0.0037544276565313,-0.9782720804214478,0.2072839885950088,0.0076613066279987,0.0602926790315967,0.0306344811799289,-0.0044893622398376,-0.3240360617637634,0.9890098571777344,50,112,15490,16153
17.1,1788437338420,5.352112770080566,5.070422649383545,-0.001944056013599,0.0021098118741065,-0.9790658950805664,0.2035230994224548,0.18322388563682,0.0008969515902816,0.0001676493322023,0.0229121707379817,0.0150094488635659,0.065271109342575,-0.0013806968927383,0.0024268357083201,-0.9777386784553528,0.2098079174757003,-0.0204403822100677,0.118969976774,0.03662497597205,-0.0300963521003723,-0.4091940522193908,-2.2658557891845703,81,81,14152,15093
17.2,1788437338520,5.239436626434326,4.985915660858154,-0.0007898232433944,0.0028009668458253,-0.9789043664932252,0.204298049211502,0.1733988814299485,-0.0040710633337104,8.346600908713556e-09,-0.0060160709545016,0.0227473210543394,0.0043176347389817,0.0006091268733143,0.0034950040280818,-0.9777774214744568,0.2096156775951385,-0.0198105886942049,0.080216313622463,-0.0324454170171204,0.1337842941284179,0.0315660238265991,0.1690750122070312,142,112,14981,15987
17.3,1788437338620,5.098591327667236,4.760563373565674,0.0013640117831528,0.0035835092421621,-0.9790069460868835,0.2037906646728515,0.1840983151100901,-0.0039433271119184,-0.0001846917887828,-0.000212488710531,0.0204455070197582,-0.0006270186859183,0.0012702550739049,0.0035799015313386,-0.977764368057251,0.2096724957227707,0.0075774987842704,-0.0146659438484025,0.0130864425184859,0.027877390384674,-0.1325079202651977,1.4007797241210938,143,116,16419,15410
17.4,1788437338720,5.492957592010498,4.901408672332764,0.0016174770426005,0.0045116669498384,-0.979671835899353,0.2005494832992553,0.173230237806842,-0.0001752482775918,-0.0001494167629497,-0.0033630256075412,0.0155644854530692,-0.0985283255577087,0.0012713838368654,0.003777771256864,-0.9784723520278932,0.2063395977020263,0.068823255472462,-0.0714636087521304,-0.0115493675013183,0.0141838788986206,-0.176517903804779,1.1797637939453125,45,104,15010,15574
17.5,1788437338820,5.577464580535889,4.788732528686523,0.0008839606889523,0.0023007777053862,-0.9796558022499084,0.2006701380014419,0.1819182646910082,-0.0002775071715071,-2.7797578715465623e-05,0.0078013865277171,0.0064433217048645,-0.0459749177098274,0.0006839223206043,0.0022045066580176,-0.9786412715911864,0.2055627107620239,0.0038453131862739,-0.0278023585592257,-0.0884664442352557,-0.0030357837677001,0.0219779014587402,-0.2208242416381836,75,67,14586,14798
17.6,1788437338920,5.464788913726807,4.873239517211914,-0.0019176902715116,0.0039435299113392,-0.980782151222229,0.1950567364692688,0.1941284778784875,-0.004803431956426,0.0001905317589963,-0.0807786285877227,-0.0969313159584999,-0.1541297882795334,-0.0021621640771627,0.0036299638450145,-0.9801716208457948,0.1981057375669479,0.0279779367203839,-0.0514227420449706,-0.0640164566618967,-0.0108392238616943,-0.0588837265968322,-1.2715845108032229,51,121,14305,14840
17.7,1788437339020,5.211267471313477,4.732394218444824,-0.0012720662634819,0.0034822118468582,-0.9813226461410522,0.1923335790634155,0.16776759753169,-0.0043586326954506,-6.020428932614784e-10,0.0105311637744307,0.0143979806452989,3.881910743075423e-05,-0.0009375857189297,0.0032196948304772,-0.9802685379981996,0.1976418495178222,0.0064361576256555,0.0227975038935953,-0.0424020231572197,0.0336958169937133,-0.0341996550559997,1.004042625427246,151,111,15908,15721
17.8,1788437339120,5.6619720458984375,4.8450703620910645,-0.0009966356446966,0.003076181281358,-0.9817838072776794,0.1899741739034652,0.1816830599430257,-0.0049488374764392,-3.829577730001259e-05,0.0073493644595146,0.0030749859288334,-0.0750672742724418,-0.0005811201408505,0.0032325573265552,-0.9808257818222046,0.194859117269516,-0.0068816279665296,0.0325718317697511,-0.0498080534166751,-0.1057690382003784,-0.1505124568939209,-0.8743228912353516,65,66,14364,15376
17.9,1788437339220,4.507042407989502,5.267605781555176,-0.0011467967415228,0.0030938643030822,-0.9821438789367676,0.188102900981903,0.1800216099222031,-0.005840286921582,8.401874413320024e-06,0.0002848030126187,-0.0067131710238754,-0.0347607843577861,-0.0011870777234435,0.0029978845268487,-0.9810237288475036,0.193860724568367,0.0054993214472588,0.0009634104411893,0.0144660317766005,0.0623385906219482,0.1741162538528442,-0.2975950241088867,86,112,15791,16045
18.0,1788437339320,5.070422649383545,5.211267471313477,-0.001436261809431,0.0030894153751432,-0.9818228483200072,0.1897689700126648,0.1862467383448972,0.0001306352044363,6.745090194209217e-05,-0.0015728814760223,-0.0092991637066006,0.0542553327977657,-0.0015645800158381,0.0031281281262636,-0.9808678030967712,0.1946435421705246,-0.008402518758488,-0.0145417540693483,0.0333673594793597,-0.0611566305160522,-0.0916534662246704,-0.1761465072631836,50,100,13741,16272
18.1,1788437339420,5.126760482788086,5.014084339141846,-0.0024649947881698,0.0029420461505651,-0.9814266562461852,0.1917992383241653,0.1733766013676459,0.0047029001763721,6.962439998651872e-05,0.0020171329379081,-0.0209622159600257,0.0383300259709358,-0.002283290028572,0.0025692228227853,-0.9800529479980468,0.1987069100141525,0.0121095649788951,0.0296674393164267,0.0262621965597298,0.2444604635238647,0.1325646042823791,0.3795299530029297,116,97,15482,15740
18.2,1788437339520,5.126760482788086,4.873239517211914,-0.00262201577425,0.0025967936962842,-0.9812580347061156,0.1926630735397339,0.1816987059423845,0.0003659300746196,-1.1569127327227662e-08,0.0,0.0,0.0,-0.002484681084752,0.0027013244107365,-0.9800677299499512,0.1986297219991684,-0.0072352160503429,-0.0068645449012152,0.0014331708401068,-0.0674963593482971,-0.0302872061729431,-0.6680812835693359,49,75,16214,14931
18.3,1788437339620,4.929577350616455,4.8450703620910645,-0.0027968601789325,0.0027514279354363,-0.9813547134399414,0.1921653747558593,0.1837696444707618,-0.0031716306080609,2.8809009965841793e-09,-0.00777209084481,-0.0058445776812732,-0.0211328621953725,-0.0028592031449079,0.002800652757287,-0.9803594946861268,0.1971785128116607,0.0058236537294135,0.0051857742117882,-0.0361878776590901,0.21173757314682,-0.1895039081573486,-2.4464893341064453,44,81,16746,14899
18.4,1788437339720,5.098591327667236,4.929577350616455,-0.0021194941364228,0.0027575367130339,-0.9815547466278076,0.191149890422821,0.1787989443897616,-0.0037121230706833,1.002075763148374e-05,0.0049527017399668,0.0271957516670227,-0.0419802367687225,-0.0023431461304426,0.0024397745728492,-0.980880320072174,0.1945826560258865,0.0079726561820093,-0.1179285355530418,-0.0512587410072173,0.0422860980033874,0.3562264442443847,3.30228042602539,152,82,15859,15004
18.5,1788437339820,5.239436626434326,4.985915660858154,-0.0032946274150162,0.0023625371977686,-0.98247629404068,0.1863435357809066,0.1798413169582315,-0.006155813707681,-0.0001524628177011,-0.0023250810336321,0.0274966116994619,-0.0655283629894256,-0.0023431461304426,0.0024397745728492,-0.980880320072174,0.1945826560258865,0.0079726561820093,-0.1179285355530418,-0.0512587410072173,0.0422860980033874,0.3562264442443847,3.30228042602539,47,103,15930,14788
18.6,1788437339920,5.126760482788086,4.816901206970215,-0.0031761024147272,0.0026514076162129,-0.9830240607261658,0.1834302544593811,0.1833347236427076,-0.0041885262602932,0.0001104997767936,-0.010284655727446,0.0001362767507089,-0.0744387134909629,-0.0029930770397186,0.0036276932805776,-0.9822509288787842,0.1875130385160446,-0.056794186119816,0.0039624040295049,-0.0948487982419582,0.0134317874908447,0.1290662884712219,-0.6603450775146484,54,126,16059,15697
18.7,1788437340020,4.985915660858154,5.239436626434326,-0.0033760122023522,0.0028658332303166,-0.9836746454238892,0.1799017935991287,0.1894608194934701,0.002494015786934,-5.7658008515387965e-06,0.0350994765758514,-0.0345923602581024,-0.0530855655670166,-0.0038138898089528,0.0021476363763213,-0.9826041460037231,0.1856611967086792,0.0846262264049428,-0.0882504942114464,-0.0174859176636138,-0.0117920637130737,0.0436856150627136,0.2464723587036132,69,23,16448,13691
18.8,1788437340120,4.957746505737305,4.873239517211914,-0.0046699345111846,0.0015796619700267,-0.9843214154243468,0.1763151884078979,0.1729947539236309,-0.0021922451300815,3.44905590699448e-05,0.0089002447202801,-0.0105539271607995,-0.1002789884805679,-0.0046421028673648,0.0014578839763998,-0.983387291431427,0.1814549714326858,0.0087297868475632,0.0002138262236526,-0.0767990978915112,-0.1287526488304138,0.1985503435134887,-1.2671585083007812,79,79,16458,14777
18.9,1788437340220,4.957746505737305,4.732394218444824,-0.0040799751877784,0.0013978084316477,-0.9851959943771362,0.1713775843381881,0.1707977403405319,-0.0039354841979725,-3.189482739120341e-05,-0.0129589848220348,0.0392688810825347,-0.1213256567716598,-0.0037784902378916,0.00136524066329,-0.9847429990768432,0.1739686727523803,0.0072220404602679,0.0052588503898902,-0.1822726702478131,0.0411924719810485,-0.245790421962738,0.4289379119873047,91,172,16800,16059
19.0,1788437340320,5.014084339141846,4.873239517211914,-0.003565828083083,0.0012897027190774,-0.9859919548034668,0.1667501777410507,0.1819454444212157,-0.0038337461115972,5.847975689308244e-05,0.0018706094706431,-0.0030239250045269,-0.0421147979795932,-0.0039267241954803,0.0010971510782837,-0.9849260449409484,0.1729279458522796,0.0117033801295465,-0.0094856982532376,-0.0527483224935491,0.0539473891258239,0.3310485482215881,-0.8465919494628906,104,118,16525,15382
19.1,1788437340420,5.323943614959717,4.591549396514893,-0.003804748179391,0.0019210919272154,-0.9865410327911376,0.1634586751461029,0.1778794651361702,-0.005301316995105,5.5534000070016496e-05,-0.0164637491106987,-0.0162428654730319,-0.0792847573757171,-0.0037014978006482,0.0022080400958657,-0.9858784079551696,0.1674073636531829,-0.0104042842745286,0.0147785431930653,-0.0883840938589191,-0.0137504935264587,-0.0784360170364379,-0.6339349746704102,103,65,17518,13820
19.2,1788437340520,5.85915470123291,4.422535419464111,-0.0043939095921814,0.0026121730916202,-0.9874646663665771,0.1577576100826263,0.182777598405567,-0.0030811904007187,7.368290791891157e-06,-0.0204264372587203,-0.0191959757357835,-0.1588490158319473,-0.0051528299227356,0.0029644165188074,-0.9869868159294128,0.160691499710083,-0.0292248695142104,-0.0355299874998128,-0.1574949738880031,0.2285213470458984,-0.0197365880012512,-2.9198498725891118,35,63,16643,14028
19.3,1788437340620,5.239436626434326,4.647887229919434,-0.0033597347792237,0.002648435300216,-0.988655149936676,0.1501422822475433,0.1729668904948358,-0.0064728408763924,-0.0002184979383397,0.0271700974553823,0.0485786721110343,-0.1239556595683097,-0.0031137410551309,0.0024492889642715,-0.9880005717277528,0.1543994545936584,0.0234088333217384,0.0040513535318357,-0.1126403516612554,0.0857048034667968,0.2383396625518798,-0.798405647277832,79,58,18253,14066
19.4,1788437340720,5.802816867828369,4.450704097747803,-0.0024753960315138,0.0023787922691553,-0.989702582359314,0.1430978327989578,0.1849505630098102,-0.0036374299272444,-2.658921609685557e-05,0.0061792200431227,-0.001464215805754,-0.1536034196615219,-0.0027541341260075,0.0021815812215209,-0.9890205264091492,0.1477363854646682,0.0149416486287618,-0.0306620993462165,-0.1226114813335772,0.0198607444763183,0.2673784494400024,-1.389317512512207,106,69,15714,13976
19.5,1788437340820,5.267605781555176,4.591549396514893,-0.0025779588613659,0.0023927923757582,-0.9901419281959534,0.1400233507156372,0.1802127754396068,-0.002349950731704,5.1221210533692506e-05,-0.0014604337047785,-0.0037907972000539,-0.1292386502027511,-0.0025572506710886,0.0025610672309994,-0.9896798729896544,0.1432507783174514,-0.0120895817908626,0.0049504961215562,-0.1630572881774875,0.0388295650482177,-0.2724975347518921,-1.2092828750610352,99,89,17726,13796
19.6,1788437340920,5.267605781555176,4.619718074798584,-0.001798806944862,0.0021861728746443,-0.9917184710502625,0.1284001171588897,0.1762811823153234,-0.0011607940715983,-2.380044692005932e-05,0.0099921617656946,0.0191878825426101,-0.1614675819873809,-0.0018932707607746,0.0021357983350753,-0.991143524646759,0.1327648013830185,0.0079733068155574,0.0036149053290827,-0.157139689469915,-0.0903366208076477,0.2309466004371643,1.1914682388305664,86,65,17721,13873
19.7,1788437341020,5.070422649383545,4.901408672332764,-0.0014329857658594,0.0020848151762038,-0.9927557706832886,0.1201225668191909,0.1720421302352932,-0.0038759292037982,-8.713162817140849e-07,-0.0004272799706086,0.0208120495080947,-0.1311596184968948,-0.0012943260371685,0.0021154126152396,-0.9920761585235596,0.125613734126091,-0.0051666939562234,0.0641843009994457,-0.1047951320390025,0.1837572455406189,0.2367703914642334,-2.2857108116149902,110,106,16086,15641
19.8,1788437341120,5.070422649383545,4.873239517211914,-0.0015662281075492,0.0020773205906152,-0.9930625557899476,0.1175585836172103,0.1845225463146164,-0.0067294783343034,-2.8080427823136427e-05,0.005034468602389,0.0050366716459393,-0.0411043614149093,-0.0012914557009935,0.0020176852121949,-0.9924792051315308,0.1223903521895408,-0.0063073276813605,0.0183714040729326,-0.0407598857741292,-0.0560096502304077,0.2769361138343811,-0.4913883209228515,86,80,15977,15058
19.9,1788437341220,5.436619758605957,4.957746505737305,-0.0015970674576237,0.0020401626825332,-0.9933927059173584,0.1147353649139404,0.1733747876107863,-0.0038681921106302,7.917463203598476e-05,-0.0060413717292249,0.003425282659009,-0.045597817748785,-0.0014224685728549,0.0021710796281695,-0.9927208423614502,0.1204105764627456,-0.0283432042636774,0.0545258834315437,-0.0334711739392319,0.0691434144973754,0.209352433681488,-0.1807842254638672,54,130,12720,17168
20.0,1788437341320,4.14084529876709,5.85915470123291,-0.0011573932133615,0.0022371667437255,-0.9934293627738952,0.1144185289740562,0.1733441917298208,-0.0032825051050518,1.1480589245536574e-05,-0.0059370500966906,0.0187490563839674,-0.0129481200128793,-0.0010862369090318,0.0030842991545796,-0.9924378991127014,0.1227046772837638,-0.0148749878002379,-0.0460377287182739,0.1211923347684665,-0.3546985983848572,0.3031965494155884,-0.7320489883422852,89,185,12630,19785
20.1,1788437341420,4.563380241394043,5.549295902252197,-0.0013129852013662,0.0011474173516035,-0.9909666180610656,0.1340975165367126,0.1722781129632567,0.0098605384694896,-0.0001380455424369,0.0220454651862382,0.0498279184103012,0.2587503492832184,-0.0003419751301407,0.0017986875027418,-0.989856779575348,0.1420574337244033,-0.0210250749102097,0.0823425571382739,0.1649867913959875,0.340861976146698,0.0219773054122924,-3.7895779609680176,166,114,14367,16444
20.2,1788437341520,4.535211086273193,5.408450603485107,-0.0014213147806003,0.0005542140570469,-0.9901778697967528,0.1398047804832458,0.1720543706883225,-0.0006278770178637,0.0001390518809022,0.0267479065805673,-0.0079483222216367,0.1100188940763473,-0.0029062181711196,0.0005548680201172,-0.9888575077056884,0.1488358676433563,-0.0248788671332829,-0.0855923408263623,0.124314128591878,0.4346294403076172,0.0503814816474914,-2.422483444213867,57,70,14840,16710
20.3,1788437341620,5.014084339141846,4.929577350616455,-0.0016201731050387,0.0011735935695469,-0.9893631935119628,0.1454526931047439,0.1814985830557926,0.0052821463977941,-0.0001916398369261,-0.0156704764813184,0.0271005239337682,0.1201915591955185,-0.0008795438334345,0.0016259541735053,-0.9880447387695312,0.1541566252708435,-0.0095998057851017,0.0926866245544739,0.1156342978764943,0.5792083740234375,0.0406195521354675,-1.1940898895263672,79,74,17290,14751
20.4,1788437341720,5.154929637908936,4.929577350616455,-0.0011787946568802,0.0015821473207324,-0.9889616370201112,0.1481585651636123,0.1903851117405683,-6.622606454601114e-05,-1.993470885546006e-09,0.0,0.0,0.0,-0.001244431361556,0.0014488855376839,-0.9883182644844056,0.152392640709877,0.0091425965450301,-0.0195348744629099,-0.0483448454057589,-0.0702689886093139,0.006346583366394,0.7615795135498047,72,95,16203,14498
20.5,1788437341820,5.830986022949219,4.507042407989502,-0.0012241532094776,0.0016660767141729,-0.9893621206283568,0.1454585641622543,0.1754300812159591,-0.0042272125084671,7.456457237317379e-05,-0.0017735791625455,-0.0068988506682217,-0.0549933686852455,-0.0010686535388231,0.0017217816784977,-0.9886316061019896,0.1503442972898483,-0.0118119330869358,0.0258735023482653,-0.0902066315467204,-0.064152181148529,0.0304603576660156,0.2012586593627929,154,64,16401,13814
20.6,1788437341920,5.6619720458984375,4.563380241394043,-0.0014274893328547,0.0013608994195237,-0.9902913570404052,0.1389928162097931,0.1750334770494228,-0.0093281440727217,1.30770375602997e-05,0.0033047490287572,0.0023887092247605,-0.1583834886550903,-0.0018948642536997,0.0010314546525478,-0.9899517297744752,0.1413896381855011,0.0146996157218894,-0.035251117327814,-0.1570452694097392,-0.026828110218048,-0.2688136100769043,0.4573945999145508,41,76,16445,13852
20.7,1788437342020,5.098591327667236,4.3380279541015625,-0.0011762361973524,0.0021260993089526,-0.9914263486862184,0.1306434571743011,0.175951012057607,-0.0067055382834872,-6.506308122181153e-05,-0.0412329249083995,0.0350667387247085,-0.1924596577882766,-0.0008592829108238,0.0026308819651603,-0.9915782809257508,0.1294794529676437,0.0029222197002662,-0.0034326315240923,-0.1760855518362302,0.1873343586921692,0.2666579484939575,0.8000621795654297,104,144,18288,15066
20.8,1788437342120,5.408450603485107,4.873239517211914,-0.0006665554246865,0.0029095241334289,-0.9925940036773682,0.1214424967765808,0.1781621560699527,-0.0047058821757376,-2.8614440692398143e-05,-0.0103816073387861,0.0068786707706749,-0.1629943698644638,-0.0003816820681095,0.0029647070914506,-0.9924588799476624,0.1225421279668808,-0.0017770918000863,0.0007146790638733,-0.1251268991396519,-0.0812913179397583,0.1771333217620849,0.645294189453125,109,130,14961,15808
20.9,1788437342220,5.633802890777588,4.8450703620910645,-0.0004158062802162,0.0031121803913265,-0.993333637714386,0.1152319014072418,0.1843004699119579,-0.0023395824020875,-3.3785152232820834e-05,-0.0061787236481904,-0.0035656807012856,-0.0793331041932106,-0.001760359853506,0.0041954861953854,-0.9928474426269532,0.1193032637238502,-0.0548928687185089,-0.0620623355732198,-0.0779757261930143,-0.2492859959602356,-0.0035805702209472,1.1712074279785156,78,70,13784,15468
21.0,1788437342320,4.901408672332764,5.239436626434326,-0.001343457493931,0.0037290418986231,-0.993479311466217,0.1139435991644859,0.172747890555889,-0.0046864729585665,9.782631425626096e-09,0.0106787336990237,-0.0003165521775372,0.0154185621067881,-0.0003025224432349,0.0034075258299708,-0.9925366044044496,0.1218990534543991,0.0151358476823475,0.0679702230834386,0.1164017902331925,0.0581528544425964,-0.0879577994346618,-0.5676670074462891,111,115,14308,16392
21.1,1788437342420,5.126760482788086,5.126760482788086,-0.000221418129513,0.0030001169070601,-0.9928687810897828,0.1191745847463607,0.1735148741490276,0.0068498263107822,-7.247467070594752e-05,0.0148152969777584,0.0130958817899227,0.1186275109648704,0.000302255153656,0.00287567358464,-0.9918668270111084,0.1272472441196441,-0.0015249650059421,0.0153160309417027,0.0395077244545055,-0.1168943047523498,-0.0724935531616211,2.1084604263305664,128,63,14321,16314
21.2,1788437342520,5.014084339141846,5.154929637908936,0.0009651884902268,0.0035845621023327,-0.9925802946090698,0.1215343698859214,0.1776318723644679,-0.0008409871132697,1.9208651857830903e-06,-0.0244799237698316,0.0287164095789194,0.0258736293762922,0.0012646997347474,0.0044629070907831,-0.991853892803192,0.1272964030504226,-0.0542997055921966,0.0245376744500549,-0.0184467273204862,0.1919152736663818,0.0107600092887878,0.3344049453735351,87,116,14748,15712
21.3,1788437342620,5.154929637908936,5.042253494262695,-0.0001044859091052,0.0028008564841002,-0.9923401474952698,0.1235043033957481,0.1909129276641014,0.004050680642737,0.0003426916424369,0.0348475389182567,-0.0518402904272079,0.0624306313693523,-0.0006290236487984,0.0027723843231797,-0.9915831685066224,0.1294398605823516,0.0044309506502015,-0.0184536434947487,-0.0166338703021495,-0.0480972528457641,-0.214583158493042,-0.5123825073242188,114,72,14925,15000
21.4,1788437342720,4.873239517211914,4.985915660858154,-0.0004138631338719,0.0028281151317059,-0.9923937320709229,0.1230716407299041,0.1828142528283916,-0.0088270518551429,1.1610633407166394e-05,-0.00203482597135,-0.0035309945233166,-0.0159392189234495,-0.0007649725303053,0.0031760307028889,-0.9918502569198608,0.1273669749498367,-0.0225200099296342,0.0019998777173061,-0.0617442622273305,-0.1364036798477172,0.2272701263427734,0.5789728164672852,104,85,16957,14717
21.5,1788437342820,4.985915660858154,4.901408672332764,-0.001541482633911,0.0030981544405221,-0.9926296472549438,0.1211383417248725,0.1770055871430417,-0.0078027629641926,0.0001404896054328,0.00027584109921,-0.0247807633131742,-0.0109300641342997,-0.0008060960099101,0.0037410212680697,-0.9922347664833068,0.1243202164769172,-0.0130293421847438,0.0428117047798309,-0.065648438783946,-0.2776459455490112,0.1219538450241088,-0.270843505859375,63,73,16777,14883
21.6,1788437342920,5.014084339141846,4.957746505737305,-0.0008414023322984,0.0037622735835611,-0.9930282235145568,0.1178140565752983,0.1762015718368558,-0.0054717855158759,-2.208123150622001e-05,-0.0083510763943195,0.0098325796425342,-0.0538931116461753,-0.0005340371280908,0.003837895579636,-0.9924749135971068,0.1223869174718856,0.0024644359159253,0.0093348097376994,-0.0457089642218503,-0.0265975594520568,0.0014406442642211,0.9844017028808594,104,86,16515,14758
21.7,1788437343020,4.816901206970215,4.788732528686523,-0.0006804172880947,0.0038161755073815,-0.9933009147644044,0.115491509437561,0.1775357331159644,-0.0020178265179221,-7.383282353628495e-05,0.000893187825568,0.0075328196398913,-0.0601632446050643,-0.0005834950134158,0.0036078821867704,-0.992749571800232,0.1201460659503936,0.0128062170717038,0.0072143991330114,-0.0444477976114844,0.024428904056549,-0.1883357763290405,-0.9720335006713868,78,66,17263,15238
21.8,1788437343120,4.901408672332764,5.126760482788086,-0.00034907477675,0.0036382591351866,-0.9936021566390992,0.1128780618309974,0.182078844924587,-0.0009783977993364,-2.6239176410446707e-05,-0.000487904268084,0.007964507676661,-0.0582879707217216,0.0018747961148619,0.004011245444417,-0.9930181503295898,0.1178788170218467,-0.0048458855378647,0.1509674664872067,-0.0498851454227744,-0.1035376787185669,0.1379522085189819,0.8231563568115234,126,126,14514,16685
21.9,1788437343220,5.295774459838867,5.239436626434326,-0.0012826754245907,0.0038831494748592,-0.9935734868049622,0.1131147593259811,0.1848049109238861,0.0036673788241511,0.0003469573046279,-0.0112670380622148,-0.0972522124648094,0.0388295575976371,-0.0015228642150759,0.0044465605169534,-0.992673933506012,0.1207330077886581,-0.0336340609750411,-0.0784609564021212,0.0434844015125935,0.0418918132781982,0.3674909472465515,0.3424596786499023,27,125,11857,17579
22.0,1788437343320,4.507042407989502,5.295774459838867,-0.0003747347509488,0.00479436526075,-0.9933027029037476,0.1154408231377601,0.180598925344399,0.0043816911875146,1.6239301243884535e-05,-0.0175567120313644,0.0252296011894941,0.0366667509078979,-0.0004480695351958,0.004747305996716,-0.99220472574234,0.1245273202657699,0.0146327276857365,0.027277884435779,0.1474044792614928,-0.182363212108612,-0.0580620169639587,0.8855228424072266,80,99,15997,15772
22.1,1788437343420,4.535211086273193,5.239436626434326,-0.0001559286320116,0.0047254934906959,-0.9924840331077576,0.1222824975848198,0.1826583093088622,0.0050357527209577,-0.0001277176547872,0.002784693846479,0.013293876312673,0.1297934800386428,-0.0002693310379981,0.0046059861779212,-0.9915383458137512,0.1297322362661361,0.0079334607900332,-0.0015661349541995,0.0869930055746907,-0.2492034435272216,-0.5117126107215881,2.146982192993164,73,74,15984,15648
22.2,1788437343520,4.816901206970215,5.211267471313477,-0.0002115599927492,0.0043257903307676,-0.9920920133590698,0.1254378110170364,0.1861321528796945,0.0006395132689407,3.578655625145704e-07,0.0158324316143989,0.0099805891513824,0.0430887229740619,-0.000496351160109,0.0043633533641695,-0.991202175617218,0.1322842836380005,-0.0031597180248406,-0.0124664150811721,0.0208425002183073,0.0473707318305969,-0.0696142315864563,-2.412116050720215,49,74,15105,15770
22.3,1788437343620,4.676056385040283,5.436619758605957,-0.000246346113272,0.0040003964677453,-0.991841733455658,0.1274121701717376,0.1795825736170999,-0.0031263307186304,-5.419157199793553e-05,0.0141669735312461,-0.0017803240334615,0.0680911391973495,-0.0002195257693529,0.003235250711441,-0.990844190120697,0.1349713951349258,0.0410937293888596,-0.0212888678481223,0.0722664418430563,0.0023216605186462,-0.1558202505111694,0.6893939971923828,120,99,13537,17506
22.4,1788437343720,4.732394218444824,5.577464580535889,3.977032611146569e-05,0.0031982033979147,-0.9912622570991516,0.1318670511245727,0.1603164239480836,0.0003089841440536,-3.993712549363079e-05,-0.0126878777518868,0.0583573840558528,0.1225537210702896,0.002103803679347,0.0052288640290498,-0.9898581504821776,0.141947329044342,-0.0173361174538887,0.0655362907108693,0.0963202631523713,0.0628470182418823,-0.2491085529327392,-0.8246135711669922,61,117,13366,17765
22.5,1788437343820,4.366197109222412,5.690140724182129,0.000702031655237,0.0035270741209387,-0.990152895450592,0.1399437040090561,0.1882006926174505,0.0060804582643776,9.982960183171456e-07,0.0387284830212593,-0.0298434942960739,0.1665886640548706,0.0004916321486234,0.0031910603865981,-0.9885318875312804,0.1509778201580047,-0.0031295871498414,-0.0004195835114459,0.1731047404531943,-0.2132132649421692,-0.4684808254241943,1.6692008972167969,70,80,14441,16526
22.6,1788437343920,4.676056385040283,5.521126747131348,0.0001591807813383,0.0033489244524389,-0.9890668392181396,0.1474295854568481,0.1812720703306674,0.0070595969522837,8.493810370671737e-05,-0.0087409652769565,-0.015636209398508,0.1177798733115196,5.545653402805328e-05,0.0037005683407187,-0.987712860107422,0.1562359184026718,-0.0281530995124531,0.0046951583017958,0.1258461153500884,-0.1255449056625366,0.21570485830307,-0.9818277359008788,62,81,13259,16724
22.7,1788437344020,4.535211086273193,5.521126747131348,-0.0003837802214547,0.0040235305204987,-0.9880694150924684,0.1539560556411743,0.1735001430730919,0.003018316258319,7.977500067483609e-06,-0.0162440370768308,-0.0136735346168279,0.1507622450590133,-0.0002298848703503,0.0039688888937234,-0.9861027002334596,0.166089728474617,0.0235592754628831,0.0544356683587325,0.2115970807530766,-0.1881093978881836,0.235662043094635,2.7092056274414062,143,106,14012,17300
22.8,1788437344120,4.901408672332764,5.154929637908936,-0.0007499832427129,0.0037797468248754,-0.9866626858711244,0.1627328693866729,0.1801461707331433,0.0038500998894303,-5.393802496006516e-06,0.0121755497530102,-0.0109726972877979,0.2056677639484405,-0.0005336161702871,0.0035135950893163,-0.9848199486732484,0.1735424697399139,0.0043719222723207,0.0123712146736668,0.1137588557773234,0.1780700087547302,-0.0551083087921142,-1.153061866760254,114,61,14846,16574
22.9,1788437344220,5.183098793029785,5.267605781555176,-0.0001946318370755,0.0032831116113811,-0.985558032989502,0.1693058758974075,0.1861314074191529,0.0004083827434794,-6.421733817249375e-05,0.0109646879136562,0.0129999723285436,0.0796555951237678,0.0004631336778402,0.0030999612063169,-0.9839972853660583,0.1781559437513351,0.0107525659869945,0.060019868976758,0.124258453349094,0.0249092578887939,-0.010660707950592,0.8747634887695312,96,74,14160,15412
23.0,1788437344320,4.760563373565674,5.183098793029785,0.0004159288364462,0.0033455311786383,-0.9847943782806396,0.1736914664506912,0.1804310838023734,0.0049639115918604,-2.1371628324138544e-05,-0.0095763532444834,0.0054241912439465,0.0743297487497329,-6.499700248241425e-05,0.0034818230196833,-0.983510673046112,0.1808165162801742,-0.0102010060033162,-0.0130056885331533,0.0458929017629436,0.0532548427581787,0.2408454418182373,-2.601804733276367,108,66,14997,15335
23.1,1788437344420,4.732394218444824,5.183098793029785,0.0009518234874121,0.0036130081862211,-0.9845028519630432,0.1753289103507995,0.1748766467330629,-0.001870277005031,-0.000153272697236,-8.689163223607466e-06,0.0387769117951393,0.0249038971960544,0.0009847693145275,0.0033990424126386,-0.9832122325897216,0.1824317425489425,-0.0010053251281155,0.0040928093517456,0.0319427381932959,0.074045717716217,0.009671926498413,0.7347726821899414,50,84,14961,15438
23.2,1788437344520,4.2253522872924805,4.788732528686523,0.0011963675497099,0.003462680382654,-0.9843090772628784,0.1764149367809295,0.1743518506253677,0.0023198881584207,-1.6354671220199125e-05,-0.000822564237751,0.0058485176414251,0.0178239960223436,0.0009421342983841,0.0036080982536077,-0.982920229434967,0.183994635939598,-0.0061252758320151,-0.026783240284954,0.0455878801392497,-0.0049551725387573,0.3083294034004211,0.7480974197387695,94,64,14123,14403
23.3,1788437344620,3.633802890777588,4.309859275817871,0.0010796095011755,0.0036535314284265,-0.9837658405303956,0.1794161349534988,0.1610672963964591,0.0035031450456952,2.0031613575789822e-06,-0.0008953654323704,0.0008909120806492,0.056483119726181,0.0017619030550122,0.0036034509539604,-0.9822301864624025,0.1876375526189804,0.007858611304619,0.0144860573362225,0.0969133266454262,-0.1723804473876953,-0.2948762774467468,1.4901409149169922,81,99,13452,13561
23.4,1788437344720,3.183098554611206,2.7323944568634038,0.001574617344886,0.0036330015864223,-0.9830814003944396,0.1831264644861221,0.1445427907389972,0.0018385678433555,-2.33305905782847e-05,-0.0023262628819793,-0.0058725322596728,0.0676865428686142,0.00240776874125,0.0036059636622667,-0.9822240471839904,0.1876623034477234,0.0142347571759892,0.0286855840912368,-0.0812923726224822,-0.7665190100669861,-0.5536382794380188,-0.0840272903442382,38,69,9872,3898
23.5,1788437344820,2.901408433914185,1.94366192817688,0.002523673698306,0.0036801483947783,-0.9842028617858888,0.176988199353218,0.0890865248885211,-0.0014568567847208,-1.647122742390447e-05,-0.0015742813702672,0.0054318234324455,-0.1965860426425933,0.0026741344481706,0.0037484960630536,-0.9839321970939636,0.1784835755825042,0.0011083921214943,0.0129403483046149,-0.1997922783155812,-0.2047774791717529,-0.2055411338806152,0.2780866622924804,80,84,12585,9303
23.6,1788437344920,4.591549396514893,3.070422649383545,0.0023882701061666,0.0034915176220238,-0.9855479598045348,0.1693440526723861,0.0855957080388816,-0.0035240164731164,5.07711778883948e-06,0.0060595497488975,-0.0161076858639717,-0.1331339478492736,0.0033072158694267,0.003381454385817,-0.9854792952537536,0.1697297990322113,0.0055771204900195,0.0179146991844772,-0.1470896643166615,0.2280119657516479,0.1543633341789245,-0.55780029296875,53,105,11866,10774
23.7,1788437345020,6.2253522872924805,4.873239517211914,0.0038351560942828,0.0034322603605687,-0.9870607256889344,0.160264104604721,0.1363866501803619,-0.0027128451027225,-2.8993428745856e-05,0.0025000255554914,0.0219636764377355,-0.1604259461164474,0.0024300711229443,0.0033315531909465,-0.9866922497749328,0.1625462919473648,-0.0110791915719391,-0.1164958670888629,-0.1637907952135755,0.5119466781616211,0.1922649145126342,-5.349700927734375,103,115,15895,14570
23.8,1788437345120,5.408450603485107,4.591549396514893,0.0015709209255874,0.0037189805880188,-0.9883265495300292,0.1522968113422393,0.1786973442288871,-0.0055551542646231,0.0002595284525234,-0.0237244684249162,0.0056275851093232,-0.1741663217544555,0.0020541362464427,0.0045423386618494,-0.9881103038787842,0.1536658406257629,-0.032058872406479,-0.0019965716205425,-0.245010320130682,0.2183037996292114,-0.3529745936393738,1.3950462341308594,39,83,17444,14844
23.9,1788437345220,5.802816867828369,4.647887229919434,0.0008220997406169,0.0028375298716127,-0.989650547504425,0.1434682011604309,0.1937288723551099,-0.0065355531646156,0.0001588069117664,0.0619996935129165,-0.0645891278982162,-0.136130541563034,0.0002807695418596,0.0024030050262808,-0.9892793893814088,0.1460155397653579,-0.0075125921901759,-0.0246592949076163,-0.1379177165489783,-0.1710071563720703,-0.4999217987060547,0.5285625457763672,105,67,15446,13358
24.0,1788437345320,5.690140724182129,4.535211086273193,0.0007698291447013,0.0024693538434803,-0.9904913306236268,0.1375511139631271,0.1726972143552921,-0.0056057060686264,0.0001040997052591,0.0028176559135317,0.0002914559736382,-0.1531356573104858,0.0008051190525293,0.0021564606577157,-0.9902084469795228,0.1395780444145202,0.0152534304030983,0.0053007674509057,-0.1271313800985255,0.1347878575325012,-0.2598870396614074,-0.22149658203125,60,71,15894,13823
24.1,1788437345420,5.323943614959717,4.563380241394043,0.0007394219283014,0.0022490448318421,-0.991628110408783,0.1291045546531677,0.1757830313189242,-0.0041222783316366,5.96672364699649e-06,-0.0020032848697155,0.0063660321757197,-0.1727049648761749,0.0010067885741591,0.0022199302911758,-0.9911988973617554,0.1323587447404861,0.0043283672636791,0.0161453294127008,-0.1424570823804081,-0.0843375921249389,0.3104903101921081,0.426487922668457,62,81,17431,13976
24.2,1788437345520,5.521126747131348,4.478873252868652,-9.760874672792852e-05,0.0024862401187419,-0.9925673007965088,0.1216714978218078,0.1793378523096571,-0.0052957189717728,0.0001554546488078,-0.011941191740334,-0.0329570733010768,-0.161317691206932,-0.0006221085786819,0.002507098019123,-0.9923244714736938,0.1236347556114196,0.0004836606821417,-0.0260579717069994,-0.14391005316291,0.2063936591148376,-0.1295283436775207,-1.399372100830078,84,83,15461,13577
24.3,1788437345620,5.464788913726807,4.901408672332764,-0.0009563332423567,0.0026834995951503,-0.9934672117233276,0.1140821799635887,0.1750488742133263,-0.0062385370384167,0.0001019309252983,-0.0116769047453999,-0.0162649154663085,-0.1594560295343399,-0.0011334111914038,0.003709303215146,-0.9932172298431396,0.1162092760205268,-0.0480554364229556,-0.0156917801220387,-0.1678913787106218,0.5262982249259949,-0.6660079956054688,2.378453254699707,108,150,14736,15953
24.4,1788437345720,5.380281925201416,4.760563373565674,5.872602923773229e-05,0.0038319576997309,-0.9939754605293274,0.1095360144972801,0.1845165169432359,-0.008156425535533,-0.0001082154372007,-0.0022493365686386,0.0329318940639495,-0.0302216950803995,0.0011883825063705,0.0042140400037169,-0.9934957027435304,0.1137856990098953,-0.0196349545110137,0.0969581540840017,-0.0670044286495562,0.1923297643661499,-0.3202880620956421,0.3191595077514648,127,99,15035,15581
24.5,1788437345820,5.183098793029785,4.816901206970215,0.0008291475242003,0.0043366337195038,-0.994271755218506,0.1067900657653808,0.1813290053180335,-0.0043956850920774,-7.242153251341491e-06,-0.0091305738314986,0.0036063317675143,-0.0526821985840797,0.0016363728791475,0.0034581935033202,-0.993661880493164,0.1123457551002502,0.074123529795747,0.066698917982752,0.0036305806135447,0.2606643438339233,-0.1716989278793335,-0.7042665481567383,100,114,16751,14506
24.6,1788437345920,5.464788913726807,4.647887229919434,0.0021393538918346,0.0028680772520601,-0.9944197535514832,0.1054349616169929,0.1818381852550578,-0.00822059965741,-3.1341703312760404e-05,0.0254629850387573,0.011037990450859,-0.0508119836449623,0.0023862794041633,0.0024477867409586,-0.9940653443336488,0.1087314710021019,0.0214071929953815,0.0137068645381868,-0.1366128267604689,-0.21052086353302,-0.3045232892036438,0.1304235458374023,49,75,17524,13569
24.7,1788437346020,5.070422649383545,4.760563373565674,0.0020834342576563,0.0025215230416506,-0.995131492614746,0.0985010862350463,0.1754066094538658,-0.0061301625084745,8.694672198132227e-05,0.0002729218103922,-0.0101659232750535,-0.1584836095571518,0.0011796094477176,0.0025811726227402,-0.9950510263442992,0.0993251726031303,0.0057326299423238,0.0050009898364717,-0.1316834258856943,0.0695695877075195,0.0386440753936767,-0.6014995574951172,77,77,16232,15418
24.8,1788437346120,5.408450603485107,4.619718074798584,0.0010075069731101,0.0025946963578462,-0.9957298636436462,0.0922727584838867,0.1747593180152222,-0.0036852124157614,8.371247606507884e-05,-0.0006606447859667,-0.0081830881536006,-0.092779241502285,0.0011182250455021,0.002929788082838,-0.9953888058662416,0.0958709940314292,-0.0165451371778353,-0.001361006393765,-0.1006058712012014,-0.4058018922805786,-0.4899763464927673,0.968608856201172,123,71,17425,13790
24.9,1788437346220,5.352112770080566,4.873239517211914,0.00145077961497,0.0028152104932814,-0.996167540550232,0.087408073246479,0.1786932662654458,-0.0064641236177792,-3.206535937919338e-05,0.0040594465099275,0.0129915624856948,-0.1165501922369003,0.0015826653689146,0.002888049930334,-0.9957722425460817,0.0917976200580596,-0.0111038649635619,0.0146031835881553,-0.0530220063650712,0.0258776545524597,0.4509852528572082,-1.6816768646240234,106,103,15168,15135
25.0,1788437346320,5.408450603485107,4.788732528686523,0.0012491344241425,0.0027651714626699,-0.9963844418525696,0.0849046409130096,0.1773997577897178,-0.0008293152539254,4.329016418849964e-05,0.00131264294032,-0.0068902852945029,-0.04559813067317,0.0010654041543602,0.0026415586471557,-0.9959450960159302,0.0899183750152587,0.0122517685775899,-0.0159453927085033,-0.0458371285416227,0.0470005273818969,0.1174249649047851,0.1422739028930664,89,104,15028,15341
25.1,1788437346420,4.929577350616455,4.760563373565674,0.0006115762516856,0.0025396926794201,-0.996592104434967,0.0824450775980949,0.1776610324840387,-0.0045107828692946,6.562976903815493e-05,-0.0028381736483424,-0.0163282118737697,-0.0546899922192096,0.0010427609086036,0.0036841882392764,-0.9962676763534546,0.0862322673201561,-0.0520740166219097,0.0491631070896814,-0.0899939042560953,-0.0631549358367919,-0.0070325136184692,-0.0681428909301757,122,116,16839,16001
25.2,1788437346520,4.957746505737305,5.098591327667236,0.0008186332415789,0.0036231430713087,-0.9968489408493042,0.0792360752820968,0.1794853070318243,-0.0014736225057385,-7.964317082328775e-05,-0.0140329515561461,0.003148243529722,-0.0800307467579841,-0.0003644786775112,0.0017909612506628,-0.99628746509552,0.0860693454742431,0.0382527530442615,0.0145850952622792,0.055235050290783,0.0490158200263977,0.1977216005325317,2.5761404037475586,106,49,16847,14304
25.3,1788437346620,5.549295902252197,4.901408672332764,-8.615414844825864e-05,0.0018285758560523,-0.9969353675842284,0.0782080590724945,0.1857216480385342,-0.0002338432288996,-8.222732371001947e-05,0.0081197982653975,0.0159715004265308,-0.0688005834817886,0.0006611868739128,0.0020269285887479,-0.9965894818305968,0.0824912711977958,-0.010076372593396,0.0511179300447122,-0.0917327095256541,-0.0698608756065368,0.0680757164955139,-0.380589485168457,87,70,15212,13806
25.4,1788437346720,5.380281925201416,4.563380241394043,0.0019718289840966,0.0021417362149804,-0.9972606301307678,0.0739108994603157,0.1718636251366168,-0.0027179745203555,-0.0001317901734453,-0.0033639892935752,0.052003439515829,-0.0956187397241592,-0.0017557563260197,0.0019481536000967,-0.997156023979187,0.0753199011087417,0.0001015199094417,-0.065269653331136,-0.195841539769357,0.3089139461517334,-0.1573518514633178,-2.710524559020996,114,83,16901,14732
25.5,1788437346820,5.042253494262695,4.957746505737305,-0.0016320426948368,0.0019441726617515,-0.9978217482566832,0.0659190267324447,0.1796502215406508,-0.0056414433648297,-2.7005068061659007e-05,0.0003214343742001,-0.0126778110861778,-0.1914310753345489,-0.0021587572991847,0.0022213626652956,-0.9976326823234558,0.0686985626816749,-0.0093105715128656,-0.0269106174940041,-0.086212266180195,-0.1401960253715515,0.0552572011947631,1.3796253204345703,30,104,16395,15245
25.6,1788437346920,5.295774459838867,4.563380241394043,-0.0017659538425505,0.0021904858294874,-0.9980977773666382,0.0615867525339126,0.178112544867679,-0.0051862277713585,-4.5701533509246846e-05,0.0025732179637998,0.0162041150033473,-0.0611526221036911,-0.0020974772050976,0.0020805085077881,-0.997850775718689,0.0654608756303787,0.0016758531868391,-0.0130807057489378,-0.0913026727164767,0.1502262353897094,-0.4241546988487243,0.1571435928344726,113,83,17583,13930
25.7,1788437347020,5.830986022949219,4.732394218444824,-0.0014779545599594,0.001837704796344,-0.998463213443756,0.0553677789866924,0.1765300962003139,-0.0067232173733296,-3.5549798190997416e-05,0.0099277719855308,0.0231433641165494,-0.1357357949018478,-0.0010928269475698,0.0015540951862931,-0.9983603358268738,0.0572101920843124,0.0114118231483757,0.0277383405777619,-0.141894698717983,-0.1001494526863098,-0.1943829655647277,-0.8805694580078125,123,57,15830,13220
25.8,1788437347120,5.408450603485107,4.507042407989502,6.69579894747585e-05,0.0012040570145472,-0.9988369345664978,0.0482013076543808,0.172263685285071,-0.0071307099677702,-0.0001092514584927,0.0193405020982027,0.0538584887981414,-0.1599776893854141,0.000212606973946,0.0009627835825085,-0.9987729787826538,0.0495135299861431,-0.000343536244974,-0.0178429820050617,-0.1703285431154426,-0.1473414897918701,-0.0661852955818176,-0.6054830551147461,71,62,17449,14027
25.9,1788437347220,5.323943614959717,4.563380241394043,0.0002096426032949,0.0008062996203079,-0.9991944432258606,0.0401230789721012,0.1744146435162642,-0.0038304269395648,-4.7782188899980325e-05,0.0071820723824203,-0.0004328635113779,-0.1606575846672058,0.0009862715378403,0.0006266925483942,-0.9990980625152588,0.0424465350806713,0.0115701512007312,0.040204498738418,-0.1518127057709121,0.0629786849021911,0.1675445437431335,0.0058708190917968,77,88,17617,13994
26.0,1788437347320,5.88732385635376,4.507042407989502,0.0005984829040244,0.0011415788903832,-0.9994811415672302,0.0321846902370452,0.1781301588759457,-0.005454800060523,1.856008343679638e-05,-0.0193326007574796,-0.006285969633609,-0.1764103174209594,-5.634315311908722e-05,0.0021627005189657,-0.9995101094245912,0.0312228463590145,-0.0189568659857173,0.0073325064758366,-0.2103166369019271,-0.1598284840583801,-0.1913478970527649,0.7484645843505859,103,83,15437,14413
26.1,1788437347420,5.239436626434326,4.535211086273193,-0.0012470359215512,0.0019466998055577,-0.9997423887252808,0.0225793235003948,0.1891165913910301,-0.0069813028756282,0.0001787221739132,-0.0008861487731337,-0.0409331396222114,-0.1511204242706298,0.0011171223595738,0.0016317022964358,-0.9996737241744996,0.0254682283848524,0.0150726383120828,0.1107855710160867,-0.1162508041488461,-0.0267497897148132,0.0269334316253662,-2.537787437438965,89,67,17416,13970
26.2,1788437347520,5.070422649383545,4.816901206970215,0.001420647255145,0.0016796453855931,-0.9998712539672852,0.0158918872475624,0.1674137487311659,-0.0072382846495157,-2.1136269104127025e-05,0.0017964680446311,0.0264357607811689,-0.1538790762424469,0.0023649921640753,0.0017876867204904,-0.99983811378479,0.0177461560815572,-0.0063350828219119,0.0577129588227353,-0.145214544747637,0.0381768345832824,0.1358479857444763,-0.4754915237426758,84,128,16230,15706
26.3,1788437347620,4.957746505737305,4.901408672332764,0.0019862616900354,0.0020248664077371,-0.99994695186615,0.0098968371748924,0.1879994549768211,-0.0041033699646813,4.243576516605747e-05,-0.0112474998459219,-0.0087228007614612,-0.0965576097369194,0.001513066701591,0.0020084884017705,-0.9998870491981506,0.0148225575685501,0.0079062524368893,-0.0149337950496548,-0.0242336688781903,0.1152896285057067,0.1316066980361938,-1.8998384475708008,82,97,16157,15201
26.4,1788437347720,4.957746505737305,4.957746505737305,0.0018448092741891,0.0019818083383142,-0.9999573230743408,0.0088335406035184,0.1800572543655737,0.0007630107093588,-1.70986747906029e-05,0.0009790484327822,0.002984246937558,-0.0081404969096183,0.0017039161175489,0.0021955026313662,-0.9998969435691832,0.0140884490683674,0.0040238013041251,-0.0281958919060091,-0.0271728475000696,0.2384287118911743,-0.256893515586853,1.157979965209961,102,91,16440,15062
26.5,1788437347820,4.676056385040283,5.070422649383545,0.0030541578307747,0.0034863776527345,-0.9999679327011108,0.0065304194577038,0.170916107159931,-0.0077612310144545,-0.0001195661164506,-0.055267721414566,0.0410508811473846,-0.0832438170909881,0.0030069928616285,0.0036478070542216,-0.9999273419380188,0.0110960835590958,0.0099784759026301,-0.0111831089083342,-0.0580157794329444,0.1553040742874145,-0.192341923713684,-1.0993671417236328,77,149,16398,16256
26.6,1788437347920,4.8450703620910645,5.070422649383545,0.001981436042115,0.0024298767093569,-0.999971866607666,0.0068179853260517,0.1876358575751138,-0.0022160474854644,0.0001961656352706,0.0266296677291393,-0.0126752145588397,0.0554644204676151,0.0017666881904006,0.0023478893563151,-0.9999130964279176,0.0128581188619136,0.0021156614965332,-0.0293191178961418,-0.0113812473556069,-0.0564815402030944,-0.4963043332099914,0.4316663742065429,84,55,15757,15106
26.7,1788437348020,5.380281925201416,4.957746505737305,0.0021663233637809,0.0027023355942219,-0.9999755024909972,0.0060736243613064,0.1727253188495018,-0.003444558362055,-3.366538447029029e-05,-0.0110052544623613,0.0076933284290134,-0.0303771402686834,0.0023450581356883,0.0030481405556201,-0.9999297857284546,0.0112061602994799,-0.0017094304473645,-0.0160623795642341,-0.0209488160413473,-0.010876715183258,-0.1821739673614502,0.2242155075073242,103,77,15074,14779
26.8,1788437348120,5.577464580535889,5.014084339141846,0.0024018010590225,0.0028665333520621,-0.9999762177467346,0.0057977307587862,0.175352893905512,-0.0068160561398963,1.7792975530235082e-08,0.0,0.0,0.0,0.0021364837884902,0.0031120926141738,-0.9999438524246216,0.0099074970930814,-0.0101358002956847,0.0067326388985565,-0.0615140869870567,-0.0309260487556457,-0.1319579482078552,-0.6270256042480469,91,76,14687,14576
26.9,1788437348220,4.985915660858154,4.929577350616455,0.0020775599405169,0.0034477782901376,-0.9999887943267822,0.0024978739675134,0.1812670450614772,-0.0035847912688295,1.013470875678784e-05,-0.0102223707363009,-0.0060785757377743,-0.0459885634481906,0.0023137219250202,0.0038578025996685,-0.9999711513519288,0.0061335265636444,-0.0056259201110351,0.0189740208398228,-0.0795362310786582,-0.1647058725357055,-0.249664306640625,1.3160858154296875,41,83,16512,14834
27.0,1788437348320,5.098591327667236,4.929577350616455,-0.0024055612739175,-0.0035335950087755,0.9999906420707704,0.0007014647126197,0.1821066379836672,-0.0026443233895908,-1.8925943728609283e-05,0.010868708603084,0.0077519342303276,-0.0578729473054409,0.0032461658120155,0.0035517942160367,-0.9999797344207764,0.0041620014235377,0.0055537104434383,0.0501640614163055,-0.0348778982418686,-0.0564233660697937,0.0225225687026977,0.2683067321777344,43,92,16118,14818
27.1,1788437348420,4.957746505737305,4.816901206970215,-0.0049647325649857,-0.0035993980709463,0.999978244304657,0.0024482104927301,0.1834440222516988,-0.0047554615575807,-0.0001683883882842,-0.0022066051606088,0.0802392810583114,-0.0329460240900516,0.0032457979395985,0.0038704350590705,-0.9999831318855286,0.0028941156342625,-0.0127040139297153,-0.1128003551178906,-0.0166018825268495,0.1362438201904297,-0.3779516816139221,3.230719566345215,45,59,16581,15202
27.2,1788437348520,5.154929637908936,4.901408672332764,-0.004824096802622,-0.0036367746070027,0.999975323677063,0.0035871916916221,0.1718623263923107,0.0009082251369108,-0.0001117663494116,0.0053728856146335,0.0548308193683624,-0.023368576541543,0.0036620330065488,0.0041263531893491,-0.9999828934669496,0.0019300673156976,-0.0436285050400082,-0.1300031398287896,-0.0230187976675269,-0.0531287193298339,-0.2351436614990234,0.4719800949096679,44,69,16046,14806
27.3,1788437348620,4.985915660858154,4.929577350616455,-0.004969316534698,-0.0039473734796047,0.9999667406082152,0.0051372814923524,0.1837619878211252,-0.0054604371271994,-0.0001440930771014,0.0007740840082988,0.0286044254899024,-0.0354143194854259,-0.0047112498432397,-0.0041452944278717,0.999980330467224,0.0001898761838674,-0.0141499113291386,-0.0181873637122368,-0.056688913307345,-0.0595539212226867,-0.0965738892555236,-0.3050193786621094,42,85,16584,14624
27.4,1788437348720,5.295774459838867,4.591549396514893,-0.0051182666793465,-0.0040444605983793,0.9999449849128724,0.0082161519676446,0.1810851904510992,-0.0026801312435346,-2.478362310580634e-05,-0.0012036791304126,0.0090497098863124,-0.065856784582138,-0.0047219609841704,-0.0039323074743151,0.9999725818634032,0.0041397418826818,0.0008047086365037,-0.0215968710332663,-0.0805052601934395,0.1229356527328491,-0.0706915855407714,-0.4252567291259765,97,61,17817,13476
27.5,1788437348820,5.408450603485107,4.507042407989502,-0.0054904096759855,-0.0040002246387302,0.9998832941055298,0.0136826755478978,0.1745484712801824,-0.0031221005112082,-8.221064072457493e-05,-0.0032736700959503,0.027680791914463,-0.1622566729784011,-0.0057658432051539,-0.00404545199126,0.9998975396156312,0.0124609488993883,0.0054873932601823,0.0093097157400692,-0.1793102540407431,0.0298878550529479,-0.2480400800704956,-1.4546804428100586,114,67,17334,13930
27.6,1788437348920,5.943662166595459,4.507042407989502,-0.0066225151531398,-0.0039643845520913,0.9997185468673706,0.0224312450736761,0.1724623602906789,-0.0037254744272964,-6.286777398071998e-05,0.0031811967492103,0.0363219752907753,-0.1767149269580841,-0.0071396986022591,-0.0040923226624727,0.9996941685676576,0.0233227740973234,-0.010141849020725,-0.0155198115165253,-0.1928684442425215,0.1273185014724731,0.1374297142028808,-0.0972795486450195,84,61,14726,14649
27.7,1788437349020,4.929577350616455,4.676056385040283,-0.0068809855729341,-0.0048865051940083,0.999433696269989,0.0325727052986621,0.1823564764589826,-0.0050025126784801,4.698186418377293e-05,-0.0281780138611793,-0.0133403735235333,-0.1787964105606079,-0.00752195995301,-0.0053550945594906,0.9995331168174744,0.0291281752288341,0.0233196412049668,0.0548224748369162,-0.044279494188838,-0.1290518045425415,-0.5370943546295166,1.239293098449707,29,149,15928,16103
27.8,1788437349120,5.154929637908936,5.070422649383545,-0.0087892515584826,-0.0064994883723556,0.9992951154708862,0.035914447158575,0.1684864475944363,-0.0057446277930042,-0.0001579389538412,-0.048694472759962,0.0713407546281814,-0.0543696731328964,-0.0090119829401373,-0.0064480947330594,0.9994716644287108,0.0305541567504405,0.0408224530792621,-0.0023449981178153,0.0047349185358447,-0.0555139183998107,-0.3670045137405395,0.414215087890625,34,70,15720,15332
27.9,1788437349220,5.183098793029785,4.8450703620910645,-0.0057138283737003,-0.0048951939679682,0.9993641972541808,0.0348528027534484,0.1969469670728376,-0.0060123663633536,0.0005417846026968,0.0597186759114265,-0.1194555833935737,0.0564239062368869,-0.0056590046733617,-0.0054338183254003,0.9995185732841492,0.0300197023898363,-0.0589727112394531,-0.0319327703031434,-0.1064538794128284,-0.0857508778572082,-0.3854697346687317,-1.6578645706176758,37,87,15594,14779
28.0,1788437349320,5.126760482788086,4.816901206970215,-0.0049549057148396,-0.0048547452315688,0.9992207884788512,0.0388564132153987,0.172386262462423,-0.0051559490400894,-5.003709390527606e-05,0.0058502736501395,-0.0023643032182008,-0.0831810683012008,-0.0051910616457462,-0.0047553833574056,0.999393343925476,0.0341100245714187,-0.0052954710974979,0.0109224897282151,-0.0293638025274342,0.1828051805496215,0.0287657380104064,0.4912033081054687,41,88,15812,15202
28.1,1788437349420,5.267605781555176,4.957746505737305,-0.0049894927069544,-0.0045883180573582,0.9991477131843568,0.0407182686030864,0.182912003560227,-0.0044714270022868,-5.2149006257492935e-05,0.0060050538741052,-0.0051470813341438,-0.0319357551634311,-0.0048662042245268,-0.0046497574076056,0.999339997768402,0.035696268081665,-0.0038081405362256,0.0016645757101035,-0.029859339420348,-0.1241254210472107,0.0527871847152709,2.211753845214844,57,70,14384,15696
